"rt","responses","time_elapsed","subject","prolificID","demoID","trialType","stimulus","key_press","corrresp","phase","stimNum","trialNum","corr","repeatTrial","motorSwitch","pracCounter","hierarchy"
"17003","{""Q0"":""msl000595""}","17030","HierDye43xj118","qe9dh1xz33","msl000595","","","","","","","","","","","",""
"860","","17899","HierDye43xj118","qe9dh1xz33","msl000595","","","","","","","","","","","",""
"","","19877","HierDye43xj118","qe9dh1xz33","msl000595","fullscreen","","","","","","","","","","",""
"38718","","58604","HierDye43xj118","qe9dh1xz33","msl000595","","","","","","","","","","","",""
"1017","","59628","HierDye43xj118","qe9dh1xz33","msl000595","motor","img/motor_5.png","72","72","motor","5","1","1","0","0","",""
"47","","59738","HierDye43xj118","qe9dh1xz33","msl000595","iti","img/motor_blank.png","74","72","motor","","","","","","",""
"630","","60378","HierDye43xj118","qe9dh1xz33","msl000595","motor","img/motor_6.png","74","74","motor","6","2","1","0","0","",""
"null","","60488","HierDye43xj118","qe9dh1xz33","msl000595","iti","img/motor_blank.png","null","74","motor","","","","","","",""
"744","","61241","HierDye43xj118","qe9dh1xz33","msl000595","motor","img/motor_4.png","70","70","motor","4","3","1","0","0","",""
"null","","61353","HierDye43xj118","qe9dh1xz33","msl000595","iti","img/motor_blank.png","null","70","motor","","","","","","",""
"714","","62076","HierDye43xj118","qe9dh1xz33","msl000595","motor","img/motor_8.png","76","76","motor","8","4","1","0","0","",""
"null","","62185","HierDye43xj118","qe9dh1xz33","msl000595","iti","img/motor_blank.png","null","76","motor","","","","","","",""
"865","","63059","HierDye43xj118","qe9dh1xz33","msl000595","motor","img/motor_2.png","83","83","motor","2","5","1","0","0","",""
"null","","63168","HierDye43xj118","qe9dh1xz33","msl000595","iti","img/motor_blank.png","null","83","motor","","","","","","",""
"484","","63660","HierDye43xj118","qe9dh1xz33","msl000595","motor","img/motor_2.png","83","83","motor","2","6","1","0","0","",""
"null","","63771","HierDye43xj118","qe9dh1xz33","msl000595","iti","img/motor_blank.png","null","83","motor","","","","","","",""
"645","","64425","HierDye43xj118","qe9dh1xz33","msl000595","motor","img/motor_7.png","75","75","motor","7","7","1","0","0","",""
"null","","64533","HierDye43xj118","qe9dh1xz33","msl000595","iti","img/motor_blank.png","null","75","motor","","","","","","",""
"805","","65346","HierDye43xj118","qe9dh1xz33","msl000595","motor","img/motor_4.png","70","70","motor","4","8","1","0","0","",""
"null","","65453","HierDye43xj118","qe9dh1xz33","msl000595","iti","img/motor_blank.png","null","70","motor","","","","","","",""
"639","","66102","HierDye43xj118","qe9dh1xz33","msl000595","motor","img/motor_3.png","68","68","motor","3","9","1","0","0","",""
"null","","66211","HierDye43xj118","qe9dh1xz33","msl000595","iti","img/motor_blank.png","null","68","motor","","","","","","",""
"652","","66872","HierDye43xj118","qe9dh1xz33","msl000595","motor","img/motor_6.png","74","74","motor","6","10","1","0","0","",""
"null","","66983","HierDye43xj118","qe9dh1xz33","msl000595","iti","img/motor_blank.png","null","74","motor","","","","","","",""
"543","","67534","HierDye43xj118","qe9dh1xz33","msl000595","motor","img/motor_3.png","68","68","motor","3","11","1","0","0","",""
"null","","67645","HierDye43xj118","qe9dh1xz33","msl000595","iti","img/motor_blank.png","null","68","motor","","","","","","",""
"421","","68075","HierDye43xj118","qe9dh1xz33","msl000595","motor","img/motor_6.png","74","74","motor","6","12","1","0","0","",""
"null","","68185","HierDye43xj118","qe9dh1xz33","msl000595","iti","img/motor_blank.png","null","74","motor","","","","","","",""
"445","","68638","HierDye43xj118","qe9dh1xz33","msl000595","motor","img/motor_3.png","68","68","motor","3","13","1","0","0","",""
"null","","68748","HierDye43xj118","qe9dh1xz33","msl000595","iti","img/motor_blank.png","null","68","motor","","","","","","",""
"395","","69150","HierDye43xj118","qe9dh1xz33","msl000595","motor","img/motor_6.png","74","74","motor","6","14","1","0","0","",""
"null","","69259","HierDye43xj118","qe9dh1xz33","msl000595","iti","img/motor_blank.png","null","74","motor","","","","","","",""
"477","","69744","HierDye43xj118","qe9dh1xz33","msl000595","motor","img/motor_5.png","72","72","motor","5","15","1","0","0","",""
"null","","69854","HierDye43xj118","qe9dh1xz33","msl000595","iti","img/motor_blank.png","null","72","motor","","","","","","",""
"422","","70284","HierDye43xj118","qe9dh1xz33","msl000595","motor","img/motor_6.png","74","74","motor","6","16","1","0","0","",""
"null","","70394","HierDye43xj118","qe9dh1xz33","msl000595","iti","img/motor_blank.png","null","74","motor","","","","","","",""
"640","","71046","HierDye43xj118","qe9dh1xz33","msl000595","motor","img/motor_1.png","65","65","motor","1","17","1","0","0","",""
"null","","71155","HierDye43xj118","qe9dh1xz33","msl000595","iti","img/motor_blank.png","null","65","motor","","","","","","",""
"446","","71611","HierDye43xj118","qe9dh1xz33","msl000595","motor","img/motor_1.png","65","65","motor","1","18","1","0","0","",""
"null","","71720","HierDye43xj118","qe9dh1xz33","msl000595","iti","img/motor_blank.png","null","65","motor","","","","","","",""
"950","","72678","HierDye43xj118","qe9dh1xz33","msl000595","motor","img/motor_6.png","74","74","motor","6","19","1","0","0","",""
"null","","72789","HierDye43xj118","qe9dh1xz33","msl000595","iti","img/motor_blank.png","null","74","motor","","","","","","",""
"674","","73472","HierDye43xj118","qe9dh1xz33","msl000595","motor","img/motor_2.png","83","83","motor","2","20","1","0","0","",""
"null","","73582","HierDye43xj118","qe9dh1xz33","msl000595","iti","img/motor_blank.png","null","83","motor","","","","","","",""
"477","","74069","HierDye43xj118","qe9dh1xz33","msl000595","motor","img/motor_4.png","70","70","motor","4","21","1","0","0","",""
"null","","74179","HierDye43xj118","qe9dh1xz33","msl000595","iti","img/motor_blank.png","null","70","motor","","","","","","",""
"710","","74898","HierDye43xj118","qe9dh1xz33","msl000595","motor","img/motor_5.png","72","72","motor","5","22","1","0","0","",""
"null","","75007","HierDye43xj118","qe9dh1xz33","msl000595","iti","img/motor_blank.png","null","72","motor","","","","","","",""
"559","","75577","HierDye43xj118","qe9dh1xz33","msl000595","motor","img/motor_8.png","76","76","motor","8","23","1","0","0","",""
"null","","75687","HierDye43xj118","qe9dh1xz33","msl000595","iti","img/motor_blank.png","null","76","motor","","","","","","",""
"504","","76200","HierDye43xj118","qe9dh1xz33","msl000595","motor","img/motor_2.png","83","83","motor","2","24","1","0","0","",""
"null","","76311","HierDye43xj118","qe9dh1xz33","msl000595","iti","img/motor_blank.png","null","83","motor","","","","","","",""
"619","","76939","HierDye43xj118","qe9dh1xz33","msl000595","motor","img/motor_2.png","83","83","motor","2","25","1","0","0","",""
"null","","77051","HierDye43xj118","qe9dh1xz33","msl000595","iti","img/motor_blank.png","null","83","motor","","","","","","",""
"517","","77577","HierDye43xj118","qe9dh1xz33","msl000595","motor","img/motor_4.png","70","70","motor","4","26","1","0","0","",""
"null","","77686","HierDye43xj118","qe9dh1xz33","msl000595","iti","img/motor_blank.png","null","70","motor","","","","","","",""
"412","","78110","HierDye43xj118","qe9dh1xz33","msl000595","motor","img/motor_4.png","70","70","motor","4","27","1","0","0","",""
"null","","78220","HierDye43xj118","qe9dh1xz33","msl000595","iti","img/motor_blank.png","null","70","motor","","","","","","",""
"513","","78743","HierDye43xj118","qe9dh1xz33","msl000595","motor","img/motor_5.png","72","72","motor","5","28","1","0","0","",""
"null","","78853","HierDye43xj118","qe9dh1xz33","msl000595","iti","img/motor_blank.png","null","72","motor","","","","","","",""
"457","","79320","HierDye43xj118","qe9dh1xz33","msl000595","motor","img/motor_7.png","74","75","motor","7","29","0","1","0","",""
"411","","79740","HierDye43xj118","qe9dh1xz33","msl000595","motorRepeat","img/motor_7.png","75","75","motor","7","29","1","0","0","",""
"null","","79848","HierDye43xj118","qe9dh1xz33","msl000595","iti","img/motor_blank.png","null","75","motor","","","","","","",""
"611","","80467","HierDye43xj118","qe9dh1xz33","msl000595","motor","img/motor_2.png","83","83","motor","2","30","1","0","0","",""
"null","","80577","HierDye43xj118","qe9dh1xz33","msl000595","iti","img/motor_blank.png","null","83","motor","","","","","","",""
"532","","81120","HierDye43xj118","qe9dh1xz33","msl000595","motor","img/motor_8.png","76","76","motor","8","31","1","0","0","",""
"null","","81229","HierDye43xj118","qe9dh1xz33","msl000595","iti","img/motor_blank.png","null","76","motor","","","","","","",""
"585","","81824","HierDye43xj118","qe9dh1xz33","msl000595","motor","img/motor_4.png","70","70","motor","4","32","1","0","0","",""
"null","","81933","HierDye43xj118","qe9dh1xz33","msl000595","iti","img/motor_blank.png","null","70","motor","","","","","","",""
"392","","82335","HierDye43xj118","qe9dh1xz33","msl000595","motor","img/motor_4.png","70","70","motor","4","33","1","0","0","",""
"null","","82443","HierDye43xj118","qe9dh1xz33","msl000595","iti","img/motor_blank.png","null","70","motor","","","","","","",""
"530","","82982","HierDye43xj118","qe9dh1xz33","msl000595","motor","img/motor_2.png","83","83","motor","2","34","1","0","0","",""
"null","","83092","HierDye43xj118","qe9dh1xz33","msl000595","iti","img/motor_blank.png","null","83","motor","","","","","","",""
"472","","83573","HierDye43xj118","qe9dh1xz33","msl000595","motor","img/motor_7.png","75","75","motor","7","35","1","0","0","",""
"null","","83683","HierDye43xj118","qe9dh1xz33","msl000595","iti","img/motor_blank.png","null","75","motor","","","","","","",""
"574","","84266","HierDye43xj118","qe9dh1xz33","msl000595","motor","img/motor_2.png","83","83","motor","2","36","1","0","0","",""
"null","","84375","HierDye43xj118","qe9dh1xz33","msl000595","iti","img/motor_blank.png","null","83","motor","","","","","","",""
"469","","84852","HierDye43xj118","qe9dh1xz33","msl000595","motor","img/motor_7.png","75","75","motor","7","37","1","0","0","",""
"null","","84962","HierDye43xj118","qe9dh1xz33","msl000595","iti","img/motor_blank.png","null","75","motor","","","","","","",""
"604","","85576","HierDye43xj118","qe9dh1xz33","msl000595","motor","img/motor_6.png","74","74","motor","6","38","1","0","0","",""
"null","","85686","HierDye43xj118","qe9dh1xz33","msl000595","iti","img/motor_blank.png","null","74","motor","","","","","","",""
"675","","86370","HierDye43xj118","qe9dh1xz33","msl000595","motor","img/motor_7.png","75","75","motor","7","39","1","0","0","",""
"null","","86481","HierDye43xj118","qe9dh1xz33","msl000595","iti","img/motor_blank.png","null","75","motor","","","","","","",""
"522","","87011","HierDye43xj118","qe9dh1xz33","msl000595","motor","img/motor_6.png","74","74","motor","6","40","1","0","0","",""
"null","","87121","HierDye43xj118","qe9dh1xz33","msl000595","iti","img/motor_blank.png","null","74","motor","","","","","","",""
"617","","87748","HierDye43xj118","qe9dh1xz33","msl000595","motor","img/motor_4.png","72","70","motor","4","41","0","1","0","",""
"127","","87884","HierDye43xj118","qe9dh1xz33","msl000595","motorRepeat","img/motor_4.png","70","70","motor","4","41","1","0","0","",""
"null","","87992","HierDye43xj118","qe9dh1xz33","msl000595","iti","img/motor_blank.png","null","70","motor","","","","","","",""
"541","","88542","HierDye43xj118","qe9dh1xz33","msl000595","motor","img/motor_3.png","70","68","motor","3","42","0","1","0","",""
"332","","88882","HierDye43xj118","qe9dh1xz33","msl000595","motorRepeat","img/motor_3.png","68","68","motor","3","42","1","0","0","",""
"null","","88992","HierDye43xj118","qe9dh1xz33","msl000595","iti","img/motor_blank.png","null","68","motor","","","","","","",""
"766","","89766","HierDye43xj118","qe9dh1xz33","msl000595","motor","img/motor_6.png","74","74","motor","6","43","1","0","0","",""
"null","","89873","HierDye43xj118","qe9dh1xz33","msl000595","iti","img/motor_blank.png","null","74","motor","","","","","","",""
"432","","90314","HierDye43xj118","qe9dh1xz33","msl000595","motor","img/motor_5.png","72","72","motor","5","44","1","0","0","",""
"null","","90424","HierDye43xj118","qe9dh1xz33","msl000595","iti","img/motor_blank.png","null","72","motor","","","","","","",""
"411","","90845","HierDye43xj118","qe9dh1xz33","msl000595","motor","img/motor_4.png","70","70","motor","4","45","1","0","0","",""
"null","","90955","HierDye43xj118","qe9dh1xz33","msl000595","iti","img/motor_blank.png","null","70","motor","","","","","","",""
"510","","91473","HierDye43xj118","qe9dh1xz33","msl000595","motor","img/motor_7.png","75","75","motor","7","46","1","0","0","",""
"null","","91582","HierDye43xj118","qe9dh1xz33","msl000595","iti","img/motor_blank.png","null","75","motor","","","","","","",""
"573","","92164","HierDye43xj118","qe9dh1xz33","msl000595","motor","img/motor_4.png","70","70","motor","4","47","1","0","0","",""
"null","","92273","HierDye43xj118","qe9dh1xz33","msl000595","iti","img/motor_blank.png","null","70","motor","","","","","","",""
"921","","93202","HierDye43xj118","qe9dh1xz33","msl000595","motor","img/motor_1.png","65","65","motor","1","48","1","0","0","",""
"null","","93313","HierDye43xj118","qe9dh1xz33","msl000595","iti","img/motor_blank.png","null","65","motor","","","","","","",""
"657","","93980","HierDye43xj118","qe9dh1xz33","msl000595","motor","img/motor_7.png","75","75","motor","7","49","1","0","0","",""
"null","","94089","HierDye43xj118","qe9dh1xz33","msl000595","iti","img/motor_blank.png","null","75","motor","","","","","","",""
"818","","94916","HierDye43xj118","qe9dh1xz33","msl000595","motor","img/motor_1.png","65","65","motor","1","50","1","0","0","",""
"null","","95026","HierDye43xj118","qe9dh1xz33","msl000595","iti","img/motor_blank.png","null","65","motor","","","","","","",""
"420","","95454","HierDye43xj118","qe9dh1xz33","msl000595","motor","img/motor_8.png","76","76","motor","8","51","1","0","0","",""
"null","","95562","HierDye43xj118","qe9dh1xz33","msl000595","iti","img/motor_blank.png","null","76","motor","","","","","","",""
"719","","96289","HierDye43xj118","qe9dh1xz33","msl000595","motor","img/motor_6.png","74","74","motor","6","52","1","0","0","",""
"null","","96399","HierDye43xj118","qe9dh1xz33","msl000595","iti","img/motor_blank.png","null","74","motor","","","","","","",""
"656","","97065","HierDye43xj118","qe9dh1xz33","msl000595","motor","img/motor_5.png","72","72","motor","5","53","1","0","0","",""
"null","","97173","HierDye43xj118","qe9dh1xz33","msl000595","iti","img/motor_blank.png","null","72","motor","","","","","","",""
"592","","97775","HierDye43xj118","qe9dh1xz33","msl000595","motor","img/motor_3.png","68","68","motor","3","54","1","0","0","",""
"null","","97885","HierDye43xj118","qe9dh1xz33","msl000595","iti","img/motor_blank.png","null","68","motor","","","","","","",""
"534","","98428","HierDye43xj118","qe9dh1xz33","msl000595","motor","img/motor_7.png","75","75","motor","7","55","1","0","0","",""
"null","","98538","HierDye43xj118","qe9dh1xz33","msl000595","iti","img/motor_blank.png","null","75","motor","","","","","","",""
"368","","98914","HierDye43xj118","qe9dh1xz33","msl000595","motor","img/motor_7.png","75","75","motor","7","56","1","0","0","",""
"null","","99024","HierDye43xj118","qe9dh1xz33","msl000595","iti","img/motor_blank.png","null","75","motor","","","","","","",""
"636","","99669","HierDye43xj118","qe9dh1xz33","msl000595","motor","img/motor_4.png","70","70","motor","4","57","1","0","0","",""
"null","","99779","HierDye43xj118","qe9dh1xz33","msl000595","iti","img/motor_blank.png","null","70","motor","","","","","","",""
"507","","100295","HierDye43xj118","qe9dh1xz33","msl000595","motor","img/motor_2.png","83","83","motor","2","58","1","0","0","",""
"null","","100406","HierDye43xj118","qe9dh1xz33","msl000595","iti","img/motor_blank.png","null","83","motor","","","","","","",""
"517","","100932","HierDye43xj118","qe9dh1xz33","msl000595","motor","img/motor_4.png","70","70","motor","4","59","1","0","0","",""
"null","","101041","HierDye43xj118","qe9dh1xz33","msl000595","iti","img/motor_blank.png","null","70","motor","","","","","","",""
"646","","101695","HierDye43xj118","qe9dh1xz33","msl000595","motor","img/motor_2.png","83","83","motor","2","60","1","0","0","",""
"null","","101806","HierDye43xj118","qe9dh1xz33","msl000595","iti","img/motor_blank.png","null","83","motor","","","","","","",""
"468","","102283","HierDye43xj118","qe9dh1xz33","msl000595","motor","img/motor_8.png","76","76","motor","8","61","1","0","0","",""
"null","","102392","HierDye43xj118","qe9dh1xz33","msl000595","iti","img/motor_blank.png","null","76","motor","","","","","","",""
"709","","103111","HierDye43xj118","qe9dh1xz33","msl000595","motor","img/motor_7.png","75","75","motor","7","62","1","0","0","",""
"null","","103222","HierDye43xj118","qe9dh1xz33","msl000595","iti","img/motor_blank.png","null","75","motor","","","","","","",""
"411","","103642","HierDye43xj118","qe9dh1xz33","msl000595","motor","img/motor_5.png","72","72","motor","5","63","1","0","0","",""
"null","","103751","HierDye43xj118","qe9dh1xz33","msl000595","iti","img/motor_blank.png","null","72","motor","","","","","","",""
"437","","104195","HierDye43xj118","qe9dh1xz33","msl000595","motor","img/motor_7.png","75","75","motor","7","64","1","0","0","",""
"null","","104306","HierDye43xj118","qe9dh1xz33","msl000595","iti","img/motor_blank.png","null","75","motor","","","","","","",""
"597","","104913","HierDye43xj118","qe9dh1xz33","msl000595","motor","img/motor_8.png","76","76","motor","8","65","1","0","0","",""
"null","","105022","HierDye43xj118","qe9dh1xz33","msl000595","iti","img/motor_blank.png","null","76","motor","","","","","","",""
"709","","105739","HierDye43xj118","qe9dh1xz33","msl000595","motor","img/motor_6.png","74","74","motor","6","66","1","0","0","",""
"null","","105847","HierDye43xj118","qe9dh1xz33","msl000595","iti","img/motor_blank.png","null","74","motor","","","","","","",""
"494","","106351","HierDye43xj118","qe9dh1xz33","msl000595","motor","img/motor_4.png","68","70","motor","4","67","0","1","0","",""
"328","","106686","HierDye43xj118","qe9dh1xz33","msl000595","motorRepeat","img/motor_4.png","70","70","motor","4","67","1","0","0","",""
"null","","106796","HierDye43xj118","qe9dh1xz33","msl000595","iti","img/motor_blank.png","null","70","motor","","","","","","",""
"515","","107319","HierDye43xj118","qe9dh1xz33","msl000595","motor","img/motor_6.png","75","74","motor","6","68","0","1","0","",""
"287","","107616","HierDye43xj118","qe9dh1xz33","msl000595","motorRepeat","img/motor_6.png","74","74","motor","6","68","1","0","0","",""
"null","","107728","HierDye43xj118","qe9dh1xz33","msl000595","iti","img/motor_blank.png","null","74","motor","","","","","","",""
"482","","108218","HierDye43xj118","qe9dh1xz33","msl000595","motor","img/motor_3.png","68","68","motor","3","69","1","0","0","",""
"null","","108329","HierDye43xj118","qe9dh1xz33","msl000595","iti","img/motor_blank.png","null","68","motor","","","","","","",""
"606","","108943","HierDye43xj118","qe9dh1xz33","msl000595","motor","img/motor_2.png","83","83","motor","2","70","1","0","0","",""
"null","","109053","HierDye43xj118","qe9dh1xz33","msl000595","iti","img/motor_blank.png","null","83","motor","","","","","","",""
"510","","109573","HierDye43xj118","qe9dh1xz33","msl000595","motor","img/motor_5.png","72","72","motor","5","71","1","0","0","",""
"null","","109681","HierDye43xj118","qe9dh1xz33","msl000595","iti","img/motor_blank.png","null","72","motor","","","","","","",""
"416","","110107","HierDye43xj118","qe9dh1xz33","msl000595","motor","img/motor_8.png","76","76","motor","8","72","1","0","0","",""
"null","","110217","HierDye43xj118","qe9dh1xz33","msl000595","iti","img/motor_blank.png","null","76","motor","","","","","","",""
"405","","110632","HierDye43xj118","qe9dh1xz33","msl000595","motor","img/motor_6.png","74","74","motor","6","73","1","0","0","",""
"null","","110743","HierDye43xj118","qe9dh1xz33","msl000595","iti","img/motor_blank.png","null","74","motor","","","","","","",""
"588","","111340","HierDye43xj118","qe9dh1xz33","msl000595","motor","img/motor_7.png","75","75","motor","7","74","1","0","0","",""
"null","","111450","HierDye43xj118","qe9dh1xz33","msl000595","iti","img/motor_blank.png","null","75","motor","","","","","","",""
"545","","112004","HierDye43xj118","qe9dh1xz33","msl000595","motor","img/motor_5.png","72","72","motor","5","75","1","0","0","",""
"null","","112114","HierDye43xj118","qe9dh1xz33","msl000595","iti","img/motor_blank.png","null","72","motor","","","","","","",""
"396","","112520","HierDye43xj118","qe9dh1xz33","msl000595","motor","img/motor_5.png","72","72","motor","5","76","1","0","0","",""
"null","","112630","HierDye43xj118","qe9dh1xz33","msl000595","iti","img/motor_blank.png","null","72","motor","","","","","","",""
"573","","113210","HierDye43xj118","qe9dh1xz33","msl000595","motor","img/motor_2.png","83","83","motor","2","77","1","0","0","",""
"null","","113321","HierDye43xj118","qe9dh1xz33","msl000595","iti","img/motor_blank.png","null","83","motor","","","","","","",""
"692","","114022","HierDye43xj118","qe9dh1xz33","msl000595","motor","img/motor_1.png","65","65","motor","1","78","1","0","0","",""
"null","","114133","HierDye43xj118","qe9dh1xz33","msl000595","iti","img/motor_blank.png","null","65","motor","","","","","","",""
"583","","114724","HierDye43xj118","qe9dh1xz33","msl000595","motor","img/motor_3.png","68","68","motor","3","79","1","0","0","",""
"null","","114835","HierDye43xj118","qe9dh1xz33","msl000595","iti","img/motor_blank.png","null","68","motor","","","","","","",""
"507","","115351","HierDye43xj118","qe9dh1xz33","msl000595","motor","img/motor_8.png","76","76","motor","8","80","1","0","0","",""
"null","","115458","HierDye43xj118","qe9dh1xz33","msl000595","iti","img/motor_blank.png","null","76","motor","","","","","","",""
"403","","115870","HierDye43xj118","qe9dh1xz33","msl000595","motor","img/motor_4.png","70","70","motor","4","81","1","0","0","",""
"null","","115980","HierDye43xj118","qe9dh1xz33","msl000595","iti","img/motor_blank.png","null","70","motor","","","","","","",""
"685","","116674","HierDye43xj118","qe9dh1xz33","msl000595","motor","img/motor_1.png","65","65","motor","1","82","1","0","0","",""
"null","","116784","HierDye43xj118","qe9dh1xz33","msl000595","iti","img/motor_blank.png","null","65","motor","","","","","","",""
"418","","117212","HierDye43xj118","qe9dh1xz33","msl000595","motor","img/motor_8.png","76","76","motor","8","83","1","0","0","",""
"null","","117322","HierDye43xj118","qe9dh1xz33","msl000595","iti","img/motor_blank.png","null","76","motor","","","","","","",""
"472","","117804","HierDye43xj118","qe9dh1xz33","msl000595","motor","img/motor_4.png","70","70","motor","4","84","1","0","0","",""
"null","","117915","HierDye43xj118","qe9dh1xz33","msl000595","iti","img/motor_blank.png","null","70","motor","","","","","","",""
"497","","118420","HierDye43xj118","qe9dh1xz33","msl000595","motor","img/motor_6.png","74","74","motor","6","85","1","0","0","",""
"null","","118530","HierDye43xj118","qe9dh1xz33","msl000595","iti","img/motor_blank.png","null","74","motor","","","","","","",""
"329","","118868","HierDye43xj118","qe9dh1xz33","msl000595","motor","img/motor_6.png","74","74","motor","6","86","1","0","0","",""
"null","","118978","HierDye43xj118","qe9dh1xz33","msl000595","iti","img/motor_blank.png","null","74","motor","","","","","","",""
"625","","119610","HierDye43xj118","qe9dh1xz33","msl000595","motor","img/motor_1.png","65","65","motor","1","87","1","0","0","",""
"null","","119721","HierDye43xj118","qe9dh1xz33","msl000595","iti","img/motor_blank.png","null","65","motor","","","","","","",""
"654","","120384","HierDye43xj118","qe9dh1xz33","msl000595","motor","img/motor_7.png","75","75","motor","7","88","1","0","0","",""
"null","","120494","HierDye43xj118","qe9dh1xz33","msl000595","iti","img/motor_blank.png","null","75","motor","","","","","","",""
"436","","120936","HierDye43xj118","qe9dh1xz33","msl000595","motor","img/motor_8.png","76","76","motor","8","89","1","0","0","",""
"null","","121046","HierDye43xj118","qe9dh1xz33","msl000595","iti","img/motor_blank.png","null","76","motor","","","","","","",""
"448","","121504","HierDye43xj118","qe9dh1xz33","msl000595","motor","img/motor_1.png","65","65","motor","1","90","1","0","0","",""
"null","","121614","HierDye43xj118","qe9dh1xz33","msl000595","iti","img/motor_blank.png","null","65","motor","","","","","","",""
"497","","122121","HierDye43xj118","qe9dh1xz33","msl000595","motor","img/motor_3.png","68","68","motor","3","91","1","0","0","",""
"null","","122231","HierDye43xj118","qe9dh1xz33","msl000595","iti","img/motor_blank.png","null","68","motor","","","","","","",""
"522","","122762","HierDye43xj118","qe9dh1xz33","msl000595","motor","img/motor_7.png","75","75","motor","7","92","1","0","0","",""
"null","","122872","HierDye43xj118","qe9dh1xz33","msl000595","iti","img/motor_blank.png","null","75","motor","","","","","","",""
"362","","123243","HierDye43xj118","qe9dh1xz33","msl000595","motor","img/motor_3.png","68","68","motor","3","93","1","0","0","",""
"null","","123354","HierDye43xj118","qe9dh1xz33","msl000595","iti","img/motor_blank.png","null","68","motor","","","","","","",""
"433","","123796","HierDye43xj118","qe9dh1xz33","msl000595","motor","img/motor_7.png","75","75","motor","7","94","1","0","0","",""
"null","","123904","HierDye43xj118","qe9dh1xz33","msl000595","iti","img/motor_blank.png","null","75","motor","","","","","","",""
"369","","124282","HierDye43xj118","qe9dh1xz33","msl000595","motor","img/motor_3.png","68","68","motor","3","95","1","0","0","",""
"null","","124393","HierDye43xj118","qe9dh1xz33","msl000595","iti","img/motor_blank.png","null","68","motor","","","","","","",""
"482","","124884","HierDye43xj118","qe9dh1xz33","msl000595","motor","img/motor_3.png","68","68","motor","3","96","1","0","0","",""
"null","","124994","HierDye43xj118","qe9dh1xz33","msl000595","iti","img/motor_blank.png","null","68","motor","","","","","","",""
"618","","125622","HierDye43xj118","qe9dh1xz33","msl000595","motor","img/motor_4.png","72","70","motor","4","97","0","1","0","",""
"364","","125996","HierDye43xj118","qe9dh1xz33","msl000595","motorRepeat","img/motor_4.png","68","70","motor","4","97","0","1","0","",""
"294","","126300","HierDye43xj118","qe9dh1xz33","msl000595","motorRepeat","img/motor_4.png","70","70","motor","4","97","1","0","0","",""
"null","","126410","HierDye43xj118","qe9dh1xz33","msl000595","iti","img/motor_blank.png","null","70","motor","","","","","","",""
"388","","126808","HierDye43xj118","qe9dh1xz33","msl000595","motor","img/motor_4.png","70","70","motor","4","98","1","0","0","",""
"null","","126916","HierDye43xj118","qe9dh1xz33","msl000595","iti","img/motor_blank.png","null","70","motor","","","","","","",""
"490","","127413","HierDye43xj118","qe9dh1xz33","msl000595","motor","img/motor_1.png","65","65","motor","1","99","1","0","0","",""
"null","","127522","HierDye43xj118","qe9dh1xz33","msl000595","iti","img/motor_blank.png","null","65","motor","","","","","","",""
"459","","127991","HierDye43xj118","qe9dh1xz33","msl000595","motor","img/motor_5.png","72","72","motor","5","100","1","0","0","",""
"null","","128101","HierDye43xj118","qe9dh1xz33","msl000595","iti","img/motor_blank.png","null","72","motor","","","","","","",""
"399","","128510","HierDye43xj118","qe9dh1xz33","msl000595","motor","img/motor_8.png","76","76","motor","8","101","1","0","0","",""
"null","","128621","HierDye43xj118","qe9dh1xz33","msl000595","iti","img/motor_blank.png","null","76","motor","","","","","","",""
"507","","129136","HierDye43xj118","qe9dh1xz33","msl000595","motor","img/motor_4.png","70","70","motor","4","102","1","0","0","",""
"null","","129247","HierDye43xj118","qe9dh1xz33","msl000595","iti","img/motor_blank.png","null","70","motor","","","","","","",""
"697","","129951","HierDye43xj118","qe9dh1xz33","msl000595","motor","img/motor_3.png","68","68","motor","3","103","1","0","0","",""
"null","","130060","HierDye43xj118","qe9dh1xz33","msl000595","iti","img/motor_blank.png","null","68","motor","","","","","","",""
"1086","","131153","HierDye43xj118","qe9dh1xz33","msl000595","motor","img/motor_8.png","76","76","motor","8","104","1","0","0","",""
"null","","131264","HierDye43xj118","qe9dh1xz33","msl000595","iti","img/motor_blank.png","null","76","motor","","","","","","",""
"629","","131902","HierDye43xj118","qe9dh1xz33","msl000595","motor","img/motor_3.png","68","68","motor","3","105","1","0","0","",""
"null","","132012","HierDye43xj118","qe9dh1xz33","msl000595","iti","img/motor_blank.png","null","68","motor","","","","","","",""
"309","","132331","HierDye43xj118","qe9dh1xz33","msl000595","motor","img/motor_8.png","76","76","motor","8","106","1","0","0","",""
"null","","132440","HierDye43xj118","qe9dh1xz33","msl000595","iti","img/motor_blank.png","null","76","motor","","","","","","",""
"786","","133234","HierDye43xj118","qe9dh1xz33","msl000595","motor","img/motor_1.png","65","65","motor","1","107","1","0","0","",""
"null","","133345","HierDye43xj118","qe9dh1xz33","msl000595","iti","img/motor_blank.png","null","65","motor","","","","","","",""
"678","","134033","HierDye43xj118","qe9dh1xz33","msl000595","motor","img/motor_5.png","68","72","motor","5","108","0","1","0","",""
"342","","134383","HierDye43xj118","qe9dh1xz33","msl000595","motorRepeat","img/motor_5.png","72","72","motor","5","108","1","0","0","",""
"null","","134495","HierDye43xj118","qe9dh1xz33","msl000595","iti","img/motor_blank.png","null","72","motor","","","","","","",""
"735","","135238","HierDye43xj118","qe9dh1xz33","msl000595","motor","img/motor_7.png","75","75","motor","7","109","1","0","0","",""
"null","","135349","HierDye43xj118","qe9dh1xz33","msl000595","iti","img/motor_blank.png","null","75","motor","","","","","","",""
"438","","135798","HierDye43xj118","qe9dh1xz33","msl000595","motor","img/motor_4.png","70","70","motor","4","110","1","0","0","",""
"null","","135911","HierDye43xj118","qe9dh1xz33","msl000595","iti","img/motor_blank.png","null","70","motor","","","","","","",""
"404","","136327","HierDye43xj118","qe9dh1xz33","msl000595","motor","img/motor_7.png","75","75","motor","7","111","1","0","0","",""
"null","","136437","HierDye43xj118","qe9dh1xz33","msl000595","iti","img/motor_blank.png","null","75","motor","","","","","","",""
"376","","136824","HierDye43xj118","qe9dh1xz33","msl000595","motor","img/motor_5.png","72","72","motor","5","112","1","0","0","",""
"null","","136935","HierDye43xj118","qe9dh1xz33","msl000595","iti","img/motor_blank.png","null","72","motor","","","","","","",""
"376","","137320","HierDye43xj118","qe9dh1xz33","msl000595","motor","img/motor_8.png","76","76","motor","8","113","1","0","0","",""
"null","","137431","HierDye43xj118","qe9dh1xz33","msl000595","iti","img/motor_blank.png","null","76","motor","","","","","","",""
"562","","138002","HierDye43xj118","qe9dh1xz33","msl000595","motor","img/motor_3.png","83","68","motor","3","114","0","1","0","",""
"322","","138335","HierDye43xj118","qe9dh1xz33","msl000595","motorRepeat","img/motor_3.png","68","68","motor","3","114","1","0","0","",""
"null","","138444","HierDye43xj118","qe9dh1xz33","msl000595","iti","img/motor_blank.png","null","68","motor","","","","","","",""
"754","","139206","HierDye43xj118","qe9dh1xz33","msl000595","motor","img/motor_8.png","75","76","motor","8","115","0","1","0","",""
"353","","139566","HierDye43xj118","qe9dh1xz33","msl000595","motorRepeat","img/motor_8.png","76","76","motor","8","115","1","0","0","",""
"1","","139675","HierDye43xj118","qe9dh1xz33","msl000595","iti","img/motor_blank.png","75","76","motor","","","","","","",""
"13","","139696","HierDye43xj118","qe9dh1xz33","msl000595","motor","img/motor_2.png","75","83","motor","2","116","0","1","0","",""
"618","","140326","HierDye43xj118","qe9dh1xz33","msl000595","motorRepeat","img/motor_2.png","75","83","motor","2","116","0","1","0","",""
"26","","140361","HierDye43xj118","qe9dh1xz33","msl000595","motorRepeat","img/motor_2.png","83","83","motor","2","116","1","0","0","",""
"null","","140471","HierDye43xj118","qe9dh1xz33","msl000595","iti","img/motor_blank.png","null","83","motor","","","","","","",""
"577","","141057","HierDye43xj118","qe9dh1xz33","msl000595","motor","img/motor_5.png","72","72","motor","5","117","1","0","0","",""
"null","","141168","HierDye43xj118","qe9dh1xz33","msl000595","iti","img/motor_blank.png","null","72","motor","","","","","","",""
"408","","141587","HierDye43xj118","qe9dh1xz33","msl000595","motor","img/motor_2.png","75","83","motor","2","118","0","1","0","",""
"370","","141965","HierDye43xj118","qe9dh1xz33","msl000595","motorRepeat","img/motor_2.png","75","83","motor","2","118","0","1","0","",""
"67","","142040","HierDye43xj118","qe9dh1xz33","msl000595","motorRepeat","img/motor_2.png","83","83","motor","2","118","1","0","0","",""
"null","","142151","HierDye43xj118","qe9dh1xz33","msl000595","iti","img/motor_blank.png","null","83","motor","","","","","","",""
"840","","143000","HierDye43xj118","qe9dh1xz33","msl000595","motor","img/motor_1.png","65","65","motor","1","119","1","0","0","",""
"null","","143109","HierDye43xj118","qe9dh1xz33","msl000595","iti","img/motor_blank.png","null","65","motor","","","","","","",""
"470","","143587","HierDye43xj118","qe9dh1xz33","msl000595","motor","img/motor_5.png","72","72","motor","5","120","1","0","0","",""
"null","","143695","HierDye43xj118","qe9dh1xz33","msl000595","iti","img/motor_blank.png","null","72","motor","","","","","","",""
"374","","144078","HierDye43xj118","qe9dh1xz33","msl000595","motor","img/motor_5.png","72","72","motor","5","121","1","0","0","",""
"null","","144186","HierDye43xj118","qe9dh1xz33","msl000595","iti","img/motor_blank.png","null","72","motor","","","","","","",""
"509","","144700","HierDye43xj118","qe9dh1xz33","msl000595","motor","img/motor_1.png","65","65","motor","1","122","1","0","0","",""
"null","","144810","HierDye43xj118","qe9dh1xz33","msl000595","iti","img/motor_blank.png","null","65","motor","","","","","","",""
"544","","145364","HierDye43xj118","qe9dh1xz33","msl000595","motor","img/motor_2.png","83","83","motor","2","123","1","0","0","",""
"null","","145472","HierDye43xj118","qe9dh1xz33","msl000595","iti","img/motor_blank.png","null","83","motor","","","","","","",""
"873","","146354","HierDye43xj118","qe9dh1xz33","msl000595","motor","img/motor_6.png","74","74","motor","6","124","1","0","0","",""
"null","","146464","HierDye43xj118","qe9dh1xz33","msl000595","iti","img/motor_blank.png","null","74","motor","","","","","","",""
"628","","147100","HierDye43xj118","qe9dh1xz33","msl000595","motor","img/motor_1.png","65","65","motor","1","125","1","0","0","",""
"null","","147210","HierDye43xj118","qe9dh1xz33","msl000595","iti","img/motor_blank.png","null","65","motor","","","","","","",""
"564","","147783","HierDye43xj118","qe9dh1xz33","msl000595","motor","img/motor_3.png","68","68","motor","3","126","1","0","0","",""
"null","","147893","HierDye43xj118","qe9dh1xz33","msl000595","iti","img/motor_blank.png","null","68","motor","","","","","","",""
"1064","","148967","HierDye43xj118","qe9dh1xz33","msl000595","motor","img/motor_6.png","74","74","motor","6","127","1","0","0","",""
"null","","149077","HierDye43xj118","qe9dh1xz33","msl000595","iti","img/motor_blank.png","null","74","motor","","","","","","",""
"543","","149630","HierDye43xj118","qe9dh1xz33","msl000595","motor","img/motor_3.png","68","68","motor","3","128","1","0","0","",""
"null","","149739","HierDye43xj118","qe9dh1xz33","msl000595","iti","img/motor_blank.png","null","68","motor","","","","","","",""
"423","","150170","HierDye43xj118","qe9dh1xz33","msl000595","motor","img/motor_4.png","70","70","motor","4","129","1","0","0","",""
"null","","150281","HierDye43xj118","qe9dh1xz33","msl000595","iti","img/motor_blank.png","null","70","motor","","","","","","",""
"1758","","152049","HierDye43xj118","qe9dh1xz33","msl000595","motor","img/motor_7.png","75","75","motor","7","130","1","0","0","",""
"null","","152160","HierDye43xj118","qe9dh1xz33","msl000595","iti","img/motor_blank.png","null","75","motor","","","","","","",""
"662","","152832","HierDye43xj118","qe9dh1xz33","msl000595","motor","img/motor_3.png","70","68","motor","3","131","0","1","0","",""
"502","","153342","HierDye43xj118","qe9dh1xz33","msl000595","motorRepeat","img/motor_3.png","70","68","motor","3","131","0","1","0","",""
"319","","153670","HierDye43xj118","qe9dh1xz33","msl000595","motorRepeat","img/motor_3.png","68","68","motor","3","131","1","0","0","",""
"null","","153778","HierDye43xj118","qe9dh1xz33","msl000595","iti","img/motor_blank.png","null","68","motor","","","","","","",""
"622","","154408","HierDye43xj118","qe9dh1xz33","msl000595","motor","img/motor_8.png","76","76","motor","8","132","1","0","0","",""
"null","","154518","HierDye43xj118","qe9dh1xz33","msl000595","iti","img/motor_blank.png","null","76","motor","","","","","","",""
"475","","155004","HierDye43xj118","qe9dh1xz33","msl000595","motor","img/motor_2.png","83","83","motor","2","133","1","0","0","",""
"null","","155114","HierDye43xj118","qe9dh1xz33","msl000595","iti","img/motor_blank.png","null","83","motor","","","","","","",""
"494","","155616","HierDye43xj118","qe9dh1xz33","msl000595","motor","img/motor_3.png","68","68","motor","3","134","1","0","0","",""
"null","","155728","HierDye43xj118","qe9dh1xz33","msl000595","iti","img/motor_blank.png","null","68","motor","","","","","","",""
"466","","156202","HierDye43xj118","qe9dh1xz33","msl000595","motor","img/motor_8.png","76","76","motor","8","135","1","0","0","",""
"null","","156313","HierDye43xj118","qe9dh1xz33","msl000595","iti","img/motor_blank.png","null","76","motor","","","","","","",""
"438","","156759","HierDye43xj118","qe9dh1xz33","msl000595","motor","img/motor_3.png","68","68","motor","3","136","1","0","0","",""
"null","","156869","HierDye43xj118","qe9dh1xz33","msl000595","iti","img/motor_blank.png","null","68","motor","","","","","","",""
"509","","157386","HierDye43xj118","qe9dh1xz33","msl000595","motor","img/motor_4.png","70","70","motor","4","137","1","0","0","",""
"null","","157497","HierDye43xj118","qe9dh1xz33","msl000595","iti","img/motor_blank.png","null","70","motor","","","","","","",""
"499","","158005","HierDye43xj118","qe9dh1xz33","msl000595","motor","img/motor_2.png","83","83","motor","2","138","1","0","0","",""
"null","","158114","HierDye43xj118","qe9dh1xz33","msl000595","iti","img/motor_blank.png","null","83","motor","","","","","","",""
"519","","158643","HierDye43xj118","qe9dh1xz33","msl000595","motor","img/motor_3.png","68","68","motor","3","139","1","0","0","",""
"null","","158753","HierDye43xj118","qe9dh1xz33","msl000595","iti","img/motor_blank.png","null","68","motor","","","","","","",""
"388","","159148","HierDye43xj118","qe9dh1xz33","msl000595","motor","img/motor_2.png","83","83","motor","2","140","1","0","0","",""
"null","","159258","HierDye43xj118","qe9dh1xz33","msl000595","iti","img/motor_blank.png","null","83","motor","","","","","","",""
"685","","159950","HierDye43xj118","qe9dh1xz33","msl000595","motor","img/motor_1.png","65","65","motor","1","141","1","0","0","",""
"null","","160059","HierDye43xj118","qe9dh1xz33","msl000595","iti","img/motor_blank.png","null","65","motor","","","","","","",""
"455","","160523","HierDye43xj118","qe9dh1xz33","msl000595","motor","img/motor_1.png","65","65","motor","1","142","1","0","0","",""
"null","","160634","HierDye43xj118","qe9dh1xz33","msl000595","iti","img/motor_blank.png","null","65","motor","","","","","","",""
"682","","161324","HierDye43xj118","qe9dh1xz33","msl000595","motor","img/motor_6.png","74","74","motor","6","143","1","0","0","",""
"null","","161435","HierDye43xj118","qe9dh1xz33","msl000595","iti","img/motor_blank.png","null","74","motor","","","","","","",""
"790","","162235","HierDye43xj118","qe9dh1xz33","msl000595","motor","img/motor_8.png","76","76","motor","8","144","1","0","0","",""
"null","","162344","HierDye43xj118","qe9dh1xz33","msl000595","iti","img/motor_blank.png","null","76","motor","","","","","","",""
"439","","162792","HierDye43xj118","qe9dh1xz33","msl000595","motor","img/motor_8.png","76","76","motor","8","145","1","0","0","",""
"null","","162902","HierDye43xj118","qe9dh1xz33","msl000595","iti","img/motor_blank.png","null","76","motor","","","","","","",""
"607","","163518","HierDye43xj118","qe9dh1xz33","msl000595","motor","img/motor_7.png","75","75","motor","7","146","1","0","0","",""
"null","","163627","HierDye43xj118","qe9dh1xz33","msl000595","iti","img/motor_blank.png","null","75","motor","","","","","","",""
"647","","164282","HierDye43xj118","qe9dh1xz33","msl000595","motor","img/motor_3.png","68","68","motor","3","147","1","0","0","",""
"null","","164394","HierDye43xj118","qe9dh1xz33","msl000595","iti","img/motor_blank.png","null","68","motor","","","","","","",""
"609","","165010","HierDye43xj118","qe9dh1xz33","msl000595","motor","img/motor_5.png","72","72","motor","5","148","1","0","0","",""
"null","","165120","HierDye43xj118","qe9dh1xz33","msl000595","iti","img/motor_blank.png","null","72","motor","","","","","","",""
"538","","165668","HierDye43xj118","qe9dh1xz33","msl000595","motor","img/motor_1.png","83","65","motor","1","149","0","1","0","",""
"40","","165716","HierDye43xj118","qe9dh1xz33","msl000595","motorRepeat","img/motor_1.png","65","65","motor","1","149","1","0","0","",""
"null","","165826","HierDye43xj118","qe9dh1xz33","msl000595","iti","img/motor_blank.png","null","65","motor","","","","","","",""
"458","","166294","HierDye43xj118","qe9dh1xz33","msl000595","motor","img/motor_4.png","70","70","motor","4","150","1","0","0","",""
"null","","166405","HierDye43xj118","qe9dh1xz33","msl000595","iti","img/motor_blank.png","null","70","motor","","","","","","",""
"439","","166852","HierDye43xj118","qe9dh1xz33","msl000595","motor","img/motor_8.png","76","76","motor","8","151","1","0","0","",""
"null","","166963","HierDye43xj118","qe9dh1xz33","msl000595","iti","img/motor_blank.png","null","76","motor","","","","","","",""
"430","","167404","HierDye43xj118","qe9dh1xz33","msl000595","motor","img/motor_2.png","83","83","motor","2","152","1","0","0","",""
"null","","167514","HierDye43xj118","qe9dh1xz33","msl000595","iti","img/motor_blank.png","null","83","motor","","","","","","",""
"363","","167887","HierDye43xj118","qe9dh1xz33","msl000595","motor","img/motor_3.png","68","68","motor","3","153","1","0","0","",""
"null","","167997","HierDye43xj118","qe9dh1xz33","msl000595","iti","img/motor_blank.png","null","68","motor","","","","","","",""
"467","","168473","HierDye43xj118","qe9dh1xz33","msl000595","motor","img/motor_5.png","72","72","motor","5","154","1","0","0","",""
"null","","168582","HierDye43xj118","qe9dh1xz33","msl000595","iti","img/motor_blank.png","null","72","motor","","","","","","",""
"373","","168962","HierDye43xj118","qe9dh1xz33","msl000595","motor","img/motor_8.png","76","76","motor","8","155","1","0","0","",""
"null","","169073","HierDye43xj118","qe9dh1xz33","msl000595","iti","img/motor_blank.png","null","76","motor","","","","","","",""
"477","","169557","HierDye43xj118","qe9dh1xz33","msl000595","motor","img/motor_3.png","68","68","motor","3","156","1","0","0","",""
"null","","169667","HierDye43xj118","qe9dh1xz33","msl000595","iti","img/motor_blank.png","null","68","motor","","","","","","",""
"457","","170133","HierDye43xj118","qe9dh1xz33","msl000595","motor","img/motor_2.png","83","83","motor","2","157","1","0","0","",""
"null","","170244","HierDye43xj118","qe9dh1xz33","msl000595","iti","img/motor_blank.png","null","83","motor","","","","","","",""
"437","","170689","HierDye43xj118","qe9dh1xz33","msl000595","motor","img/motor_4.png","70","70","motor","4","158","1","0","0","",""
"null","","170798","HierDye43xj118","qe9dh1xz33","msl000595","iti","img/motor_blank.png","null","70","motor","","","","","","",""
"1003","","171810","HierDye43xj118","qe9dh1xz33","msl000595","motor","img/motor_1.png","65","65","motor","1","159","1","0","0","",""
"null","","171921","HierDye43xj118","qe9dh1xz33","msl000595","iti","img/motor_blank.png","null","65","motor","","","","","","",""
"507","","172435","HierDye43xj118","qe9dh1xz33","msl000595","motor","img/motor_5.png","72","72","motor","5","160","1","0","0","",""
"null","","172545","HierDye43xj118","qe9dh1xz33","msl000595","iti","img/motor_blank.png","null","72","motor","","","","","","",""
"738","","173293","HierDye43xj118","qe9dh1xz33","msl000595","motor","img/motor_3.png","68","68","motor","3","161","1","0","0","",""
"null","","173403","HierDye43xj118","qe9dh1xz33","msl000595","iti","img/motor_blank.png","null","68","motor","","","","","","",""
"527","","173938","HierDye43xj118","qe9dh1xz33","msl000595","motor","img/motor_1.png","65","65","motor","1","162","1","0","0","",""
"null","","174048","HierDye43xj118","qe9dh1xz33","msl000595","iti","img/motor_blank.png","null","65","motor","","","","","","",""
"401","","174457","HierDye43xj118","qe9dh1xz33","msl000595","motor","img/motor_5.png","70","72","motor","5","163","0","1","0","",""
"292","","174758","HierDye43xj118","qe9dh1xz33","msl000595","motorRepeat","img/motor_5.png","72","72","motor","5","163","1","0","0","",""
"null","","174868","HierDye43xj118","qe9dh1xz33","msl000595","iti","img/motor_blank.png","null","72","motor","","","","","","",""
"530","","175407","HierDye43xj118","qe9dh1xz33","msl000595","motor","img/motor_2.png","83","83","motor","2","164","1","0","0","",""
"null","","175517","HierDye43xj118","qe9dh1xz33","msl000595","iti","img/motor_blank.png","null","83","motor","","","","","","",""
"458","","175985","HierDye43xj118","qe9dh1xz33","msl000595","motor","img/motor_5.png","72","72","motor","5","165","1","0","0","",""
"null","","176096","HierDye43xj118","qe9dh1xz33","msl000595","iti","img/motor_blank.png","null","72","motor","","","","","","",""
"553","","176658","HierDye43xj118","qe9dh1xz33","msl000595","motor","img/motor_1.png","65","65","motor","1","166","1","0","0","",""
"null","","176769","HierDye43xj118","qe9dh1xz33","msl000595","iti","img/motor_blank.png","null","65","motor","","","","","","",""
"431","","177210","HierDye43xj118","qe9dh1xz33","msl000595","motor","img/motor_2.png","68","83","motor","2","167","0","1","0","",""
"30","","177247","HierDye43xj118","qe9dh1xz33","msl000595","motorRepeat","img/motor_2.png","83","83","motor","2","167","1","0","0","",""
"null","","177357","HierDye43xj118","qe9dh1xz33","msl000595","iti","img/motor_blank.png","null","83","motor","","","","","","",""
"555","","177921","HierDye43xj118","qe9dh1xz33","msl000595","motor","img/motor_7.png","75","75","motor","7","168","1","0","0","",""
"1","","178031","HierDye43xj118","qe9dh1xz33","msl000595","iti","img/motor_blank.png","76","75","motor","","","","","","",""
"369","","178411","HierDye43xj118","qe9dh1xz33","msl000595","motor","img/motor_8.png","75","76","motor","8","169","0","1","0","",""
"21","","178438","HierDye43xj118","qe9dh1xz33","msl000595","motorRepeat","img/motor_8.png","76","76","motor","8","169","1","0","0","",""
"null","","178548","HierDye43xj118","qe9dh1xz33","msl000595","iti","img/motor_blank.png","null","76","motor","","","","","","",""
"418","","178975","HierDye43xj118","qe9dh1xz33","msl000595","motor","img/motor_1.png","75","65","motor","1","170","0","1","0","",""
"40","","179024","HierDye43xj118","qe9dh1xz33","msl000595","motorRepeat","img/motor_1.png","65","65","motor","1","170","1","0","0","",""
"null","","179134","HierDye43xj118","qe9dh1xz33","msl000595","iti","img/motor_blank.png","null","65","motor","","","","","","",""
"429","","179573","HierDye43xj118","qe9dh1xz33","msl000595","motor","img/motor_4.png","70","70","motor","4","171","1","0","0","",""
"null","","179683","HierDye43xj118","qe9dh1xz33","msl000595","iti","img/motor_blank.png","null","70","motor","","","","","","",""
"382","","180073","HierDye43xj118","qe9dh1xz33","msl000595","motor","img/motor_8.png","76","76","motor","8","172","1","0","0","",""
"null","","180183","HierDye43xj118","qe9dh1xz33","msl000595","iti","img/motor_blank.png","null","76","motor","","","","","","",""
"25","","180214","HierDye43xj118","qe9dh1xz33","msl000595","motor","img/motor_5.png","75","72","motor","5","173","0","1","0","",""
"359","","180581","HierDye43xj118","qe9dh1xz33","msl000595","motorRepeat","img/motor_5.png","72","72","motor","5","173","1","0","0","",""
"null","","180691","HierDye43xj118","qe9dh1xz33","msl000595","iti","img/motor_blank.png","null","72","motor","","","","","","",""
"429","","181128","HierDye43xj118","qe9dh1xz33","msl000595","motor","img/motor_3.png","83","68","motor","3","174","0","1","0","",""
"51","","181187","HierDye43xj118","qe9dh1xz33","msl000595","motorRepeat","img/motor_3.png","68","68","motor","3","174","1","0","0","",""
"null","","181297","HierDye43xj118","qe9dh1xz33","msl000595","iti","img/motor_blank.png","null","68","motor","","","","","","",""
"479","","181786","HierDye43xj118","qe9dh1xz33","msl000595","motor","img/motor_1.png","65","65","motor","1","175","1","0","0","",""
"null","","181896","HierDye43xj118","qe9dh1xz33","msl000595","iti","img/motor_blank.png","null","65","motor","","","","","","",""
"572","","182478","HierDye43xj118","qe9dh1xz33","msl000595","motor","img/motor_6.png","74","74","motor","6","176","1","0","0","",""
"null","","182587","HierDye43xj118","qe9dh1xz33","msl000595","iti","img/motor_blank.png","null","74","motor","","","","","","",""
"415","","183011","HierDye43xj118","qe9dh1xz33","msl000595","motor","img/motor_8.png","76","76","motor","8","177","1","0","0","",""
"null","","183121","HierDye43xj118","qe9dh1xz33","msl000595","iti","img/motor_blank.png","null","76","motor","","","","","","",""
"508","","183638","HierDye43xj118","qe9dh1xz33","msl000595","motor","img/motor_1.png","65","65","motor","1","178","1","0","0","",""
"null","","183749","HierDye43xj118","qe9dh1xz33","msl000595","iti","img/motor_blank.png","null","65","motor","","","","","","",""
"722","","184482","HierDye43xj118","qe9dh1xz33","msl000595","motor","img/motor_7.png","75","75","motor","7","179","1","0","0","",""
"null","","184591","HierDye43xj118","qe9dh1xz33","msl000595","iti","img/motor_blank.png","null","75","motor","","","","","","",""
"547","","185148","HierDye43xj118","qe9dh1xz33","msl000595","motor","img/motor_6.png","74","74","motor","6","180","1","0","0","",""
"null","","185257","HierDye43xj118","qe9dh1xz33","msl000595","iti","img/motor_blank.png","null","74","motor","","","","","","",""
"367","","185634","HierDye43xj118","qe9dh1xz33","msl000595","motor","img/motor_6.png","75","74","motor","6","181","0","1","0","",""
"422","","186064","HierDye43xj118","qe9dh1xz33","msl000595","motorRepeat","img/motor_6.png","75","74","motor","6","181","0","1","0","",""
"285","","186359","HierDye43xj118","qe9dh1xz33","msl000595","motorRepeat","img/motor_6.png","74","74","motor","6","181","1","0","0","",""
"null","","186468","HierDye43xj118","qe9dh1xz33","msl000595","iti","img/motor_blank.png","null","74","motor","","","","","","",""
"763","","187241","HierDye43xj118","qe9dh1xz33","msl000595","motor","img/motor_8.png","76","76","motor","8","182","1","0","0","",""
"null","","187351","HierDye43xj118","qe9dh1xz33","msl000595","iti","img/motor_blank.png","null","76","motor","","","","","","",""
"496","","187858","HierDye43xj118","qe9dh1xz33","msl000595","motor","img/motor_7.png","75","75","motor","7","183","1","0","0","",""
"null","","187968","HierDye43xj118","qe9dh1xz33","msl000595","iti","img/motor_blank.png","null","75","motor","","","","","","",""
"572","","188549","HierDye43xj118","qe9dh1xz33","msl000595","motor","img/motor_1.png","65","65","motor","1","184","1","0","0","",""
"null","","188660","HierDye43xj118","qe9dh1xz33","msl000595","iti","img/motor_blank.png","null","65","motor","","","","","","",""
"1275","","189944","HierDye43xj118","qe9dh1xz33","msl000595","motor","img/motor_8.png","76","76","motor","8","185","1","0","0","",""
"null","","190051","HierDye43xj118","qe9dh1xz33","msl000595","iti","img/motor_blank.png","null","76","motor","","","","","","",""
"477","","190537","HierDye43xj118","qe9dh1xz33","msl000595","motor","img/motor_2.png","70","83","motor","2","186","0","1","0","",""
"459","","191004","HierDye43xj118","qe9dh1xz33","msl000595","motorRepeat","img/motor_2.png","83","83","motor","2","186","1","0","0","",""
"null","","191115","HierDye43xj118","qe9dh1xz33","msl000595","iti","img/motor_blank.png","null","83","motor","","","","","","",""
"575","","191696","HierDye43xj118","qe9dh1xz33","msl000595","motor","img/motor_7.png","83","75","motor","7","187","0","1","0","",""
"460","","192164","HierDye43xj118","qe9dh1xz33","msl000595","motorRepeat","img/motor_7.png","74","75","motor","7","187","0","1","0","",""
"51","","192222","HierDye43xj118","qe9dh1xz33","msl000595","motorRepeat","img/motor_7.png","75","75","motor","7","187","1","0","0","",""
"null","","192332","HierDye43xj118","qe9dh1xz33","msl000595","iti","img/motor_blank.png","null","75","motor","","","","","","",""
"489","","192831","HierDye43xj118","qe9dh1xz33","msl000595","motor","img/motor_3.png","68","68","motor","3","188","1","0","0","",""
"null","","192941","HierDye43xj118","qe9dh1xz33","msl000595","iti","img/motor_blank.png","null","68","motor","","","","","","",""
"565","","193515","HierDye43xj118","qe9dh1xz33","msl000595","motor","img/motor_7.png","75","75","motor","7","189","1","0","0","",""
"null","","193626","HierDye43xj118","qe9dh1xz33","msl000595","iti","img/motor_blank.png","null","75","motor","","","","","","",""
"669","","194305","HierDye43xj118","qe9dh1xz33","msl000595","motor","img/motor_4.png","70","70","motor","4","190","1","0","0","",""
"null","","194416","HierDye43xj118","qe9dh1xz33","msl000595","iti","img/motor_blank.png","null","70","motor","","","","","","",""
"442","","194867","HierDye43xj118","qe9dh1xz33","msl000595","motor","img/motor_2.png","83","83","motor","2","191","1","0","0","",""
"null","","194976","HierDye43xj118","qe9dh1xz33","msl000595","iti","img/motor_blank.png","null","83","motor","","","","","","",""
"379","","195363","HierDye43xj118","qe9dh1xz33","msl000595","motor","img/motor_2.png","83","83","motor","2","192","1","0","0","",""
"null","","195474","HierDye43xj118","qe9dh1xz33","msl000595","iti","img/motor_blank.png","null","83","motor","","","","","","",""
"380","","195862","HierDye43xj118","qe9dh1xz33","msl000595","motor","img/motor_6.png","75","74","motor","6","193","0","1","0","",""
"327","","196198","HierDye43xj118","qe9dh1xz33","msl000595","motorRepeat","img/motor_6.png","74","74","motor","6","193","1","0","0","",""
"null","","196307","HierDye43xj118","qe9dh1xz33","msl000595","iti","img/motor_blank.png","null","74","motor","","","","","","",""
"543","","196860","HierDye43xj118","qe9dh1xz33","msl000595","motor","img/motor_4.png","68","70","motor","4","194","0","1","0","",""
"251","","197121","HierDye43xj118","qe9dh1xz33","msl000595","motorRepeat","img/motor_4.png","70","70","motor","4","194","1","0","0","",""
"null","","197230","HierDye43xj118","qe9dh1xz33","msl000595","iti","img/motor_blank.png","null","70","motor","","","","","","",""
"587","","197825","HierDye43xj118","qe9dh1xz33","msl000595","motor","img/motor_8.png","76","76","motor","8","195","1","0","0","",""
"null","","197935","HierDye43xj118","qe9dh1xz33","msl000595","iti","img/motor_blank.png","null","76","motor","","","","","","",""
"291","","198236","HierDye43xj118","qe9dh1xz33","msl000595","motor","img/motor_4.png","70","70","motor","4","196","1","0","0","",""
"null","","198346","HierDye43xj118","qe9dh1xz33","msl000595","iti","img/motor_blank.png","null","70","motor","","","","","","",""
"297","","198652","HierDye43xj118","qe9dh1xz33","msl000595","motor","img/motor_8.png","76","76","motor","8","197","1","0","0","",""
"null","","198762","HierDye43xj118","qe9dh1xz33","msl000595","iti","img/motor_blank.png","null","76","motor","","","","","","",""
"397","","199169","HierDye43xj118","qe9dh1xz33","msl000595","motor","img/motor_8.png","76","76","motor","8","198","1","0","0","",""
"null","","199278","HierDye43xj118","qe9dh1xz33","msl000595","iti","img/motor_blank.png","null","76","motor","","","","","","",""
"372","","199660","HierDye43xj118","qe9dh1xz33","msl000595","motor","img/motor_4.png","70","70","motor","4","199","1","0","0","",""
"null","","199771","HierDye43xj118","qe9dh1xz33","msl000595","iti","img/motor_blank.png","null","70","motor","","","","","","",""
"343","","200125","HierDye43xj118","qe9dh1xz33","msl000595","motor","img/motor_3.png","70","68","motor","3","200","0","1","0","",""
"271","","200408","HierDye43xj118","qe9dh1xz33","msl000595","motorRepeat","img/motor_3.png","68","68","motor","3","200","1","0","0","",""
"null","","200521","HierDye43xj118","qe9dh1xz33","msl000595","iti","img/motor_blank.png","null","68","motor","","","","","","",""
"315","","200846","HierDye43xj118","qe9dh1xz33","msl000595","motor","img/motor_3.png","68","68","motor","3","201","1","0","0","",""
"null","","200955","HierDye43xj118","qe9dh1xz33","msl000595","iti","img/motor_blank.png","null","68","motor","","","","","","",""
"386","","201353","HierDye43xj118","qe9dh1xz33","msl000595","motor","img/motor_4.png","70","70","motor","4","202","1","0","0","",""
"null","","201465","HierDye43xj118","qe9dh1xz33","msl000595","iti","img/motor_blank.png","null","70","motor","","","","","","",""
"510","","201984","HierDye43xj118","qe9dh1xz33","msl000595","motor","img/motor_6.png","74","74","motor","6","203","1","0","0","",""
"null","","202095","HierDye43xj118","qe9dh1xz33","msl000595","iti","img/motor_blank.png","null","74","motor","","","","","","",""
"438","","202542","HierDye43xj118","qe9dh1xz33","msl000595","motor","img/motor_4.png","70","70","motor","4","204","1","0","0","",""
"null","","202654","HierDye43xj118","qe9dh1xz33","msl000595","iti","img/motor_blank.png","null","70","motor","","","","","","",""
"404","","203068","HierDye43xj118","qe9dh1xz33","msl000595","motor","img/motor_5.png","74","72","motor","5","205","0","1","0","",""
"293","","203370","HierDye43xj118","qe9dh1xz33","msl000595","motorRepeat","img/motor_5.png","72","72","motor","5","205","1","0","0","",""
"null","","203480","HierDye43xj118","qe9dh1xz33","msl000595","iti","img/motor_blank.png","null","72","motor","","","","","","",""
"299","","203790","HierDye43xj118","qe9dh1xz33","msl000595","motor","img/motor_3.png","70","68","motor","3","206","0","1","0","",""
"313","","204113","HierDye43xj118","qe9dh1xz33","msl000595","motorRepeat","img/motor_3.png","68","68","motor","3","206","1","0","0","",""
"null","","204225","HierDye43xj118","qe9dh1xz33","msl000595","iti","img/motor_blank.png","null","68","motor","","","","","","",""
"439","","204676","HierDye43xj118","qe9dh1xz33","msl000595","motor","img/motor_7.png","74","75","motor","7","207","0","1","0","",""
"164","","204850","HierDye43xj118","qe9dh1xz33","msl000595","motorRepeat","img/motor_7.png","75","75","motor","7","207","1","0","0","",""
"null","","204963","HierDye43xj118","qe9dh1xz33","msl000595","iti","img/motor_blank.png","null","75","motor","","","","","","",""
"491","","205462","HierDye43xj118","qe9dh1xz33","msl000595","motor","img/motor_4.png","70","70","motor","4","208","1","0","0","",""
"null","","205573","HierDye43xj118","qe9dh1xz33","msl000595","iti","img/motor_blank.png","null","70","motor","","","","","","",""
"656","","206239","HierDye43xj118","qe9dh1xz33","msl000595","motor","img/motor_6.png","74","74","motor","6","209","1","0","0","",""
"null","","206351","HierDye43xj118","qe9dh1xz33","msl000595","iti","img/motor_blank.png","null","74","motor","","","","","","",""
"465","","206826","HierDye43xj118","qe9dh1xz33","msl000595","motor","img/motor_5.png","72","72","motor","5","210","1","0","0","",""
"null","","206936","HierDye43xj118","qe9dh1xz33","msl000595","iti","img/motor_blank.png","null","72","motor","","","","","","",""
"833","","207780","HierDye43xj118","qe9dh1xz33","msl000595","motor","img/motor_2.png","83","83","motor","2","211","1","0","0","",""
"null","","207892","HierDye43xj118","qe9dh1xz33","msl000595","iti","img/motor_blank.png","null","83","motor","","","","","","",""
"521","","208423","HierDye43xj118","qe9dh1xz33","msl000595","motor","img/motor_3.png","68","68","motor","3","212","1","0","0","",""
"null","","208531","HierDye43xj118","qe9dh1xz33","msl000595","iti","img/motor_blank.png","null","68","motor","","","","","","",""
"603","","209145","HierDye43xj118","qe9dh1xz33","msl000595","motor","img/motor_5.png","70","72","motor","5","213","0","1","0","",""
"302","","209456","HierDye43xj118","qe9dh1xz33","msl000595","motorRepeat","img/motor_5.png","72","72","motor","5","213","1","0","0","",""
"null","","209564","HierDye43xj118","qe9dh1xz33","msl000595","iti","img/motor_blank.png","null","72","motor","","","","","","",""
"338","","209912","HierDye43xj118","qe9dh1xz33","msl000595","motor","img/motor_5.png","72","72","motor","5","214","1","0","0","",""
"null","","210024","HierDye43xj118","qe9dh1xz33","msl000595","iti","img/motor_blank.png","null","72","motor","","","","","","",""
"375","","210410","HierDye43xj118","qe9dh1xz33","msl000595","motor","img/motor_6.png","75","74","motor","6","215","0","1","0","",""
"281","","210699","HierDye43xj118","qe9dh1xz33","msl000595","motorRepeat","img/motor_6.png","74","74","motor","6","215","1","0","0","",""
"null","","210809","HierDye43xj118","qe9dh1xz33","msl000595","iti","img/motor_blank.png","null","74","motor","","","","","","",""
"438","","211258","HierDye43xj118","qe9dh1xz33","msl000595","motor","img/motor_8.png","76","76","motor","8","216","1","0","0","",""
"null","","211368","HierDye43xj118","qe9dh1xz33","msl000595","iti","img/motor_blank.png","null","76","motor","","","","","","",""
"447","","211824","HierDye43xj118","qe9dh1xz33","msl000595","motor","img/motor_6.png","74","74","motor","6","217","1","0","0","",""
"null","","211935","HierDye43xj118","qe9dh1xz33","msl000595","iti","img/motor_blank.png","null","74","motor","","","","","","",""
"612","","212556","HierDye43xj118","qe9dh1xz33","msl000595","motor","img/motor_2.png","83","83","motor","2","218","1","0","0","",""
"null","","212667","HierDye43xj118","qe9dh1xz33","msl000595","iti","img/motor_blank.png","null","83","motor","","","","","","",""
"573","","213250","HierDye43xj118","qe9dh1xz33","msl000595","motor","img/motor_5.png","74","72","motor","5","219","0","1","0","",""
"303","","213561","HierDye43xj118","qe9dh1xz33","msl000595","motorRepeat","img/motor_5.png","72","72","motor","5","219","1","0","0","",""
"null","","213673","HierDye43xj118","qe9dh1xz33","msl000595","iti","img/motor_blank.png","null","72","motor","","","","","","",""
"755","","214437","HierDye43xj118","qe9dh1xz33","msl000595","motor","img/motor_1.png","65","65","motor","1","220","1","0","0","",""
"null","","214548","HierDye43xj118","qe9dh1xz33","msl000595","iti","img/motor_blank.png","null","65","motor","","","","","","",""
"675","","215232","HierDye43xj118","qe9dh1xz33","msl000595","motor","img/motor_6.png","74","74","motor","6","221","1","0","0","",""
"null","","215343","HierDye43xj118","qe9dh1xz33","msl000595","iti","img/motor_blank.png","null","74","motor","","","","","","",""
"571","","215924","HierDye43xj118","qe9dh1xz33","msl000595","motor","img/motor_5.png","68","72","motor","5","222","0","1","0","",""
"403","","216336","HierDye43xj118","qe9dh1xz33","msl000595","motorRepeat","img/motor_5.png","70","72","motor","5","222","0","1","0","",""
"170","","216515","HierDye43xj118","qe9dh1xz33","msl000595","motorRepeat","img/motor_5.png","72","72","motor","5","222","1","0","0","",""
"null","","216625","HierDye43xj118","qe9dh1xz33","msl000595","iti","img/motor_blank.png","null","72","motor","","","","","","",""
"503","","217137","HierDye43xj118","qe9dh1xz33","msl000595","motor","img/motor_2.png","83","83","motor","2","223","1","0","0","",""
"null","","217248","HierDye43xj118","qe9dh1xz33","msl000595","iti","img/motor_blank.png","null","83","motor","","","","","","",""
"533","","217791","HierDye43xj118","qe9dh1xz33","msl000595","motor","img/motor_1.png","65","65","motor","1","224","1","0","0","",""
"null","","217902","HierDye43xj118","qe9dh1xz33","msl000595","iti","img/motor_blank.png","null","65","motor","","","","","","",""
"414","","218324","HierDye43xj118","qe9dh1xz33","msl000595","motor","img/motor_8.png","76","76","motor","8","225","1","0","0","",""
"null","","218435","HierDye43xj118","qe9dh1xz33","msl000595","iti","img/motor_blank.png","null","76","motor","","","","","","",""
"428","","218872","HierDye43xj118","qe9dh1xz33","msl000595","motor","img/motor_5.png","72","72","motor","5","226","1","0","0","",""
"null","","218983","HierDye43xj118","qe9dh1xz33","msl000595","iti","img/motor_blank.png","null","72","motor","","","","","","",""
"360","","219352","HierDye43xj118","qe9dh1xz33","msl000595","motor","img/motor_5.png","72","72","motor","5","227","1","0","0","",""
"null","","219461","HierDye43xj118","qe9dh1xz33","msl000595","iti","img/motor_blank.png","null","72","motor","","","","","","",""
"478","","219947","HierDye43xj118","qe9dh1xz33","msl000595","motor","img/motor_1.png","65","65","motor","1","228","1","0","0","",""
"null","","220056","HierDye43xj118","qe9dh1xz33","msl000595","iti","img/motor_blank.png","null","65","motor","","","","","","",""
"426","","220489","HierDye43xj118","qe9dh1xz33","msl000595","motor","img/motor_2.png","68","83","motor","2","229","0","1","0","",""
"57","","220554","HierDye43xj118","qe9dh1xz33","msl000595","motorRepeat","img/motor_2.png","83","83","motor","2","229","1","0","0","",""
"null","","220664","HierDye43xj118","qe9dh1xz33","msl000595","iti","img/motor_blank.png","null","83","motor","","","","","","",""
"510","","221183","HierDye43xj118","qe9dh1xz33","msl000595","motor","img/motor_4.png","70","70","motor","4","230","1","0","0","",""
"null","","221291","HierDye43xj118","qe9dh1xz33","msl000595","iti","img/motor_blank.png","null","70","motor","","","","","","",""
"397","","221695","HierDye43xj118","qe9dh1xz33","msl000595","motor","img/motor_4.png","70","70","motor","4","231","1","0","0","",""
"null","","221806","HierDye43xj118","qe9dh1xz33","msl000595","iti","img/motor_blank.png","null","70","motor","","","","","","",""
"512","","222328","HierDye43xj118","qe9dh1xz33","msl000595","motor","img/motor_5.png","72","72","motor","5","232","1","0","0","",""
"null","","222438","HierDye43xj118","qe9dh1xz33","msl000595","iti","img/motor_blank.png","null","72","motor","","","","","","",""
"392","","222839","HierDye43xj118","qe9dh1xz33","msl000595","motor","img/motor_8.png","76","76","motor","8","233","1","0","0","",""
"null","","222947","HierDye43xj118","qe9dh1xz33","msl000595","iti","img/motor_blank.png","null","76","motor","","","","","","",""
"434","","223392","HierDye43xj118","qe9dh1xz33","msl000595","motor","img/motor_8.png","76","76","motor","8","234","1","0","0","",""
"null","","223502","HierDye43xj118","qe9dh1xz33","msl000595","iti","img/motor_blank.png","null","76","motor","","","","","","",""
"446","","223956","HierDye43xj118","qe9dh1xz33","msl000595","motor","img/motor_3.png","83","68","motor","3","235","0","1","0","",""
"192","","224157","HierDye43xj118","qe9dh1xz33","msl000595","motorRepeat","img/motor_3.png","68","68","motor","3","235","1","0","0","",""
"null","","224267","HierDye43xj118","qe9dh1xz33","msl000595","iti","img/motor_blank.png","null","68","motor","","","","","","",""
"379","","224656","HierDye43xj118","qe9dh1xz33","msl000595","motor","img/motor_4.png","68","70","motor","4","236","0","1","0","",""
"170","","224834","HierDye43xj118","qe9dh1xz33","msl000595","motorRepeat","img/motor_4.png","70","70","motor","4","236","1","0","0","",""
"null","","224945","HierDye43xj118","qe9dh1xz33","msl000595","iti","img/motor_blank.png","null","70","motor","","","","","","",""
"536","","225490","HierDye43xj118","qe9dh1xz33","msl000595","motor","img/motor_1.png","65","65","motor","1","237","1","0","0","",""
"null","","225600","HierDye43xj118","qe9dh1xz33","msl000595","iti","img/motor_blank.png","null","65","motor","","","","","","",""
"596","","226205","HierDye43xj118","qe9dh1xz33","msl000595","motor","img/motor_4.png","68","70","motor","4","238","0","1","0","",""
"27","","226238","HierDye43xj118","qe9dh1xz33","msl000595","motorRepeat","img/motor_4.png","70","70","motor","4","238","1","0","0","",""
"null","","226347","HierDye43xj118","qe9dh1xz33","msl000595","iti","img/motor_blank.png","null","70","motor","","","","","","",""
"601","","226958","HierDye43xj118","qe9dh1xz33","msl000595","motor","img/motor_7.png","75","75","motor","7","239","1","0","0","",""
"null","","227069","HierDye43xj118","qe9dh1xz33","msl000595","iti","img/motor_blank.png","null","75","motor","","","","","","",""
"389","","227467","HierDye43xj118","qe9dh1xz33","msl000595","motor","img/motor_7.png","75","75","motor","7","240","1","0","0","",""
"null","","227576","HierDye43xj118","qe9dh1xz33","msl000595","iti","img/motor_blank.png","null","75","motor","","","","","","",""
"593","","228179","HierDye43xj118","qe9dh1xz33","msl000595","motor","img/motor_6.png","74","74","motor","6","241","1","0","0","",""
"null","","228290","HierDye43xj118","qe9dh1xz33","msl000595","iti","img/motor_blank.png","null","74","motor","","","","","","",""
"525","","228826","HierDye43xj118","qe9dh1xz33","msl000595","motor","img/motor_3.png","68","68","motor","3","242","1","0","0","",""
"null","","228936","HierDye43xj118","qe9dh1xz33","msl000595","iti","img/motor_blank.png","null","68","motor","","","","","","",""
"338","","229283","HierDye43xj118","qe9dh1xz33","msl000595","motor","img/motor_3.png","68","68","motor","3","243","1","0","0","",""
"null","","229393","HierDye43xj118","qe9dh1xz33","msl000595","iti","img/motor_blank.png","null","68","motor","","","","","","",""
"423","","229825","HierDye43xj118","qe9dh1xz33","msl000595","motor","img/motor_4.png","70","70","motor","4","244","1","0","0","",""
"null","","229935","HierDye43xj118","qe9dh1xz33","msl000595","iti","img/motor_blank.png","null","70","motor","","","","","","",""
"451","","230395","HierDye43xj118","qe9dh1xz33","msl000595","motor","img/motor_3.png","68","68","motor","3","245","1","0","0","",""
"null","","230505","HierDye43xj118","qe9dh1xz33","msl000595","iti","img/motor_blank.png","null","68","motor","","","","","","",""
"633","","231149","HierDye43xj118","qe9dh1xz33","msl000595","motor","img/motor_5.png","72","72","motor","5","246","1","0","0","",""
"null","","231259","HierDye43xj118","qe9dh1xz33","msl000595","iti","img/motor_blank.png","null","72","motor","","","","","","",""
"374","","231641","HierDye43xj118","qe9dh1xz33","msl000595","motor","img/motor_4.png","70","70","motor","4","247","1","0","0","",""
"null","","231752","HierDye43xj118","qe9dh1xz33","msl000595","iti","img/motor_blank.png","null","70","motor","","","","","","",""
"337","","232099","HierDye43xj118","qe9dh1xz33","msl000595","motor","img/motor_5.png","72","72","motor","5","248","1","0","0","",""
"null","","232210","HierDye43xj118","qe9dh1xz33","msl000595","iti","img/motor_blank.png","null","72","motor","","","","","","",""
"450","","232669","HierDye43xj118","qe9dh1xz33","msl000595","motor","img/motor_8.png","76","76","motor","8","249","1","0","0","",""
"null","","232780","HierDye43xj118","qe9dh1xz33","msl000595","iti","img/motor_blank.png","null","76","motor","","","","","","",""
"360","","233152","HierDye43xj118","qe9dh1xz33","msl000595","motor","img/motor_5.png","72","72","motor","5","250","1","0","0","",""
"null","","233263","HierDye43xj118","qe9dh1xz33","msl000595","iti","img/motor_blank.png","null","72","motor","","","","","","",""
"420","","233691","HierDye43xj118","qe9dh1xz33","msl000595","motor","img/motor_1.png","70","65","motor","1","251","0","1","0","",""
"253","","233953","HierDye43xj118","qe9dh1xz33","msl000595","motorRepeat","img/motor_1.png","65","65","motor","1","251","1","0","0","",""
"null","","234063","HierDye43xj118","qe9dh1xz33","msl000595","iti","img/motor_blank.png","null","65","motor","","","","","","",""
"758","","234832","HierDye43xj118","qe9dh1xz33","msl000595","motor","img/motor_8.png","75","76","motor","8","252","0","1","0","",""
"327","","235167","HierDye43xj118","qe9dh1xz33","msl000595","motorRepeat","img/motor_8.png","75","76","motor","8","252","0","1","0","",""
"0","","235175","HierDye43xj118","qe9dh1xz33","msl000595","motorRepeat","img/motor_8.png","76","76","motor","8","252","1","0","0","",""
"null","","235284","HierDye43xj118","qe9dh1xz33","msl000595","iti","img/motor_blank.png","null","76","motor","","","","","","",""
"752","","236047","HierDye43xj118","qe9dh1xz33","msl000595","motor","img/motor_5.png","72","72","motor","5","253","1","0","0","",""
"null","","236156","HierDye43xj118","qe9dh1xz33","msl000595","iti","img/motor_blank.png","null","72","motor","","","","","","",""
"473","","236638","HierDye43xj118","qe9dh1xz33","msl000595","motor","img/motor_4.png","70","70","motor","4","254","1","0","0","",""
"null","","236749","HierDye43xj118","qe9dh1xz33","msl000595","iti","img/motor_blank.png","null","70","motor","","","","","","",""
"543","","237300","HierDye43xj118","qe9dh1xz33","msl000595","motor","img/motor_1.png","65","65","motor","1","255","1","0","0","",""
"null","","237411","HierDye43xj118","qe9dh1xz33","msl000595","iti","img/motor_blank.png","null","65","motor","","","","","","",""
"813","","238233","HierDye43xj118","qe9dh1xz33","msl000595","motor","img/motor_3.png","68","68","motor","3","256","1","0","0","",""
"null","","238345","HierDye43xj118","qe9dh1xz33","msl000595","iti","img/motor_blank.png","null","68","motor","","","","","","",""
"637","","238991","HierDye43xj118","qe9dh1xz33","msl000595","motor","img/motor_8.png","76","76","motor","8","257","1","0","0","",""
"null","","239103","HierDye43xj118","qe9dh1xz33","msl000595","iti","img/motor_blank.png","null","76","motor","","","","","","",""
"586","","239696","HierDye43xj118","qe9dh1xz33","msl000595","motor","img/motor_4.png","70","70","motor","4","258","1","0","0","",""
"null","","239808","HierDye43xj118","qe9dh1xz33","msl000595","iti","img/motor_blank.png","null","70","motor","","","","","","",""
"384","","240199","HierDye43xj118","qe9dh1xz33","msl000595","motor","img/motor_8.png","76","76","motor","8","259","1","0","0","",""
"null","","240310","HierDye43xj118","qe9dh1xz33","msl000595","iti","img/motor_blank.png","null","76","motor","","","","","","",""
"500","","240820","HierDye43xj118","qe9dh1xz33","msl000595","motor","img/motor_3.png","68","68","motor","3","260","1","0","0","",""
"null","","240931","HierDye43xj118","qe9dh1xz33","msl000595","iti","img/motor_blank.png","null","68","motor","","","","","","",""
"516","","241456","HierDye43xj118","qe9dh1xz33","msl000595","motor","img/motor_7.png","75","75","motor","7","261","1","0","0","",""
"null","","241567","HierDye43xj118","qe9dh1xz33","msl000595","iti","img/motor_blank.png","null","75","motor","","","","","","",""
"620","","242196","HierDye43xj118","qe9dh1xz33","msl000595","motor","img/motor_1.png","65","65","motor","1","262","1","0","0","",""
"null","","242305","HierDye43xj118","qe9dh1xz33","msl000595","iti","img/motor_blank.png","null","65","motor","","","","","","",""
"466","","242781","HierDye43xj118","qe9dh1xz33","msl000595","motor","img/motor_2.png","68","83","motor","2","263","0","1","0","",""
"218","","243009","HierDye43xj118","qe9dh1xz33","msl000595","motorRepeat","img/motor_2.png","83","83","motor","2","263","1","0","0","",""
"null","","243119","HierDye43xj118","qe9dh1xz33","msl000595","iti","img/motor_blank.png","null","83","motor","","","","","","",""
"459","","243588","HierDye43xj118","qe9dh1xz33","msl000595","motor","img/motor_3.png","68","68","motor","3","264","1","0","0","",""
"null","","243697","HierDye43xj118","qe9dh1xz33","msl000595","iti","img/motor_blank.png","null","68","motor","","","","","","",""
"384","","244090","HierDye43xj118","qe9dh1xz33","msl000595","motor","img/motor_3.png","68","68","motor","3","265","1","0","0","",""
"null","","244199","HierDye43xj118","qe9dh1xz33","msl000595","iti","img/motor_blank.png","null","68","motor","","","","","","",""
"629","","244838","HierDye43xj118","qe9dh1xz33","msl000595","motor","img/motor_1.png","65","65","motor","1","266","1","0","0","",""
"null","","244946","HierDye43xj118","qe9dh1xz33","msl000595","iti","img/motor_blank.png","null","65","motor","","","","","","",""
"720","","245675","HierDye43xj118","qe9dh1xz33","msl000595","motor","img/motor_6.png","74","74","motor","6","267","1","0","0","",""
"null","","245787","HierDye43xj118","qe9dh1xz33","msl000595","iti","img/motor_blank.png","null","74","motor","","","","","","",""
"482","","246278","HierDye43xj118","qe9dh1xz33","msl000595","motor","img/motor_7.png","75","75","motor","7","268","1","0","0","",""
"null","","246388","HierDye43xj118","qe9dh1xz33","msl000595","iti","img/motor_blank.png","null","75","motor","","","","","","",""
"449","","246845","HierDye43xj118","qe9dh1xz33","msl000595","motor","img/motor_6.png","74","74","motor","6","269","1","0","0","",""
"null","","246955","HierDye43xj118","qe9dh1xz33","msl000595","iti","img/motor_blank.png","null","74","motor","","","","","","",""
"658","","247623","HierDye43xj118","qe9dh1xz33","msl000595","motor","img/motor_3.png","70","68","motor","3","270","0","1","0","",""
"267","","247898","HierDye43xj118","qe9dh1xz33","msl000595","motorRepeat","img/motor_3.png","68","68","motor","3","270","1","0","0","",""
"null","","248009","HierDye43xj118","qe9dh1xz33","msl000595","iti","img/motor_blank.png","null","68","motor","","","","","","",""
"620","","248638","HierDye43xj118","qe9dh1xz33","msl000595","motor","img/motor_6.png","75","74","motor","6","271","0","1","0","",""
"49","","248696","HierDye43xj118","qe9dh1xz33","msl000595","motorRepeat","img/motor_6.png","74","74","motor","6","271","1","0","0","",""
"null","","248807","HierDye43xj118","qe9dh1xz33","msl000595","iti","img/motor_blank.png","null","74","motor","","","","","","",""
"470","","249286","HierDye43xj118","qe9dh1xz33","msl000595","motor","img/motor_7.png","75","75","motor","7","272","1","0","0","",""
"null","","249397","HierDye43xj118","qe9dh1xz33","msl000595","iti","img/motor_blank.png","null","75","motor","","","","","","",""
"350","","249756","HierDye43xj118","qe9dh1xz33","msl000595","motor","img/motor_5.png","74","72","motor","5","273","0","1","0","",""
"183","","249946","HierDye43xj118","qe9dh1xz33","msl000595","motorRepeat","img/motor_5.png","72","72","motor","5","273","1","0","0","",""
"null","","250056","HierDye43xj118","qe9dh1xz33","msl000595","iti","img/motor_blank.png","null","72","motor","","","","","","",""
"490","","250555","HierDye43xj118","qe9dh1xz33","msl000595","motor","img/motor_4.png","70","70","motor","4","274","1","0","0","",""
"null","","250666","HierDye43xj118","qe9dh1xz33","msl000595","iti","img/motor_blank.png","null","70","motor","","","","","","",""
"419","","251095","HierDye43xj118","qe9dh1xz33","msl000595","motor","img/motor_3.png","68","68","motor","3","275","1","0","0","",""
"null","","251205","HierDye43xj118","qe9dh1xz33","msl000595","iti","img/motor_blank.png","null","68","motor","","","","","","",""
"498","","251713","HierDye43xj118","qe9dh1xz33","msl000595","motor","img/motor_2.png","83","83","motor","2","276","1","0","0","",""
"null","","251823","HierDye43xj118","qe9dh1xz33","msl000595","iti","img/motor_blank.png","null","83","motor","","","","","","",""
"573","","252407","HierDye43xj118","qe9dh1xz33","msl000595","motor","img/motor_6.png","74","74","motor","6","277","1","0","0","",""
"null","","252517","HierDye43xj118","qe9dh1xz33","msl000595","iti","img/motor_blank.png","null","74","motor","","","","","","",""
"1009","","253535","HierDye43xj118","qe9dh1xz33","msl000595","motor","img/motor_1.png","65","65","motor","1","278","1","0","0","",""
"51","","253646","HierDye43xj118","qe9dh1xz33","msl000595","iti","img/motor_blank.png","83","65","motor","","","","","","",""
"421","","254075","HierDye43xj118","qe9dh1xz33","msl000595","motor","img/motor_1.png","65","65","motor","1","279","1","0","0","",""
"null","","254184","HierDye43xj118","qe9dh1xz33","msl000595","iti","img/motor_blank.png","null","65","motor","","","","","","",""
"579","","254773","HierDye43xj118","qe9dh1xz33","msl000595","motor","img/motor_6.png","74","74","motor","6","280","1","0","0","",""
"null","","254883","HierDye43xj118","qe9dh1xz33","msl000595","iti","img/motor_blank.png","null","74","motor","","","","","","",""
"432","","255325","HierDye43xj118","qe9dh1xz33","msl000595","motor","img/motor_7.png","75","75","motor","7","281","1","0","0","",""
"null","","255436","HierDye43xj118","qe9dh1xz33","msl000595","iti","img/motor_blank.png","null","75","motor","","","","","","",""
"548","","255992","HierDye43xj118","qe9dh1xz33","msl000595","motor","img/motor_1.png","65","65","motor","1","282","1","0","0","",""
"null","","256103","HierDye43xj118","qe9dh1xz33","msl000595","iti","img/motor_blank.png","null","65","motor","","","","","","",""
"673","","256785","HierDye43xj118","qe9dh1xz33","msl000595","motor","img/motor_7.png","75","75","motor","7","283","1","0","0","",""
"null","","256896","HierDye43xj118","qe9dh1xz33","msl000595","iti","img/motor_blank.png","null","75","motor","","","","","","",""
"643","","257548","HierDye43xj118","qe9dh1xz33","msl000595","motor","img/motor_2.png","83","83","motor","2","284","1","0","0","",""
"1","","257658","HierDye43xj118","qe9dh1xz33","msl000595","iti","img/motor_blank.png","68","83","motor","","","","","","",""
"572","","258241","HierDye43xj118","qe9dh1xz33","msl000595","motor","img/motor_4.png","70","70","motor","4","285","1","0","0","",""
"null","","258351","HierDye43xj118","qe9dh1xz33","msl000595","iti","img/motor_blank.png","null","70","motor","","","","","","",""
"366","","258728","HierDye43xj118","qe9dh1xz33","msl000595","motor","img/motor_4.png","70","70","motor","4","286","1","0","0","",""
"null","","258838","HierDye43xj118","qe9dh1xz33","msl000595","iti","img/motor_blank.png","null","70","motor","","","","","","",""
"423","","259269","HierDye43xj118","qe9dh1xz33","msl000595","motor","img/motor_8.png","76","76","motor","8","287","1","0","0","",""
"null","","259380","HierDye43xj118","qe9dh1xz33","msl000595","iti","img/motor_blank.png","null","76","motor","","","","","","",""
"583","","259974","HierDye43xj118","qe9dh1xz33","msl000595","motor","img/motor_6.png","74","74","motor","6","288","1","0","0","",""
"null","","260084","HierDye43xj118","qe9dh1xz33","msl000595","iti","img/motor_blank.png","null","74","motor","","","","","","",""
"388","","260482","HierDye43xj118","qe9dh1xz33","msl000595","motor","img/motor_6.png","74","74","motor","6","289","1","0","0","",""
"null","","260590","HierDye43xj118","qe9dh1xz33","msl000595","iti","img/motor_blank.png","null","74","motor","","","","","","",""
"525","","261126","HierDye43xj118","qe9dh1xz33","msl000595","motor","img/motor_2.png","83","83","motor","2","290","1","0","0","",""
"null","","261237","HierDye43xj118","qe9dh1xz33","msl000595","iti","img/motor_blank.png","null","83","motor","","","","","","",""
"725","","261970","HierDye43xj118","qe9dh1xz33","msl000595","motor","img/motor_1.png","65","65","motor","1","291","1","0","0","",""
"null","","262081","HierDye43xj118","qe9dh1xz33","msl000595","iti","img/motor_blank.png","null","65","motor","","","","","","",""
"436","","262528","HierDye43xj118","qe9dh1xz33","msl000595","motor","img/motor_8.png","76","76","motor","8","292","1","0","0","",""
"null","","262639","HierDye43xj118","qe9dh1xz33","msl000595","iti","img/motor_blank.png","null","76","motor","","","","","","",""
"445","","263093","HierDye43xj118","qe9dh1xz33","msl000595","motor","img/motor_7.png","75","75","motor","7","293","1","0","0","",""
"null","","263203","HierDye43xj118","qe9dh1xz33","msl000595","iti","img/motor_blank.png","null","75","motor","","","","","","",""
"483","","263695","HierDye43xj118","qe9dh1xz33","msl000595","motor","img/motor_8.png","76","76","motor","8","294","1","0","0","",""
"null","","263804","HierDye43xj118","qe9dh1xz33","msl000595","iti","img/motor_blank.png","null","76","motor","","","","","","",""
"654","","264470","HierDye43xj118","qe9dh1xz33","msl000595","motor","img/motor_3.png","68","68","motor","3","295","1","0","0","",""
"null","","264581","HierDye43xj118","qe9dh1xz33","msl000595","iti","img/motor_blank.png","null","68","motor","","","","","","",""
"467","","265058","HierDye43xj118","qe9dh1xz33","msl000595","motor","img/motor_6.png","74","74","motor","6","296","1","0","0","",""
"null","","265169","HierDye43xj118","qe9dh1xz33","msl000595","iti","img/motor_blank.png","null","74","motor","","","","","","",""
"390","","265567","HierDye43xj118","qe9dh1xz33","msl000595","motor","img/motor_5.png","72","72","motor","5","297","1","0","0","",""
"null","","265681","HierDye43xj118","qe9dh1xz33","msl000595","iti","img/motor_blank.png","null","72","motor","","","","","","",""
"398","","266090","HierDye43xj118","qe9dh1xz33","msl000595","motor","img/motor_5.png","72","72","motor","5","298","1","0","0","",""
"null","","266199","HierDye43xj118","qe9dh1xz33","msl000595","iti","img/motor_blank.png","null","72","motor","","","","","","",""
"558","","266766","HierDye43xj118","qe9dh1xz33","msl000595","motor","img/motor_3.png","68","68","motor","3","299","1","0","0","",""
"null","","266878","HierDye43xj118","qe9dh1xz33","msl000595","iti","img/motor_blank.png","null","68","motor","","","","","","",""
"552","","267439","HierDye43xj118","qe9dh1xz33","msl000595","motor","img/motor_7.png","75","75","motor","7","300","1","0","0","",""
"null","","267550","HierDye43xj118","qe9dh1xz33","msl000595","iti","img/motor_blank.png","null","75","motor","","","","","","",""
"501","","268063","HierDye43xj118","qe9dh1xz33","msl000595","motor","img/motor_6.png","74","74","motor","6","301","1","0","0","",""
"null","","268175","HierDye43xj118","qe9dh1xz33","msl000595","iti","img/motor_blank.png","null","74","motor","","","","","","",""
"629","","268816","HierDye43xj118","qe9dh1xz33","msl000595","motor","img/motor_2.png","83","83","motor","2","302","1","0","0","",""
"null","","268928","HierDye43xj118","qe9dh1xz33","msl000595","iti","img/motor_blank.png","null","83","motor","","","","","","",""
"753","","269691","HierDye43xj118","qe9dh1xz33","msl000595","motor","img/motor_5.png","72","72","motor","5","303","1","0","0","",""
"null","","269802","HierDye43xj118","qe9dh1xz33","msl000595","iti","img/motor_blank.png","null","72","motor","","","","","","",""
"744","","270556","HierDye43xj118","qe9dh1xz33","msl000595","motor","img/motor_7.png","74","75","motor","7","304","0","1","0","",""
"472","","271038","HierDye43xj118","qe9dh1xz33","msl000595","motorRepeat","img/motor_7.png","75","75","motor","7","304","1","0","0","",""
"null","","271150","HierDye43xj118","qe9dh1xz33","msl000595","iti","img/motor_blank.png","null","75","motor","","","","","","",""
"364","","271524","HierDye43xj118","qe9dh1xz33","msl000595","motor","img/motor_6.png","74","74","motor","6","305","1","0","0","",""
"null","","271635","HierDye43xj118","qe9dh1xz33","msl000595","iti","img/motor_blank.png","null","74","motor","","","","","","",""
"380","","272025","HierDye43xj118","qe9dh1xz33","msl000595","motor","img/motor_7.png","75","75","motor","7","306","1","0","0","",""
"null","","272137","HierDye43xj118","qe9dh1xz33","msl000595","iti","img/motor_blank.png","null","75","motor","","","","","","",""
"626","","272774","HierDye43xj118","qe9dh1xz33","msl000595","motor","img/motor_4.png","70","70","motor","4","307","1","0","0","",""
"null","","272885","HierDye43xj118","qe9dh1xz33","msl000595","iti","img/motor_blank.png","null","70","motor","","","","","","",""
"580","","273476","HierDye43xj118","qe9dh1xz33","msl000595","motor","img/motor_6.png","74","74","motor","6","308","1","0","0","",""
"null","","273587","HierDye43xj118","qe9dh1xz33","msl000595","iti","img/motor_blank.png","null","74","motor","","","","","","",""
"415","","274012","HierDye43xj118","qe9dh1xz33","msl000595","motor","img/motor_8.png","76","76","motor","8","309","1","0","0","",""
"null","","274123","HierDye43xj118","qe9dh1xz33","msl000595","iti","img/motor_blank.png","null","76","motor","","","","","","",""
"502","","274636","HierDye43xj118","qe9dh1xz33","msl000595","motor","img/motor_7.png","76","75","motor","7","310","0","1","0","",""
"321","","274965","HierDye43xj118","qe9dh1xz33","msl000595","motorRepeat","img/motor_7.png","75","75","motor","7","310","1","0","0","",""
"null","","275074","HierDye43xj118","qe9dh1xz33","msl000595","iti","img/motor_blank.png","null","75","motor","","","","","","",""
"534","","275619","HierDye43xj118","qe9dh1xz33","msl000595","motor","img/motor_2.png","83","83","motor","2","311","1","0","0","",""
"null","","275729","HierDye43xj118","qe9dh1xz33","msl000595","iti","img/motor_blank.png","null","83","motor","","","","","","",""
"536","","276275","HierDye43xj118","qe9dh1xz33","msl000595","motor","img/motor_3.png","68","68","motor","3","312","1","0","0","",""
"null","","276386","HierDye43xj118","qe9dh1xz33","msl000595","iti","img/motor_blank.png","null","68","motor","","","","","","",""
"564","","276957","HierDye43xj118","qe9dh1xz33","msl000595","motor","img/motor_5.png","70","72","motor","5","313","0","1","0","",""
"332","","277299","HierDye43xj118","qe9dh1xz33","msl000595","motorRepeat","img/motor_5.png","72","72","motor","5","313","1","0","0","",""
"null","","277410","HierDye43xj118","qe9dh1xz33","msl000595","iti","img/motor_blank.png","null","72","motor","","","","","","",""
"414","","277832","HierDye43xj118","qe9dh1xz33","msl000595","motor","img/motor_6.png","72","74","motor","6","314","0","1","0","",""
"271","","278113","HierDye43xj118","qe9dh1xz33","msl000595","motorRepeat","img/motor_6.png","74","74","motor","6","314","1","0","0","",""
"null","","278224","HierDye43xj118","qe9dh1xz33","msl000595","iti","img/motor_blank.png","null","74","motor","","","","","","",""
"525","","278759","HierDye43xj118","qe9dh1xz33","msl000595","motor","img/motor_4.png","70","70","motor","4","315","1","0","0","",""
"null","","278871","HierDye43xj118","qe9dh1xz33","msl000595","iti","img/motor_blank.png","null","70","motor","","","","","","",""
"478","","279358","HierDye43xj118","qe9dh1xz33","msl000595","motor","img/motor_6.png","74","74","motor","6","316","1","0","0","",""
"null","","279469","HierDye43xj118","qe9dh1xz33","msl000595","iti","img/motor_blank.png","null","74","motor","","","","","","",""
"570","","280050","HierDye43xj118","qe9dh1xz33","msl000595","motor","img/motor_6.png","74","74","motor","6","317","1","0","0","",""
"null","","280160","HierDye43xj118","qe9dh1xz33","msl000595","iti","img/motor_blank.png","null","74","motor","","","","","","",""
"848","","281019","HierDye43xj118","qe9dh1xz33","msl000595","motor","img/motor_1.png","65","65","motor","1","318","1","0","0","",""
"null","","281130","HierDye43xj118","qe9dh1xz33","msl000595","iti","img/motor_blank.png","null","65","motor","","","","","","",""
"395","","281533","HierDye43xj118","qe9dh1xz33","msl000595","motor","img/motor_1.png","65","65","motor","1","319","1","0","0","",""
"null","","281644","HierDye43xj118","qe9dh1xz33","msl000595","iti","img/motor_blank.png","null","65","motor","","","","","","",""
"623","","282277","HierDye43xj118","qe9dh1xz33","msl000595","motor","img/motor_3.png","68","68","motor","3","320","1","0","0","",""
"null","","282387","HierDye43xj118","qe9dh1xz33","msl000595","iti","img/motor_blank.png","null","68","motor","","","","","","",""
"414","","282810","HierDye43xj118","qe9dh1xz33","msl000595","motor","img/motor_4.png","70","70","motor","4","321","1","0","0","",""
"null","","282921","HierDye43xj118","qe9dh1xz33","msl000595","iti","img/motor_blank.png","null","70","motor","","","","","","",""
"555","","283486","HierDye43xj118","qe9dh1xz33","msl000595","motor","img/motor_7.png","75","75","motor","7","322","1","0","0","",""
"null","","283595","HierDye43xj118","qe9dh1xz33","msl000595","iti","img/motor_blank.png","null","75","motor","","","","","","",""
"414","","284019","HierDye43xj118","qe9dh1xz33","msl000595","motor","img/motor_7.png","75","75","motor","7","323","1","0","0","",""
"null","","284130","HierDye43xj118","qe9dh1xz33","msl000595","iti","img/motor_blank.png","null","75","motor","","","","","","",""
"497","","284636","HierDye43xj118","qe9dh1xz33","msl000595","motor","img/motor_5.png","72","72","motor","5","324","1","0","0","",""
"null","","284747","HierDye43xj118","qe9dh1xz33","msl000595","iti","img/motor_blank.png","null","72","motor","","","","","","",""
"416","","285173","HierDye43xj118","qe9dh1xz33","msl000595","motor","img/motor_4.png","70","70","motor","4","325","1","0","0","",""
"null","","285284","HierDye43xj118","qe9dh1xz33","msl000595","iti","img/motor_blank.png","null","70","motor","","","","","","",""
"726","","286020","HierDye43xj118","qe9dh1xz33","msl000595","motor","img/motor_1.png","65","65","motor","1","326","1","0","0","",""
"null","","286132","HierDye43xj118","qe9dh1xz33","msl000595","iti","img/motor_blank.png","null","65","motor","","","","","","",""
"620","","286758","HierDye43xj118","qe9dh1xz33","msl000595","motor","img/motor_7.png","75","75","motor","7","327","1","0","0","",""
"null","","286865","HierDye43xj118","qe9dh1xz33","msl000595","iti","img/motor_blank.png","null","75","motor","","","","","","",""
"639","","287510","HierDye43xj118","qe9dh1xz33","msl000595","motor","img/motor_2.png","83","83","motor","2","328","1","0","0","",""
"null","","287618","HierDye43xj118","qe9dh1xz33","msl000595","iti","img/motor_blank.png","null","83","motor","","","","","","",""
"591","","288216","HierDye43xj118","qe9dh1xz33","msl000595","motor","img/motor_6.png","74","74","motor","6","329","1","0","0","",""
"null","","288326","HierDye43xj118","qe9dh1xz33","msl000595","iti","img/motor_blank.png","null","74","motor","","","","","","",""
"380","","288716","HierDye43xj118","qe9dh1xz33","msl000595","motor","img/motor_6.png","74","74","motor","6","330","1","0","0","",""
"null","","288827","HierDye43xj118","qe9dh1xz33","msl000595","iti","img/motor_blank.png","null","74","motor","","","","","","",""
"440","","289276","HierDye43xj118","qe9dh1xz33","msl000595","motor","img/motor_7.png","75","75","motor","7","331","1","0","0","",""
"null","","289389","HierDye43xj118","qe9dh1xz33","msl000595","iti","img/motor_blank.png","null","75","motor","","","","","","",""
"488","","289887","HierDye43xj118","qe9dh1xz33","msl000595","motor","img/motor_8.png","76","76","motor","8","332","1","0","0","",""
"null","","289998","HierDye43xj118","qe9dh1xz33","msl000595","iti","img/motor_blank.png","null","76","motor","","","","","","",""
"397","","290405","HierDye43xj118","qe9dh1xz33","msl000595","motor","img/motor_8.png","76","76","motor","8","333","1","0","0","",""
"null","","290516","HierDye43xj118","qe9dh1xz33","msl000595","iti","img/motor_blank.png","null","76","motor","","","","","","",""
"712","","291238","HierDye43xj118","qe9dh1xz33","msl000595","motor","img/motor_1.png","65","65","motor","1","334","1","0","0","",""
"null","","291349","HierDye43xj118","qe9dh1xz33","msl000595","iti","img/motor_blank.png","null","65","motor","","","","","","",""
"524","","291883","HierDye43xj118","qe9dh1xz33","msl000595","motor","img/motor_7.png","75","75","motor","7","335","1","0","0","",""
"null","","291994","HierDye43xj118","qe9dh1xz33","msl000595","iti","img/motor_blank.png","null","75","motor","","","","","","",""
"654","","292659","HierDye43xj118","qe9dh1xz33","msl000595","motor","img/motor_3.png","68","68","motor","3","336","1","0","0","",""
"null","","292771","HierDye43xj118","qe9dh1xz33","msl000595","iti","img/motor_blank.png","null","68","motor","","","","","","",""
"1011","","293793","HierDye43xj118","qe9dh1xz33","msl000595","motor","img/motor_1.png","65","65","motor","1","337","1","0","0","",""
"null","","293902","HierDye43xj118","qe9dh1xz33","msl000595","iti","img/motor_blank.png","null","65","motor","","","","","","",""
"497","","294410","HierDye43xj118","qe9dh1xz33","msl000595","motor","img/motor_4.png","70","70","motor","4","338","1","0","0","",""
"17","","294521","HierDye43xj118","qe9dh1xz33","msl000595","iti","img/motor_blank.png","68","70","motor","","","","","","",""
"571","","295102","HierDye43xj118","qe9dh1xz33","msl000595","motor","img/motor_7.png","75","75","motor","7","339","1","0","0","",""
"null","","295212","HierDye43xj118","qe9dh1xz33","msl000595","iti","img/motor_blank.png","null","75","motor","","","","","","",""
"394","","295616","HierDye43xj118","qe9dh1xz33","msl000595","motor","img/motor_8.png","76","76","motor","8","340","1","0","0","",""
"null","","295726","HierDye43xj118","qe9dh1xz33","msl000595","iti","img/motor_blank.png","null","76","motor","","","","","","",""
"391","","296126","HierDye43xj118","qe9dh1xz33","msl000595","motor","img/motor_5.png","72","72","motor","5","341","1","0","0","",""
"null","","296238","HierDye43xj118","qe9dh1xz33","msl000595","iti","img/motor_blank.png","null","72","motor","","","","","","",""
"511","","296759","HierDye43xj118","qe9dh1xz33","msl000595","motor","img/motor_7.png","75","75","motor","7","342","1","0","0","",""
"null","","296871","HierDye43xj118","qe9dh1xz33","msl000595","iti","img/motor_blank.png","null","75","motor","","","","","","",""
"842","","297724","HierDye43xj118","qe9dh1xz33","msl000595","motor","img/motor_1.png","65","65","motor","1","343","1","0","0","",""
"null","","297834","HierDye43xj118","qe9dh1xz33","msl000595","iti","img/motor_blank.png","null","65","motor","","","","","","",""
"541","","298385","HierDye43xj118","qe9dh1xz33","msl000595","motor","img/motor_5.png","72","72","motor","5","344","1","0","0","",""
"null","","298494","HierDye43xj118","qe9dh1xz33","msl000595","iti","img/motor_blank.png","null","72","motor","","","","","","",""
"445","","298947","HierDye43xj118","qe9dh1xz33","msl000595","motor","img/motor_4.png","70","70","motor","4","345","1","0","0","",""
"null","","299058","HierDye43xj118","qe9dh1xz33","msl000595","iti","img/motor_blank.png","null","70","motor","","","","","","",""
"342","","299410","HierDye43xj118","qe9dh1xz33","msl000595","motor","img/motor_5.png","72","72","motor","5","346","1","0","0","",""
"null","","299520","HierDye43xj118","qe9dh1xz33","msl000595","iti","img/motor_blank.png","null","72","motor","","","","","","",""
"460","","299992","HierDye43xj118","qe9dh1xz33","msl000595","motor","img/motor_1.png","65","65","motor","1","347","1","0","0","",""
"null","","300103","HierDye43xj118","qe9dh1xz33","msl000595","iti","img/motor_blank.png","null","65","motor","","","","","","",""
"512","","300626","HierDye43xj118","qe9dh1xz33","msl000595","motor","img/motor_4.png","70","70","motor","4","348","1","0","0","",""
"null","","300736","HierDye43xj118","qe9dh1xz33","msl000595","iti","img/motor_blank.png","null","70","motor","","","","","","",""
"1020","","301766","HierDye43xj118","qe9dh1xz33","msl000595","motor","img/motor_6.png","74","74","motor","6","349","1","0","0","",""
"null","","301877","HierDye43xj118","qe9dh1xz33","msl000595","iti","img/motor_blank.png","null","74","motor","","","","","","",""
