"rt","responses","time_elapsed","subject","prolificID","demoID","trialType","stimulus","key_press","corrresp","phase","stimNum","trialNum","corr","repeatTrial","motorSwitch","pracCounter","hierarchy"
"6686","{""Q0"":""msl000832""}","6739","HierDyvozp7ydm","smc0m3h28p","msl000832","","","","","","","","","","","",""
"809","","7558","HierDyvozp7ydm","smc0m3h28p","msl000832","","","","","","","","","","","",""
"","","9336","HierDyvozp7ydm","smc0m3h28p","msl000832","fullscreen","","","","","","","","","","",""
"56031","","65376","HierDyvozp7ydm","smc0m3h28p","msl000832","","","","","","","","","","","",""
"1000","","66387","HierDyvozp7ydm","smc0m3h28p","msl000832","motor","img/motor_2.png","83","83","motor","2","1","1","0","0","",""
"null","","66499","HierDyvozp7ydm","smc0m3h28p","msl000832","iti","img/motor_blank.png","null","83","motor","","","","","","",""
"786","","67293","HierDyvozp7ydm","smc0m3h28p","msl000832","motor","img/motor_8.png","76","76","motor","8","2","1","0","0","",""
"null","","67401","HierDyvozp7ydm","smc0m3h28p","msl000832","iti","img/motor_blank.png","null","76","motor","","","","","","",""
"620","","68032","HierDyvozp7ydm","smc0m3h28p","msl000832","motor","img/motor_7.png","75","75","motor","7","3","1","0","0","",""
"null","","68141","HierDyvozp7ydm","smc0m3h28p","msl000832","iti","img/motor_blank.png","null","75","motor","","","","","","",""
"555","","68705","HierDyvozp7ydm","smc0m3h28p","msl000832","motor","img/motor_7.png","75","75","motor","7","4","1","0","0","",""
"null","","68814","HierDyvozp7ydm","smc0m3h28p","msl000832","iti","img/motor_blank.png","null","75","motor","","","","","","",""
"433","","69253","HierDyvozp7ydm","smc0m3h28p","msl000832","motor","img/motor_8.png","76","76","motor","8","5","1","0","0","",""
"null","","69362","HierDyvozp7ydm","smc0m3h28p","msl000832","iti","img/motor_blank.png","null","76","motor","","","","","","",""
"875","","70245","HierDyvozp7ydm","smc0m3h28p","msl000832","motor","img/motor_6.png","74","74","motor","6","6","1","0","0","",""
"null","","70355","HierDyvozp7ydm","smc0m3h28p","msl000832","iti","img/motor_blank.png","null","74","motor","","","","","","",""
"680","","71045","HierDyvozp7ydm","smc0m3h28p","msl000832","motor","img/motor_5.png","72","72","motor","5","7","1","0","0","",""
"null","","71154","HierDyvozp7ydm","smc0m3h28p","msl000832","iti","img/motor_blank.png","null","72","motor","","","","","","",""
"453","","71618","HierDyvozp7ydm","smc0m3h28p","msl000832","motor","img/motor_6.png","74","74","motor","6","8","1","0","0","",""
"null","","71730","HierDyvozp7ydm","smc0m3h28p","msl000832","iti","img/motor_blank.png","null","74","motor","","","","","","",""
"508","","72246","HierDyvozp7ydm","smc0m3h28p","msl000832","motor","img/motor_2.png","83","83","motor","2","9","1","0","0","",""
"null","","72356","HierDyvozp7ydm","smc0m3h28p","msl000832","iti","img/motor_blank.png","null","83","motor","","","","","","",""
"475","","72840","HierDyvozp7ydm","smc0m3h28p","msl000832","motor","img/motor_5.png","72","72","motor","5","10","1","0","0","",""
"null","","72950","HierDyvozp7ydm","smc0m3h28p","msl000832","iti","img/motor_blank.png","null","72","motor","","","","","","",""
"383","","73341","HierDyvozp7ydm","smc0m3h28p","msl000832","motor","img/motor_8.png","76","76","motor","8","11","1","0","0","",""
"null","","73452","HierDyvozp7ydm","smc0m3h28p","msl000832","iti","img/motor_blank.png","null","76","motor","","","","","","",""
"409","","73869","HierDyvozp7ydm","smc0m3h28p","msl000832","motor","img/motor_5.png","72","72","motor","5","12","1","0","0","",""
"null","","73979","HierDyvozp7ydm","smc0m3h28p","msl000832","iti","img/motor_blank.png","null","72","motor","","","","","","",""
"355","","74344","HierDyvozp7ydm","smc0m3h28p","msl000832","motor","img/motor_1.png","65","65","motor","1","13","1","0","0","",""
"null","","74453","HierDyvozp7ydm","smc0m3h28p","msl000832","iti","img/motor_blank.png","null","65","motor","","","","","","",""
"719","","75180","HierDyvozp7ydm","smc0m3h28p","msl000832","motor","img/motor_3.png","68","68","motor","3","14","1","0","0","",""
"null","","75291","HierDyvozp7ydm","smc0m3h28p","msl000832","iti","img/motor_blank.png","null","68","motor","","","","","","",""
"381","","75683","HierDyvozp7ydm","smc0m3h28p","msl000832","motor","img/motor_1.png","65","65","motor","1","15","1","0","0","",""
"null","","75795","HierDyvozp7ydm","smc0m3h28p","msl000832","iti","img/motor_blank.png","null","65","motor","","","","","","",""
"642","","76447","HierDyvozp7ydm","smc0m3h28p","msl000832","motor","img/motor_7.png","75","75","motor","7","16","1","0","0","",""
"null","","76557","HierDyvozp7ydm","smc0m3h28p","msl000832","iti","img/motor_blank.png","null","75","motor","","","","","","",""
"412","","76979","HierDyvozp7ydm","smc0m3h28p","msl000832","motor","img/motor_5.png","72","72","motor","5","17","1","0","0","",""
"null","","77090","HierDyvozp7ydm","smc0m3h28p","msl000832","iti","img/motor_blank.png","null","72","motor","","","","","","",""
"626","","77724","HierDyvozp7ydm","smc0m3h28p","msl000832","motor","img/motor_6.png","74","74","motor","6","18","1","0","0","",""
"null","","77833","HierDyvozp7ydm","smc0m3h28p","msl000832","iti","img/motor_blank.png","null","74","motor","","","","","","",""
"371","","78214","HierDyvozp7ydm","smc0m3h28p","msl000832","motor","img/motor_5.png","72","72","motor","5","19","1","0","0","",""
"null","","78323","HierDyvozp7ydm","smc0m3h28p","msl000832","iti","img/motor_blank.png","null","72","motor","","","","","","",""
"583","","78915","HierDyvozp7ydm","smc0m3h28p","msl000832","motor","img/motor_2.png","83","83","motor","2","20","1","0","0","",""
"null","","79025","HierDyvozp7ydm","smc0m3h28p","msl000832","iti","img/motor_blank.png","null","83","motor","","","","","","",""
"388","","79421","HierDyvozp7ydm","smc0m3h28p","msl000832","motor","img/motor_1.png","65","65","motor","1","21","1","0","0","",""
"null","","79531","HierDyvozp7ydm","smc0m3h28p","msl000832","iti","img/motor_blank.png","null","65","motor","","","","","","",""
"681","","80221","HierDyvozp7ydm","smc0m3h28p","msl000832","motor","img/motor_4.png","70","70","motor","4","22","1","0","0","",""
"null","","80331","HierDyvozp7ydm","smc0m3h28p","msl000832","iti","img/motor_blank.png","null","70","motor","","","","","","",""
"389","","80728","HierDyvozp7ydm","smc0m3h28p","msl000832","motor","img/motor_1.png","65","65","motor","1","23","1","0","0","",""
"null","","80838","HierDyvozp7ydm","smc0m3h28p","msl000832","iti","img/motor_blank.png","null","65","motor","","","","","","",""
"499","","81345","HierDyvozp7ydm","smc0m3h28p","msl000832","motor","img/motor_8.png","76","76","motor","8","24","1","0","0","",""
"null","","81455","HierDyvozp7ydm","smc0m3h28p","msl000832","iti","img/motor_blank.png","null","76","motor","","","","","","",""
"449","","81912","HierDyvozp7ydm","smc0m3h28p","msl000832","motor","img/motor_5.png","72","72","motor","5","25","1","0","0","",""
"null","","82022","HierDyvozp7ydm","smc0m3h28p","msl000832","iti","img/motor_blank.png","null","72","motor","","","","","","",""
"398","","82428","HierDyvozp7ydm","smc0m3h28p","msl000832","motor","img/motor_6.png","74","74","motor","6","26","1","0","0","",""
"null","","82539","HierDyvozp7ydm","smc0m3h28p","msl000832","iti","img/motor_blank.png","null","74","motor","","","","","","",""
"453","","83001","HierDyvozp7ydm","smc0m3h28p","msl000832","motor","img/motor_4.png","70","70","motor","4","27","1","0","0","",""
"null","","83111","HierDyvozp7ydm","smc0m3h28p","msl000832","iti","img/motor_blank.png","null","70","motor","","","","","","",""
"358","","83480","HierDyvozp7ydm","smc0m3h28p","msl000832","motor","img/motor_1.png","65","65","motor","1","28","1","0","0","",""
"null","","83589","HierDyvozp7ydm","smc0m3h28p","msl000832","iti","img/motor_blank.png","null","65","motor","","","","","","",""
"414","","84012","HierDyvozp7ydm","smc0m3h28p","msl000832","motor","img/motor_1.png","65","65","motor","1","29","1","0","0","",""
"null","","84122","HierDyvozp7ydm","smc0m3h28p","msl000832","iti","img/motor_blank.png","null","65","motor","","","","","","",""
"434","","84565","HierDyvozp7ydm","smc0m3h28p","msl000832","motor","img/motor_2.png","83","83","motor","2","30","1","0","0","",""
"null","","84672","HierDyvozp7ydm","smc0m3h28p","msl000832","iti","img/motor_blank.png","null","83","motor","","","","","","",""
"565","","85244","HierDyvozp7ydm","smc0m3h28p","msl000832","motor","img/motor_6.png","74","74","motor","6","31","1","0","0","",""
"null","","85353","HierDyvozp7ydm","smc0m3h28p","msl000832","iti","img/motor_blank.png","null","74","motor","","","","","","",""
"493","","85854","HierDyvozp7ydm","smc0m3h28p","msl000832","motor","img/motor_5.png","72","72","motor","5","32","1","0","0","",""
"null","","85965","HierDyvozp7ydm","smc0m3h28p","msl000832","iti","img/motor_blank.png","null","72","motor","","","","","","",""
"445","","86417","HierDyvozp7ydm","smc0m3h28p","msl000832","motor","img/motor_2.png","83","83","motor","2","33","1","0","0","",""
"null","","86526","HierDyvozp7ydm","smc0m3h28p","msl000832","iti","img/motor_blank.png","null","83","motor","","","","","","",""
"494","","87029","HierDyvozp7ydm","smc0m3h28p","msl000832","motor","img/motor_3.png","68","68","motor","3","34","1","0","0","",""
"null","","87139","HierDyvozp7ydm","smc0m3h28p","msl000832","iti","img/motor_blank.png","null","68","motor","","","","","","",""
"620","","87767","HierDyvozp7ydm","smc0m3h28p","msl000832","motor","img/motor_6.png","74","74","motor","6","35","1","0","0","",""
"null","","87875","HierDyvozp7ydm","smc0m3h28p","msl000832","iti","img/motor_blank.png","null","74","motor","","","","","","",""
"573","","88458","HierDyvozp7ydm","smc0m3h28p","msl000832","motor","img/motor_2.png","83","83","motor","2","36","1","0","0","",""
"null","","88568","HierDyvozp7ydm","smc0m3h28p","msl000832","iti","img/motor_blank.png","null","83","motor","","","","","","",""
"423","","89002","HierDyvozp7ydm","smc0m3h28p","msl000832","motor","img/motor_2.png","83","83","motor","2","37","1","0","0","",""
"null","","89112","HierDyvozp7ydm","smc0m3h28p","msl000832","iti","img/motor_blank.png","null","83","motor","","","","","","",""
"557","","89678","HierDyvozp7ydm","smc0m3h28p","msl000832","motor","img/motor_8.png","76","76","motor","8","38","1","0","0","",""
"null","","89787","HierDyvozp7ydm","smc0m3h28p","msl000832","iti","img/motor_blank.png","null","76","motor","","","","","","",""
"541","","90337","HierDyvozp7ydm","smc0m3h28p","msl000832","motor","img/motor_2.png","83","83","motor","2","39","1","0","0","",""
"null","","90447","HierDyvozp7ydm","smc0m3h28p","msl000832","iti","img/motor_blank.png","null","83","motor","","","","","","",""
"813","","91270","HierDyvozp7ydm","smc0m3h28p","msl000832","motor","img/motor_6.png","74","74","motor","6","40","1","0","0","",""
"null","","91380","HierDyvozp7ydm","smc0m3h28p","msl000832","iti","img/motor_blank.png","null","74","motor","","","","","","",""
"450","","91838","HierDyvozp7ydm","smc0m3h28p","msl000832","motor","img/motor_6.png","74","74","motor","6","41","1","0","0","",""
"null","","91948","HierDyvozp7ydm","smc0m3h28p","msl000832","iti","img/motor_blank.png","null","74","motor","","","","","","",""
"758","","92715","HierDyvozp7ydm","smc0m3h28p","msl000832","motor","img/motor_3.png","68","68","motor","3","42","1","0","0","",""
"null","","92826","HierDyvozp7ydm","smc0m3h28p","msl000832","iti","img/motor_blank.png","null","68","motor","","","","","","",""
"452","","93286","HierDyvozp7ydm","smc0m3h28p","msl000832","motor","img/motor_8.png","76","76","motor","8","43","1","0","0","",""
"null","","93396","HierDyvozp7ydm","smc0m3h28p","msl000832","iti","img/motor_blank.png","null","76","motor","","","","","","",""
"768","","94172","HierDyvozp7ydm","smc0m3h28p","msl000832","motor","img/motor_3.png","68","68","motor","3","44","1","0","0","",""
"null","","94281","HierDyvozp7ydm","smc0m3h28p","msl000832","iti","img/motor_blank.png","null","68","motor","","","","","","",""
"560","","94851","HierDyvozp7ydm","smc0m3h28p","msl000832","motor","img/motor_4.png","70","70","motor","4","45","1","0","0","",""
"null","","94961","HierDyvozp7ydm","smc0m3h28p","msl000832","iti","img/motor_blank.png","null","70","motor","","","","","","",""
"647","","95615","HierDyvozp7ydm","smc0m3h28p","msl000832","motor","img/motor_2.png","83","83","motor","2","46","1","0","0","",""
"null","","95725","HierDyvozp7ydm","smc0m3h28p","msl000832","iti","img/motor_blank.png","null","83","motor","","","","","","",""
"574","","96306","HierDyvozp7ydm","smc0m3h28p","msl000832","motor","img/motor_3.png","68","68","motor","3","47","1","0","0","",""
"null","","96416","HierDyvozp7ydm","smc0m3h28p","msl000832","iti","img/motor_blank.png","null","68","motor","","","","","","",""
"362","","96787","HierDyvozp7ydm","smc0m3h28p","msl000832","motor","img/motor_2.png","83","83","motor","2","48","1","0","0","",""
"null","","96896","HierDyvozp7ydm","smc0m3h28p","msl000832","iti","img/motor_blank.png","null","83","motor","","","","","","",""
"692","","97595","HierDyvozp7ydm","smc0m3h28p","msl000832","motor","img/motor_7.png","75","75","motor","7","49","1","0","0","",""
"null","","97705","HierDyvozp7ydm","smc0m3h28p","msl000832","iti","img/motor_blank.png","null","75","motor","","","","","","",""
"449","","98160","HierDyvozp7ydm","smc0m3h28p","msl000832","motor","img/motor_6.png","74","74","motor","6","50","1","0","0","",""
"null","","98270","HierDyvozp7ydm","smc0m3h28p","msl000832","iti","img/motor_blank.png","null","74","motor","","","","","","",""
"771","","99051","HierDyvozp7ydm","smc0m3h28p","msl000832","motor","img/motor_3.png","68","68","motor","3","51","1","0","0","",""
"null","","99160","HierDyvozp7ydm","smc0m3h28p","msl000832","iti","img/motor_blank.png","null","68","motor","","","","","","",""
"508","","99678","HierDyvozp7ydm","smc0m3h28p","msl000832","motor","img/motor_4.png","70","70","motor","4","52","1","0","0","",""
"null","","99789","HierDyvozp7ydm","smc0m3h28p","msl000832","iti","img/motor_blank.png","null","70","motor","","","","","","",""
"504","","100301","HierDyvozp7ydm","smc0m3h28p","msl000832","motor","img/motor_5.png","72","72","motor","5","53","1","0","0","",""
"null","","100410","HierDyvozp7ydm","smc0m3h28p","msl000832","iti","img/motor_blank.png","null","72","motor","","","","","","",""
"565","","100983","HierDyvozp7ydm","smc0m3h28p","msl000832","motor","img/motor_2.png","83","83","motor","2","54","1","0","0","",""
"null","","101093","HierDyvozp7ydm","smc0m3h28p","msl000832","iti","img/motor_blank.png","null","83","motor","","","","","","",""
"530","","101630","HierDyvozp7ydm","smc0m3h28p","msl000832","motor","img/motor_5.png","72","72","motor","5","55","1","0","0","",""
"null","","101739","HierDyvozp7ydm","smc0m3h28p","msl000832","iti","img/motor_blank.png","null","72","motor","","","","","","",""
"471","","102220","HierDyvozp7ydm","smc0m3h28p","msl000832","motor","img/motor_3.png","68","68","motor","3","56","1","0","0","",""
"null","","102330","HierDyvozp7ydm","smc0m3h28p","msl000832","iti","img/motor_blank.png","null","68","motor","","","","","","",""
"417","","102756","HierDyvozp7ydm","smc0m3h28p","msl000832","motor","img/motor_3.png","68","68","motor","3","57","1","0","0","",""
"null","","102866","HierDyvozp7ydm","smc0m3h28p","msl000832","iti","img/motor_blank.png","null","68","motor","","","","","","",""
"552","","103428","HierDyvozp7ydm","smc0m3h28p","msl000832","motor","img/motor_6.png","72","74","motor","6","58","0","1","0","",""
"390","","103827","HierDyvozp7ydm","smc0m3h28p","msl000832","motorRepeat","img/motor_6.png","74","74","motor","6","58","1","0","0","",""
"null","","103939","HierDyvozp7ydm","smc0m3h28p","msl000832","iti","img/motor_blank.png","null","74","motor","","","","","","",""
"605","","104553","HierDyvozp7ydm","smc0m3h28p","msl000832","motor","img/motor_4.png","68","70","motor","4","59","0","1","0","",""
"447","","105010","HierDyvozp7ydm","smc0m3h28p","msl000832","motorRepeat","img/motor_4.png","70","70","motor","4","59","1","0","0","",""
"null","","105120","HierDyvozp7ydm","smc0m3h28p","msl000832","iti","img/motor_blank.png","null","70","motor","","","","","","",""
"518","","105647","HierDyvozp7ydm","smc0m3h28p","msl000832","motor","img/motor_6.png","74","74","motor","6","60","1","0","0","",""
"null","","105757","HierDyvozp7ydm","smc0m3h28p","msl000832","iti","img/motor_blank.png","null","74","motor","","","","","","",""
"570","","106336","HierDyvozp7ydm","smc0m3h28p","msl000832","motor","img/motor_8.png","76","76","motor","8","61","1","0","0","",""
"null","","106445","HierDyvozp7ydm","smc0m3h28p","msl000832","iti","img/motor_blank.png","null","76","motor","","","","","","",""
"468","","106921","HierDyvozp7ydm","smc0m3h28p","msl000832","motor","img/motor_5.png","72","72","motor","5","62","1","0","0","",""
"null","","107031","HierDyvozp7ydm","smc0m3h28p","msl000832","iti","img/motor_blank.png","null","72","motor","","","","","","",""
"726","","107766","HierDyvozp7ydm","smc0m3h28p","msl000832","motor","img/motor_7.png","75","75","motor","7","63","1","0","0","",""
"null","","107877","HierDyvozp7ydm","smc0m3h28p","msl000832","iti","img/motor_blank.png","null","75","motor","","","","","","",""
"667","","108552","HierDyvozp7ydm","smc0m3h28p","msl000832","motor","img/motor_3.png","68","68","motor","3","64","1","0","0","",""
"null","","108661","HierDyvozp7ydm","smc0m3h28p","msl000832","iti","img/motor_blank.png","null","68","motor","","","","","","",""
"548","","109218","HierDyvozp7ydm","smc0m3h28p","msl000832","motor","img/motor_2.png","83","83","motor","2","65","1","0","0","",""
"null","","109326","HierDyvozp7ydm","smc0m3h28p","msl000832","iti","img/motor_blank.png","null","83","motor","","","","","","",""
"509","","109844","HierDyvozp7ydm","smc0m3h28p","msl000832","motor","img/motor_3.png","68","68","motor","3","66","1","0","0","",""
"null","","109953","HierDyvozp7ydm","smc0m3h28p","msl000832","iti","img/motor_blank.png","null","68","motor","","","","","","",""
"650","","110612","HierDyvozp7ydm","smc0m3h28p","msl000832","motor","img/motor_7.png","75","75","motor","7","67","1","0","0","",""
"null","","110722","HierDyvozp7ydm","smc0m3h28p","msl000832","iti","img/motor_blank.png","null","75","motor","","","","","","",""
"635","","111364","HierDyvozp7ydm","smc0m3h28p","msl000832","motor","img/motor_2.png","83","83","motor","2","68","1","0","0","",""
"null","","111473","HierDyvozp7ydm","smc0m3h28p","msl000832","iti","img/motor_blank.png","null","83","motor","","","","","","",""
"519","","112002","HierDyvozp7ydm","smc0m3h28p","msl000832","motor","img/motor_4.png","70","70","motor","4","69","1","0","0","",""
"null","","112112","HierDyvozp7ydm","smc0m3h28p","msl000832","iti","img/motor_blank.png","null","70","motor","","","","","","",""
"639","","112760","HierDyvozp7ydm","smc0m3h28p","msl000832","motor","img/motor_6.png","74","74","motor","6","70","1","0","0","",""
"null","","112870","HierDyvozp7ydm","smc0m3h28p","msl000832","iti","img/motor_blank.png","null","74","motor","","","","","","",""
"734","","113613","HierDyvozp7ydm","smc0m3h28p","msl000832","motor","img/motor_4.png","68","70","motor","4","71","0","1","0","",""
"418","","114040","HierDyvozp7ydm","smc0m3h28p","msl000832","motorRepeat","img/motor_4.png","70","70","motor","4","71","1","0","0","",""
"null","","114149","HierDyvozp7ydm","smc0m3h28p","msl000832","iti","img/motor_blank.png","null","70","motor","","","","","","",""
"635","","114792","HierDyvozp7ydm","smc0m3h28p","msl000832","motor","img/motor_2.png","83","83","motor","2","72","1","0","0","",""
"null","","114901","HierDyvozp7ydm","smc0m3h28p","msl000832","iti","img/motor_blank.png","null","83","motor","","","","","","",""
"702","","115609","HierDyvozp7ydm","smc0m3h28p","msl000832","motor","img/motor_6.png","74","74","motor","6","73","1","0","0","",""
"null","","115719","HierDyvozp7ydm","smc0m3h28p","msl000832","iti","img/motor_blank.png","null","74","motor","","","","","","",""
"560","","116286","HierDyvozp7ydm","smc0m3h28p","msl000832","motor","img/motor_4.png","70","70","motor","4","74","1","0","0","",""
"null","","116395","HierDyvozp7ydm","smc0m3h28p","msl000832","iti","img/motor_blank.png","null","70","motor","","","","","","",""
"463","","116866","HierDyvozp7ydm","smc0m3h28p","msl000832","motor","img/motor_1.png","65","65","motor","1","75","1","0","0","",""
"null","","116975","HierDyvozp7ydm","smc0m3h28p","msl000832","iti","img/motor_blank.png","null","65","motor","","","","","","",""
"598","","117583","HierDyvozp7ydm","smc0m3h28p","msl000832","motor","img/motor_3.png","68","68","motor","3","76","1","0","0","",""
"null","","117694","HierDyvozp7ydm","smc0m3h28p","msl000832","iti","img/motor_blank.png","null","68","motor","","","","","","",""
"492","","118196","HierDyvozp7ydm","smc0m3h28p","msl000832","motor","img/motor_4.png","70","70","motor","4","77","1","0","0","",""
"null","","118304","HierDyvozp7ydm","smc0m3h28p","msl000832","iti","img/motor_blank.png","null","70","motor","","","","","","",""
"532","","118844","HierDyvozp7ydm","smc0m3h28p","msl000832","motor","img/motor_6.png","72","74","motor","6","78","0","1","0","",""
"292","","119144","HierDyvozp7ydm","smc0m3h28p","msl000832","motorRepeat","img/motor_6.png","74","74","motor","6","78","1","0","0","",""
"null","","119255","HierDyvozp7ydm","smc0m3h28p","msl000832","iti","img/motor_blank.png","null","74","motor","","","","","","",""
"543","","119807","HierDyvozp7ydm","smc0m3h28p","msl000832","motor","img/motor_7.png","75","75","motor","7","79","1","0","0","",""
"null","","119918","HierDyvozp7ydm","smc0m3h28p","msl000832","iti","img/motor_blank.png","null","75","motor","","","","","","",""
"348","","120274","HierDyvozp7ydm","smc0m3h28p","msl000832","motor","img/motor_6.png","74","74","motor","6","80","1","0","0","",""
"null","","120384","HierDyvozp7ydm","smc0m3h28p","msl000832","iti","img/motor_blank.png","null","74","motor","","","","","","",""
"449","","120842","HierDyvozp7ydm","smc0m3h28p","msl000832","motor","img/motor_4.png","70","70","motor","4","81","1","0","0","",""
"null","","120953","HierDyvozp7ydm","smc0m3h28p","msl000832","iti","img/motor_blank.png","null","70","motor","","","","","","",""
"618","","121580","HierDyvozp7ydm","smc0m3h28p","msl000832","motor","img/motor_8.png","76","76","motor","8","82","1","0","0","",""
"null","","121692","HierDyvozp7ydm","smc0m3h28p","msl000832","iti","img/motor_blank.png","null","76","motor","","","","","","",""
"555","","122257","HierDyvozp7ydm","smc0m3h28p","msl000832","motor","img/motor_4.png","70","70","motor","4","83","1","0","0","",""
"null","","122367","HierDyvozp7ydm","smc0m3h28p","msl000832","iti","img/motor_blank.png","null","70","motor","","","","","","",""
"458","","122835","HierDyvozp7ydm","smc0m3h28p","msl000832","motor","img/motor_2.png","83","83","motor","2","84","1","0","0","",""
"null","","122946","HierDyvozp7ydm","smc0m3h28p","msl000832","iti","img/motor_blank.png","null","83","motor","","","","","","",""
"397","","123349","HierDyvozp7ydm","smc0m3h28p","msl000832","motor","img/motor_3.png","68","68","motor","3","85","1","0","0","",""
"null","","123460","HierDyvozp7ydm","smc0m3h28p","msl000832","iti","img/motor_blank.png","null","68","motor","","","","","","",""
"542","","124011","HierDyvozp7ydm","smc0m3h28p","msl000832","motor","img/motor_6.png","74","74","motor","6","86","1","0","0","",""
"null","","124121","HierDyvozp7ydm","smc0m3h28p","msl000832","iti","img/motor_blank.png","null","74","motor","","","","","","",""
"421","","124550","HierDyvozp7ydm","smc0m3h28p","msl000832","motor","img/motor_4.png","70","70","motor","4","87","1","0","0","",""
"null","","124659","HierDyvozp7ydm","smc0m3h28p","msl000832","iti","img/motor_blank.png","null","70","motor","","","","","","",""
"380","","125049","HierDyvozp7ydm","smc0m3h28p","msl000832","motor","img/motor_4.png","70","70","motor","4","88","1","0","0","",""
"null","","125158","HierDyvozp7ydm","smc0m3h28p","msl000832","iti","img/motor_blank.png","null","70","motor","","","","","","",""
"421","","125587","HierDyvozp7ydm","smc0m3h28p","msl000832","motor","img/motor_1.png","65","65","motor","1","89","1","0","0","",""
"null","","125699","HierDyvozp7ydm","smc0m3h28p","msl000832","iti","img/motor_blank.png","null","65","motor","","","","","","",""
"637","","126344","HierDyvozp7ydm","smc0m3h28p","msl000832","motor","img/motor_3.png","68","68","motor","3","90","1","0","0","",""
"null","","126455","HierDyvozp7ydm","smc0m3h28p","msl000832","iti","img/motor_blank.png","null","68","motor","","","","","","",""
"392","","126856","HierDyvozp7ydm","smc0m3h28p","msl000832","motor","img/motor_2.png","83","83","motor","2","91","1","0","0","",""
"null","","126964","HierDyvozp7ydm","smc0m3h28p","msl000832","iti","img/motor_blank.png","null","83","motor","","","","","","",""
"699","","127671","HierDyvozp7ydm","smc0m3h28p","msl000832","motor","img/motor_6.png","74","74","motor","6","92","1","0","0","",""
"null","","127780","HierDyvozp7ydm","smc0m3h28p","msl000832","iti","img/motor_blank.png","null","74","motor","","","","","","",""
"400","","128189","HierDyvozp7ydm","smc0m3h28p","msl000832","motor","img/motor_6.png","74","74","motor","6","93","1","0","0","",""
"null","","128296","HierDyvozp7ydm","smc0m3h28p","msl000832","iti","img/motor_blank.png","null","74","motor","","","","","","",""
"431","","128737","HierDyvozp7ydm","smc0m3h28p","msl000832","motor","img/motor_1.png","65","65","motor","1","94","1","0","0","",""
"null","","128847","HierDyvozp7ydm","smc0m3h28p","msl000832","iti","img/motor_blank.png","null","65","motor","","","","","","",""
"422","","129278","HierDyvozp7ydm","smc0m3h28p","msl000832","motor","img/motor_1.png","65","65","motor","1","95","1","0","0","",""
"null","","129389","HierDyvozp7ydm","smc0m3h28p","msl000832","iti","img/motor_blank.png","null","65","motor","","","","","","",""
"776","","130172","HierDyvozp7ydm","smc0m3h28p","msl000832","motor","img/motor_6.png","74","74","motor","6","96","1","0","0","",""
"null","","130282","HierDyvozp7ydm","smc0m3h28p","msl000832","iti","img/motor_blank.png","null","74","motor","","","","","","",""
"537","","130829","HierDyvozp7ydm","smc0m3h28p","msl000832","motor","img/motor_6.png","74","74","motor","6","97","1","0","0","",""
"null","","130939","HierDyvozp7ydm","smc0m3h28p","msl000832","iti","img/motor_blank.png","null","74","motor","","","","","","",""
"485","","131431","HierDyvozp7ydm","smc0m3h28p","msl000832","motor","img/motor_8.png","76","76","motor","8","98","1","0","0","",""
"null","","131541","HierDyvozp7ydm","smc0m3h28p","msl000832","iti","img/motor_blank.png","null","76","motor","","","","","","",""
"722","","132272","HierDyvozp7ydm","smc0m3h28p","msl000832","motor","img/motor_3.png","68","68","motor","3","99","1","0","0","",""
"null","","132380","HierDyvozp7ydm","smc0m3h28p","msl000832","iti","img/motor_blank.png","null","68","motor","","","","","","",""
"455","","132843","HierDyvozp7ydm","smc0m3h28p","msl000832","motor","img/motor_8.png","76","76","motor","8","100","1","0","0","",""
"null","","132953","HierDyvozp7ydm","smc0m3h28p","msl000832","iti","img/motor_blank.png","null","76","motor","","","","","","",""
"475","","133436","HierDyvozp7ydm","smc0m3h28p","msl000832","motor","img/motor_1.png","65","65","motor","1","101","1","0","0","",""
"null","","133546","HierDyvozp7ydm","smc0m3h28p","msl000832","iti","img/motor_blank.png","null","65","motor","","","","","","",""
"491","","134048","HierDyvozp7ydm","smc0m3h28p","msl000832","motor","img/motor_5.png","72","72","motor","5","102","1","0","0","",""
"null","","134156","HierDyvozp7ydm","smc0m3h28p","msl000832","iti","img/motor_blank.png","null","72","motor","","","","","","",""
"451","","134615","HierDyvozp7ydm","smc0m3h28p","msl000832","motor","img/motor_8.png","76","76","motor","8","103","1","0","0","",""
"null","","134725","HierDyvozp7ydm","smc0m3h28p","msl000832","iti","img/motor_blank.png","null","76","motor","","","","","","",""
"475","","135209","HierDyvozp7ydm","smc0m3h28p","msl000832","motor","img/motor_1.png","65","65","motor","1","104","1","0","0","",""
"null","","135321","HierDyvozp7ydm","smc0m3h28p","msl000832","iti","img/motor_blank.png","null","65","motor","","","","","","",""
"636","","135969","HierDyvozp7ydm","smc0m3h28p","msl000832","motor","img/motor_3.png","68","68","motor","3","105","1","0","0","",""
"null","","136079","HierDyvozp7ydm","smc0m3h28p","msl000832","iti","img/motor_blank.png","null","68","motor","","","","","","",""
"393","","136483","HierDyvozp7ydm","smc0m3h28p","msl000832","motor","img/motor_8.png","76","76","motor","8","106","1","0","0","",""
"null","","136594","HierDyvozp7ydm","smc0m3h28p","msl000832","iti","img/motor_blank.png","null","76","motor","","","","","","",""
"435","","137041","HierDyvozp7ydm","smc0m3h28p","msl000832","motor","img/motor_2.png","65","83","motor","2","107","0","1","0","",""
"91","","137142","HierDyvozp7ydm","smc0m3h28p","msl000832","motorRepeat","img/motor_2.png","83","83","motor","2","107","1","0","0","",""
"null","","137253","HierDyvozp7ydm","smc0m3h28p","msl000832","iti","img/motor_blank.png","null","83","motor","","","","","","",""
"650","","137913","HierDyvozp7ydm","smc0m3h28p","msl000832","motor","img/motor_1.png","65","65","motor","1","108","1","0","0","",""
"null","","138023","HierDyvozp7ydm","smc0m3h28p","msl000832","iti","img/motor_blank.png","null","65","motor","","","","","","",""
"744","","138776","HierDyvozp7ydm","smc0m3h28p","msl000832","motor","img/motor_4.png","70","70","motor","4","109","1","0","0","",""
"null","","138887","HierDyvozp7ydm","smc0m3h28p","msl000832","iti","img/motor_blank.png","null","70","motor","","","","","","",""
"509","","139403","HierDyvozp7ydm","smc0m3h28p","msl000832","motor","img/motor_8.png","76","76","motor","8","110","1","0","0","",""
"null","","139513","HierDyvozp7ydm","smc0m3h28p","msl000832","iti","img/motor_blank.png","null","76","motor","","","","","","",""
"366","","139891","HierDyvozp7ydm","smc0m3h28p","msl000832","motor","img/motor_8.png","76","76","motor","8","111","1","0","0","",""
"null","","140003","HierDyvozp7ydm","smc0m3h28p","msl000832","iti","img/motor_blank.png","null","76","motor","","","","","","",""
"470","","140483","HierDyvozp7ydm","smc0m3h28p","msl000832","motor","img/motor_6.png","72","74","motor","6","112","0","1","0","",""
"456","","140950","HierDyvozp7ydm","smc0m3h28p","msl000832","motorRepeat","img/motor_6.png","74","74","motor","6","112","1","0","0","",""
"null","","141061","HierDyvozp7ydm","smc0m3h28p","msl000832","iti","img/motor_blank.png","null","74","motor","","","","","","",""
"432","","141504","HierDyvozp7ydm","smc0m3h28p","msl000832","motor","img/motor_1.png","65","65","motor","1","113","1","0","0","",""
"null","","141614","HierDyvozp7ydm","smc0m3h28p","msl000832","iti","img/motor_blank.png","null","65","motor","","","","","","",""
"437","","142059","HierDyvozp7ydm","smc0m3h28p","msl000832","motor","img/motor_3.png","68","68","motor","3","114","1","0","0","",""
"null","","142168","HierDyvozp7ydm","smc0m3h28p","msl000832","iti","img/motor_blank.png","null","68","motor","","","","","","",""
"380","","142557","HierDyvozp7ydm","smc0m3h28p","msl000832","motor","img/motor_1.png","65","65","motor","1","115","1","0","0","",""
"null","","142668","HierDyvozp7ydm","smc0m3h28p","msl000832","iti","img/motor_blank.png","null","65","motor","","","","","","",""
"552","","143229","HierDyvozp7ydm","smc0m3h28p","msl000832","motor","img/motor_4.png","70","70","motor","4","116","1","0","0","",""
"null","","143340","HierDyvozp7ydm","smc0m3h28p","msl000832","iti","img/motor_blank.png","null","70","motor","","","","","","",""
"458","","143807","HierDyvozp7ydm","smc0m3h28p","msl000832","motor","img/motor_6.png","74","74","motor","6","117","1","0","0","",""
"null","","143917","HierDyvozp7ydm","smc0m3h28p","msl000832","iti","img/motor_blank.png","null","74","motor","","","","","","",""
"428","","144355","HierDyvozp7ydm","smc0m3h28p","msl000832","motor","img/motor_8.png","76","76","motor","8","118","1","0","0","",""
"null","","144466","HierDyvozp7ydm","smc0m3h28p","msl000832","iti","img/motor_blank.png","null","76","motor","","","","","","",""
"366","","144842","HierDyvozp7ydm","smc0m3h28p","msl000832","motor","img/motor_5.png","72","72","motor","5","119","1","0","0","",""
"null","","144952","HierDyvozp7ydm","smc0m3h28p","msl000832","iti","img/motor_blank.png","null","72","motor","","","","","","",""
"441","","145402","HierDyvozp7ydm","smc0m3h28p","msl000832","motor","img/motor_2.png","83","83","motor","2","120","1","0","0","",""
"null","","145510","HierDyvozp7ydm","smc0m3h28p","msl000832","iti","img/motor_blank.png","null","83","motor","","","","","","",""
"381","","145901","HierDyvozp7ydm","smc0m3h28p","msl000832","motor","img/motor_5.png","72","72","motor","5","121","1","0","0","",""
"null","","146011","HierDyvozp7ydm","smc0m3h28p","msl000832","iti","img/motor_blank.png","null","72","motor","","","","","","",""
"352","","146372","HierDyvozp7ydm","smc0m3h28p","msl000832","motor","img/motor_5.png","72","72","motor","5","122","1","0","0","",""
"null","","146480","HierDyvozp7ydm","smc0m3h28p","msl000832","iti","img/motor_blank.png","null","72","motor","","","","","","",""
"521","","147010","HierDyvozp7ydm","smc0m3h28p","msl000832","motor","img/motor_3.png","68","68","motor","3","123","1","0","0","",""
"null","","147119","HierDyvozp7ydm","smc0m3h28p","msl000832","iti","img/motor_blank.png","null","68","motor","","","","","","",""
"409","","147536","HierDyvozp7ydm","smc0m3h28p","msl000832","motor","img/motor_2.png","83","83","motor","2","124","1","0","0","",""
"null","","147645","HierDyvozp7ydm","smc0m3h28p","msl000832","iti","img/motor_blank.png","null","83","motor","","","","","","",""
"539","","148194","HierDyvozp7ydm","smc0m3h28p","msl000832","motor","img/motor_3.png","68","68","motor","3","125","1","0","0","",""
"null","","148304","HierDyvozp7ydm","smc0m3h28p","msl000832","iti","img/motor_blank.png","null","68","motor","","","","","","",""
"437","","148751","HierDyvozp7ydm","smc0m3h28p","msl000832","motor","img/motor_8.png","76","76","motor","8","126","1","0","0","",""
"null","","148862","HierDyvozp7ydm","smc0m3h28p","msl000832","iti","img/motor_blank.png","null","76","motor","","","","","","",""
"421","","149293","HierDyvozp7ydm","smc0m3h28p","msl000832","motor","img/motor_2.png","83","83","motor","2","127","1","0","0","",""
"null","","149403","HierDyvozp7ydm","smc0m3h28p","msl000832","iti","img/motor_blank.png","null","83","motor","","","","","","",""
"408","","149821","HierDyvozp7ydm","smc0m3h28p","msl000832","motor","img/motor_7.png","76","75","motor","7","128","0","1","0","",""
"336","","150165","HierDyvozp7ydm","smc0m3h28p","msl000832","motorRepeat","img/motor_7.png","75","75","motor","7","128","1","0","0","",""
"null","","150276","HierDyvozp7ydm","smc0m3h28p","msl000832","iti","img/motor_blank.png","null","75","motor","","","","","","",""
"435","","150718","HierDyvozp7ydm","smc0m3h28p","msl000832","motor","img/motor_8.png","76","76","motor","8","129","1","0","0","",""
"null","","150828","HierDyvozp7ydm","smc0m3h28p","msl000832","iti","img/motor_blank.png","null","76","motor","","","","","","",""
"475","","151312","HierDyvozp7ydm","smc0m3h28p","msl000832","motor","img/motor_1.png","65","65","motor","1","130","1","0","0","",""
"null","","151423","HierDyvozp7ydm","smc0m3h28p","msl000832","iti","img/motor_blank.png","null","65","motor","","","","","","",""
"710","","152141","HierDyvozp7ydm","smc0m3h28p","msl000832","motor","img/motor_5.png","72","72","motor","5","131","1","0","0","",""
"null","","152252","HierDyvozp7ydm","smc0m3h28p","msl000832","iti","img/motor_blank.png","null","72","motor","","","","","","",""
"380","","152641","HierDyvozp7ydm","smc0m3h28p","msl000832","motor","img/motor_5.png","72","72","motor","5","132","1","0","0","",""
"null","","152751","HierDyvozp7ydm","smc0m3h28p","msl000832","iti","img/motor_blank.png","null","72","motor","","","","","","",""
"446","","153207","HierDyvozp7ydm","smc0m3h28p","msl000832","motor","img/motor_1.png","65","65","motor","1","133","1","0","0","",""
"null","","153315","HierDyvozp7ydm","smc0m3h28p","msl000832","iti","img/motor_blank.png","null","65","motor","","","","","","",""
"331","","153653","HierDyvozp7ydm","smc0m3h28p","msl000832","motor","img/motor_5.png","72","72","motor","5","134","1","0","0","",""
"null","","153765","HierDyvozp7ydm","smc0m3h28p","msl000832","iti","img/motor_blank.png","null","72","motor","","","","","","",""
"516","","154287","HierDyvozp7ydm","smc0m3h28p","msl000832","motor","img/motor_4.png","68","70","motor","4","135","0","1","0","",""
"380","","154674","HierDyvozp7ydm","smc0m3h28p","msl000832","motorRepeat","img/motor_4.png","70","70","motor","4","135","1","0","0","",""
"null","","154784","HierDyvozp7ydm","smc0m3h28p","msl000832","iti","img/motor_blank.png","null","70","motor","","","","","","",""
"403","","155197","HierDyvozp7ydm","smc0m3h28p","msl000832","motor","img/motor_4.png","70","70","motor","4","136","1","0","0","",""
"null","","155305","HierDyvozp7ydm","smc0m3h28p","msl000832","iti","img/motor_blank.png","null","70","motor","","","","","","",""
"384","","155698","HierDyvozp7ydm","smc0m3h28p","msl000832","motor","img/motor_2.png","83","83","motor","2","137","1","0","0","",""
"null","","155809","HierDyvozp7ydm","smc0m3h28p","msl000832","iti","img/motor_blank.png","null","83","motor","","","","","","",""
"657","","156475","HierDyvozp7ydm","smc0m3h28p","msl000832","motor","img/motor_7.png","75","75","motor","7","138","1","0","0","",""
"null","","156582","HierDyvozp7ydm","smc0m3h28p","msl000832","iti","img/motor_blank.png","null","75","motor","","","","","","",""
"422","","157014","HierDyvozp7ydm","smc0m3h28p","msl000832","motor","img/motor_8.png","76","76","motor","8","139","1","0","0","",""
"null","","157123","HierDyvozp7ydm","smc0m3h28p","msl000832","iti","img/motor_blank.png","null","76","motor","","","","","","",""
"365","","157496","HierDyvozp7ydm","smc0m3h28p","msl000832","motor","img/motor_5.png","72","72","motor","5","140","1","0","0","",""
"null","","157605","HierDyvozp7ydm","smc0m3h28p","msl000832","iti","img/motor_blank.png","null","72","motor","","","","","","",""
"469","","158082","HierDyvozp7ydm","smc0m3h28p","msl000832","motor","img/motor_7.png","75","75","motor","7","141","1","0","0","",""
"null","","158193","HierDyvozp7ydm","smc0m3h28p","msl000832","iti","img/motor_blank.png","null","75","motor","","","","","","",""
"410","","158612","HierDyvozp7ydm","smc0m3h28p","msl000832","motor","img/motor_7.png","75","75","motor","7","142","1","0","0","",""
"null","","158723","HierDyvozp7ydm","smc0m3h28p","msl000832","iti","img/motor_blank.png","null","75","motor","","","","","","",""
"585","","159317","HierDyvozp7ydm","smc0m3h28p","msl000832","motor","img/motor_5.png","72","72","motor","5","143","1","0","0","",""
"null","","159427","HierDyvozp7ydm","smc0m3h28p","msl000832","iti","img/motor_blank.png","null","72","motor","","","","","","",""
"340","","159778","HierDyvozp7ydm","smc0m3h28p","msl000832","motor","img/motor_8.png","76","76","motor","8","144","1","0","0","",""
"null","","159888","HierDyvozp7ydm","smc0m3h28p","msl000832","iti","img/motor_blank.png","null","76","motor","","","","","","",""
"366","","160262","HierDyvozp7ydm","smc0m3h28p","msl000832","motor","img/motor_5.png","72","72","motor","5","145","1","0","0","",""
"null","","160373","HierDyvozp7ydm","smc0m3h28p","msl000832","iti","img/motor_blank.png","null","72","motor","","","","","","",""
"400","","160783","HierDyvozp7ydm","smc0m3h28p","msl000832","motor","img/motor_1.png","65","65","motor","1","146","1","0","0","",""
"null","","160893","HierDyvozp7ydm","smc0m3h28p","msl000832","iti","img/motor_blank.png","null","65","motor","","","","","","",""
"413","","161315","HierDyvozp7ydm","smc0m3h28p","msl000832","motor","img/motor_4.png","70","70","motor","4","147","1","0","0","",""
"null","","161426","HierDyvozp7ydm","smc0m3h28p","msl000832","iti","img/motor_blank.png","null","70","motor","","","","","","",""
"392","","161826","HierDyvozp7ydm","smc0m3h28p","msl000832","motor","img/motor_3.png","68","68","motor","3","148","1","0","0","",""
"null","","161938","HierDyvozp7ydm","smc0m3h28p","msl000832","iti","img/motor_blank.png","null","68","motor","","","","","","",""
"489","","162437","HierDyvozp7ydm","smc0m3h28p","msl000832","motor","img/motor_7.png","75","75","motor","7","149","1","0","0","",""
"null","","162547","HierDyvozp7ydm","smc0m3h28p","msl000832","iti","img/motor_blank.png","null","75","motor","","","","","","",""
"378","","162934","HierDyvozp7ydm","smc0m3h28p","msl000832","motor","img/motor_8.png","76","76","motor","8","150","1","0","0","",""
"null","","163043","HierDyvozp7ydm","smc0m3h28p","msl000832","iti","img/motor_blank.png","null","76","motor","","","","","","",""
"468","","163519","HierDyvozp7ydm","smc0m3h28p","msl000832","motor","img/motor_1.png","65","65","motor","1","151","1","0","0","",""
"null","","163630","HierDyvozp7ydm","smc0m3h28p","msl000832","iti","img/motor_blank.png","null","65","motor","","","","","","",""
"398","","164038","HierDyvozp7ydm","smc0m3h28p","msl000832","motor","img/motor_5.png","72","72","motor","5","152","1","0","0","",""
"null","","164148","HierDyvozp7ydm","smc0m3h28p","msl000832","iti","img/motor_blank.png","null","72","motor","","","","","","",""
"380","","164538","HierDyvozp7ydm","smc0m3h28p","msl000832","motor","img/motor_3.png","70","68","motor","3","153","0","1","0","",""
"337","","164884","HierDyvozp7ydm","smc0m3h28p","msl000832","motorRepeat","img/motor_3.png","68","68","motor","3","153","1","0","0","",""
"null","","164995","HierDyvozp7ydm","smc0m3h28p","msl000832","iti","img/motor_blank.png","null","68","motor","","","","","","",""
"417","","165421","HierDyvozp7ydm","smc0m3h28p","msl000832","motor","img/motor_5.png","72","72","motor","5","154","1","0","0","",""
"null","","165531","HierDyvozp7ydm","smc0m3h28p","msl000832","iti","img/motor_blank.png","null","72","motor","","","","","","",""
"455","","165995","HierDyvozp7ydm","smc0m3h28p","msl000832","motor","img/motor_7.png","75","75","motor","7","155","1","0","0","",""
"null","","166106","HierDyvozp7ydm","smc0m3h28p","msl000832","iti","img/motor_blank.png","null","75","motor","","","","","","",""
"548","","166661","HierDyvozp7ydm","smc0m3h28p","msl000832","motor","img/motor_3.png","68","68","motor","3","156","1","0","0","",""
"null","","166772","HierDyvozp7ydm","smc0m3h28p","msl000832","iti","img/motor_blank.png","null","68","motor","","","","","","",""
"511","","167294","HierDyvozp7ydm","smc0m3h28p","msl000832","motor","img/motor_2.png","83","83","motor","2","157","1","0","0","",""
"null","","167403","HierDyvozp7ydm","smc0m3h28p","msl000832","iti","img/motor_blank.png","null","83","motor","","","","","","",""
"445","","167857","HierDyvozp7ydm","smc0m3h28p","msl000832","motor","img/motor_2.png","83","83","motor","2","158","1","0","0","",""
"null","","167968","HierDyvozp7ydm","smc0m3h28p","msl000832","iti","img/motor_blank.png","null","83","motor","","","","","","",""
"427","","168402","HierDyvozp7ydm","smc0m3h28p","msl000832","motor","img/motor_5.png","72","72","motor","5","159","1","0","0","",""
"null","","168512","HierDyvozp7ydm","smc0m3h28p","msl000832","iti","img/motor_blank.png","null","72","motor","","","","","","",""
"374","","168895","HierDyvozp7ydm","smc0m3h28p","msl000832","motor","img/motor_8.png","76","76","motor","8","160","1","0","0","",""
"null","","169005","HierDyvozp7ydm","smc0m3h28p","msl000832","iti","img/motor_blank.png","null","76","motor","","","","","","",""
"416","","169431","HierDyvozp7ydm","smc0m3h28p","msl000832","motor","img/motor_1.png","65","65","motor","1","161","1","0","0","",""
"null","","169540","HierDyvozp7ydm","smc0m3h28p","msl000832","iti","img/motor_blank.png","null","65","motor","","","","","","",""
"541","","170091","HierDyvozp7ydm","smc0m3h28p","msl000832","motor","img/motor_4.png","68","70","motor","4","162","0","1","0","",""
"340","","170440","HierDyvozp7ydm","smc0m3h28p","msl000832","motorRepeat","img/motor_4.png","70","70","motor","4","162","1","0","0","",""
"null","","170551","HierDyvozp7ydm","smc0m3h28p","msl000832","iti","img/motor_blank.png","null","70","motor","","","","","","",""
"534","","171095","HierDyvozp7ydm","smc0m3h28p","msl000832","motor","img/motor_8.png","76","76","motor","8","163","1","0","0","",""
"null","","171204","HierDyvozp7ydm","smc0m3h28p","msl000832","iti","img/motor_blank.png","null","76","motor","","","","","","",""
"649","","171862","HierDyvozp7ydm","smc0m3h28p","msl000832","motor","img/motor_3.png","68","68","motor","3","164","1","0","0","",""
"null","","171972","HierDyvozp7ydm","smc0m3h28p","msl000832","iti","img/motor_blank.png","null","68","motor","","","","","","",""
"333","","172315","HierDyvozp7ydm","smc0m3h28p","msl000832","motor","img/motor_3.png","68","68","motor","3","165","1","0","0","",""
"null","","172423","HierDyvozp7ydm","smc0m3h28p","msl000832","iti","img/motor_blank.png","null","68","motor","","","","","","",""
"458","","172891","HierDyvozp7ydm","smc0m3h28p","msl000832","motor","img/motor_2.png","83","83","motor","2","166","1","0","0","",""
"null","","173003","HierDyvozp7ydm","smc0m3h28p","msl000832","iti","img/motor_blank.png","null","83","motor","","","","","","",""
"477","","173488","HierDyvozp7ydm","smc0m3h28p","msl000832","motor","img/motor_8.png","76","76","motor","8","167","1","0","0","",""
"null","","173599","HierDyvozp7ydm","smc0m3h28p","msl000832","iti","img/motor_blank.png","null","76","motor","","","","","","",""
"605","","174212","HierDyvozp7ydm","smc0m3h28p","msl000832","motor","img/motor_4.png","70","70","motor","4","168","1","0","0","",""
"null","","174323","HierDyvozp7ydm","smc0m3h28p","msl000832","iti","img/motor_blank.png","null","70","motor","","","","","","",""
"437","","174769","HierDyvozp7ydm","smc0m3h28p","msl000832","motor","img/motor_1.png","65","65","motor","1","169","1","0","0","",""
"null","","174880","HierDyvozp7ydm","smc0m3h28p","msl000832","iti","img/motor_blank.png","null","65","motor","","","","","","",""
"413","","175303","HierDyvozp7ydm","smc0m3h28p","msl000832","motor","img/motor_8.png","76","76","motor","8","170","1","0","0","",""
"null","","175412","HierDyvozp7ydm","smc0m3h28p","msl000832","iti","img/motor_blank.png","null","76","motor","","","","","","",""
"437","","175858","HierDyvozp7ydm","smc0m3h28p","msl000832","motor","img/motor_7.png","75","75","motor","7","171","1","0","0","",""
"null","","175968","HierDyvozp7ydm","smc0m3h28p","msl000832","iti","img/motor_blank.png","null","75","motor","","","","","","",""
"493","","176470","HierDyvozp7ydm","smc0m3h28p","msl000832","motor","img/motor_1.png","65","65","motor","1","172","1","0","0","",""
"null","","176579","HierDyvozp7ydm","smc0m3h28p","msl000832","iti","img/motor_blank.png","null","65","motor","","","","","","",""
"393","","176981","HierDyvozp7ydm","smc0m3h28p","msl000832","motor","img/motor_8.png","76","76","motor","8","173","1","0","0","",""
"null","","177092","HierDyvozp7ydm","smc0m3h28p","msl000832","iti","img/motor_blank.png","null","76","motor","","","","","","",""
"639","","177739","HierDyvozp7ydm","smc0m3h28p","msl000832","motor","img/motor_7.png","75","75","motor","7","174","1","0","0","",""
"null","","177849","HierDyvozp7ydm","smc0m3h28p","msl000832","iti","img/motor_blank.png","null","75","motor","","","","","","",""
"564","","178422","HierDyvozp7ydm","smc0m3h28p","msl000832","motor","img/motor_6.png","74","74","motor","6","175","1","0","0","",""
"null","","178531","HierDyvozp7ydm","smc0m3h28p","msl000832","iti","img/motor_blank.png","null","74","motor","","","","","","",""
"500","","179041","HierDyvozp7ydm","smc0m3h28p","msl000832","motor","img/motor_2.png","83","83","motor","2","176","1","0","0","",""
"null","","179150","HierDyvozp7ydm","smc0m3h28p","msl000832","iti","img/motor_blank.png","null","83","motor","","","","","","",""
"409","","179569","HierDyvozp7ydm","smc0m3h28p","msl000832","motor","img/motor_4.png","70","70","motor","4","177","1","0","0","",""
"null","","179680","HierDyvozp7ydm","smc0m3h28p","msl000832","iti","img/motor_blank.png","null","70","motor","","","","","","",""
"410","","180100","HierDyvozp7ydm","smc0m3h28p","msl000832","motor","img/motor_4.png","70","70","motor","4","178","1","0","0","",""
"null","","180210","HierDyvozp7ydm","smc0m3h28p","msl000832","iti","img/motor_blank.png","null","70","motor","","","","","","",""
"473","","180691","HierDyvozp7ydm","smc0m3h28p","msl000832","motor","img/motor_5.png","72","72","motor","5","179","1","0","0","",""
"null","","180802","HierDyvozp7ydm","smc0m3h28p","msl000832","iti","img/motor_blank.png","null","72","motor","","","","","","",""
"567","","181377","HierDyvozp7ydm","smc0m3h28p","msl000832","motor","img/motor_4.png","70","70","motor","4","180","1","0","0","",""
"null","","181488","HierDyvozp7ydm","smc0m3h28p","msl000832","iti","img/motor_blank.png","null","70","motor","","","","","","",""
"386","","181882","HierDyvozp7ydm","smc0m3h28p","msl000832","motor","img/motor_5.png","72","72","motor","5","181","1","0","0","",""
"null","","181992","HierDyvozp7ydm","smc0m3h28p","msl000832","iti","img/motor_blank.png","null","72","motor","","","","","","",""
"443","","182444","HierDyvozp7ydm","smc0m3h28p","msl000832","motor","img/motor_2.png","83","83","motor","2","182","1","0","0","",""
"null","","182554","HierDyvozp7ydm","smc0m3h28p","msl000832","iti","img/motor_blank.png","null","83","motor","","","","","","",""
"333","","182896","HierDyvozp7ydm","smc0m3h28p","msl000832","motor","img/motor_5.png","72","72","motor","5","183","1","0","0","",""
"null","","183007","HierDyvozp7ydm","smc0m3h28p","msl000832","iti","img/motor_blank.png","null","72","motor","","","","","","",""
"500","","183515","HierDyvozp7ydm","smc0m3h28p","msl000832","motor","img/motor_3.png","68","68","motor","3","184","1","0","0","",""
"null","","183624","HierDyvozp7ydm","smc0m3h28p","msl000832","iti","img/motor_blank.png","null","68","motor","","","","","","",""
"601","","184234","HierDyvozp7ydm","smc0m3h28p","msl000832","motor","img/motor_8.png","72","76","motor","8","185","0","1","0","",""
"1","","184242","HierDyvozp7ydm","smc0m3h28p","msl000832","motorRepeat","img/motor_8.png","76","76","motor","8","185","1","0","0","",""
"null","","184352","HierDyvozp7ydm","smc0m3h28p","msl000832","iti","img/motor_blank.png","null","76","motor","","","","","","",""
"773","","185134","HierDyvozp7ydm","smc0m3h28p","msl000832","motor","img/motor_3.png","68","68","motor","3","186","1","0","0","",""
"null","","185243","HierDyvozp7ydm","smc0m3h28p","msl000832","iti","img/motor_blank.png","null","68","motor","","","","","","",""
"355","","185608","HierDyvozp7ydm","smc0m3h28p","msl000832","motor","img/motor_3.png","68","68","motor","3","187","1","0","0","",""
"null","","185718","HierDyvozp7ydm","smc0m3h28p","msl000832","iti","img/motor_blank.png","null","68","motor","","","","","","",""
"561","","186287","HierDyvozp7ydm","smc0m3h28p","msl000832","motor","img/motor_4.png","70","70","motor","4","188","1","0","0","",""
"null","","186395","HierDyvozp7ydm","smc0m3h28p","msl000832","iti","img/motor_blank.png","null","70","motor","","","","","","",""
"656","","187061","HierDyvozp7ydm","smc0m3h28p","msl000832","motor","img/motor_6.png","72","74","motor","6","189","0","1","0","",""
"326","","187396","HierDyvozp7ydm","smc0m3h28p","msl000832","motorRepeat","img/motor_6.png","74","74","motor","6","189","1","0","0","",""
"null","","187506","HierDyvozp7ydm","smc0m3h28p","msl000832","iti","img/motor_blank.png","null","74","motor","","","","","","",""
"415","","187929","HierDyvozp7ydm","smc0m3h28p","msl000832","motor","img/motor_1.png","65","65","motor","1","190","1","0","0","",""
"null","","188040","HierDyvozp7ydm","smc0m3h28p","msl000832","iti","img/motor_blank.png","null","65","motor","","","","","","",""
"369","","188418","HierDyvozp7ydm","smc0m3h28p","msl000832","motor","img/motor_1.png","65","65","motor","1","191","1","0","0","",""
"null","","188528","HierDyvozp7ydm","smc0m3h28p","msl000832","iti","img/motor_blank.png","null","65","motor","","","","","","",""
"591","","189128","HierDyvozp7ydm","smc0m3h28p","msl000832","motor","img/motor_7.png","76","75","motor","7","192","0","1","0","",""
"369","","189508","HierDyvozp7ydm","smc0m3h28p","msl000832","motorRepeat","img/motor_7.png","75","75","motor","7","192","1","0","0","",""
"null","","189618","HierDyvozp7ydm","smc0m3h28p","msl000832","iti","img/motor_blank.png","null","75","motor","","","","","","",""
"330","","189959","HierDyvozp7ydm","smc0m3h28p","msl000832","motor","img/motor_5.png","72","72","motor","5","193","1","0","0","",""
"null","","190069","HierDyvozp7ydm","smc0m3h28p","msl000832","iti","img/motor_blank.png","null","72","motor","","","","","","",""
"592","","190671","HierDyvozp7ydm","smc0m3h28p","msl000832","motor","img/motor_2.png","83","83","motor","2","194","1","0","0","",""
"null","","190782","HierDyvozp7ydm","smc0m3h28p","msl000832","iti","img/motor_blank.png","null","83","motor","","","","","","",""
"518","","191309","HierDyvozp7ydm","smc0m3h28p","msl000832","motor","img/motor_8.png","76","76","motor","8","195","1","0","0","",""
"null","","191419","HierDyvozp7ydm","smc0m3h28p","msl000832","iti","img/motor_blank.png","null","76","motor","","","","","","",""
"528","","191957","HierDyvozp7ydm","smc0m3h28p","msl000832","motor","img/motor_7.png","75","75","motor","7","196","1","0","0","",""
"null","","192068","HierDyvozp7ydm","smc0m3h28p","msl000832","iti","img/motor_blank.png","null","75","motor","","","","","","",""
"343","","192421","HierDyvozp7ydm","smc0m3h28p","msl000832","motor","img/motor_7.png","75","75","motor","7","197","1","0","0","",""
"null","","192531","HierDyvozp7ydm","smc0m3h28p","msl000832","iti","img/motor_blank.png","null","75","motor","","","","","","",""
"430","","192971","HierDyvozp7ydm","smc0m3h28p","msl000832","motor","img/motor_2.png","83","83","motor","2","198","1","0","0","",""
"null","","193082","HierDyvozp7ydm","smc0m3h28p","msl000832","iti","img/motor_blank.png","null","83","motor","","","","","","",""
"539","","193630","HierDyvozp7ydm","smc0m3h28p","msl000832","motor","img/motor_4.png","68","70","motor","4","199","0","1","0","",""
"259","","193897","HierDyvozp7ydm","smc0m3h28p","msl000832","motorRepeat","img/motor_4.png","70","70","motor","4","199","1","0","0","",""
"null","","194007","HierDyvozp7ydm","smc0m3h28p","msl000832","iti","img/motor_blank.png","null","70","motor","","","","","","",""
"523","","194541","HierDyvozp7ydm","smc0m3h28p","msl000832","motor","img/motor_3.png","68","68","motor","3","200","1","0","0","",""
"null","","194651","HierDyvozp7ydm","smc0m3h28p","msl000832","iti","img/motor_blank.png","null","68","motor","","","","","","",""
"361","","195022","HierDyvozp7ydm","smc0m3h28p","msl000832","motor","img/motor_3.png","68","68","motor","3","201","1","0","0","",""
"null","","195132","HierDyvozp7ydm","smc0m3h28p","msl000832","iti","img/motor_blank.png","null","68","motor","","","","","","",""
"589","","195731","HierDyvozp7ydm","smc0m3h28p","msl000832","motor","img/motor_7.png","75","75","motor","7","202","1","0","0","",""
"null","","195840","HierDyvozp7ydm","smc0m3h28p","msl000832","iti","img/motor_blank.png","null","75","motor","","","","","","",""
"348","","196198","HierDyvozp7ydm","smc0m3h28p","msl000832","motor","img/motor_5.png","72","72","motor","5","203","1","0","0","",""
"null","","196306","HierDyvozp7ydm","smc0m3h28p","msl000832","iti","img/motor_blank.png","null","72","motor","","","","","","",""
"426","","196742","HierDyvozp7ydm","smc0m3h28p","msl000832","motor","img/motor_1.png","65","65","motor","1","204","1","0","0","",""
"null","","196852","HierDyvozp7ydm","smc0m3h28p","msl000832","iti","img/motor_blank.png","null","65","motor","","","","","","",""
"535","","197396","HierDyvozp7ydm","smc0m3h28p","msl000832","motor","img/motor_3.png","68","68","motor","3","205","1","0","0","",""
"null","","197507","HierDyvozp7ydm","smc0m3h28p","msl000832","iti","img/motor_blank.png","null","68","motor","","","","","","",""
"505","","198022","HierDyvozp7ydm","smc0m3h28p","msl000832","motor","img/motor_4.png","70","70","motor","4","206","1","0","0","",""
"null","","198133","HierDyvozp7ydm","smc0m3h28p","msl000832","iti","img/motor_blank.png","null","70","motor","","","","","","",""
"431","","198573","HierDyvozp7ydm","smc0m3h28p","msl000832","motor","img/motor_5.png","72","72","motor","5","207","1","0","0","",""
"null","","198683","HierDyvozp7ydm","smc0m3h28p","msl000832","iti","img/motor_blank.png","null","72","motor","","","","","","",""
"542","","199235","HierDyvozp7ydm","smc0m3h28p","msl000832","motor","img/motor_6.png","74","74","motor","6","208","1","0","0","",""
"null","","199344","HierDyvozp7ydm","smc0m3h28p","msl000832","iti","img/motor_blank.png","null","74","motor","","","","","","",""
"393","","199748","HierDyvozp7ydm","smc0m3h28p","msl000832","motor","img/motor_8.png","76","76","motor","8","209","1","0","0","",""
"null","","199857","HierDyvozp7ydm","smc0m3h28p","msl000832","iti","img/motor_blank.png","null","76","motor","","","","","","",""
"583","","200453","HierDyvozp7ydm","smc0m3h28p","msl000832","motor","img/motor_7.png","76","75","motor","7","210","0","1","0","",""
"436","","200902","HierDyvozp7ydm","smc0m3h28p","msl000832","motorRepeat","img/motor_7.png","75","75","motor","7","210","1","0","0","",""
"null","","201015","HierDyvozp7ydm","smc0m3h28p","msl000832","iti","img/motor_blank.png","null","75","motor","","","","","","",""
"499","","201524","HierDyvozp7ydm","smc0m3h28p","msl000832","motor","img/motor_2.png","72","83","motor","2","211","0","1","0","",""
"277","","201811","HierDyvozp7ydm","smc0m3h28p","msl000832","motorRepeat","img/motor_2.png","83","83","motor","2","211","1","0","0","",""
"null","","201921","HierDyvozp7ydm","smc0m3h28p","msl000832","iti","img/motor_blank.png","null","83","motor","","","","","","",""
"372","","202301","HierDyvozp7ydm","smc0m3h28p","msl000832","motor","img/motor_1.png","65","65","motor","1","212","1","0","0","",""
"null","","202412","HierDyvozp7ydm","smc0m3h28p","msl000832","iti","img/motor_blank.png","null","65","motor","","","","","","",""
"358","","202780","HierDyvozp7ydm","smc0m3h28p","msl000832","motor","img/motor_1.png","65","65","motor","1","213","1","0","0","",""
"null","","202891","HierDyvozp7ydm","smc0m3h28p","msl000832","iti","img/motor_blank.png","null","65","motor","","","","","","",""
"458","","203357","HierDyvozp7ydm","smc0m3h28p","msl000832","motor","img/motor_2.png","83","83","motor","2","214","1","0","0","",""
"null","","203469","HierDyvozp7ydm","smc0m3h28p","msl000832","iti","img/motor_blank.png","null","83","motor","","","","","","",""
"445","","203922","HierDyvozp7ydm","smc0m3h28p","msl000832","motor","img/motor_4.png","70","70","motor","4","215","1","0","0","",""
"null","","204033","HierDyvozp7ydm","smc0m3h28p","msl000832","iti","img/motor_blank.png","null","70","motor","","","","","","",""
"626","","204668","HierDyvozp7ydm","smc0m3h28p","msl000832","motor","img/motor_6.png","74","74","motor","6","216","1","0","0","",""
"null","","204781","HierDyvozp7ydm","smc0m3h28p","msl000832","iti","img/motor_blank.png","null","74","motor","","","","","","",""
"537","","205330","HierDyvozp7ydm","smc0m3h28p","msl000832","motor","img/motor_5.png","72","72","motor","5","217","1","0","0","",""
"null","","205442","HierDyvozp7ydm","smc0m3h28p","msl000832","iti","img/motor_blank.png","null","72","motor","","","","","","",""
"529","","205982","HierDyvozp7ydm","smc0m3h28p","msl000832","motor","img/motor_4.png","68","70","motor","4","218","0","1","0","",""
"356","","206351","HierDyvozp7ydm","smc0m3h28p","msl000832","motorRepeat","img/motor_4.png","70","70","motor","4","218","1","0","0","",""
"null","","206462","HierDyvozp7ydm","smc0m3h28p","msl000832","iti","img/motor_blank.png","null","70","motor","","","","","","",""
"485","","206956","HierDyvozp7ydm","smc0m3h28p","msl000832","motor","img/motor_3.png","68","68","motor","3","219","1","0","0","",""
"null","","207065","HierDyvozp7ydm","smc0m3h28p","msl000832","iti","img/motor_blank.png","null","68","motor","","","","","","",""
"428","","207501","HierDyvozp7ydm","smc0m3h28p","msl000832","motor","img/motor_5.png","72","72","motor","5","220","1","0","0","",""
"null","","207612","HierDyvozp7ydm","smc0m3h28p","msl000832","iti","img/motor_blank.png","null","72","motor","","","","","","",""
"465","","208085","HierDyvozp7ydm","smc0m3h28p","msl000832","motor","img/motor_7.png","76","75","motor","7","221","0","1","0","",""
"482","","208575","HierDyvozp7ydm","smc0m3h28p","msl000832","motorRepeat","img/motor_7.png","75","75","motor","7","221","1","0","0","",""
"null","","208685","HierDyvozp7ydm","smc0m3h28p","msl000832","iti","img/motor_blank.png","null","75","motor","","","","","","",""
"699","","209394","HierDyvozp7ydm","smc0m3h28p","msl000832","motor","img/motor_3.png","68","68","motor","3","222","1","0","0","",""
"null","","209506","HierDyvozp7ydm","smc0m3h28p","msl000832","iti","img/motor_blank.png","null","68","motor","","","","","","",""
"466","","209982","HierDyvozp7ydm","smc0m3h28p","msl000832","motor","img/motor_5.png","72","72","motor","5","223","1","0","0","",""
"null","","210093","HierDyvozp7ydm","smc0m3h28p","msl000832","iti","img/motor_blank.png","null","72","motor","","","","","","",""
"482","","210584","HierDyvozp7ydm","smc0m3h28p","msl000832","motor","img/motor_1.png","65","65","motor","1","224","1","0","0","",""
"null","","210695","HierDyvozp7ydm","smc0m3h28p","msl000832","iti","img/motor_blank.png","null","65","motor","","","","","","",""
"604","","211308","HierDyvozp7ydm","smc0m3h28p","msl000832","motor","img/motor_7.png","76","75","motor","7","225","0","1","0","",""
"1372","","212688","HierDyvozp7ydm","smc0m3h28p","msl000832","motorRepeat","img/motor_7.png","75","75","motor","7","225","1","0","0","",""
"null","","212799","HierDyvozp7ydm","smc0m3h28p","msl000832","iti","img/motor_blank.png","null","75","motor","","","","","","",""
"510","","213320","HierDyvozp7ydm","smc0m3h28p","msl000832","motor","img/motor_2.png","83","83","motor","2","226","1","0","0","",""
"null","","213429","HierDyvozp7ydm","smc0m3h28p","msl000832","iti","img/motor_blank.png","null","83","motor","","","","","","",""
"575","","214012","HierDyvozp7ydm","smc0m3h28p","msl000832","motor","img/motor_8.png","76","76","motor","8","227","1","0","0","",""
"null","","214125","HierDyvozp7ydm","smc0m3h28p","msl000832","iti","img/motor_blank.png","null","76","motor","","","","","","",""
"500","","214632","HierDyvozp7ydm","smc0m3h28p","msl000832","motor","img/motor_2.png","83","83","motor","2","228","1","0","0","",""
"null","","214740","HierDyvozp7ydm","smc0m3h28p","msl000832","iti","img/motor_blank.png","null","83","motor","","","","","","",""
"523","","215272","HierDyvozp7ydm","smc0m3h28p","msl000832","motor","img/motor_3.png","68","68","motor","3","229","1","0","0","",""
"null","","215381","HierDyvozp7ydm","smc0m3h28p","msl000832","iti","img/motor_blank.png","null","68","motor","","","","","","",""
"662","","216051","HierDyvozp7ydm","smc0m3h28p","msl000832","motor","img/motor_7.png","75","75","motor","7","230","1","0","0","",""
"null","","216161","HierDyvozp7ydm","smc0m3h28p","msl000832","iti","img/motor_blank.png","null","75","motor","","","","","","",""
"483","","216652","HierDyvozp7ydm","smc0m3h28p","msl000832","motor","img/motor_6.png","74","74","motor","6","231","1","0","0","",""
"null","","216763","HierDyvozp7ydm","smc0m3h28p","msl000832","iti","img/motor_blank.png","null","74","motor","","","","","","",""
"439","","217210","HierDyvozp7ydm","smc0m3h28p","msl000832","motor","img/motor_1.png","65","65","motor","1","232","1","0","0","",""
"null","","217322","HierDyvozp7ydm","smc0m3h28p","msl000832","iti","img/motor_blank.png","null","65","motor","","","","","","",""
"363","","217691","HierDyvozp7ydm","smc0m3h28p","msl000832","motor","img/motor_5.png","72","72","motor","5","233","1","0","0","",""
"null","","217803","HierDyvozp7ydm","smc0m3h28p","msl000832","iti","img/motor_blank.png","null","72","motor","","","","","","",""
"562","","218374","HierDyvozp7ydm","smc0m3h28p","msl000832","motor","img/motor_1.png","65","65","motor","1","234","1","0","0","",""
"null","","218485","HierDyvozp7ydm","smc0m3h28p","msl000832","iti","img/motor_blank.png","null","65","motor","","","","","","",""
"459","","218954","HierDyvozp7ydm","smc0m3h28p","msl000832","motor","img/motor_7.png","76","75","motor","7","235","0","1","0","",""
"502","","219465","HierDyvozp7ydm","smc0m3h28p","msl000832","motorRepeat","img/motor_7.png","75","75","motor","7","235","1","0","0","",""
"null","","219576","HierDyvozp7ydm","smc0m3h28p","msl000832","iti","img/motor_blank.png","null","75","motor","","","","","","",""
"551","","220136","HierDyvozp7ydm","smc0m3h28p","msl000832","motor","img/motor_2.png","83","83","motor","2","236","1","0","0","",""
"null","","220247","HierDyvozp7ydm","smc0m3h28p","msl000832","iti","img/motor_blank.png","null","83","motor","","","","","","",""
"549","","220805","HierDyvozp7ydm","smc0m3h28p","msl000832","motor","img/motor_6.png","74","74","motor","6","237","1","0","0","",""
"null","","220915","HierDyvozp7ydm","smc0m3h28p","msl000832","iti","img/motor_blank.png","null","74","motor","","","","","","",""
"323","","221249","HierDyvozp7ydm","smc0m3h28p","msl000832","motor","img/motor_5.png","72","72","motor","5","238","1","0","0","",""
"null","","221358","HierDyvozp7ydm","smc0m3h28p","msl000832","iti","img/motor_blank.png","null","72","motor","","","","","","",""
"576","","221943","HierDyvozp7ydm","smc0m3h28p","msl000832","motor","img/motor_6.png","74","74","motor","6","239","1","0","0","",""
"31","","222054","HierDyvozp7ydm","smc0m3h28p","msl000832","iti","img/motor_blank.png","74","74","motor","","","","","","",""
"504","","222568","HierDyvozp7ydm","smc0m3h28p","msl000832","motor","img/motor_6.png","74","74","motor","6","240","1","0","0","",""
"null","","222677","HierDyvozp7ydm","smc0m3h28p","msl000832","iti","img/motor_blank.png","null","74","motor","","","","","","",""
"553","","223240","HierDyvozp7ydm","smc0m3h28p","msl000832","motor","img/motor_7.png","76","75","motor","7","241","0","1","0","",""
"467","","223716","HierDyvozp7ydm","smc0m3h28p","msl000832","motorRepeat","img/motor_7.png","75","75","motor","7","241","1","0","0","",""
"null","","223826","HierDyvozp7ydm","smc0m3h28p","msl000832","iti","img/motor_blank.png","null","75","motor","","","","","","",""
"503","","224340","HierDyvozp7ydm","smc0m3h28p","msl000832","motor","img/motor_2.png","83","83","motor","2","242","1","0","0","",""
"null","","224451","HierDyvozp7ydm","smc0m3h28p","msl000832","iti","img/motor_blank.png","null","83","motor","","","","","","",""
"409","","224871","HierDyvozp7ydm","smc0m3h28p","msl000832","motor","img/motor_1.png","65","65","motor","1","243","1","0","0","",""
"null","","224982","HierDyvozp7ydm","smc0m3h28p","msl000832","iti","img/motor_blank.png","null","65","motor","","","","","","",""
"602","","225594","HierDyvozp7ydm","smc0m3h28p","msl000832","motor","img/motor_4.png","70","70","motor","4","244","1","0","0","",""
"null","","225703","HierDyvozp7ydm","smc0m3h28p","msl000832","iti","img/motor_blank.png","null","70","motor","","","","","","",""
"599","","226308","HierDyvozp7ydm","smc0m3h28p","msl000832","motor","img/motor_8.png","72","76","motor","8","245","0","1","0","",""
"48","","226364","HierDyvozp7ydm","smc0m3h28p","msl000832","motorRepeat","img/motor_8.png","76","76","motor","8","245","1","0","0","",""
"null","","226475","HierDyvozp7ydm","smc0m3h28p","msl000832","iti","img/motor_blank.png","null","76","motor","","","","","","",""
"680","","227162","HierDyvozp7ydm","smc0m3h28p","msl000832","motor","img/motor_4.png","70","70","motor","4","246","1","0","0","",""
"null","","227270","HierDyvozp7ydm","smc0m3h28p","msl000832","iti","img/motor_blank.png","null","70","motor","","","","","","",""
"416","","227693","HierDyvozp7ydm","smc0m3h28p","msl000832","motor","img/motor_5.png","72","72","motor","5","247","1","0","0","",""
"null","","227802","HierDyvozp7ydm","smc0m3h28p","msl000832","iti","img/motor_blank.png","null","72","motor","","","","","","",""
"472","","228282","HierDyvozp7ydm","smc0m3h28p","msl000832","motor","img/motor_2.png","83","83","motor","2","248","1","0","0","",""
"null","","228390","HierDyvozp7ydm","smc0m3h28p","msl000832","iti","img/motor_blank.png","null","83","motor","","","","","","",""
"633","","229031","HierDyvozp7ydm","smc0m3h28p","msl000832","motor","img/motor_7.png","76","75","motor","7","249","0","1","0","",""
"393","","229430","HierDyvozp7ydm","smc0m3h28p","msl000832","motorRepeat","img/motor_7.png","75","75","motor","7","249","1","0","0","",""
"null","","229538","HierDyvozp7ydm","smc0m3h28p","msl000832","iti","img/motor_blank.png","null","75","motor","","","","","","",""
"373","","229918","HierDyvozp7ydm","smc0m3h28p","msl000832","motor","img/motor_1.png","65","65","motor","1","250","1","0","0","",""
"null","","230027","HierDyvozp7ydm","smc0m3h28p","msl000832","iti","img/motor_blank.png","null","65","motor","","","","","","",""
"330","","230365","HierDyvozp7ydm","smc0m3h28p","msl000832","motor","img/motor_1.png","65","65","motor","1","251","1","0","0","",""
"null","","230472","HierDyvozp7ydm","smc0m3h28p","msl000832","iti","img/motor_blank.png","null","65","motor","","","","","","",""
"380","","230861","HierDyvozp7ydm","smc0m3h28p","msl000832","motor","img/motor_6.png","75","74","motor","6","252","0","1","0","",""
"345","","231214","HierDyvozp7ydm","smc0m3h28p","msl000832","motorRepeat","img/motor_6.png","74","74","motor","6","252","1","0","0","",""
"null","","231325","HierDyvozp7ydm","smc0m3h28p","msl000832","iti","img/motor_blank.png","null","74","motor","","","","","","",""
"734","","232068","HierDyvozp7ydm","smc0m3h28p","msl000832","motor","img/motor_7.png","76","75","motor","7","253","0","1","0","",""
"410","","232488","HierDyvozp7ydm","smc0m3h28p","msl000832","motorRepeat","img/motor_7.png","75","75","motor","7","253","1","0","0","",""
"null","","232597","HierDyvozp7ydm","smc0m3h28p","msl000832","iti","img/motor_blank.png","null","75","motor","","","","","","",""
"761","","233366","HierDyvozp7ydm","smc0m3h28p","msl000832","motor","img/motor_3.png","68","68","motor","3","254","1","0","0","",""
"null","","233474","HierDyvozp7ydm","smc0m3h28p","msl000832","iti","img/motor_blank.png","null","68","motor","","","","","","",""
"533","","234015","HierDyvozp7ydm","smc0m3h28p","msl000832","motor","img/motor_8.png","76","76","motor","8","255","1","0","0","",""
"null","","234125","HierDyvozp7ydm","smc0m3h28p","msl000832","iti","img/motor_blank.png","null","76","motor","","","","","","",""
"689","","234821","HierDyvozp7ydm","smc0m3h28p","msl000832","motor","img/motor_3.png","68","68","motor","3","256","1","0","0","",""
"null","","234930","HierDyvozp7ydm","smc0m3h28p","msl000832","iti","img/motor_blank.png","null","68","motor","","","","","","",""
"422","","235358","HierDyvozp7ydm","smc0m3h28p","msl000832","motor","img/motor_7.png","72","75","motor","7","257","0","1","0","",""
"319","","235685","HierDyvozp7ydm","smc0m3h28p","msl000832","motorRepeat","img/motor_7.png","75","75","motor","7","257","1","0","0","",""
"62","","235793","HierDyvozp7ydm","smc0m3h28p","msl000832","iti","img/motor_blank.png","76","75","motor","","","","","","",""
"483","","236282","HierDyvozp7ydm","smc0m3h28p","msl000832","motor","img/motor_1.png","65","65","motor","1","258","1","0","0","",""
"null","","236392","HierDyvozp7ydm","smc0m3h28p","msl000832","iti","img/motor_blank.png","null","65","motor","","","","","","",""
"707","","237108","HierDyvozp7ydm","smc0m3h28p","msl000832","motor","img/motor_6.png","74","74","motor","6","259","1","0","0","",""
"null","","237218","HierDyvozp7ydm","smc0m3h28p","msl000832","iti","img/motor_blank.png","null","74","motor","","","","","","",""
"1222","","238447","HierDyvozp7ydm","smc0m3h28p","msl000832","motor","img/motor_7.png","74","75","motor","7","260","0","1","0","",""
"992","","239448","HierDyvozp7ydm","smc0m3h28p","msl000832","motorRepeat","img/motor_7.png","75","75","motor","7","260","1","0","0","",""
"null","","239559","HierDyvozp7ydm","smc0m3h28p","msl000832","iti","img/motor_blank.png","null","75","motor","","","","","","",""
"861","","240429","HierDyvozp7ydm","smc0m3h28p","msl000832","motor","img/motor_4.png","70","70","motor","4","261","1","0","0","",""
"null","","240538","HierDyvozp7ydm","smc0m3h28p","msl000832","iti","img/motor_blank.png","null","70","motor","","","","","","",""
"488","","241034","HierDyvozp7ydm","smc0m3h28p","msl000832","motor","img/motor_3.png","68","68","motor","3","262","1","0","0","",""
"null","","241142","HierDyvozp7ydm","smc0m3h28p","msl000832","iti","img/motor_blank.png","null","68","motor","","","","","","",""
"510","","241659","HierDyvozp7ydm","smc0m3h28p","msl000832","motor","img/motor_5.png","72","72","motor","5","263","1","0","0","",""
"null","","241769","HierDyvozp7ydm","smc0m3h28p","msl000832","iti","img/motor_blank.png","null","72","motor","","","","","","",""
"431","","242208","HierDyvozp7ydm","smc0m3h28p","msl000832","motor","img/motor_4.png","68","70","motor","4","264","0","1","0","",""
"331","","242546","HierDyvozp7ydm","smc0m3h28p","msl000832","motorRepeat","img/motor_4.png","70","70","motor","4","264","1","0","0","",""
"null","","242656","HierDyvozp7ydm","smc0m3h28p","msl000832","iti","img/motor_blank.png","null","70","motor","","","","","","",""
"345","","243008","HierDyvozp7ydm","smc0m3h28p","msl000832","motor","img/motor_3.png","68","68","motor","3","265","1","0","0","",""
"null","","243119","HierDyvozp7ydm","smc0m3h28p","msl000832","iti","img/motor_blank.png","null","68","motor","","","","","","",""
"384","","243511","HierDyvozp7ydm","smc0m3h28p","msl000832","motor","img/motor_3.png","68","68","motor","3","266","1","0","0","",""
"null","","243620","HierDyvozp7ydm","smc0m3h28p","msl000832","iti","img/motor_blank.png","null","68","motor","","","","","","",""
"566","","244194","HierDyvozp7ydm","smc0m3h28p","msl000832","motor","img/motor_4.png","70","70","motor","4","267","1","0","0","",""
"null","","244304","HierDyvozp7ydm","smc0m3h28p","msl000832","iti","img/motor_blank.png","null","70","motor","","","","","","",""
"329","","244640","HierDyvozp7ydm","smc0m3h28p","msl000832","motor","img/motor_3.png","68","68","motor","3","268","1","0","0","",""
"null","","244749","HierDyvozp7ydm","smc0m3h28p","msl000832","iti","img/motor_blank.png","null","68","motor","","","","","","",""
"482","","245237","HierDyvozp7ydm","smc0m3h28p","msl000832","motor","img/motor_6.png","70","74","motor","6","269","0","1","0","",""
"330","","245574","HierDyvozp7ydm","smc0m3h28p","msl000832","motorRepeat","img/motor_6.png","74","74","motor","6","269","1","0","0","",""
"null","","245683","HierDyvozp7ydm","smc0m3h28p","msl000832","iti","img/motor_blank.png","null","74","motor","","","","","","",""
"476","","246164","HierDyvozp7ydm","smc0m3h28p","msl000832","motor","img/motor_3.png","68","68","motor","3","270","1","0","0","",""
"null","","246272","HierDyvozp7ydm","smc0m3h28p","msl000832","iti","img/motor_blank.png","null","68","motor","","","","","","",""
"325","","246605","HierDyvozp7ydm","smc0m3h28p","msl000832","motor","img/motor_5.png","74","72","motor","5","271","0","1","0","",""
"393","","247007","HierDyvozp7ydm","smc0m3h28p","msl000832","motorRepeat","img/motor_5.png","72","72","motor","5","271","1","0","0","",""
"null","","247116","HierDyvozp7ydm","smc0m3h28p","msl000832","iti","img/motor_blank.png","null","72","motor","","","","","","",""
"359","","247482","HierDyvozp7ydm","smc0m3h28p","msl000832","motor","img/motor_6.png","74","74","motor","6","272","1","0","0","",""
"null","","247591","HierDyvozp7ydm","smc0m3h28p","msl000832","iti","img/motor_blank.png","null","74","motor","","","","","","",""
"400","","247999","HierDyvozp7ydm","smc0m3h28p","msl000832","motor","img/motor_5.png","72","72","motor","5","273","1","0","0","",""
"null","","248109","HierDyvozp7ydm","smc0m3h28p","msl000832","iti","img/motor_blank.png","null","72","motor","","","","","","",""
"554","","248674","HierDyvozp7ydm","smc0m3h28p","msl000832","motor","img/motor_3.png","68","68","motor","3","274","1","0","0","",""
"null","","248782","HierDyvozp7ydm","smc0m3h28p","msl000832","iti","img/motor_blank.png","null","68","motor","","","","","","",""
"685","","249475","HierDyvozp7ydm","smc0m3h28p","msl000832","motor","img/motor_8.png","75","76","motor","8","275","0","1","0","",""
"936","","250420","HierDyvozp7ydm","smc0m3h28p","msl000832","motorRepeat","img/motor_8.png","76","76","motor","8","275","1","0","0","",""
"null","","250532","HierDyvozp7ydm","smc0m3h28p","msl000832","iti","img/motor_blank.png","null","76","motor","","","","","","",""
"481","","251023","HierDyvozp7ydm","smc0m3h28p","msl000832","motor","img/motor_4.png","68","70","motor","4","276","0","1","0","",""
"398","","251430","HierDyvozp7ydm","smc0m3h28p","msl000832","motorRepeat","img/motor_4.png","70","70","motor","4","276","1","0","0","",""
"null","","251542","HierDyvozp7ydm","smc0m3h28p","msl000832","iti","img/motor_blank.png","null","70","motor","","","","","","",""
"531","","252083","HierDyvozp7ydm","smc0m3h28p","msl000832","motor","img/motor_2.png","83","83","motor","2","277","1","0","0","",""
"null","","252194","HierDyvozp7ydm","smc0m3h28p","msl000832","iti","img/motor_blank.png","null","83","motor","","","","","","",""
"368","","252570","HierDyvozp7ydm","smc0m3h28p","msl000832","motor","img/motor_1.png","65","65","motor","1","278","1","0","0","",""
"null","","252680","HierDyvozp7ydm","smc0m3h28p","msl000832","iti","img/motor_blank.png","null","65","motor","","","","","","",""
"604","","253294","HierDyvozp7ydm","smc0m3h28p","msl000832","motor","img/motor_6.png","74","74","motor","6","279","1","0","0","",""
"null","","253403","HierDyvozp7ydm","smc0m3h28p","msl000832","iti","img/motor_blank.png","null","74","motor","","","","","","",""
"498","","253909","HierDyvozp7ydm","smc0m3h28p","msl000832","motor","img/motor_8.png","76","76","motor","8","280","1","0","0","",""
"null","","254019","HierDyvozp7ydm","smc0m3h28p","msl000832","iti","img/motor_blank.png","null","76","motor","","","","","","",""
"498","","254528","HierDyvozp7ydm","smc0m3h28p","msl000832","motor","img/motor_6.png","74","74","motor","6","281","1","0","0","",""
"null","","254639","HierDyvozp7ydm","smc0m3h28p","msl000832","iti","img/motor_blank.png","null","74","motor","","","","","","",""
"617","","255267","HierDyvozp7ydm","smc0m3h28p","msl000832","motor","img/motor_3.png","68","68","motor","3","282","1","0","0","",""
"null","","255375","HierDyvozp7ydm","smc0m3h28p","msl000832","iti","img/motor_blank.png","null","68","motor","","","","","","",""
"440","","255821","HierDyvozp7ydm","smc0m3h28p","msl000832","motor","img/motor_1.png","65","65","motor","1","283","1","0","0","",""
"null","","255929","HierDyvozp7ydm","smc0m3h28p","msl000832","iti","img/motor_blank.png","null","65","motor","","","","","","",""
"667","","256605","HierDyvozp7ydm","smc0m3h28p","msl000832","motor","img/motor_8.png","76","76","motor","8","284","1","0","0","",""
"null","","256715","HierDyvozp7ydm","smc0m3h28p","msl000832","iti","img/motor_blank.png","null","76","motor","","","","","","",""
"533","","257257","HierDyvozp7ydm","smc0m3h28p","msl000832","motor","img/motor_1.png","65","65","motor","1","285","1","0","0","",""
"null","","257367","HierDyvozp7ydm","smc0m3h28p","msl000832","iti","img/motor_blank.png","null","65","motor","","","","","","",""
"439","","257816","HierDyvozp7ydm","smc0m3h28p","msl000832","motor","img/motor_2.png","83","83","motor","2","286","1","0","0","",""
"null","","257927","HierDyvozp7ydm","smc0m3h28p","msl000832","iti","img/motor_blank.png","null","83","motor","","","","","","",""
"651","","258587","HierDyvozp7ydm","smc0m3h28p","msl000832","motor","img/motor_6.png","74","74","motor","6","287","1","0","0","",""
"null","","258698","HierDyvozp7ydm","smc0m3h28p","msl000832","iti","img/motor_blank.png","null","74","motor","","","","","","",""
"522","","259231","HierDyvozp7ydm","smc0m3h28p","msl000832","motor","img/motor_8.png","76","76","motor","8","288","1","0","0","",""
"null","","259341","HierDyvozp7ydm","smc0m3h28p","msl000832","iti","img/motor_blank.png","null","76","motor","","","","","","",""
"558","","259907","HierDyvozp7ydm","smc0m3h28p","msl000832","motor","img/motor_8.png","76","76","motor","8","289","1","0","0","",""
"null","","260019","HierDyvozp7ydm","smc0m3h28p","msl000832","iti","img/motor_blank.png","null","76","motor","","","","","","",""
"643","","260668","HierDyvozp7ydm","smc0m3h28p","msl000832","motor","img/motor_3.png","68","68","motor","3","290","1","0","0","",""
"null","","260780","HierDyvozp7ydm","smc0m3h28p","msl000832","iti","img/motor_blank.png","null","68","motor","","","","","","",""
"393","","261181","HierDyvozp7ydm","smc0m3h28p","msl000832","motor","img/motor_1.png","65","65","motor","1","291","1","0","0","",""
"null","","261292","HierDyvozp7ydm","smc0m3h28p","msl000832","iti","img/motor_blank.png","null","65","motor","","","","","","",""
"619","","261920","HierDyvozp7ydm","smc0m3h28p","msl000832","motor","img/motor_8.png","76","76","motor","8","292","1","0","0","",""
"null","","262031","HierDyvozp7ydm","smc0m3h28p","msl000832","iti","img/motor_blank.png","null","76","motor","","","","","","",""
"530","","262570","HierDyvozp7ydm","smc0m3h28p","msl000832","motor","img/motor_2.png","83","83","motor","2","293","1","0","0","",""
"null","","262680","HierDyvozp7ydm","smc0m3h28p","msl000832","iti","img/motor_blank.png","null","83","motor","","","","","","",""
"481","","263170","HierDyvozp7ydm","smc0m3h28p","msl000832","motor","img/motor_4.png","70","70","motor","4","294","1","0","0","",""
"null","","263281","HierDyvozp7ydm","smc0m3h28p","msl000832","iti","img/motor_blank.png","null","70","motor","","","","","","",""
"387","","263678","HierDyvozp7ydm","smc0m3h28p","msl000832","motor","img/motor_1.png","65","65","motor","1","295","1","0","0","",""
"null","","263787","HierDyvozp7ydm","smc0m3h28p","msl000832","iti","img/motor_blank.png","null","65","motor","","","","","","",""
"513","","264308","HierDyvozp7ydm","smc0m3h28p","msl000832","motor","img/motor_2.png","83","83","motor","2","296","1","0","0","",""
"null","","264417","HierDyvozp7ydm","smc0m3h28p","msl000832","iti","img/motor_blank.png","null","83","motor","","","","","","",""
"568","","264997","HierDyvozp7ydm","smc0m3h28p","msl000832","motor","img/motor_8.png","76","76","motor","8","297","1","0","0","",""
"null","","265109","HierDyvozp7ydm","smc0m3h28p","msl000832","iti","img/motor_blank.png","null","76","motor","","","","","","",""
"823","","265944","HierDyvozp7ydm","smc0m3h28p","msl000832","motor","img/motor_7.png","75","75","motor","7","298","1","0","0","",""
"null","","266055","HierDyvozp7ydm","smc0m3h28p","msl000832","iti","img/motor_blank.png","null","75","motor","","","","","","",""
"566","","266631","HierDyvozp7ydm","smc0m3h28p","msl000832","motor","img/motor_4.png","70","70","motor","4","299","1","0","0","",""
"null","","266745","HierDyvozp7ydm","smc0m3h28p","msl000832","iti","img/motor_blank.png","null","70","motor","","","","","","",""
"778","","267533","HierDyvozp7ydm","smc0m3h28p","msl000832","motor","img/motor_7.png","75","75","motor","7","300","1","0","0","",""
"null","","267642","HierDyvozp7ydm","smc0m3h28p","msl000832","iti","img/motor_blank.png","null","75","motor","","","","","","",""
"551","","268204","HierDyvozp7ydm","smc0m3h28p","msl000832","motor","img/motor_8.png","76","76","motor","8","301","1","0","0","",""
"null","","268314","HierDyvozp7ydm","smc0m3h28p","msl000832","iti","img/motor_blank.png","null","76","motor","","","","","","",""
"445","","268772","HierDyvozp7ydm","smc0m3h28p","msl000832","motor","img/motor_5.png","72","72","motor","5","302","1","0","0","",""
"null","","268886","HierDyvozp7ydm","smc0m3h28p","msl000832","iti","img/motor_blank.png","null","72","motor","","","","","","",""
"589","","269486","HierDyvozp7ydm","smc0m3h28p","msl000832","motor","img/motor_6.png","74","74","motor","6","303","1","0","0","",""
"null","","269596","HierDyvozp7ydm","smc0m3h28p","msl000832","iti","img/motor_blank.png","null","74","motor","","","","","","",""
"436","","270043","HierDyvozp7ydm","smc0m3h28p","msl000832","motor","img/motor_2.png","65","83","motor","2","304","0","1","0","",""
"65","","270120","HierDyvozp7ydm","smc0m3h28p","msl000832","motorRepeat","img/motor_2.png","83","83","motor","2","304","1","0","0","",""
"null","","270232","HierDyvozp7ydm","smc0m3h28p","msl000832","iti","img/motor_blank.png","null","83","motor","","","","","","",""
"421","","270662","HierDyvozp7ydm","smc0m3h28p","msl000832","motor","img/motor_2.png","83","83","motor","2","305","1","0","0","",""
"null","","270773","HierDyvozp7ydm","smc0m3h28p","msl000832","iti","img/motor_blank.png","null","83","motor","","","","","","",""
"368","","271152","HierDyvozp7ydm","smc0m3h28p","msl000832","motor","img/motor_1.png","65","65","motor","1","306","1","0","0","",""
"null","","271263","HierDyvozp7ydm","smc0m3h28p","msl000832","iti","img/motor_blank.png","null","65","motor","","","","","","",""
"687","","271961","HierDyvozp7ydm","smc0m3h28p","msl000832","motor","img/motor_6.png","75","74","motor","6","307","0","1","0","",""
"568","","272538","HierDyvozp7ydm","smc0m3h28p","msl000832","motorRepeat","img/motor_6.png","76","74","motor","6","307","0","1","0","",""
"830","","273378","HierDyvozp7ydm","smc0m3h28p","msl000832","motorRepeat","img/motor_6.png","74","74","motor","6","307","1","0","0","",""
"null","","273489","HierDyvozp7ydm","smc0m3h28p","msl000832","iti","img/motor_blank.png","null","74","motor","","","","","","",""
"588","","274086","HierDyvozp7ydm","smc0m3h28p","msl000832","motor","img/motor_1.png","65","65","motor","1","308","1","0","0","",""
"null","","274197","HierDyvozp7ydm","smc0m3h28p","msl000832","iti","img/motor_blank.png","null","65","motor","","","","","","",""
"661","","274869","HierDyvozp7ydm","smc0m3h28p","msl000832","motor","img/motor_2.png","83","83","motor","2","309","1","0","0","",""
"null","","274980","HierDyvozp7ydm","smc0m3h28p","msl000832","iti","img/motor_blank.png","null","83","motor","","","","","","",""
"616","","275602","HierDyvozp7ydm","smc0m3h28p","msl000832","motor","img/motor_5.png","74","72","motor","5","310","0","1","0","",""
"471","","276085","HierDyvozp7ydm","smc0m3h28p","msl000832","motorRepeat","img/motor_5.png","72","72","motor","5","310","1","0","0","",""
"null","","276194","HierDyvozp7ydm","smc0m3h28p","msl000832","iti","img/motor_blank.png","null","72","motor","","","","","","",""
"615","","276820","HierDyvozp7ydm","smc0m3h28p","msl000832","motor","img/motor_7.png","76","75","motor","7","311","0","1","0","",""
"468","","277298","HierDyvozp7ydm","smc0m3h28p","msl000832","motorRepeat","img/motor_7.png","75","75","motor","7","311","1","0","0","",""
"null","","277407","HierDyvozp7ydm","smc0m3h28p","msl000832","iti","img/motor_blank.png","null","75","motor","","","","","","",""
"464","","277878","HierDyvozp7ydm","smc0m3h28p","msl000832","motor","img/motor_5.png","72","72","motor","5","312","1","0","0","",""
"null","","277987","HierDyvozp7ydm","smc0m3h28p","msl000832","iti","img/motor_blank.png","null","72","motor","","","","","","",""
"566","","278560","HierDyvozp7ydm","smc0m3h28p","msl000832","motor","img/motor_8.png","74","76","motor","8","313","0","1","0","",""
"6","","278574","HierDyvozp7ydm","smc0m3h28p","msl000832","motorRepeat","img/motor_8.png","76","76","motor","8","313","1","0","0","",""
"null","","278684","HierDyvozp7ydm","smc0m3h28p","msl000832","iti","img/motor_blank.png","null","76","motor","","","","","","",""
"468","","279162","HierDyvozp7ydm","smc0m3h28p","msl000832","motor","img/motor_6.png","74","74","motor","6","314","1","0","0","",""
"null","","279272","HierDyvozp7ydm","smc0m3h28p","msl000832","iti","img/motor_blank.png","null","74","motor","","","","","","",""
"415","","279696","HierDyvozp7ydm","smc0m3h28p","msl000832","motor","img/motor_1.png","65","65","motor","1","315","1","0","0","",""
"null","","279805","HierDyvozp7ydm","smc0m3h28p","msl000832","iti","img/motor_blank.png","null","65","motor","","","","","","",""
"741","","280554","HierDyvozp7ydm","smc0m3h28p","msl000832","motor","img/motor_3.png","68","68","motor","3","316","1","0","0","",""
"null","","280664","HierDyvozp7ydm","smc0m3h28p","msl000832","iti","img/motor_blank.png","null","68","motor","","","","","","",""
"488","","281160","HierDyvozp7ydm","smc0m3h28p","msl000832","motor","img/motor_5.png","72","72","motor","5","317","1","0","0","",""
"null","","281269","HierDyvozp7ydm","smc0m3h28p","msl000832","iti","img/motor_blank.png","null","72","motor","","","","","","",""
"511","","281789","HierDyvozp7ydm","smc0m3h28p","msl000832","motor","img/motor_3.png","68","68","motor","3","318","1","0","0","",""
"null","","281899","HierDyvozp7ydm","smc0m3h28p","msl000832","iti","img/motor_blank.png","null","68","motor","","","","","","",""
"379","","282286","HierDyvozp7ydm","smc0m3h28p","msl000832","motor","img/motor_4.png","72","70","motor","4","319","0","1","0","",""
"318","","282613","HierDyvozp7ydm","smc0m3h28p","msl000832","motorRepeat","img/motor_4.png","70","70","motor","4","319","1","0","0","",""
"null","","282722","HierDyvozp7ydm","smc0m3h28p","msl000832","iti","img/motor_blank.png","null","70","motor","","","","","","",""
"473","","283204","HierDyvozp7ydm","smc0m3h28p","msl000832","motor","img/motor_8.png","76","76","motor","8","320","1","0","0","",""
"null","","283313","HierDyvozp7ydm","smc0m3h28p","msl000832","iti","img/motor_blank.png","null","76","motor","","","","","","",""
"398","","283719","HierDyvozp7ydm","smc0m3h28p","msl000832","motor","img/motor_6.png","74","74","motor","6","321","1","0","0","",""
"null","","283828","HierDyvozp7ydm","smc0m3h28p","msl000832","iti","img/motor_blank.png","null","74","motor","","","","","","",""
"509","","284347","HierDyvozp7ydm","smc0m3h28p","msl000832","motor","img/motor_7.png","75","75","motor","7","322","1","0","0","",""
"null","","284458","HierDyvozp7ydm","smc0m3h28p","msl000832","iti","img/motor_blank.png","null","75","motor","","","","","","",""
"473","","284941","HierDyvozp7ydm","smc0m3h28p","msl000832","motor","img/motor_5.png","72","72","motor","5","323","1","0","0","",""
"null","","285050","HierDyvozp7ydm","smc0m3h28p","msl000832","iti","img/motor_blank.png","null","72","motor","","","","","","",""
"634","","285693","HierDyvozp7ydm","smc0m3h28p","msl000832","motor","img/motor_3.png","68","68","motor","3","324","1","0","0","",""
"null","","285803","HierDyvozp7ydm","smc0m3h28p","msl000832","iti","img/motor_blank.png","null","68","motor","","","","","","",""
"374","","286185","HierDyvozp7ydm","smc0m3h28p","msl000832","motor","img/motor_2.png","83","83","motor","2","325","1","0","0","",""
"null","","286295","HierDyvozp7ydm","smc0m3h28p","msl000832","iti","img/motor_blank.png","null","83","motor","","","","","","",""
"443","","286747","HierDyvozp7ydm","smc0m3h28p","msl000832","motor","img/motor_3.png","68","68","motor","3","326","1","0","0","",""
"null","","286855","HierDyvozp7ydm","smc0m3h28p","msl000832","iti","img/motor_blank.png","null","68","motor","","","","","","",""
"589","","287455","HierDyvozp7ydm","smc0m3h28p","msl000832","motor","img/motor_6.png","74","74","motor","6","327","1","0","0","",""
"null","","287565","HierDyvozp7ydm","smc0m3h28p","msl000832","iti","img/motor_blank.png","null","74","motor","","","","","","",""
"529","","288103","HierDyvozp7ydm","smc0m3h28p","msl000832","motor","img/motor_3.png","83","68","motor","3","328","0","1","0","",""
"301","","288413","HierDyvozp7ydm","smc0m3h28p","msl000832","motorRepeat","img/motor_3.png","68","68","motor","3","328","1","0","0","",""
"null","","288523","HierDyvozp7ydm","smc0m3h28p","msl000832","iti","img/motor_blank.png","null","68","motor","","","","","","",""
"420","","288951","HierDyvozp7ydm","smc0m3h28p","msl000832","motor","img/motor_7.png","74","75","motor","7","329","0","1","0","",""
"367","","289327","HierDyvozp7ydm","smc0m3h28p","msl000832","motorRepeat","img/motor_7.png","76","75","motor","7","329","0","1","0","",""
"693","","290029","HierDyvozp7ydm","smc0m3h28p","msl000832","motorRepeat","img/motor_7.png","75","75","motor","7","329","1","0","0","",""
"null","","290140","HierDyvozp7ydm","smc0m3h28p","msl000832","iti","img/motor_blank.png","null","75","motor","","","","","","",""
"438","","290587","HierDyvozp7ydm","smc0m3h28p","msl000832","motor","img/motor_1.png","65","65","motor","1","330","1","0","0","",""
"null","","290696","HierDyvozp7ydm","smc0m3h28p","msl000832","iti","img/motor_blank.png","null","65","motor","","","","","","",""
"564","","291270","HierDyvozp7ydm","smc0m3h28p","msl000832","motor","img/motor_7.png","75","75","motor","7","331","1","0","0","",""
"null","","291380","HierDyvozp7ydm","smc0m3h28p","msl000832","iti","img/motor_blank.png","null","75","motor","","","","","","",""
"513","","291901","HierDyvozp7ydm","smc0m3h28p","msl000832","motor","img/motor_4.png","68","70","motor","4","332","0","1","0","",""
"389","","292299","HierDyvozp7ydm","smc0m3h28p","msl000832","motorRepeat","img/motor_4.png","70","70","motor","4","332","1","0","0","",""
"null","","292408","HierDyvozp7ydm","smc0m3h28p","msl000832","iti","img/motor_blank.png","null","70","motor","","","","","","",""
"415","","292832","HierDyvozp7ydm","smc0m3h28p","msl000832","motor","img/motor_1.png","65","65","motor","1","333","1","0","0","",""
"null","","292942","HierDyvozp7ydm","smc0m3h28p","msl000832","iti","img/motor_blank.png","null","65","motor","","","","","","",""
"665","","293614","HierDyvozp7ydm","smc0m3h28p","msl000832","motor","img/motor_7.png","74","75","motor","7","334","0","1","0","",""
"321","","293944","HierDyvozp7ydm","smc0m3h28p","msl000832","motorRepeat","img/motor_7.png","75","75","motor","7","334","1","0","0","",""
"null","","294054","HierDyvozp7ydm","smc0m3h28p","msl000832","iti","img/motor_blank.png","null","75","motor","","","","","","",""
"657","","294719","HierDyvozp7ydm","smc0m3h28p","msl000832","motor","img/motor_3.png","68","68","motor","3","335","1","0","0","",""
"null","","294830","HierDyvozp7ydm","smc0m3h28p","msl000832","iti","img/motor_blank.png","null","68","motor","","","","","","",""
"598","","295438","HierDyvozp7ydm","smc0m3h28p","msl000832","motor","img/motor_6.png","74","74","motor","6","336","1","0","0","",""
"null","","295547","HierDyvozp7ydm","smc0m3h28p","msl000832","iti","img/motor_blank.png","null","74","motor","","","","","","",""
"525","","296081","HierDyvozp7ydm","smc0m3h28p","msl000832","motor","img/motor_7.png","75","75","motor","7","337","1","0","0","",""
"null","","296189","HierDyvozp7ydm","smc0m3h28p","msl000832","iti","img/motor_blank.png","null","75","motor","","","","","","",""
"464","","296660","HierDyvozp7ydm","smc0m3h28p","msl000832","motor","img/motor_3.png","68","68","motor","3","338","1","0","0","",""
"null","","296769","HierDyvozp7ydm","smc0m3h28p","msl000832","iti","img/motor_blank.png","null","68","motor","","","","","","",""
"464","","297242","HierDyvozp7ydm","smc0m3h28p","msl000832","motor","img/motor_6.png","74","74","motor","6","339","1","0","0","",""
"null","","297351","HierDyvozp7ydm","smc0m3h28p","msl000832","iti","img/motor_blank.png","null","74","motor","","","","","","",""
"522","","297880","HierDyvozp7ydm","smc0m3h28p","msl000832","motor","img/motor_2.png","83","83","motor","2","340","1","0","0","",""
"null","","297989","HierDyvozp7ydm","smc0m3h28p","msl000832","iti","img/motor_blank.png","null","83","motor","","","","","","",""
"559","","298556","HierDyvozp7ydm","smc0m3h28p","msl000832","motor","img/motor_5.png","72","72","motor","5","341","1","0","0","",""
"null","","298664","HierDyvozp7ydm","smc0m3h28p","msl000832","iti","img/motor_blank.png","null","72","motor","","","","","","",""
"434","","299106","HierDyvozp7ydm","smc0m3h28p","msl000832","motor","img/motor_7.png","75","75","motor","7","342","1","0","0","",""
"null","","299215","HierDyvozp7ydm","smc0m3h28p","msl000832","iti","img/motor_blank.png","null","75","motor","","","","","","",""
"438","","299662","HierDyvozp7ydm","smc0m3h28p","msl000832","motor","img/motor_1.png","65","65","motor","1","343","1","0","0","",""
"null","","299770","HierDyvozp7ydm","smc0m3h28p","msl000832","iti","img/motor_blank.png","null","65","motor","","","","","","",""
"390","","300169","HierDyvozp7ydm","smc0m3h28p","msl000832","motor","img/motor_5.png","74","72","motor","5","344","0","1","0","",""
"108","","300285","HierDyvozp7ydm","smc0m3h28p","msl000832","motorRepeat","img/motor_5.png","72","72","motor","5","344","1","0","0","",""
"null","","300395","HierDyvozp7ydm","smc0m3h28p","msl000832","iti","img/motor_blank.png","null","72","motor","","","","","","",""
"439","","300843","HierDyvozp7ydm","smc0m3h28p","msl000832","motor","img/motor_4.png","68","70","motor","4","345","0","1","0","",""
"381","","301234","HierDyvozp7ydm","smc0m3h28p","msl000832","motorRepeat","img/motor_4.png","70","70","motor","4","345","1","0","0","",""
"null","","301343","HierDyvozp7ydm","smc0m3h28p","msl000832","iti","img/motor_blank.png","null","70","motor","","","","","","",""
"363","","301716","HierDyvozp7ydm","smc0m3h28p","msl000832","motor","img/motor_6.png","74","74","motor","6","346","1","0","0","",""
"null","","301825","HierDyvozp7ydm","smc0m3h28p","msl000832","iti","img/motor_blank.png","null","74","motor","","","","","","",""
"535","","302369","HierDyvozp7ydm","smc0m3h28p","msl000832","motor","img/motor_2.png","83","83","motor","2","347","1","0","0","",""
"null","","302480","HierDyvozp7ydm","smc0m3h28p","msl000832","iti","img/motor_blank.png","null","83","motor","","","","","","",""
"477","","302965","HierDyvozp7ydm","smc0m3h28p","msl000832","motor","img/motor_7.png","74","75","motor","7","348","0","1","0","",""
"317","","303290","HierDyvozp7ydm","smc0m3h28p","msl000832","motorRepeat","img/motor_7.png","75","75","motor","7","348","1","0","0","",""
"null","","303399","HierDyvozp7ydm","smc0m3h28p","msl000832","iti","img/motor_blank.png","null","75","motor","","","","","","",""
"377","","303783","HierDyvozp7ydm","smc0m3h28p","msl000832","motor","img/motor_7.png","75","75","motor","7","349","1","0","0","",""
"null","","303892","HierDyvozp7ydm","smc0m3h28p","msl000832","iti","img/motor_blank.png","null","75","motor","","","","","","",""
"427","","304327","HierDyvozp7ydm","smc0m3h28p","msl000832","motor","img/motor_2.png","83","83","motor","2","350","1","0","0","",""
"null","","304435","HierDyvozp7ydm","smc0m3h28p","msl000832","iti","img/motor_blank.png","null","83","motor","","","","","","",""
"392","","304836","HierDyvozp7ydm","smc0m3h28p","msl000832","motor","img/motor_4.png","74","70","motor","4","351","0","1","0","",""
"374","","305219","HierDyvozp7ydm","smc0m3h28p","msl000832","motorRepeat","img/motor_4.png","68","70","motor","4","351","0","1","0","",""
"327","","305555","HierDyvozp7ydm","smc0m3h28p","msl000832","motorRepeat","img/motor_4.png","70","70","motor","4","351","1","0","0","",""
"null","","305664","HierDyvozp7ydm","smc0m3h28p","msl000832","iti","img/motor_blank.png","null","70","motor","","","","","","",""
"636","","306308","HierDyvozp7ydm","smc0m3h28p","msl000832","motor","img/motor_7.png","75","75","motor","7","352","1","0","0","",""
