"rt","time_elapsed","subject","subID","group","day","trialType","phase","key_press","stim","stimNum","corrresp","hierarchy","trialNum","corr","responses"
"9769","9771","HierDyt8g4z0x1","sub20","08","07","","","","","","","","","",""
"","99968","HierDyt8g4z0x1","sub20","08","07","fullscreen","","","","","","","","",""
"18952.60000038147","118921","HierDyt8g4z0x1","sub20","08","07","","prac","","","","","","","",""
"752.1000003814697","119675","HierDyt8g4z0x1","sub20","08","07","","","32","","","","","","",""
"1027.9000005722046","120703","HierDyt8g4z0x1","sub20","08","07","","prac","","","","","","","",""
"828","121533","HierDyt8g4z0x1","sub20","08","07","rl","test","70","img/r_t_check.png","4","70","pattern,color,shape","1","1",""
"null","122536","HierDyt8g4z0x1","sub20","08","07","feedback","test","null","","","na","","1","",""
"1196.3000001907349","123733","HierDyt8g4z0x1","sub20","08","07","rl","test","74","img/p_t_diag.png","6","74","pattern,color,shape","2","1",""
"null","124735","HierDyt8g4z0x1","sub20","08","07","feedback","test","null","","","na","","2","",""
"917.2000007629395","125653","HierDyt8g4z0x1","sub20","08","07","rl","test","68","img/p_d_diag.png","5","72","pattern,color,shape","3","0",""
"null","126655","HierDyt8g4z0x1","sub20","08","07","feedback","test","null","","","na","","3","",""
"1042.6999998092651","127699","HierDyt8g4z0x1","sub20","08","07","rl","test","83","img/p_t_check.png","2","83","pattern,color,shape","4","1",""
"null","128703","HierDyt8g4z0x1","sub20","08","07","feedback","test","null","","","na","","4","",""
"864.1000003814697","129569","HierDyt8g4z0x1","sub20","08","07","rl","test","65","img/p_d_check.png","1","65","pattern,color,shape","5","1",""
"null","130575","HierDyt8g4z0x1","sub20","08","07","feedback","test","null","","","na","","5","",""
"804.5","131380","HierDyt8g4z0x1","sub20","08","07","rl","test","75","img/r_d_diag.png","7","75","pattern,color,shape","6","1",""
"null","132383","HierDyt8g4z0x1","sub20","08","07","feedback","test","null","","","na","","6","",""
"null","134887","HierDyt8g4z0x1","sub20","08","07","rl","test","null","img/p_t_check.png","2","83","pattern,color,shape","7","0",""
"null","135895","HierDyt8g4z0x1","sub20","08","07","feedback","test","null","","","na","","7","",""
"949.8999996185303","136846","HierDyt8g4z0x1","sub20","08","07","rl","test","68","img/r_d_check.png","3","68","pattern,color,shape","8","1",""
"null","137856","HierDyt8g4z0x1","sub20","08","07","feedback","test","null","","","na","","8","",""
"2367.5","140224","HierDyt8g4z0x1","sub20","08","07","rl","test","76","img/r_t_diag.png","8","76","pattern,color,shape","9","1",""
"null","141232","HierDyt8g4z0x1","sub20","08","07","feedback","test","null","","","na","","9","",""
"505.6000003814697","141739","HierDyt8g4z0x1","sub20","08","07","rl","test","76","img/r_t_diag.png","8","76","pattern,color,shape","10","1",""
"null","142743","HierDyt8g4z0x1","sub20","08","07","feedback","test","null","","","na","","10","",""
"1284.1000003814697","144029","HierDyt8g4z0x1","sub20","08","07","rl","test","72","img/p_d_diag.png","5","72","pattern,color,shape","11","1",""
"null","145032","HierDyt8g4z0x1","sub20","08","07","feedback","test","null","","","na","","11","",""
"718.7000007629395","145751","HierDyt8g4z0x1","sub20","08","07","rl","test","70","img/r_t_check.png","4","70","pattern,color,shape","12","1",""
"null","146760","HierDyt8g4z0x1","sub20","08","07","feedback","test","null","","","na","","12","",""
"692.6999998092651","147453","HierDyt8g4z0x1","sub20","08","07","rl","test","68","img/r_d_check.png","3","68","pattern,color,shape","13","1",""
"null","148455","HierDyt8g4z0x1","sub20","08","07","feedback","test","null","","","na","","13","",""
"879.6000003814697","149336","HierDyt8g4z0x1","sub20","08","07","rl","test","75","img/r_d_diag.png","7","75","pattern,color,shape","14","1",""
"null","150343","HierDyt8g4z0x1","sub20","08","07","feedback","test","null","","","na","","14","",""
"1879.7999992370605","152223","HierDyt8g4z0x1","sub20","08","07","rl","test","74","img/p_t_diag.png","6","74","pattern,color,shape","15","1",""
"null","153231","HierDyt8g4z0x1","sub20","08","07","feedback","test","null","","","na","","15","",""
"785.8999996185303","154018","HierDyt8g4z0x1","sub20","08","07","rl","test","65","img/p_d_check.png","1","65","pattern,color,shape","16","1",""
"null","155023","HierDyt8g4z0x1","sub20","08","07","feedback","test","null","","","na","","16","",""
"978.5","156003","HierDyt8g4z0x1","sub20","08","07","rl","test","74","img/p_t_diag.png","6","74","pattern,color,shape","17","1",""
"null","157007","HierDyt8g4z0x1","sub20","08","07","feedback","test","null","","","na","","17","",""
"750.8000001907349","157759","HierDyt8g4z0x1","sub20","08","07","rl","test","70","img/r_t_check.png","4","70","pattern,color,shape","18","1",""
"null","158767","HierDyt8g4z0x1","sub20","08","07","feedback","test","null","","","na","","18","",""
"909.5","159677","HierDyt8g4z0x1","sub20","08","07","rl","test","83","img/p_t_check.png","2","83","pattern,color,shape","19","1",""
"null","160680","HierDyt8g4z0x1","sub20","08","07","feedback","test","null","","","na","","19","",""
"625.1000003814697","161306","HierDyt8g4z0x1","sub20","08","07","rl","test","68","img/p_d_check.png","1","65","pattern,color,shape","20","0",""
"null","162311","HierDyt8g4z0x1","sub20","08","07","feedback","test","null","","","na","","20","",""
"1420.6000003814697","163733","HierDyt8g4z0x1","sub20","08","07","rl","test","72","img/p_d_diag.png","5","72","pattern,color,shape","21","1",""
"null","164735","HierDyt8g4z0x1","sub20","08","07","feedback","test","null","","","na","","21","",""
"661.0999994277954","165398","HierDyt8g4z0x1","sub20","08","07","rl","test","68","img/r_d_check.png","3","68","pattern,color,shape","22","1",""
"null","166408","HierDyt8g4z0x1","sub20","08","07","feedback","test","null","","","na","","22","",""
"956.4000005722046","167365","HierDyt8g4z0x1","sub20","08","07","rl","test","75","img/r_d_diag.png","7","75","pattern,color,shape","23","1",""
"null","168367","HierDyt8g4z0x1","sub20","08","07","feedback","test","null","","","na","","23","",""
"694.8999996185303","169063","HierDyt8g4z0x1","sub20","08","07","rl","test","76","img/r_t_diag.png","8","76","pattern,color,shape","24","1",""
"null","170071","HierDyt8g4z0x1","sub20","08","07","feedback","test","null","","","na","","24","",""
"788.3000001907349","170861","HierDyt8g4z0x1","sub20","08","07","rl","test","76","img/r_t_diag.png","8","76","pattern,color,shape","25","1",""
"null","171864","HierDyt8g4z0x1","sub20","08","07","feedback","test","null","","","na","","25","",""
"917.6000003814697","172782","HierDyt8g4z0x1","sub20","08","07","rl","test","83","img/p_t_check.png","2","83","pattern,color,shape","26","1",""
"null","173791","HierDyt8g4z0x1","sub20","08","07","feedback","test","null","","","na","","26","",""
"661.0999994277954","174453","HierDyt8g4z0x1","sub20","08","07","rl","test","76","img/r_t_diag.png","8","76","pattern,color,shape","27","1",""
"null","175455","HierDyt8g4z0x1","sub20","08","07","feedback","test","null","","","na","","27","",""
"726.6000003814697","176183","HierDyt8g4z0x1","sub20","08","07","rl","test","68","img/r_d_check.png","3","68","pattern,color,shape","28","1",""
"null","177192","HierDyt8g4z0x1","sub20","08","07","feedback","test","null","","","na","","28","",""
"737.8000001907349","177931","HierDyt8g4z0x1","sub20","08","07","rl","test","70","img/r_t_check.png","4","70","pattern,color,shape","29","1",""
"null","178936","HierDyt8g4z0x1","sub20","08","07","feedback","test","null","","","na","","29","",""
"1196.1999998092651","180133","HierDyt8g4z0x1","sub20","08","07","rl","test","75","img/r_d_diag.png","7","75","pattern,color,shape","30","1",""
"null","181135","HierDyt8g4z0x1","sub20","08","07","feedback","test","null","","","na","","30","",""
"853.0999994277954","181989","HierDyt8g4z0x1","sub20","08","07","rl","test","74","img/p_t_diag.png","6","74","pattern,color,shape","31","1",""
"null","183000","HierDyt8g4z0x1","sub20","08","07","feedback","test","null","","","na","","31","",""
"1516.5","184518","HierDyt8g4z0x1","sub20","08","07","rl","test","65","img/p_d_check.png","1","65","pattern,color,shape","32","1",""
"null","185527","HierDyt8g4z0x1","sub20","08","07","feedback","test","null","","","na","","32","",""
"689","186217","HierDyt8g4z0x1","sub20","08","07","rl","test","75","img/r_d_diag.png","7","75","pattern,color,shape","33","1",""
"null","187223","HierDyt8g4z0x1","sub20","08","07","feedback","test","null","","","na","","33","",""
"1091.9000005722046","188316","HierDyt8g4z0x1","sub20","08","07","rl","test","72","img/p_d_diag.png","5","72","pattern,color,shape","34","1",""
"null","189320","HierDyt8g4z0x1","sub20","08","07","feedback","test","null","","","na","","34","",""
"1116.8999996185303","190437","HierDyt8g4z0x1","sub20","08","07","rl","test","65","img/p_d_check.png","1","65","pattern,color,shape","35","1",""
"null","191439","HierDyt8g4z0x1","sub20","08","07","feedback","test","null","","","na","","35","",""
"1478.8999996185303","192919","HierDyt8g4z0x1","sub20","08","07","rl","test","74","img/p_t_diag.png","6","74","pattern,color,shape","36","1",""
"null","193927","HierDyt8g4z0x1","sub20","08","07","feedback","test","null","","","na","","36","",""
"647.8999996185303","194576","HierDyt8g4z0x1","sub20","08","07","rl","test","70","img/r_t_check.png","4","70","pattern,color,shape","37","1",""
"null","195584","HierDyt8g4z0x1","sub20","08","07","feedback","test","null","","","na","","37","",""
"1087.0999994277954","196671","HierDyt8g4z0x1","sub20","08","07","rl","test","72","img/p_d_diag.png","5","72","pattern,color,shape","38","1",""
"null","197679","HierDyt8g4z0x1","sub20","08","07","feedback","test","null","","","na","","38","",""
"1464.0999994277954","199144","HierDyt8g4z0x1","sub20","08","07","rl","test","70","img/r_t_check.png","4","70","pattern,color,shape","39","1",""
"null","200152","HierDyt8g4z0x1","sub20","08","07","feedback","test","null","","","na","","39","",""
"1842","201994","HierDyt8g4z0x1","sub20","08","07","rl","test","83","img/p_t_check.png","2","83","pattern,color,shape","40","1",""
"null","202999","HierDyt8g4z0x1","sub20","08","07","feedback","test","null","","","na","","40","",""
"1256","204256","HierDyt8g4z0x1","sub20","08","07","rl","test","68","img/r_d_check.png","3","68","pattern,color,shape","41","1",""
"null","205263","HierDyt8g4z0x1","sub20","08","07","feedback","test","null","","","na","","41","",""
"979.6999998092651","206243","HierDyt8g4z0x1","sub20","08","07","rl","test","76","img/r_t_diag.png","8","76","pattern,color,shape","42","1",""
"null","207247","HierDyt8g4z0x1","sub20","08","07","feedback","test","null","","","na","","42","",""
"760.8999996185303","208009","HierDyt8g4z0x1","sub20","08","07","rl","test","75","img/r_d_diag.png","7","75","pattern,color,shape","43","1",""
"null","209015","HierDyt8g4z0x1","sub20","08","07","feedback","test","null","","","na","","43","",""
"624.6999998092651","209641","HierDyt8g4z0x1","sub20","08","07","rl","test","74","img/p_t_diag.png","6","74","pattern,color,shape","44","1",""
"null","210648","HierDyt8g4z0x1","sub20","08","07","feedback","test","null","","","na","","44","",""
"1330.9000005722046","211980","HierDyt8g4z0x1","sub20","08","07","rl","test","65","img/p_d_check.png","1","65","pattern,color,shape","45","1",""
"null","212983","HierDyt8g4z0x1","sub20","08","07","feedback","test","null","","","na","","45","",""
"501.8999996185303","213486","HierDyt8g4z0x1","sub20","08","07","rl","test","65","img/p_d_check.png","1","65","pattern,color,shape","46","1",""
"null","214495","HierDyt8g4z0x1","sub20","08","07","feedback","test","null","","","na","","46","",""
"1291.3000001907349","215787","HierDyt8g4z0x1","sub20","08","07","rl","test","72","img/p_d_diag.png","5","72","pattern,color,shape","47","1",""
"null","216791","HierDyt8g4z0x1","sub20","08","07","feedback","test","null","","","na","","47","",""
"1250.3999996185303","218042","HierDyt8g4z0x1","sub20","08","07","rl","test","68","img/r_d_check.png","3","68","pattern,color,shape","48","1",""
"null","219049","HierDyt8g4z0x1","sub20","08","07","feedback","test","null","","","na","","48","",""
"1551.5","220601","HierDyt8g4z0x1","sub20","08","07","rl","test","83","img/p_t_check.png","2","83","pattern,color,shape","49","1",""
"null","221608","HierDyt8g4z0x1","sub20","08","07","feedback","test","null","","","na","","49","",""
"895.6000003814697","222505","HierDyt8g4z0x1","sub20","08","07","rl","test","68","img/r_d_check.png","3","68","pattern,color,shape","50","1",""
"null","223512","HierDyt8g4z0x1","sub20","08","07","feedback","test","null","","","na","","50","",""
"834","224347","HierDyt8g4z0x1","sub20","08","07","rl","test","72","img/p_d_diag.png","5","72","pattern,color,shape","51","1",""
"null","225351","HierDyt8g4z0x1","sub20","08","07","feedback","test","null","","","na","","51","",""
"1062.1999998092651","226415","HierDyt8g4z0x1","sub20","08","07","rl","test","83","img/p_t_check.png","2","83","pattern,color,shape","52","1",""
"null","227423","HierDyt8g4z0x1","sub20","08","07","feedback","test","null","","","na","","52","",""
"921.1999998092651","228345","HierDyt8g4z0x1","sub20","08","07","rl","test","70","img/r_t_check.png","4","70","pattern,color,shape","53","1",""
"null","229352","HierDyt8g4z0x1","sub20","08","07","feedback","test","null","","","na","","53","",""
"1789.5","231143","HierDyt8g4z0x1","sub20","08","07","rl","test","76","img/r_t_diag.png","8","76","pattern,color,shape","54","1",""
"null","232151","HierDyt8g4z0x1","sub20","08","07","feedback","test","null","","","na","","54","",""
"911.1999998092651","233063","HierDyt8g4z0x1","sub20","08","07","rl","test","74","img/p_t_diag.png","6","74","pattern,color,shape","55","1",""
"null","234072","HierDyt8g4z0x1","sub20","08","07","feedback","test","null","","","na","","55","",""
"457.4000005722046","234530","HierDyt8g4z0x1","sub20","08","07","rl","test","74","img/p_t_diag.png","6","74","pattern,color,shape","56","1",""
"null","235537","HierDyt8g4z0x1","sub20","08","07","feedback","test","null","","","na","","56","",""
"null","238040","HierDyt8g4z0x1","sub20","08","07","rl","test","null","img/p_t_check.png","2","83","pattern,color,shape","57","0",""
"null","239048","HierDyt8g4z0x1","sub20","08","07","feedback","test","null","","","na","","57","",""
"1516.0999994277954","240566","HierDyt8g4z0x1","sub20","08","07","rl","test","75","img/r_d_diag.png","7","75","pattern,color,shape","58","1",""
"null","241567","HierDyt8g4z0x1","sub20","08","07","feedback","test","null","","","na","","58","",""
"1166.8000001907349","242735","HierDyt8g4z0x1","sub20","08","07","rl","test","70","img/r_t_check.png","4","70","pattern,color,shape","59","1",""
"null","243744","HierDyt8g4z0x1","sub20","08","07","feedback","test","null","","","na","","59","",""
"546.1000003814697","244292","HierDyt8g4z0x1","sub20","08","07","rl","test","68","img/r_d_check.png","3","68","pattern,color,shape","60","1",""
"null","245295","HierDyt8g4z0x1","sub20","08","07","feedback","test","null","","","na","","60","",""
"931.5","246228","HierDyt8g4z0x1","sub20","08","07","rl","test","65","img/p_d_check.png","1","65","pattern,color,shape","61","1",""
"null","247231","HierDyt8g4z0x1","sub20","08","07","feedback","test","null","","","na","","61","",""
"1002.6999998092651","248235","HierDyt8g4z0x1","sub20","08","07","rl","test","76","img/r_t_diag.png","8","76","pattern,color,shape","62","1",""
"null","249240","HierDyt8g4z0x1","sub20","08","07","feedback","test","null","","","na","","62","",""
"729.4000005722046","249970","HierDyt8g4z0x1","sub20","08","07","rl","test","65","img/p_d_check.png","1","65","pattern,color,shape","63","1",""
"null","250976","HierDyt8g4z0x1","sub20","08","07","feedback","test","null","","","na","","63","",""
"1197.5","252175","HierDyt8g4z0x1","sub20","08","07","rl","test","72","img/p_d_diag.png","5","72","pattern,color,shape","64","1",""
"null","253184","HierDyt8g4z0x1","sub20","08","07","feedback","test","null","","","na","","64","",""
"1773.3999996185303","254959","HierDyt8g4z0x1","sub20","08","07","rl","test","75","img/r_d_diag.png","7","75","pattern,color,shape","65","1",""
"null","255968","HierDyt8g4z0x1","sub20","08","07","feedback","test","null","","","na","","65","",""
"1230.7000007629395","257200","HierDyt8g4z0x1","sub20","08","07","rl","test","68","img/r_d_check.png","3","68","pattern,color,shape","66","1",""
"null","258208","HierDyt8g4z0x1","sub20","08","07","feedback","test","null","","","na","","66","",""
"898.8000001907349","259108","HierDyt8g4z0x1","sub20","08","07","rl","test","72","img/p_d_diag.png","5","72","pattern,color,shape","67","1",""
"null","260111","HierDyt8g4z0x1","sub20","08","07","feedback","test","null","","","na","","67","",""
"1940.3999996185303","262053","HierDyt8g4z0x1","sub20","08","07","rl","test","83","img/p_t_check.png","2","83","pattern,color,shape","68","1",""
"null","263055","HierDyt8g4z0x1","sub20","08","07","feedback","test","null","","","na","","68","",""
"1347.3999996185303","264404","HierDyt8g4z0x1","sub20","08","07","rl","test","75","img/r_d_diag.png","7","75","pattern,color,shape","69","1",""
"null","265407","HierDyt8g4z0x1","sub20","08","07","feedback","test","null","","","na","","69","",""
"1177.6999998092651","266585","HierDyt8g4z0x1","sub20","08","07","rl","test","74","img/p_t_diag.png","6","74","pattern,color,shape","70","1",""
"null","267591","HierDyt8g4z0x1","sub20","08","07","feedback","test","null","","","na","","70","",""
"725.1999998092651","268317","HierDyt8g4z0x1","sub20","08","07","rl","test","70","img/r_t_check.png","4","70","pattern,color,shape","71","1",""
"null","269320","HierDyt8g4z0x1","sub20","08","07","feedback","test","null","","","na","","71","",""
"984.8000001907349","270306","HierDyt8g4z0x1","sub20","08","07","rl","test","72","img/p_d_diag.png","5","72","pattern,color,shape","72","1",""
"null","271312","HierDyt8g4z0x1","sub20","08","07","feedback","test","null","","","na","","72","",""
"1331.1999998092651","272645","HierDyt8g4z0x1","sub20","08","07","rl","test","76","img/r_t_diag.png","8","76","pattern,color,shape","73","1",""
"null","273648","HierDyt8g4z0x1","sub20","08","07","feedback","test","null","","","na","","73","",""
"480.8999996185303","274130","HierDyt8g4z0x1","sub20","08","07","rl","test","76","img/r_t_diag.png","8","76","pattern,color,shape","74","1",""
"null","275136","HierDyt8g4z0x1","sub20","08","07","feedback","test","null","","","na","","74","",""
"2299.699999809265","277437","HierDyt8g4z0x1","sub20","08","07","rl","test","70","img/r_t_check.png","4","70","pattern,color,shape","75","1",""
"null","278439","HierDyt8g4z0x1","sub20","08","07","feedback","test","null","","","na","","75","",""
"1596.9000005722046","280037","HierDyt8g4z0x1","sub20","08","07","rl","test","74","img/p_t_diag.png","6","74","pattern,color,shape","76","1",""
"null","281040","HierDyt8g4z0x1","sub20","08","07","feedback","test","null","","","na","","76","",""
"774","281815","HierDyt8g4z0x1","sub20","08","07","rl","test","75","img/r_d_diag.png","7","75","pattern,color,shape","77","1",""
"null","282823","HierDyt8g4z0x1","sub20","08","07","feedback","test","null","","","na","","77","",""
"781.3999996185303","283606","HierDyt8g4z0x1","sub20","08","07","rl","test","65","img/p_d_check.png","1","65","pattern,color,shape","78","1",""
"null","284615","HierDyt8g4z0x1","sub20","08","07","feedback","test","null","","","na","","78","",""
"939.8000001907349","285556","HierDyt8g4z0x1","sub20","08","07","rl","test","68","img/r_d_check.png","3","68","pattern,color,shape","79","1",""
"null","286560","HierDyt8g4z0x1","sub20","08","07","feedback","test","null","","","na","","79","",""
"1291.8999996185303","287853","HierDyt8g4z0x1","sub20","08","07","rl","test","83","img/p_t_check.png","2","83","pattern,color,shape","80","1",""
"null","288855","HierDyt8g4z0x1","sub20","08","07","feedback","test","null","","","na","","80","",""
"938","289794","HierDyt8g4z0x1","sub20","08","07","rl","test","76","img/r_t_diag.png","8","76","pattern,color,shape","81","1",""
"null","290800","HierDyt8g4z0x1","sub20","08","07","feedback","test","null","","","na","","81","",""
"1194.5","291995","HierDyt8g4z0x1","sub20","08","07","rl","test","72","img/p_d_diag.png","5","72","pattern,color,shape","82","1",""
"null","293000","HierDyt8g4z0x1","sub20","08","07","feedback","test","null","","","na","","82","",""
"1122.3999996185303","294124","HierDyt8g4z0x1","sub20","08","07","rl","test","65","img/p_d_check.png","1","65","pattern,color,shape","83","1",""
"null","295127","HierDyt8g4z0x1","sub20","08","07","feedback","test","null","","","na","","83","",""
"1053.1000003814697","296181","HierDyt8g4z0x1","sub20","08","07","rl","test","70","img/r_t_check.png","4","70","pattern,color,shape","84","1",""
"null","297183","HierDyt8g4z0x1","sub20","08","07","feedback","test","null","","","na","","84","",""
"1863.5","299048","HierDyt8g4z0x1","sub20","08","07","rl","test","68","img/p_t_check.png","2","83","pattern,color,shape","85","0",""
"null","300056","HierDyt8g4z0x1","sub20","08","07","feedback","test","null","","","na","","85","",""
"1567.5999994277954","301624","HierDyt8g4z0x1","sub20","08","07","rl","test","74","img/p_t_diag.png","6","74","pattern,color,shape","86","1",""
"null","302631","HierDyt8g4z0x1","sub20","08","07","feedback","test","null","","","na","","86","",""
"866.8000001907349","303499","HierDyt8g4z0x1","sub20","08","07","rl","test","68","img/r_d_check.png","3","68","pattern,color,shape","87","1",""
"null","304504","HierDyt8g4z0x1","sub20","08","07","feedback","test","null","","","na","","87","",""
"1547.8999996185303","306053","HierDyt8g4z0x1","sub20","08","07","rl","test","74","img/p_t_diag.png","6","74","pattern,color,shape","88","1",""
"null","307056","HierDyt8g4z0x1","sub20","08","07","feedback","test","null","","","na","","88","",""
"1292.6999998092651","308350","HierDyt8g4z0x1","sub20","08","07","rl","test","75","img/r_d_diag.png","7","75","pattern,color,shape","89","1",""
"null","309359","HierDyt8g4z0x1","sub20","08","07","feedback","test","null","","","na","","89","",""
"1895.3000001907349","311256","HierDyt8g4z0x1","sub20","08","07","rl","test","68","img/r_d_check.png","3","68","pattern,color,shape","90","1",""
"null","312263","HierDyt8g4z0x1","sub20","08","07","feedback","test","null","","","na","","90","",""
"1009.7999992370605","313273","HierDyt8g4z0x1","sub20","08","07","rl","test","83","img/p_t_check.png","2","83","pattern,color,shape","91","1",""
"null","314280","HierDyt8g4z0x1","sub20","08","07","feedback","test","null","","","na","","91","",""
"1135.3999996185303","315416","HierDyt8g4z0x1","sub20","08","07","rl","test","76","img/r_t_diag.png","8","76","pattern,color,shape","92","1",""
"null","316423","HierDyt8g4z0x1","sub20","08","07","feedback","test","null","","","na","","92","",""
"714.5999994277954","317139","HierDyt8g4z0x1","sub20","08","07","rl","test","75","img/r_d_diag.png","7","75","pattern,color,shape","93","1",""
"null","318143","HierDyt8g4z0x1","sub20","08","07","feedback","test","null","","","na","","93","",""
"533.2999992370605","318677","HierDyt8g4z0x1","sub20","08","07","rl","test","76","img/r_d_diag.png","7","75","pattern,color,shape","94","0",""
"null","319679","HierDyt8g4z0x1","sub20","08","07","feedback","test","null","","","na","","94","",""
"1030.8000001907349","320711","HierDyt8g4z0x1","sub20","08","07","rl","test","72","img/p_d_diag.png","5","72","pattern,color,shape","95","1",""
"null","321719","HierDyt8g4z0x1","sub20","08","07","feedback","test","null","","","na","","95","",""
"1712.1999998092651","323432","HierDyt8g4z0x1","sub20","08","07","rl","test","70","img/r_t_check.png","4","70","pattern,color,shape","96","1",""
"null","324440","HierDyt8g4z0x1","sub20","08","07","feedback","test","null","","","na","","96","",""
"1340.0999994277954","325781","HierDyt8g4z0x1","sub20","08","07","rl","test","68","img/p_d_check.png","1","65","pattern,color,shape","97","0",""
"null","326783","HierDyt8g4z0x1","sub20","08","07","feedback","test","null","","","na","","97","",""
"1056.1999998092651","327840","HierDyt8g4z0x1","sub20","08","07","rl","test","72","img/p_d_diag.png","5","72","pattern,color,shape","98","1",""
"null","328848","HierDyt8g4z0x1","sub20","08","07","feedback","test","null","","","na","","98","",""
"925.5","329774","HierDyt8g4z0x1","sub20","08","07","rl","test","68","img/r_d_check.png","3","68","pattern,color,shape","99","1",""
"null","330783","HierDyt8g4z0x1","sub20","08","07","feedback","test","null","","","na","","99","",""
"633.6999998092651","331417","HierDyt8g4z0x1","sub20","08","07","rl","test","65","img/p_d_check.png","1","65","pattern,color,shape","100","1",""
"null","332424","HierDyt8g4z0x1","sub20","08","07","feedback","test","null","","","na","","100","",""
"782.6999998092651","333207","HierDyt8g4z0x1","sub20","08","07","rl","test","68","img/r_d_check.png","3","68","pattern,color,shape","101","1",""
"null","334215","HierDyt8g4z0x1","sub20","08","07","feedback","test","null","","","na","","101","",""
"921.5999994277954","335137","HierDyt8g4z0x1","sub20","08","07","rl","test","74","img/p_t_diag.png","6","74","pattern,color,shape","102","1",""
"null","336143","HierDyt8g4z0x1","sub20","08","07","feedback","test","null","","","na","","102","",""
"947.7000007629395","337092","HierDyt8g4z0x1","sub20","08","07","rl","test","70","img/r_t_check.png","4","70","pattern,color,shape","103","1",""
"null","338095","HierDyt8g4z0x1","sub20","08","07","feedback","test","null","","","na","","103","",""
"511.69999980926514","338607","HierDyt8g4z0x1","sub20","08","07","rl","test","75","img/r_t_check.png","4","70","pattern,color,shape","104","0",""
"null","339615","HierDyt8g4z0x1","sub20","08","07","feedback","test","null","","","na","","104","",""
"1815.3999996185303","341431","HierDyt8g4z0x1","sub20","08","07","rl","test","83","img/p_t_check.png","2","83","pattern,color,shape","105","1",""
"null","342440","HierDyt8g4z0x1","sub20","08","07","feedback","test","null","","","na","","105","",""
"1224.5","343665","HierDyt8g4z0x1","sub20","08","07","rl","test","65","img/p_d_check.png","1","65","pattern,color,shape","106","1",""
"null","344672","HierDyt8g4z0x1","sub20","08","07","feedback","test","null","","","na","","106","",""
"1039.3000001907349","345712","HierDyt8g4z0x1","sub20","08","07","rl","test","76","img/r_t_diag.png","8","76","pattern,color,shape","107","1",""
"null","346720","HierDyt8g4z0x1","sub20","08","07","feedback","test","null","","","na","","107","",""
"449.5","347171","HierDyt8g4z0x1","sub20","08","07","rl","test","76","img/r_t_diag.png","8","76","pattern,color,shape","108","1",""
"null","348175","HierDyt8g4z0x1","sub20","08","07","feedback","test","null","","","na","","108","",""
"1142.3999996185303","349319","HierDyt8g4z0x1","sub20","08","07","rl","test","75","img/r_d_diag.png","7","75","pattern,color,shape","109","1",""
"null","350329","HierDyt8g4z0x1","sub20","08","07","feedback","test","null","","","na","","109","",""
"1661","351991","HierDyt8g4z0x1","sub20","08","07","rl","test","83","img/p_t_check.png","2","83","pattern,color,shape","110","1",""
"null","353000","HierDyt8g4z0x1","sub20","08","07","feedback","test","null","","","na","","110","",""
"1072.5999994277954","354074","HierDyt8g4z0x1","sub20","08","07","rl","test","74","img/p_t_diag.png","6","74","pattern,color,shape","111","1",""
"null","355080","HierDyt8g4z0x1","sub20","08","07","feedback","test","null","","","na","","111","",""
"847.8000001907349","355929","HierDyt8g4z0x1","sub20","08","07","rl","test","70","img/r_t_check.png","4","70","pattern,color,shape","112","1",""
"null","356936","HierDyt8g4z0x1","sub20","08","07","feedback","test","null","","","na","","112","",""
"1737","358674","HierDyt8g4z0x1","sub20","08","07","rl","test","74","img/p_d_diag.png","5","72","pattern,color,shape","113","0",""
"null","359680","HierDyt8g4z0x1","sub20","08","07","feedback","test","null","","","na","","113","",""
"2108.300000190735","361789","HierDyt8g4z0x1","sub20","08","07","rl","test","68","img/r_d_check.png","3","68","pattern,color,shape","114","1",""
"null","362792","HierDyt8g4z0x1","sub20","08","07","feedback","test","null","","","na","","114","",""
"1377.8999996185303","364171","HierDyt8g4z0x1","sub20","08","07","rl","test","74","img/p_t_diag.png","6","74","pattern,color,shape","115","1",""
"null","365176","HierDyt8g4z0x1","sub20","08","07","feedback","test","null","","","na","","115","",""
"1569.5","366747","HierDyt8g4z0x1","sub20","08","07","rl","test","75","img/r_d_diag.png","7","75","pattern,color,shape","116","1",""
"null","367752","HierDyt8g4z0x1","sub20","08","07","feedback","test","null","","","na","","116","",""
"787","368540","HierDyt8g4z0x1","sub20","08","07","rl","test","65","img/p_d_check.png","1","65","pattern,color,shape","117","1",""
"null","369543","HierDyt8g4z0x1","sub20","08","07","feedback","test","null","","","na","","117","",""
"980.9000005722046","370525","HierDyt8g4z0x1","sub20","08","07","rl","test","75","img/r_t_diag.png","8","76","pattern,color,shape","118","0",""
"null","371528","HierDyt8g4z0x1","sub20","08","07","feedback","test","null","","","na","","118","",""
"1415.3000001907349","372944","HierDyt8g4z0x1","sub20","08","07","rl","test","83","img/p_t_check.png","2","83","pattern,color,shape","119","1",""
"null","373952","HierDyt8g4z0x1","sub20","08","07","feedback","test","null","","","na","","119","",""
"756.6999998092651","374710","HierDyt8g4z0x1","sub20","08","07","rl","test","76","img/r_t_diag.png","8","76","pattern,color,shape","120","1",""
"null","375720","HierDyt8g4z0x1","sub20","08","07","feedback","test","null","","","na","","120","",""
"1180","376901","HierDyt8g4z0x1","sub20","08","07","rl","test","72","img/p_d_diag.png","5","72","pattern,color,shape","121","1",""
"null","377904","HierDyt8g4z0x1","sub20","08","07","feedback","test","null","","","na","","121","",""
"1529","379434","HierDyt8g4z0x1","sub20","08","07","rl","test","83","img/p_t_check.png","2","83","pattern,color,shape","122","1",""
"null","380440","HierDyt8g4z0x1","sub20","08","07","feedback","test","null","","","na","","122","",""
"825.2999992370605","381267","HierDyt8g4z0x1","sub20","08","07","rl","test","75","img/r_d_diag.png","7","75","pattern,color,shape","123","1",""
"null","382272","HierDyt8g4z0x1","sub20","08","07","feedback","test","null","","","na","","123","",""
"1156.6000003814697","383430","HierDyt8g4z0x1","sub20","08","07","rl","test","68","img/r_d_check.png","3","68","pattern,color,shape","124","1",""
"null","384439","HierDyt8g4z0x1","sub20","08","07","feedback","test","null","","","na","","124","",""
"783.7999992370605","385224","HierDyt8g4z0x1","sub20","08","07","rl","test","72","img/p_d_diag.png","5","72","pattern,color,shape","125","1",""
"null","386231","HierDyt8g4z0x1","sub20","08","07","feedback","test","null","","","na","","125","",""
"1566.6000003814697","387799","HierDyt8g4z0x1","sub20","08","07","rl","test","70","img/r_t_check.png","4","70","pattern,color,shape","126","1",""
"null","388808","HierDyt8g4z0x1","sub20","08","07","feedback","test","null","","","na","","126","",""
"1861.6000003814697","390671","HierDyt8g4z0x1","sub20","08","07","rl","test","74","img/p_t_diag.png","6","74","pattern,color,shape","127","1",""
"null","391681","HierDyt8g4z0x1","sub20","08","07","feedback","test","null","","","na","","127","",""
"1567.1000003814697","393249","HierDyt8g4z0x1","sub20","08","07","rl","test","65","img/p_d_check.png","1","65","pattern,color,shape","128","1",""
"null","394256","HierDyt8g4z0x1","sub20","08","07","feedback","test","null","","","na","","128","",""
"985.6000003814697","395243","HierDyt8g4z0x1","sub20","08","07","rl","test","75","img/r_d_diag.png","7","75","pattern,color,shape","129","1",""
"null","396248","HierDyt8g4z0x1","sub20","08","07","feedback","test","null","","","na","","129","",""
"1630.6000003814697","397879","HierDyt8g4z0x1","sub20","08","07","rl","test","65","img/p_d_check.png","1","65","pattern,color,shape","130","1",""
"null","398888","HierDyt8g4z0x1","sub20","08","07","feedback","test","null","","","na","","130","",""
"835.6999998092651","399725","HierDyt8g4z0x1","sub20","08","07","rl","test","70","img/r_t_check.png","4","70","pattern,color,shape","131","1",""
"null","400729","HierDyt8g4z0x1","sub20","08","07","feedback","test","null","","","na","","131","",""
"null","403231","HierDyt8g4z0x1","sub20","08","07","rl","test","null","img/p_t_diag.png","6","74","pattern,color,shape","132","0",""
"null","404239","HierDyt8g4z0x1","sub20","08","07","feedback","test","null","","","na","","132","",""
"1427.1999998092651","405667","HierDyt8g4z0x1","sub20","08","07","rl","test","68","img/r_d_check.png","3","68","pattern,color,shape","133","1",""
"null","406671","HierDyt8g4z0x1","sub20","08","07","feedback","test","null","","","na","","133","",""
"2302.8999996185303","408975","HierDyt8g4z0x1","sub20","08","07","rl","test","70","img/r_t_diag.png","8","76","pattern,color,shape","134","0",""
"null","409983","HierDyt8g4z0x1","sub20","08","07","feedback","test","null","","","na","","134","",""
"1039.5","411024","HierDyt8g4z0x1","sub20","08","07","rl","test","83","img/p_t_check.png","2","83","pattern,color,shape","135","1",""
"null","412031","HierDyt8g4z0x1","sub20","08","07","feedback","test","null","","","na","","135","",""
"949.8000001907349","412982","HierDyt8g4z0x1","sub20","08","07","rl","test","72","img/p_d_diag.png","5","72","pattern,color,shape","136","1",""
"null","413991","HierDyt8g4z0x1","sub20","08","07","feedback","test","null","","","na","","136","",""
"447.6000003814697","414440","HierDyt8g4z0x1","sub20","08","07","rl","test","72","img/p_d_diag.png","5","72","pattern,color,shape","137","1",""
"null","415447","HierDyt8g4z0x1","sub20","08","07","feedback","test","null","","","na","","137","",""
"986.3000001907349","416434","HierDyt8g4z0x1","sub20","08","07","rl","test","83","img/p_t_check.png","2","83","pattern,color,shape","138","1",""
"null","417440","HierDyt8g4z0x1","sub20","08","07","feedback","test","null","","","na","","138","",""
"746.6000003814697","418188","HierDyt8g4z0x1","sub20","08","07","rl","test","74","img/p_t_diag.png","6","74","pattern,color,shape","139","1",""
"null","419191","HierDyt8g4z0x1","sub20","08","07","feedback","test","null","","","na","","139","",""
"1547.1999998092651","420739","HierDyt8g4z0x1","sub20","08","07","rl","test","65","img/p_d_check.png","1","65","pattern,color,shape","140","1",""
"null","421744","HierDyt8g4z0x1","sub20","08","07","feedback","test","null","","","na","","140","",""
"905","422650","HierDyt8g4z0x1","sub20","08","07","rl","test","68","img/r_d_check.png","3","68","pattern,color,shape","141","1",""
"null","423655","HierDyt8g4z0x1","sub20","08","07","feedback","test","null","","","na","","141","",""
"1304.1999998092651","424961","HierDyt8g4z0x1","sub20","08","07","rl","test","75","img/r_d_diag.png","7","75","pattern,color,shape","142","1",""
"null","425968","HierDyt8g4z0x1","sub20","08","07","feedback","test","null","","","na","","142","",""
"1003.1999998092651","426973","HierDyt8g4z0x1","sub20","08","07","rl","test","70","img/r_t_check.png","4","70","pattern,color,shape","143","1",""
"null","427975","HierDyt8g4z0x1","sub20","08","07","feedback","test","null","","","na","","143","",""
"1213.3999996185303","429190","HierDyt8g4z0x1","sub20","08","07","rl","test","83","img/p_t_check.png","2","83","pattern,color,shape","144","1",""
"null","430191","HierDyt8g4z0x1","sub20","08","07","feedback","test","null","","","na","","144","",""
"1481.8000001907349","431674","HierDyt8g4z0x1","sub20","08","07","rl","test","70","img/r_t_check.png","4","70","pattern,color,shape","145","1",""
"null","432680","HierDyt8g4z0x1","sub20","08","07","feedback","test","null","","","na","","145","",""
"752.6999998092651","433434","HierDyt8g4z0x1","sub20","08","07","rl","test","75","img/r_d_diag.png","7","75","pattern,color,shape","146","1",""
"null","434440","HierDyt8g4z0x1","sub20","08","07","feedback","test","null","","","na","","146","",""
"568.5","435010","HierDyt8g4z0x1","sub20","08","07","rl","test","75","img/r_t_diag.png","8","76","pattern,color,shape","147","0",""
"null","436015","HierDyt8g4z0x1","sub20","08","07","feedback","test","null","","","na","","147","",""
"674.6999998092651","436691","HierDyt8g4z0x1","sub20","08","07","rl","test","76","img/r_t_diag.png","8","76","pattern,color,shape","148","1",""
"null","437696","HierDyt8g4z0x1","sub20","08","07","feedback","test","null","","","na","","148","",""
"2223.199999809265","439920","HierDyt8g4z0x1","sub20","08","07","rl","test","74","img/p_d_diag.png","5","72","pattern,color,shape","149","0",""
"null","440928","HierDyt8g4z0x1","sub20","08","07","feedback","test","null","","","na","","149","",""
"1057","441986","HierDyt8g4z0x1","sub20","08","07","rl","test","65","img/p_d_check.png","1","65","pattern,color,shape","150","1",""
"null","442992","HierDyt8g4z0x1","sub20","08","07","feedback","test","null","","","na","","150","",""
"2183.3999996185303","445176","HierDyt8g4z0x1","sub20","08","07","rl","test","68","img/r_d_check.png","3","68","pattern,color,shape","151","1",""
"null","446184","HierDyt8g4z0x1","sub20","08","07","feedback","test","null","","","na","","151","",""
"1005.5999994277954","447191","HierDyt8g4z0x1","sub20","08","07","rl","test","75","img/r_d_diag.png","7","75","pattern,color,shape","152","1",""
"null","448200","HierDyt8g4z0x1","sub20","08","07","feedback","test","null","","","na","","152","",""
"818.1999998092651","449019","HierDyt8g4z0x1","sub20","08","07","rl","test","74","img/p_t_diag.png","6","74","pattern,color,shape","153","1",""
"null","450023","HierDyt8g4z0x1","sub20","08","07","feedback","test","null","","","na","","153","",""
"1662.8999996185303","451687","HierDyt8g4z0x1","sub20","08","07","rl","test","68","img/r_d_check.png","3","68","pattern,color,shape","154","1",""
"null","452695","HierDyt8g4z0x1","sub20","08","07","feedback","test","null","","","na","","154","",""
"null","455199","HierDyt8g4z0x1","sub20","08","07","rl","test","null","img/p_t_check.png","2","83","pattern,color,shape","155","0",""
"null","456207","HierDyt8g4z0x1","sub20","08","07","feedback","test","null","","","na","","155","",""
"998.6999998092651","457207","HierDyt8g4z0x1","sub20","08","07","rl","test","72","img/p_d_diag.png","5","72","pattern,color,shape","156","1",""
"null","458215","HierDyt8g4z0x1","sub20","08","07","feedback","test","null","","","na","","156","",""
"1358.8000001907349","459575","HierDyt8g4z0x1","sub20","08","07","rl","test","74","img/p_t_diag.png","6","74","pattern,color,shape","157","1",""
"null","460583","HierDyt8g4z0x1","sub20","08","07","feedback","test","null","","","na","","157","",""
"979.6000003814697","461564","HierDyt8g4z0x1","sub20","08","07","rl","test","65","img/p_d_check.png","1","65","pattern,color,shape","158","1",""
"null","462568","HierDyt8g4z0x1","sub20","08","07","feedback","test","null","","","na","","158","",""
"849.4000005722046","463419","HierDyt8g4z0x1","sub20","08","07","rl","test","68","img/r_d_check.png","3","68","pattern,color,shape","159","1",""
"null","464423","HierDyt8g4z0x1","sub20","08","07","feedback","test","null","","","na","","159","",""
"683.6999998092651","465108","HierDyt8g4z0x1","sub20","08","07","rl","test","70","img/r_t_check.png","4","70","pattern,color,shape","160","1",""
"null","466111","HierDyt8g4z0x1","sub20","08","07","feedback","test","null","","","na","","160","",""
"1021.6999998092651","467134","HierDyt8g4z0x1","sub20","08","07","rl","test","70","img/r_t_check.png","4","70","pattern,color,shape","161","1",""
"null","468136","HierDyt8g4z0x1","sub20","08","07","feedback","test","null","","","na","","161","",""
"1058.3999996185303","469195","HierDyt8g4z0x1","sub20","08","07","rl","test","76","img/r_t_diag.png","8","76","pattern,color,shape","162","1",""
"null","470199","HierDyt8g4z0x1","sub20","08","07","feedback","test","null","","","na","","162","",""
"1456.8000001907349","471657","HierDyt8g4z0x1","sub20","08","07","rl","test","65","img/p_d_check.png","1","65","pattern,color,shape","163","1",""
"null","472664","HierDyt8g4z0x1","sub20","08","07","feedback","test","null","","","na","","163","",""
"775.0999994277954","473440","HierDyt8g4z0x1","sub20","08","07","rl","test","83","img/p_t_check.png","2","83","pattern,color,shape","164","1",""
"null","474447","HierDyt8g4z0x1","sub20","08","07","feedback","test","null","","","na","","164","",""
"973.7999992370605","475422","HierDyt8g4z0x1","sub20","08","07","rl","test","74","img/r_t_diag.png","8","76","pattern,color,shape","165","0",""
"null","476431","HierDyt8g4z0x1","sub20","08","07","feedback","test","null","","","na","","165","",""
"708.1000003814697","477140","HierDyt8g4z0x1","sub20","08","07","rl","test","74","img/p_t_diag.png","6","74","pattern,color,shape","166","1",""
"null","478144","HierDyt8g4z0x1","sub20","08","07","feedback","test","null","","","na","","166","",""
"947.6999998092651","479093","HierDyt8g4z0x1","sub20","08","07","rl","test","75","img/r_d_diag.png","7","75","pattern,color,shape","167","1",""
"null","480095","HierDyt8g4z0x1","sub20","08","07","feedback","test","null","","","na","","167","",""
"822.5","480919","HierDyt8g4z0x1","sub20","08","07","rl","test","72","img/p_d_diag.png","5","72","pattern,color,shape","168","1",""
"null","481927","HierDyt8g4z0x1","sub20","08","07","feedback","test","null","","","na","","168","",""
"1368.5","483297","HierDyt8g4z0x1","sub20","08","07","rl","test","75","img/r_d_diag.png","7","75","pattern,color,shape","169","1",""
"null","484304","HierDyt8g4z0x1","sub20","08","07","feedback","test","null","","","na","","169","",""
"1069.7000007629395","485375","HierDyt8g4z0x1","sub20","08","07","rl","test","65","img/p_d_check.png","1","65","pattern,color,shape","170","1",""
"null","486383","HierDyt8g4z0x1","sub20","08","07","feedback","test","null","","","na","","170","",""
"1165.2000007629395","487550","HierDyt8g4z0x1","sub20","08","07","rl","test","76","img/r_t_diag.png","8","76","pattern,color,shape","171","1",""
"null","488560","HierDyt8g4z0x1","sub20","08","07","feedback","test","null","","","na","","171","",""
"906.9000005722046","489468","HierDyt8g4z0x1","sub20","08","07","rl","test","70","img/r_t_check.png","4","70","pattern,color,shape","172","1",""
"null","490472","HierDyt8g4z0x1","sub20","08","07","feedback","test","null","","","na","","172","",""
"818.7999992370605","491292","HierDyt8g4z0x1","sub20","08","07","rl","test","83","img/p_t_check.png","2","83","pattern,color,shape","173","1",""
"null","492295","HierDyt8g4z0x1","sub20","08","07","feedback","test","null","","","na","","173","",""
"816.8999996185303","493113","HierDyt8g4z0x1","sub20","08","07","rl","test","68","img/r_d_check.png","3","68","pattern,color,shape","174","1",""
"null","494120","HierDyt8g4z0x1","sub20","08","07","feedback","test","null","","","na","","174","",""
"1537.8000001907349","495659","HierDyt8g4z0x1","sub20","08","07","rl","test","72","img/p_d_diag.png","5","72","pattern,color,shape","175","1",""
"null","496664","HierDyt8g4z0x1","sub20","08","07","feedback","test","null","","","na","","175","",""
"759.8000001907349","497425","HierDyt8g4z0x1","sub20","08","07","rl","test","68","img/r_d_check.png","3","68","pattern,color,shape","176","1",""
"null","498431","HierDyt8g4z0x1","sub20","08","07","feedback","test","null","","","na","","176","",""
"2023","500456","HierDyt8g4z0x1","sub20","08","07","rl","test","83","img/p_t_check.png","2","83","pattern,color,shape","177","1",""
"null","501464","HierDyt8g4z0x1","sub20","08","07","feedback","test","null","","","na","","177","",""
"783.5","502249","HierDyt8g4z0x1","sub20","08","07","rl","test","65","img/p_d_check.png","1","65","pattern,color,shape","178","1",""
"null","503255","HierDyt8g4z0x1","sub20","08","07","feedback","test","null","","","na","","178","",""
"2450.6000003814697","505706","HierDyt8g4z0x1","sub20","08","07","rl","test","83","img/p_t_diag.png","6","74","pattern,color,shape","179","0",""
"null","506711","HierDyt8g4z0x1","sub20","08","07","feedback","test","null","","","na","","179","",""
"1155.4000005722046","507868","HierDyt8g4z0x1","sub20","08","07","rl","test","74","img/p_t_diag.png","6","74","pattern,color,shape","180","1",""
"null","508871","HierDyt8g4z0x1","sub20","08","07","feedback","test","null","","","na","","180","",""
"1432.7000007629395","510305","HierDyt8g4z0x1","sub20","08","07","rl","test","76","img/r_t_diag.png","8","76","pattern,color,shape","181","1",""
"null","511311","HierDyt8g4z0x1","sub20","08","07","feedback","test","null","","","na","","181","",""
"773.3000001907349","512086","HierDyt8g4z0x1","sub20","08","07","rl","test","75","img/r_d_diag.png","7","75","pattern,color,shape","182","1",""
"null","513095","HierDyt8g4z0x1","sub20","08","07","feedback","test","null","","","na","","182","",""
"638.8000001907349","513734","HierDyt8g4z0x1","sub20","08","07","rl","test","72","img/p_d_diag.png","5","72","pattern,color,shape","183","1",""
"null","514743","HierDyt8g4z0x1","sub20","08","07","feedback","test","null","","","na","","183","",""
"1362.3999996185303","516106","HierDyt8g4z0x1","sub20","08","07","rl","test","70","img/r_t_check.png","4","70","pattern,color,shape","184","1",""
"null","517111","HierDyt8g4z0x1","sub20","08","07","feedback","test","null","","","na","","184","",""
"1084.0999994277954","518196","HierDyt8g4z0x1","sub20","08","07","rl","test","75","img/r_t_diag.png","8","76","pattern,color,shape","185","0",""
"null","519200","HierDyt8g4z0x1","sub20","08","07","feedback","test","null","","","na","","185","",""
"2304.5","521505","HierDyt8g4z0x1","sub20","08","07","rl","test","70","img/r_t_check.png","4","70","pattern,color,shape","186","1",""
"null","522512","HierDyt8g4z0x1","sub20","08","07","feedback","test","null","","","na","","186","",""
"633.3000001907349","523146","HierDyt8g4z0x1","sub20","08","07","rl","test","68","img/r_d_check.png","3","68","pattern,color,shape","187","1",""
"null","524151","HierDyt8g4z0x1","sub20","08","07","feedback","test","null","","","na","","187","",""
"947.1999998092651","525099","HierDyt8g4z0x1","sub20","08","07","rl","test","72","img/p_d_diag.png","5","72","pattern,color,shape","188","1",""
"null","526103","HierDyt8g4z0x1","sub20","08","07","feedback","test","null","","","na","","188","",""
"1027","527131","HierDyt8g4z0x1","sub20","08","07","rl","test","70","img/r_t_check.png","4","70","pattern,color,shape","189","1",""
"null","528136","HierDyt8g4z0x1","sub20","08","07","feedback","test","null","","","na","","189","",""
"1281","529418","HierDyt8g4z0x1","sub20","08","07","rl","test","74","img/p_t_diag.png","6","74","pattern,color,shape","190","1",""
"null","530423","HierDyt8g4z0x1","sub20","08","07","feedback","test","null","","","na","","190","",""
"1118.6999998092651","531543","HierDyt8g4z0x1","sub20","08","07","rl","test","83","img/p_t_check.png","2","83","pattern,color,shape","191","1",""
"null","532552","HierDyt8g4z0x1","sub20","08","07","feedback","test","null","","","na","","191","",""
"567.3999996185303","533120","HierDyt8g4z0x1","sub20","08","07","rl","test","83","img/p_t_check.png","2","83","pattern,color,shape","192","1",""
"null","534127","HierDyt8g4z0x1","sub20","08","07","feedback","test","null","","","na","","192","",""
"1080.0999994277954","535209","HierDyt8g4z0x1","sub20","08","07","rl","test","65","img/p_d_check.png","1","65","pattern,color,shape","193","1",""
"null","536215","HierDyt8g4z0x1","sub20","08","07","feedback","test","null","","","na","","193","",""
"1521.5999994277954","537738","HierDyt8g4z0x1","sub20","08","07","rl","test","72","img/p_d_diag.png","5","72","pattern,color,shape","194","1",""
"null","538744","HierDyt8g4z0x1","sub20","08","07","feedback","test","null","","","na","","194","",""
"1425.8000001907349","540171","HierDyt8g4z0x1","sub20","08","07","rl","test","75","img/r_d_diag.png","7","75","pattern,color,shape","195","1",""
"null","541175","HierDyt8g4z0x1","sub20","08","07","feedback","test","null","","","na","","195","",""
"946.6999998092651","542123","HierDyt8g4z0x1","sub20","08","07","rl","test","76","img/r_t_diag.png","8","76","pattern,color,shape","196","1",""
"null","543128","HierDyt8g4z0x1","sub20","08","07","feedback","test","null","","","na","","196","",""
"1275.5","544404","HierDyt8g4z0x1","sub20","08","07","rl","test","65","img/p_d_check.png","1","65","pattern,color,shape","197","1",""
"null","545408","HierDyt8g4z0x1","sub20","08","07","feedback","test","null","","","na","","197","",""
"1042.5","546451","HierDyt8g4z0x1","sub20","08","07","rl","test","75","img/p_t_diag.png","6","74","pattern,color,shape","198","0",""
"null","547455","HierDyt8g4z0x1","sub20","08","07","feedback","test","null","","","na","","198","",""
"null","549959","HierDyt8g4z0x1","sub20","08","07","rl","test","null","img/r_d_check.png","3","68","pattern,color,shape","199","0",""
"null","550968","HierDyt8g4z0x1","sub20","08","07","feedback","test","null","","","na","","199","",""
"1281","552250","HierDyt8g4z0x1","sub20","08","07","rl","test","75","img/r_d_diag.png","7","75","pattern,color,shape","200","1",""
"null","553256","HierDyt8g4z0x1","sub20","08","07","feedback","test","null","","","na","","200","",""
"604.6999998092651","553861","HierDyt8g4z0x1","sub20","08","07","rl","test","75","img/r_d_diag.png","7","75","pattern,color,shape","201","1",""
"null","554864","HierDyt8g4z0x1","sub20","08","07","feedback","test","null","","","na","","201","",""
"863.6000003814697","555728","HierDyt8g4z0x1","sub20","08","07","rl","test","72","img/r_d_check.png","3","68","pattern,color,shape","202","0",""
"null","556735","HierDyt8g4z0x1","sub20","08","07","feedback","test","null","","","na","","202","",""
"1087.1999998092651","557824","HierDyt8g4z0x1","sub20","08","07","rl","test","70","img/r_t_check.png","4","70","pattern,color,shape","203","1",""
"null","558832","HierDyt8g4z0x1","sub20","08","07","feedback","test","null","","","na","","203","",""
"967.1000003814697","559799","HierDyt8g4z0x1","sub20","08","07","rl","test","65","img/p_d_check.png","1","65","pattern,color,shape","204","1",""
"null","560807","HierDyt8g4z0x1","sub20","08","07","feedback","test","null","","","na","","204","",""
"434.6000003814697","561243","HierDyt8g4z0x1","sub20","08","07","rl","test","68","img/r_t_diag.png","8","76","pattern,color,shape","205","0",""
"null","562248","HierDyt8g4z0x1","sub20","08","07","feedback","test","null","","","na","","205","",""
"1220.0999994277954","563469","HierDyt8g4z0x1","sub20","08","07","rl","test","74","img/p_t_diag.png","6","74","pattern,color,shape","206","1",""
"null","564472","HierDyt8g4z0x1","sub20","08","07","feedback","test","null","","","na","","206","",""
"1894.7999992370605","566367","HierDyt8g4z0x1","sub20","08","07","rl","test","83","img/p_t_check.png","2","83","pattern,color,shape","207","1",""
"null","567375","HierDyt8g4z0x1","sub20","08","07","feedback","test","null","","","na","","207","",""
"1318.1999998092651","568694","HierDyt8g4z0x1","sub20","08","07","rl","test","72","img/p_d_diag.png","5","72","pattern,color,shape","208","1",""
"null","569695","HierDyt8g4z0x1","sub20","08","07","feedback","test","null","","","na","","208","",""
"960.8999996185303","570657","HierDyt8g4z0x1","sub20","08","07","rl","test","68","img/r_t_check.png","4","70","pattern,color,shape","209","0",""
"null","571663","HierDyt8g4z0x1","sub20","08","07","feedback","test","null","","","na","","209","",""
"2041.6000003814697","573705","HierDyt8g4z0x1","sub20","08","07","rl","test","72","img/p_d_diag.png","5","72","pattern,color,shape","210","1",""
"null","574711","HierDyt8g4z0x1","sub20","08","07","feedback","test","null","","","na","","210","",""
"1805.1000003814697","576517","HierDyt8g4z0x1","sub20","08","07","rl","test","65","img/p_d_check.png","1","65","pattern,color,shape","211","1",""
"null","577520","HierDyt8g4z0x1","sub20","08","07","feedback","test","null","","","na","","211","",""
"2280.699999809265","579802","HierDyt8g4z0x1","sub20","08","07","rl","test","68","img/p_t_diag.png","6","74","pattern,color,shape","212","0",""
"null","580807","HierDyt8g4z0x1","sub20","08","07","feedback","test","null","","","na","","212","",""
"1784.3999996185303","582593","HierDyt8g4z0x1","sub20","08","07","rl","test","68","img/r_d_check.png","3","68","pattern,color,shape","213","1",""
"null","583599","HierDyt8g4z0x1","sub20","08","07","feedback","test","null","","","na","","213","",""
"1359.0999994277954","584959","HierDyt8g4z0x1","sub20","08","07","rl","test","75","img/r_d_diag.png","7","75","pattern,color,shape","214","1",""
"null","585967","HierDyt8g4z0x1","sub20","08","07","feedback","test","null","","","na","","214","",""
"839.1000003814697","586807","HierDyt8g4z0x1","sub20","08","07","rl","test","76","img/r_t_diag.png","8","76","pattern,color,shape","215","1",""
"null","587815","HierDyt8g4z0x1","sub20","08","07","feedback","test","null","","","na","","215","",""
"953.3000001907349","588769","HierDyt8g4z0x1","sub20","08","07","rl","test","83","img/p_t_check.png","2","83","pattern,color,shape","216","1",""
"null","589776","HierDyt8g4z0x1","sub20","08","07","feedback","test","null","","","na","","216","",""
"1757.1999998092651","591534","HierDyt8g4z0x1","sub20","08","07","rl","test","68","img/r_d_check.png","3","68","pattern,color,shape","217","1",""
"null","592536","HierDyt8g4z0x1","sub20","08","07","feedback","test","null","","","na","","217","",""
"1047.8000001907349","593585","HierDyt8g4z0x1","sub20","08","07","rl","test","83","img/p_t_check.png","2","83","pattern,color,shape","218","1",""
"null","594592","HierDyt8g4z0x1","sub20","08","07","feedback","test","null","","","na","","218","",""
"825.5999994277954","595418","HierDyt8g4z0x1","sub20","08","07","rl","test","75","img/r_d_diag.png","7","75","pattern,color,shape","219","1",""
"null","596423","HierDyt8g4z0x1","sub20","08","07","feedback","test","null","","","na","","219","",""
"464.70000076293945","596889","HierDyt8g4z0x1","sub20","08","07","rl","test","75","img/r_d_diag.png","7","75","pattern,color,shape","220","1",""
"null","597896","HierDyt8g4z0x1","sub20","08","07","feedback","test","null","","","na","","220","",""
"810.6000003814697","598708","HierDyt8g4z0x1","sub20","08","07","rl","test","70","img/r_t_check.png","4","70","pattern,color,shape","221","1",""
"null","599712","HierDyt8g4z0x1","sub20","08","07","feedback","test","null","","","na","","221","",""
"817","600530","HierDyt8g4z0x1","sub20","08","07","rl","test","72","img/r_t_diag.png","8","76","pattern,color,shape","222","0",""
"null","601536","HierDyt8g4z0x1","sub20","08","07","feedback","test","null","","","na","","222","",""
"940","602477","HierDyt8g4z0x1","sub20","08","07","rl","test","72","img/p_d_diag.png","5","72","pattern,color,shape","223","1",""
"null","603479","HierDyt8g4z0x1","sub20","08","07","feedback","test","null","","","na","","223","",""
"1010.8000001907349","604491","HierDyt8g4z0x1","sub20","08","07","rl","test","70","img/r_t_check.png","4","70","pattern,color,shape","224","1",""
"null","605496","HierDyt8g4z0x1","sub20","08","07","feedback","test","null","","","na","","224","",""
"901.6999998092651","606399","HierDyt8g4z0x1","sub20","08","07","rl","test","65","img/p_d_check.png","1","65","pattern,color,shape","225","1",""
"null","607407","HierDyt8g4z0x1","sub20","08","07","feedback","test","null","","","na","","225","",""
"730.1000003814697","608139","HierDyt8g4z0x1","sub20","08","07","rl","test","75","img/r_t_diag.png","8","76","pattern,color,shape","226","0",""
"null","609144","HierDyt8g4z0x1","sub20","08","07","feedback","test","null","","","na","","226","",""
"1368.3000001907349","610513","HierDyt8g4z0x1","sub20","08","07","rl","test","74","img/p_t_diag.png","6","74","pattern,color,shape","227","1",""
"null","611519","HierDyt8g4z0x1","sub20","08","07","feedback","test","null","","","na","","227","",""
"1879.3999996185303","613400","HierDyt8g4z0x1","sub20","08","07","rl","test","65","img/p_d_check.png","1","65","pattern,color,shape","228","1",""
"null","614408","HierDyt8g4z0x1","sub20","08","07","feedback","test","null","","","na","","228","",""
"1634.8999996185303","616044","HierDyt8g4z0x1","sub20","08","07","rl","test","70","img/r_d_check.png","3","68","pattern,color,shape","229","0",""
"null","617048","HierDyt8g4z0x1","sub20","08","07","feedback","test","null","","","na","","229","",""
"913.4000005722046","617962","HierDyt8g4z0x1","sub20","08","07","rl","test","68","img/r_d_check.png","3","68","pattern,color,shape","230","1",""
"null","618968","HierDyt8g4z0x1","sub20","08","07","feedback","test","null","","","na","","230","",""
"1214.6000003814697","620183","HierDyt8g4z0x1","sub20","08","07","rl","test","74","img/p_d_diag.png","5","72","pattern,color,shape","231","0",""
"null","621192","HierDyt8g4z0x1","sub20","08","07","feedback","test","null","","","na","","231","",""
"785.6000003814697","621978","HierDyt8g4z0x1","sub20","08","07","rl","test","74","img/p_t_diag.png","6","74","pattern,color,shape","232","1",""
"null","622984","HierDyt8g4z0x1","sub20","08","07","feedback","test","null","","","na","","232","",""
"1249.5","624234","HierDyt8g4z0x1","sub20","08","07","rl","test","70","img/p_t_check.png","2","83","pattern,color,shape","233","0",""
"null","625240","HierDyt8g4z0x1","sub20","08","07","feedback","test","null","","","na","","233","",""
"1078","626319","HierDyt8g4z0x1","sub20","08","07","rl","test","70","img/r_t_check.png","4","70","pattern,color,shape","234","1",""
"null","627327","HierDyt8g4z0x1","sub20","08","07","feedback","test","null","","","na","","234","",""
"2363","629691","HierDyt8g4z0x1","sub20","08","07","rl","test","68","img/r_d_diag.png","7","75","pattern,color,shape","235","0",""
"null","630695","HierDyt8g4z0x1","sub20","08","07","feedback","test","null","","","na","","235","",""
"1298.1999998092651","631995","HierDyt8g4z0x1","sub20","08","07","rl","test","74","img/p_t_diag.png","6","74","pattern,color,shape","236","1",""
"null","632999","HierDyt8g4z0x1","sub20","08","07","feedback","test","null","","","na","","236","",""
"912.1000003814697","633912","HierDyt8g4z0x1","sub20","08","07","rl","test","72","img/p_d_diag.png","5","72","pattern,color,shape","237","1",""
"null","634919","HierDyt8g4z0x1","sub20","08","07","feedback","test","null","","","na","","237","",""
"671","635591","HierDyt8g4z0x1","sub20","08","07","rl","test","74","img/p_t_diag.png","6","74","pattern,color,shape","238","1",""
"null","636599","HierDyt8g4z0x1","sub20","08","07","feedback","test","null","","","na","","238","",""
"625.5999994277954","637225","HierDyt8g4z0x1","sub20","08","07","rl","test","65","img/p_d_check.png","1","65","pattern,color,shape","239","1",""
"null","638232","HierDyt8g4z0x1","sub20","08","07","feedback","test","null","","","na","","239","",""
"891","639123","HierDyt8g4z0x1","sub20","08","07","rl","test","76","img/r_t_diag.png","8","76","pattern,color,shape","240","1",""
"null","640128","HierDyt8g4z0x1","sub20","08","07","feedback","test","null","","","na","","240","",""
"2090","642219","HierDyt8g4z0x1","sub20","08","07","rl","test","83","img/p_t_check.png","2","83","pattern,color,shape","241","1",""
"null","643223","HierDyt8g4z0x1","sub20","08","07","feedback","test","null","","","na","","241","",""
"668.1000003814697","643892","HierDyt8g4z0x1","sub20","08","07","rl","test","83","img/p_t_check.png","2","83","pattern,color,shape","242","1",""
"null","644895","HierDyt8g4z0x1","sub20","08","07","feedback","test","null","","","na","","242","",""
"1097.5","645994","HierDyt8g4z0x1","sub20","08","07","rl","test","76","img/r_t_diag.png","8","76","pattern,color,shape","243","1",""
"null","647000","HierDyt8g4z0x1","sub20","08","07","feedback","test","null","","","na","","243","",""
"1792.6999998092651","648794","HierDyt8g4z0x1","sub20","08","07","rl","test","68","img/r_d_diag.png","7","75","pattern,color,shape","244","0",""
"null","649799","HierDyt8g4z0x1","sub20","08","07","feedback","test","null","","","na","","244","",""
"1870","651671","HierDyt8g4z0x1","sub20","08","07","rl","test","68","img/r_d_check.png","3","68","pattern,color,shape","245","1",""
"null","652679","HierDyt8g4z0x1","sub20","08","07","feedback","test","null","","","na","","245","",""
"632.2000007629395","653312","HierDyt8g4z0x1","sub20","08","07","rl","test","65","img/p_d_check.png","1","65","pattern,color,shape","246","1",""
"null","654319","HierDyt8g4z0x1","sub20","08","07","feedback","test","null","","","na","","246","",""
"588.8000001907349","654909","HierDyt8g4z0x1","sub20","08","07","rl","test","70","img/r_t_check.png","4","70","pattern,color,shape","247","1",""
"null","655911","HierDyt8g4z0x1","sub20","08","07","feedback","test","null","","","na","","247","",""
"1132.1000003814697","657044","HierDyt8g4z0x1","sub20","08","07","rl","test","72","img/p_d_diag.png","5","72","pattern,color,shape","248","1",""
"null","658048","HierDyt8g4z0x1","sub20","08","07","feedback","test","null","","","na","","248","",""
"26018.89999961853","684070","HierDyt8g4z0x1","sub20","08","07","","","","","","","","","","{""Q0"":""`5""}"
"6245.5","690317","HierDyt8g4z0x1","sub20","08","07","","","","","","","","","","{""Q0"":""Nothing specific, just drawing from memory""}"
"2272.699999809265","692591","HierDyt8g4z0x1","sub20","08","07","","","","","","","","","",""
