"rt","time_elapsed","subject","subID","group","day","trialType","phase","key_press","stim","stimNum","corrresp","hierarchy","trialNum","corr","responses"
"33165.699999809265","33167","HierDygdl9lnxv","sub20","08","06","","","","","","","","","",""
"","39552","HierDygdl9lnxv","sub20","08","06","fullscreen","","","","","","","","",""
"4001.3999996185303","43554","HierDygdl9lnxv","sub20","08","06","","prac","","","","","","","",""
"703","44258","HierDygdl9lnxv","sub20","08","06","","","32","","","","","","",""
"852","45110","HierDygdl9lnxv","sub20","08","06","","prac","","","","","","","",""
"966.6000003814697","46079","HierDygdl9lnxv","sub20","08","06","rl","test","83","img/p_t_check.png","2","83","pattern,color,shape","1","1",""
"null","47088","HierDygdl9lnxv","sub20","08","06","feedback","test","null","","","na","","1","",""
"1190.6000003814697","48280","HierDygdl9lnxv","sub20","08","06","rl","test","75","img/r_d_diag.png","7","75","pattern,color,shape","2","1",""
"null","49288","HierDygdl9lnxv","sub20","08","06","feedback","test","null","","","na","","2","",""
"null","51792","HierDygdl9lnxv","sub20","08","06","rl","test","null","img/p_d_diag.png","5","72","pattern,color,shape","3","0",""
"null","52800","HierDygdl9lnxv","sub20","08","06","feedback","test","null","","","na","","3","",""
"1492.2000007629395","54293","HierDygdl9lnxv","sub20","08","06","rl","test","65","img/p_d_check.png","1","65","pattern,color,shape","4","1",""
"null","55295","HierDygdl9lnxv","sub20","08","06","feedback","test","null","","","na","","4","",""
"1044.2999992370605","56341","HierDygdl9lnxv","sub20","08","06","rl","test","70","img/r_t_check.png","4","70","pattern,color,shape","5","1",""
"null","57345","HierDygdl9lnxv","sub20","08","06","feedback","test","null","","","na","","5","",""
"1290.1999998092651","58636","HierDygdl9lnxv","sub20","08","06","rl","test","74","img/p_t_diag.png","6","74","pattern,color,shape","6","1",""
"null","59640","HierDygdl9lnxv","sub20","08","06","feedback","test","null","","","na","","6","",""
"806.4000005722046","60447","HierDygdl9lnxv","sub20","08","06","rl","test","68","img/r_d_check.png","3","68","pattern,color,shape","7","1",""
"null","61456","HierDygdl9lnxv","sub20","08","06","feedback","test","null","","","na","","7","",""
"929.5999994277954","62386","HierDygdl9lnxv","sub20","08","06","rl","test","74","img/p_t_diag.png","6","74","pattern,color,shape","8","1",""
"null","63393","HierDygdl9lnxv","sub20","08","06","feedback","test","null","","","na","","8","",""
"933.1999998092651","64327","HierDygdl9lnxv","sub20","08","06","rl","test","65","img/p_d_check.png","1","65","pattern,color,shape","9","1",""
"null","65337","HierDygdl9lnxv","sub20","08","06","feedback","test","null","","","na","","9","",""
"843","66181","HierDygdl9lnxv","sub20","08","06","rl","test","76","img/r_t_diag.png","8","76","pattern,color,shape","10","1",""
"null","67184","HierDygdl9lnxv","sub20","08","06","feedback","test","null","","","na","","10","",""
"428.3999996185303","67613","HierDygdl9lnxv","sub20","08","06","rl","test","76","img/r_t_diag.png","8","76","pattern,color,shape","11","1",""
"null","68616","HierDygdl9lnxv","sub20","08","06","feedback","test","null","","","na","","11","",""
"803.3999996185303","69420","HierDygdl9lnxv","sub20","08","06","rl","test","68","img/r_d_check.png","3","68","pattern,color,shape","12","1",""
"null","70425","HierDygdl9lnxv","sub20","08","06","feedback","test","null","","","na","","12","",""
"823.8000001907349","71250","HierDygdl9lnxv","sub20","08","06","rl","test","72","img/p_d_diag.png","5","72","pattern,color,shape","13","1",""
"null","72256","HierDygdl9lnxv","sub20","08","06","feedback","test","null","","","na","","13","",""
"1183.8999996185303","73441","HierDygdl9lnxv","sub20","08","06","rl","test","83","img/p_t_check.png","2","83","pattern,color,shape","14","1",""
"null","74448","HierDygdl9lnxv","sub20","08","06","feedback","test","null","","","na","","14","",""
"778.7000007629395","75228","HierDygdl9lnxv","sub20","08","06","rl","test","72","img/p_d_diag.png","5","72","pattern,color,shape","15","1",""
"null","76233","HierDygdl9lnxv","sub20","08","06","feedback","test","null","","","na","","15","",""
"931.3999996185303","77165","HierDygdl9lnxv","sub20","08","06","rl","test","75","img/r_d_diag.png","7","75","pattern,color,shape","16","1",""
"null","78168","HierDygdl9lnxv","sub20","08","06","feedback","test","null","","","na","","16","",""
"804.8000001907349","78974","HierDygdl9lnxv","sub20","08","06","rl","test","70","img/r_t_check.png","4","70","pattern,color,shape","17","1",""
"null","79977","HierDygdl9lnxv","sub20","08","06","feedback","test","null","","","na","","17","",""
"892.3000001907349","80870","HierDygdl9lnxv","sub20","08","06","rl","test","83","img/p_t_check.png","2","83","pattern,color,shape","18","1",""
"null","81872","HierDygdl9lnxv","sub20","08","06","feedback","test","null","","","na","","18","",""
"1012.6000003814697","82886","HierDygdl9lnxv","sub20","08","06","rl","test","68","img/r_d_check.png","3","68","pattern,color,shape","19","1",""
"null","83889","HierDygdl9lnxv","sub20","08","06","feedback","test","null","","","na","","19","",""
"877.6999998092651","84767","HierDygdl9lnxv","sub20","08","06","rl","test","76","img/r_t_diag.png","8","76","pattern,color,shape","20","1",""
"null","85776","HierDygdl9lnxv","sub20","08","06","feedback","test","null","","","na","","20","",""
"916.8000001907349","86694","HierDygdl9lnxv","sub20","08","06","rl","test","74","img/p_t_diag.png","6","74","pattern,color,shape","21","1",""
"null","87697","HierDygdl9lnxv","sub20","08","06","feedback","test","null","","","na","","21","",""
"2335.0999994277954","90034","HierDygdl9lnxv","sub20","08","06","rl","test","68","img/r_d_diag.png","7","75","pattern,color,shape","22","0",""
"null","91040","HierDygdl9lnxv","sub20","08","06","feedback","test","null","","","na","","22","",""
"872.6999998092651","91914","HierDygdl9lnxv","sub20","08","06","rl","test","65","img/p_d_check.png","1","65","pattern,color,shape","23","1",""
"null","92921","HierDygdl9lnxv","sub20","08","06","feedback","test","null","","","na","","23","",""
"1437.1000003814697","94359","HierDygdl9lnxv","sub20","08","06","rl","test","76","img/r_t_diag.png","8","76","pattern,color,shape","24","1",""
"null","95368","HierDygdl9lnxv","sub20","08","06","feedback","test","null","","","na","","24","",""
"956.6000003814697","96326","HierDygdl9lnxv","sub20","08","06","rl","test","70","img/r_t_check.png","4","70","pattern,color,shape","25","1",""
"null","97328","HierDygdl9lnxv","sub20","08","06","feedback","test","null","","","na","","25","",""
"933.8999996185303","98263","HierDygdl9lnxv","sub20","08","06","rl","test","65","img/p_d_check.png","1","65","pattern,color,shape","26","1",""
"null","99265","HierDygdl9lnxv","sub20","08","06","feedback","test","null","","","na","","26","",""
"1396.9000005722046","100663","HierDygdl9lnxv","sub20","08","06","rl","test","74","img/p_d_diag.png","5","72","pattern,color,shape","27","0",""
"null","101673","HierDygdl9lnxv","sub20","08","06","feedback","test","null","","","na","","27","",""
"1124.7999992370605","102798","HierDygdl9lnxv","sub20","08","06","rl","test","83","img/p_t_check.png","2","83","pattern,color,shape","28","1",""
"null","103801","HierDygdl9lnxv","sub20","08","06","feedback","test","null","","","na","","28","",""
"520","104322","HierDygdl9lnxv","sub20","08","06","rl","test","83","img/p_t_check.png","2","83","pattern,color,shape","29","1",""
"null","105328","HierDygdl9lnxv","sub20","08","06","feedback","test","null","","","na","","29","",""
"811.8000001907349","106141","HierDygdl9lnxv","sub20","08","06","rl","test","68","img/r_d_check.png","3","68","pattern,color,shape","30","1",""
"null","107144","HierDygdl9lnxv","sub20","08","06","feedback","test","null","","","na","","30","",""
"646.9000005722046","107792","HierDygdl9lnxv","sub20","08","06","rl","test","70","img/r_t_check.png","4","70","pattern,color,shape","31","1",""
"null","108800","HierDygdl9lnxv","sub20","08","06","feedback","test","null","","","na","","31","",""
"892.1999998092651","109693","HierDygdl9lnxv","sub20","08","06","rl","test","74","img/p_t_diag.png","6","74","pattern,color,shape","32","1",""
"null","110696","HierDygdl9lnxv","sub20","08","06","feedback","test","null","","","na","","32","",""
"1293.5999994277954","111990","HierDygdl9lnxv","sub20","08","06","rl","test","70","img/r_t_check.png","4","70","pattern,color,shape","33","1",""
"null","112993","HierDygdl9lnxv","sub20","08","06","feedback","test","null","","","na","","33","",""
"1308.0999994277954","114302","HierDygdl9lnxv","sub20","08","06","rl","test","72","img/p_d_diag.png","5","72","pattern,color,shape","34","1",""
"null","115305","HierDygdl9lnxv","sub20","08","06","feedback","test","null","","","na","","34","",""
"597.3000001907349","115903","HierDygdl9lnxv","sub20","08","06","rl","test","75","img/r_d_diag.png","7","75","pattern,color,shape","35","1",""
"null","116913","HierDygdl9lnxv","sub20","08","06","feedback","test","null","","","na","","35","",""
"683.3000001907349","117597","HierDygdl9lnxv","sub20","08","06","rl","test","75","img/r_d_diag.png","7","75","pattern,color,shape","36","1",""
"null","118601","HierDygdl9lnxv","sub20","08","06","feedback","test","null","","","na","","36","",""
"622.3999996185303","119223","HierDygdl9lnxv","sub20","08","06","rl","test","74","img/p_t_diag.png","6","74","pattern,color,shape","37","1",""
"null","120233","HierDygdl9lnxv","sub20","08","06","feedback","test","null","","","na","","37","",""
"1150","121384","HierDygdl9lnxv","sub20","08","06","rl","test","76","img/r_t_diag.png","8","76","pattern,color,shape","38","1",""
"null","122392","HierDygdl9lnxv","sub20","08","06","feedback","test","null","","","na","","38","",""
"997.1999998092651","123390","HierDygdl9lnxv","sub20","08","06","rl","test","68","img/r_d_check.png","3","68","pattern,color,shape","39","1",""
"null","124392","HierDygdl9lnxv","sub20","08","06","feedback","test","null","","","na","","39","",""
"645.8000001907349","125039","HierDygdl9lnxv","sub20","08","06","rl","test","65","img/p_d_check.png","1","65","pattern,color,shape","40","1",""
"null","126048","HierDygdl9lnxv","sub20","08","06","feedback","test","null","","","na","","40","",""
"1190.1000003814697","127239","HierDygdl9lnxv","sub20","08","06","rl","test","76","img/r_t_diag.png","8","76","pattern,color,shape","41","1",""
"null","128248","HierDygdl9lnxv","sub20","08","06","feedback","test","null","","","na","","41","",""
"1395.8000001907349","129644","HierDygdl9lnxv","sub20","08","06","rl","test","72","img/p_d_diag.png","5","72","pattern,color,shape","42","1",""
"null","130649","HierDygdl9lnxv","sub20","08","06","feedback","test","null","","","na","","42","",""
"1349.8999996185303","132000","HierDygdl9lnxv","sub20","08","06","rl","test","68","img/r_d_check.png","3","68","pattern,color,shape","43","1",""
"null","133007","HierDygdl9lnxv","sub20","08","06","feedback","test","null","","","na","","43","",""
"1328.0999994277954","134336","HierDygdl9lnxv","sub20","08","06","rl","test","83","img/p_t_check.png","2","83","pattern,color,shape","44","1",""
"null","135344","HierDygdl9lnxv","sub20","08","06","feedback","test","null","","","na","","44","",""
"null","137848","HierDygdl9lnxv","sub20","08","06","rl","test","null","img/r_d_diag.png","7","75","pattern,color,shape","45","0",""
"null","138856","HierDygdl9lnxv","sub20","08","06","feedback","test","null","","","na","","45","",""
"736.1999998092651","139593","HierDygdl9lnxv","sub20","08","06","rl","test","65","img/p_d_check.png","1","65","pattern,color,shape","46","1",""
"null","140600","HierDygdl9lnxv","sub20","08","06","feedback","test","null","","","na","","46","",""
"1849.5","142451","HierDygdl9lnxv","sub20","08","06","rl","test","74","img/p_t_diag.png","6","74","pattern,color,shape","47","1",""
"null","143457","HierDygdl9lnxv","sub20","08","06","feedback","test","null","","","na","","47","",""
"1105.1999998092651","144563","HierDygdl9lnxv","sub20","08","06","rl","test","68","img/r_t_check.png","4","70","pattern,color,shape","48","0",""
"null","145569","HierDygdl9lnxv","sub20","08","06","feedback","test","null","","","na","","48","",""
"2196.8999996185303","147767","HierDygdl9lnxv","sub20","08","06","rl","test","74","img/p_t_diag.png","6","74","pattern,color,shape","49","1",""
"null","148776","HierDygdl9lnxv","sub20","08","06","feedback","test","null","","","na","","49","",""
"1074.1999998092651","149852","HierDygdl9lnxv","sub20","08","06","rl","test","65","img/p_d_check.png","1","65","pattern,color,shape","50","1",""
"null","150856","HierDygdl9lnxv","sub20","08","06","feedback","test","null","","","na","","50","",""
"991.6999998092651","151848","HierDygdl9lnxv","sub20","08","06","rl","test","68","img/r_d_check.png","3","68","pattern,color,shape","51","1",""
"null","152856","HierDygdl9lnxv","sub20","08","06","feedback","test","null","","","na","","51","",""
"1902.6000003814697","154760","HierDygdl9lnxv","sub20","08","06","rl","test","75","img/r_d_diag.png","7","75","pattern,color,shape","52","1",""
"null","155767","HierDygdl9lnxv","sub20","08","06","feedback","test","null","","","na","","52","",""
"626.5999994277954","156395","HierDygdl9lnxv","sub20","08","06","rl","test","76","img/r_t_diag.png","8","76","pattern,color,shape","53","1",""
"null","157400","HierDygdl9lnxv","sub20","08","06","feedback","test","null","","","na","","53","",""
"1068.6999998092651","158470","HierDygdl9lnxv","sub20","08","06","rl","test","70","img/r_t_check.png","4","70","pattern,color,shape","54","1",""
"null","159472","HierDygdl9lnxv","sub20","08","06","feedback","test","null","","","na","","54","",""
"958.8000001907349","160431","HierDygdl9lnxv","sub20","08","06","rl","test","83","img/p_t_check.png","2","83","pattern,color,shape","55","1",""
"null","161440","HierDygdl9lnxv","sub20","08","06","feedback","test","null","","","na","","55","",""
"1153.2000007629395","162594","HierDygdl9lnxv","sub20","08","06","rl","test","76","img/r_t_diag.png","8","76","pattern,color,shape","56","1",""
"null","163600","HierDygdl9lnxv","sub20","08","06","feedback","test","null","","","na","","56","",""
"1234.4000005722046","164836","HierDygdl9lnxv","sub20","08","06","rl","test","72","img/p_d_diag.png","5","72","pattern,color,shape","57","1",""
"null","165840","HierDygdl9lnxv","sub20","08","06","feedback","test","null","","","na","","57","",""
"463.1000003814697","166304","HierDygdl9lnxv","sub20","08","06","rl","test","72","img/p_d_diag.png","5","72","pattern,color,shape","58","1",""
"null","167312","HierDygdl9lnxv","sub20","08","06","feedback","test","null","","","na","","58","",""
"1047.3000001907349","168360","HierDygdl9lnxv","sub20","08","06","rl","test","70","img/r_t_check.png","4","70","pattern,color,shape","59","1",""
"null","169368","HierDygdl9lnxv","sub20","08","06","feedback","test","null","","","na","","59","",""
"850.8000001907349","170220","HierDygdl9lnxv","sub20","08","06","rl","test","75","img/r_d_diag.png","7","75","pattern,color,shape","60","1",""
"null","171224","HierDygdl9lnxv","sub20","08","06","feedback","test","null","","","na","","60","",""
"1025.1000003814697","172251","HierDygdl9lnxv","sub20","08","06","rl","test","74","img/p_t_diag.png","6","74","pattern,color,shape","61","1",""
"null","173257","HierDygdl9lnxv","sub20","08","06","feedback","test","null","","","na","","61","",""
"1111.6000003814697","174369","HierDygdl9lnxv","sub20","08","06","rl","test","83","img/p_t_check.png","2","83","pattern,color,shape","62","1",""
"null","175376","HierDygdl9lnxv","sub20","08","06","feedback","test","null","","","na","","62","",""
"1257.6999998092651","176634","HierDygdl9lnxv","sub20","08","06","rl","test","65","img/p_d_check.png","1","65","pattern,color,shape","63","1",""
"null","177640","HierDygdl9lnxv","sub20","08","06","feedback","test","null","","","na","","63","",""
"665.3999996185303","178306","HierDygdl9lnxv","sub20","08","06","rl","test","68","img/r_d_check.png","3","68","pattern,color,shape","64","1",""
"null","179312","HierDygdl9lnxv","sub20","08","06","feedback","test","null","","","na","","64","",""
"573.6999998092651","179887","HierDygdl9lnxv","sub20","08","06","rl","test","68","img/r_d_check.png","3","68","pattern,color,shape","65","1",""
"null","180896","HierDygdl9lnxv","sub20","08","06","feedback","test","null","","","na","","65","",""
"1293.8000001907349","182191","HierDygdl9lnxv","sub20","08","06","rl","test","76","img/r_t_diag.png","8","76","pattern,color,shape","66","1",""
"null","183201","HierDygdl9lnxv","sub20","08","06","feedback","test","null","","","na","","66","",""
"713.5","183915","HierDygdl9lnxv","sub20","08","06","rl","test","65","img/p_d_check.png","1","65","pattern,color,shape","67","1",""
"null","184920","HierDygdl9lnxv","sub20","08","06","feedback","test","null","","","na","","67","",""
"1144.3000001907349","186066","HierDygdl9lnxv","sub20","08","06","rl","test","70","img/r_t_check.png","4","70","pattern,color,shape","68","1",""
"null","187072","HierDygdl9lnxv","sub20","08","06","feedback","test","null","","","na","","68","",""
"1162.8000001907349","188236","HierDygdl9lnxv","sub20","08","06","rl","test","72","img/p_d_diag.png","5","72","pattern,color,shape","69","1",""
"null","189240","HierDygdl9lnxv","sub20","08","06","feedback","test","null","","","na","","69","",""
"1149.3000001907349","190391","HierDygdl9lnxv","sub20","08","06","rl","test","75","img/r_d_diag.png","7","75","pattern,color,shape","70","1",""
"null","191392","HierDygdl9lnxv","sub20","08","06","feedback","test","null","","","na","","70","",""
"751.1999998092651","192144","HierDygdl9lnxv","sub20","08","06","rl","test","76","img/r_t_diag.png","8","76","pattern,color,shape","71","1",""
"null","193153","HierDygdl9lnxv","sub20","08","06","feedback","test","null","","","na","","71","",""
"709.5999994277954","193864","HierDygdl9lnxv","sub20","08","06","rl","test","75","img/r_d_diag.png","7","75","pattern,color,shape","72","1",""
"null","194872","HierDygdl9lnxv","sub20","08","06","feedback","test","null","","","na","","72","",""
"1227.5","196100","HierDygdl9lnxv","sub20","08","06","rl","test","83","img/p_t_check.png","2","83","pattern,color,shape","73","1",""
"null","197104","HierDygdl9lnxv","sub20","08","06","feedback","test","null","","","na","","73","",""
"1154.5","198260","HierDygdl9lnxv","sub20","08","06","rl","test","74","img/p_t_diag.png","6","74","pattern,color,shape","74","1",""
"null","199264","HierDygdl9lnxv","sub20","08","06","feedback","test","null","","","na","","74","",""
"548.6999998092651","199815","HierDygdl9lnxv","sub20","08","06","rl","test","72","img/p_d_diag.png","5","72","pattern,color,shape","75","1",""
"null","200824","HierDygdl9lnxv","sub20","08","06","feedback","test","null","","","na","","75","",""
"1149.8000001907349","201975","HierDygdl9lnxv","sub20","08","06","rl","test","83","img/p_t_check.png","2","83","pattern,color,shape","76","1",""
"null","202985","HierDygdl9lnxv","sub20","08","06","feedback","test","null","","","na","","76","",""
"1197.5","204183","HierDygdl9lnxv","sub20","08","06","rl","test","70","img/r_t_check.png","4","70","pattern,color,shape","77","1",""
"null","205193","HierDygdl9lnxv","sub20","08","06","feedback","test","null","","","na","","77","",""
"1423","206617","HierDygdl9lnxv","sub20","08","06","rl","test","74","img/p_t_diag.png","6","74","pattern,color,shape","78","1",""
"null","207624","HierDygdl9lnxv","sub20","08","06","feedback","test","null","","","na","","78","",""
"1193","208818","HierDygdl9lnxv","sub20","08","06","rl","test","68","img/r_d_check.png","3","68","pattern,color,shape","79","1",""
"null","209824","HierDygdl9lnxv","sub20","08","06","feedback","test","null","","","na","","79","",""
"1163.3000001907349","210988","HierDygdl9lnxv","sub20","08","06","rl","test","75","img/r_d_diag.png","7","75","pattern,color,shape","80","1",""
"null","211992","HierDygdl9lnxv","sub20","08","06","feedback","test","null","","","na","","80","",""
"682.3000001907349","212675","HierDygdl9lnxv","sub20","08","06","rl","test","65","img/p_d_check.png","1","65","pattern,color,shape","81","1",""
"null","213680","HierDygdl9lnxv","sub20","08","06","feedback","test","null","","","na","","81","",""
"697.5999994277954","214379","HierDygdl9lnxv","sub20","08","06","rl","test","70","img/r_t_check.png","4","70","pattern,color,shape","82","1",""
"null","215385","HierDygdl9lnxv","sub20","08","06","feedback","test","null","","","na","","82","",""
"836.8000001907349","216223","HierDygdl9lnxv","sub20","08","06","rl","test","65","img/p_d_check.png","1","65","pattern,color,shape","83","1",""
"null","217232","HierDygdl9lnxv","sub20","08","06","feedback","test","null","","","na","","83","",""
"589.5","217823","HierDygdl9lnxv","sub20","08","06","rl","test","65","img/p_d_check.png","1","65","pattern,color,shape","84","1",""
"null","218824","HierDygdl9lnxv","sub20","08","06","feedback","test","null","","","na","","84","",""
"1556","220381","HierDygdl9lnxv","sub20","08","06","rl","test","74","img/p_t_diag.png","6","74","pattern,color,shape","85","1",""
"null","221385","HierDygdl9lnxv","sub20","08","06","feedback","test","null","","","na","","85","",""
"2137.9000005722046","223523","HierDygdl9lnxv","sub20","08","06","rl","test","76","img/r_t_diag.png","8","76","pattern,color,shape","86","1",""
"null","224528","HierDygdl9lnxv","sub20","08","06","feedback","test","null","","","na","","86","",""
"973.1999998092651","225502","HierDygdl9lnxv","sub20","08","06","rl","test","72","img/p_d_diag.png","5","72","pattern,color,shape","87","1",""
"null","226504","HierDygdl9lnxv","sub20","08","06","feedback","test","null","","","na","","87","",""
"1069.3000001907349","227574","HierDygdl9lnxv","sub20","08","06","rl","test","83","img/p_t_check.png","2","83","pattern,color,shape","88","1",""
"null","228576","HierDygdl9lnxv","sub20","08","06","feedback","test","null","","","na","","88","",""
"1225.0999994277954","229802","HierDygdl9lnxv","sub20","08","06","rl","test","68","img/r_d_check.png","3","68","pattern,color,shape","89","1",""
"null","230808","HierDygdl9lnxv","sub20","08","06","feedback","test","null","","","na","","89","",""
"1397.2000007629395","232205","HierDygdl9lnxv","sub20","08","06","rl","test","72","img/p_d_diag.png","5","72","pattern,color,shape","90","1",""
"null","233209","HierDygdl9lnxv","sub20","08","06","feedback","test","null","","","na","","90","",""
"1301.9000005722046","234511","HierDygdl9lnxv","sub20","08","06","rl","test","75","img/r_d_diag.png","7","75","pattern,color,shape","91","1",""
"null","235520","HierDygdl9lnxv","sub20","08","06","feedback","test","null","","","na","","91","",""
"886.3000001907349","236408","HierDygdl9lnxv","sub20","08","06","rl","test","76","img/r_t_diag.png","8","76","pattern,color,shape","92","1",""
"null","237416","HierDygdl9lnxv","sub20","08","06","feedback","test","null","","","na","","92","",""
"741.8000001907349","238159","HierDygdl9lnxv","sub20","08","06","rl","test","83","img/r_d_check.png","3","68","pattern,color,shape","93","0",""
"null","239168","HierDygdl9lnxv","sub20","08","06","feedback","test","null","","","na","","93","",""
"1649.8000001907349","240819","HierDygdl9lnxv","sub20","08","06","rl","test","74","img/p_t_diag.png","6","74","pattern,color,shape","94","1",""
"null","241824","HierDygdl9lnxv","sub20","08","06","feedback","test","null","","","na","","94","",""
"1026.3000001907349","242851","HierDygdl9lnxv","sub20","08","06","rl","test","70","img/r_t_check.png","4","70","pattern,color,shape","95","1",""
"null","243856","HierDygdl9lnxv","sub20","08","06","feedback","test","null","","","na","","95","",""
"688.8999996185303","244546","HierDygdl9lnxv","sub20","08","06","rl","test","65","img/p_t_check.png","2","83","pattern,color,shape","96","0",""
"null","245553","HierDygdl9lnxv","sub20","08","06","feedback","test","null","","","na","","96","",""
"null","248056","HierDygdl9lnxv","sub20","08","06","rl","test","null","img/p_t_diag.png","6","74","pattern,color,shape","97","0",""
"null","249064","HierDygdl9lnxv","sub20","08","06","feedback","test","null","","","na","","97","",""
"1163.8999996185303","250229","HierDygdl9lnxv","sub20","08","06","rl","test","68","img/r_d_check.png","3","68","pattern,color,shape","98","1",""
"null","251232","HierDygdl9lnxv","sub20","08","06","feedback","test","null","","","na","","98","",""
"905.1999998092651","252138","HierDygdl9lnxv","sub20","08","06","rl","test","65","img/p_d_check.png","1","65","pattern,color,shape","99","1",""
"null","253144","HierDygdl9lnxv","sub20","08","06","feedback","test","null","","","na","","99","",""
"null","255647","HierDygdl9lnxv","sub20","08","06","rl","test","null","img/p_t_check.png","2","83","pattern,color,shape","100","0",""
"null","256656","HierDygdl9lnxv","sub20","08","06","feedback","test","null","","","na","","100","",""
"614.4000005722046","257271","HierDygdl9lnxv","sub20","08","06","rl","test","83","img/p_t_check.png","2","83","pattern,color,shape","101","1",""
"null","258279","HierDygdl9lnxv","sub20","08","06","feedback","test","null","","","na","","101","",""
"1095.1000003814697","259375","HierDygdl9lnxv","sub20","08","06","rl","test","70","img/r_t_check.png","4","70","pattern,color,shape","102","1",""
"null","260383","HierDygdl9lnxv","sub20","08","06","feedback","test","null","","","na","","102","",""
"1956.8000001907349","262341","HierDygdl9lnxv","sub20","08","06","rl","test","76","img/r_d_diag.png","7","75","pattern,color,shape","103","0",""
"null","263344","HierDygdl9lnxv","sub20","08","06","feedback","test","null","","","na","","103","",""
"1497.0999994277954","264842","HierDygdl9lnxv","sub20","08","06","rl","test","72","img/p_d_diag.png","5","72","pattern,color,shape","104","1",""
"null","265848","HierDygdl9lnxv","sub20","08","06","feedback","test","null","","","na","","104","",""
"648","266497","HierDygdl9lnxv","sub20","08","06","rl","test","76","img/r_t_diag.png","8","76","pattern,color,shape","105","1",""
"null","267505","HierDygdl9lnxv","sub20","08","06","feedback","test","null","","","na","","105","",""
"799.6000003814697","268305","HierDygdl9lnxv","sub20","08","06","rl","test","72","img/p_d_diag.png","5","72","pattern,color,shape","106","1",""
"null","269312","HierDygdl9lnxv","sub20","08","06","feedback","test","null","","","na","","106","",""
"623.5999994277954","269937","HierDygdl9lnxv","sub20","08","06","rl","test","65","img/p_d_check.png","1","65","pattern,color,shape","107","1",""
"null","270943","HierDygdl9lnxv","sub20","08","06","feedback","test","null","","","na","","107","",""
"889.6000003814697","271834","HierDygdl9lnxv","sub20","08","06","rl","test","68","img/r_d_check.png","3","68","pattern,color,shape","108","1",""
"null","272840","HierDygdl9lnxv","sub20","08","06","feedback","test","null","","","na","","108","",""
"986.9000005722046","273827","HierDygdl9lnxv","sub20","08","06","rl","test","75","img/r_d_diag.png","7","75","pattern,color,shape","109","1",""
"null","274832","HierDygdl9lnxv","sub20","08","06","feedback","test","null","","","na","","109","",""
"734.6000003814697","275567","HierDygdl9lnxv","sub20","08","06","rl","test","76","img/r_t_diag.png","8","76","pattern,color,shape","110","1",""
"null","276576","HierDygdl9lnxv","sub20","08","06","feedback","test","null","","","na","","110","",""
"1369.1999998092651","277946","HierDygdl9lnxv","sub20","08","06","rl","test","76","img/p_t_diag.png","6","74","pattern,color,shape","111","0",""
"null","278953","HierDygdl9lnxv","sub20","08","06","feedback","test","null","","","na","","111","",""
"1513.5","280467","HierDygdl9lnxv","sub20","08","06","rl","test","74","img/p_t_diag.png","6","74","pattern,color,shape","112","1",""
"null","281472","HierDygdl9lnxv","sub20","08","06","feedback","test","null","","","na","","112","",""
"1019","282492","HierDygdl9lnxv","sub20","08","06","rl","test","70","img/r_t_check.png","4","70","pattern,color,shape","113","1",""
"null","283496","HierDygdl9lnxv","sub20","08","06","feedback","test","null","","","na","","113","",""
"922.1999998092651","284419","HierDygdl9lnxv","sub20","08","06","rl","test","65","img/p_d_check.png","1","65","pattern,color,shape","114","1",""
"null","285425","HierDygdl9lnxv","sub20","08","06","feedback","test","null","","","na","","114","",""
"1583.9000005722046","287010","HierDygdl9lnxv","sub20","08","06","rl","test","70","img/r_t_check.png","4","70","pattern,color,shape","115","1",""
"null","288016","HierDygdl9lnxv","sub20","08","06","feedback","test","null","","","na","","115","",""
"1089.4000005722046","289107","HierDygdl9lnxv","sub20","08","06","rl","test","83","img/p_t_check.png","2","83","pattern,color,shape","116","1",""
"null","290112","HierDygdl9lnxv","sub20","08","06","feedback","test","null","","","na","","116","",""
"970.1000003814697","291083","HierDygdl9lnxv","sub20","08","06","rl","test","68","img/r_d_check.png","3","68","pattern,color,shape","117","1",""
"null","292088","HierDygdl9lnxv","sub20","08","06","feedback","test","null","","","na","","117","",""
"1258.1999998092651","293347","HierDygdl9lnxv","sub20","08","06","rl","test","75","img/r_t_diag.png","8","76","pattern,color,shape","118","0",""
"null","294352","HierDygdl9lnxv","sub20","08","06","feedback","test","null","","","na","","118","",""
"1677.6000003814697","296030","HierDygdl9lnxv","sub20","08","06","rl","test","75","img/r_d_diag.png","7","75","pattern,color,shape","119","1",""
"null","297032","HierDygdl9lnxv","sub20","08","06","feedback","test","null","","","na","","119","",""
"null","299536","HierDygdl9lnxv","sub20","08","06","rl","test","null","img/p_d_diag.png","5","72","pattern,color,shape","120","0",""
"null","300545","HierDygdl9lnxv","sub20","08","06","feedback","test","null","","","na","","120","",""
"1290.0999994277954","301836","HierDygdl9lnxv","sub20","08","06","rl","test","68","img/r_t_diag.png","8","76","pattern,color,shape","121","0",""
"null","302840","HierDygdl9lnxv","sub20","08","06","feedback","test","null","","","na","","121","",""
"1414.8000001907349","304256","HierDygdl9lnxv","sub20","08","06","rl","test","72","img/p_d_diag.png","5","72","pattern,color,shape","122","1",""
"null","305263","HierDygdl9lnxv","sub20","08","06","feedback","test","null","","","na","","122","",""
"850.8000001907349","306115","HierDygdl9lnxv","sub20","08","06","rl","test","74","img/p_t_diag.png","6","74","pattern,color,shape","123","1",""
"null","307120","HierDygdl9lnxv","sub20","08","06","feedback","test","null","","","na","","123","",""
"826","307947","HierDygdl9lnxv","sub20","08","06","rl","test","70","img/r_t_check.png","4","70","pattern,color,shape","124","1",""
"null","308952","HierDygdl9lnxv","sub20","08","06","feedback","test","null","","","na","","124","",""
"1012.5999994277954","309966","HierDygdl9lnxv","sub20","08","06","rl","test","75","img/r_d_diag.png","7","75","pattern,color,shape","125","1",""
"null","310967","HierDygdl9lnxv","sub20","08","06","feedback","test","null","","","na","","125","",""
"592.2999992370605","311560","HierDygdl9lnxv","sub20","08","06","rl","test","65","img/p_d_check.png","1","65","pattern,color,shape","126","1",""
"null","312568","HierDygdl9lnxv","sub20","08","06","feedback","test","null","","","na","","126","",""
"667","313236","HierDygdl9lnxv","sub20","08","06","rl","test","68","img/r_d_check.png","3","68","pattern,color,shape","127","1",""
"null","314240","HierDygdl9lnxv","sub20","08","06","feedback","test","null","","","na","","127","",""
"1049.5","315290","HierDygdl9lnxv","sub20","08","06","rl","test","75","img/r_d_diag.png","7","75","pattern,color,shape","128","1",""
"null","316296","HierDygdl9lnxv","sub20","08","06","feedback","test","null","","","na","","128","",""
"1039.3000001907349","317336","HierDygdl9lnxv","sub20","08","06","rl","test","83","img/p_t_check.png","2","83","pattern,color,shape","129","1",""
"null","318344","HierDygdl9lnxv","sub20","08","06","feedback","test","null","","","na","","129","",""
"949.5","319294","HierDygdl9lnxv","sub20","08","06","rl","test","65","img/p_d_check.png","1","65","pattern,color,shape","130","1",""
"null","320305","HierDygdl9lnxv","sub20","08","06","feedback","test","null","","","na","","130","",""
"988.3999996185303","321294","HierDygdl9lnxv","sub20","08","06","rl","test","70","img/r_t_check.png","4","70","pattern,color,shape","131","1",""
"null","322304","HierDygdl9lnxv","sub20","08","06","feedback","test","null","","","na","","131","",""
"809.3000001907349","323114","HierDygdl9lnxv","sub20","08","06","rl","test","68","img/r_d_check.png","3","68","pattern,color,shape","132","1",""
"null","324120","HierDygdl9lnxv","sub20","08","06","feedback","test","null","","","na","","132","",""
"1414.2000007629395","325535","HierDygdl9lnxv","sub20","08","06","rl","test","75","img/r_t_diag.png","8","76","pattern,color,shape","133","0",""
"null","326543","HierDygdl9lnxv","sub20","08","06","feedback","test","null","","","na","","133","",""
"1448.4000005722046","327992","HierDygdl9lnxv","sub20","08","06","rl","test","83","img/p_t_check.png","2","83","pattern,color,shape","134","1",""
"null","329000","HierDygdl9lnxv","sub20","08","06","feedback","test","null","","","na","","134","",""
"812.7000007629395","329814","HierDygdl9lnxv","sub20","08","06","rl","test","72","img/p_d_diag.png","5","72","pattern,color,shape","135","1",""
"null","330816","HierDygdl9lnxv","sub20","08","06","feedback","test","null","","","na","","135","",""
"732.1000003814697","331549","HierDygdl9lnxv","sub20","08","06","rl","test","72","img/p_d_diag.png","5","72","pattern,color,shape","136","1",""
"null","332552","HierDygdl9lnxv","sub20","08","06","feedback","test","null","","","na","","136","",""
"790.9000005722046","333343","HierDygdl9lnxv","sub20","08","06","rl","test","74","img/p_t_diag.png","6","74","pattern,color,shape","137","1",""
"null","334351","HierDygdl9lnxv","sub20","08","06","feedback","test","null","","","na","","137","",""
"1214.8999996185303","335567","HierDygdl9lnxv","sub20","08","06","rl","test","65","img/p_d_check.png","1","65","pattern,color,shape","138","1",""
"null","336575","HierDygdl9lnxv","sub20","08","06","feedback","test","null","","","na","","138","",""
"976.3999996185303","337553","HierDygdl9lnxv","sub20","08","06","rl","test","74","img/p_t_diag.png","6","74","pattern,color,shape","139","1",""
"null","338560","HierDygdl9lnxv","sub20","08","06","feedback","test","null","","","na","","139","",""
"1243.5","339805","HierDygdl9lnxv","sub20","08","06","rl","test","76","img/r_t_diag.png","8","76","pattern,color,shape","140","1",""
"null","340808","HierDygdl9lnxv","sub20","08","06","feedback","test","null","","","na","","140","",""
"1169.8000001907349","341979","HierDygdl9lnxv","sub20","08","06","rl","test","68","img/r_d_check.png","3","68","pattern,color,shape","141","1",""
"null","342984","HierDygdl9lnxv","sub20","08","06","feedback","test","null","","","na","","141","",""
"698.8999996185303","343683","HierDygdl9lnxv","sub20","08","06","rl","test","70","img/r_t_check.png","4","70","pattern,color,shape","142","1",""
"null","344687","HierDygdl9lnxv","sub20","08","06","feedback","test","null","","","na","","142","",""
"1187.9000005722046","345876","HierDygdl9lnxv","sub20","08","06","rl","test","75","img/r_d_diag.png","7","75","pattern,color,shape","143","1",""
"null","346879","HierDygdl9lnxv","sub20","08","06","feedback","test","null","","","na","","143","",""
"692.5","347572","HierDygdl9lnxv","sub20","08","06","rl","test","65","img/p_d_check.png","1","65","pattern,color,shape","144","1",""
"null","348576","HierDygdl9lnxv","sub20","08","06","feedback","test","null","","","na","","144","",""
"911.1999998092651","349488","HierDygdl9lnxv","sub20","08","06","rl","test","68","img/r_d_check.png","3","68","pattern,color,shape","145","1",""
"null","350495","HierDygdl9lnxv","sub20","08","06","feedback","test","null","","","na","","145","",""
"1210.2999992370605","351706","HierDygdl9lnxv","sub20","08","06","rl","test","83","img/p_t_check.png","2","83","pattern,color,shape","146","1",""
"null","352712","HierDygdl9lnxv","sub20","08","06","feedback","test","null","","","na","","146","",""
"454.5","353167","HierDygdl9lnxv","sub20","08","06","rl","test","83","img/p_t_check.png","2","83","pattern,color,shape","147","1",""
"null","354176","HierDygdl9lnxv","sub20","08","06","feedback","test","null","","","na","","147","",""
"1069.6000003814697","355247","HierDygdl9lnxv","sub20","08","06","rl","test","76","img/r_t_diag.png","8","76","pattern,color,shape","148","1",""
"null","356256","HierDygdl9lnxv","sub20","08","06","feedback","test","null","","","na","","148","",""
"1074.3000001907349","357331","HierDygdl9lnxv","sub20","08","06","rl","test","75","img/r_d_diag.png","7","75","pattern,color,shape","149","1",""
"null","358336","HierDygdl9lnxv","sub20","08","06","feedback","test","null","","","na","","149","",""
"1536.9000005722046","359874","HierDygdl9lnxv","sub20","08","06","rl","test","83","img/p_t_check.png","2","83","pattern,color,shape","150","1",""
"null","360881","HierDygdl9lnxv","sub20","08","06","feedback","test","null","","","na","","150","",""
"1238","362120","HierDygdl9lnxv","sub20","08","06","rl","test","72","img/p_d_diag.png","5","72","pattern,color,shape","151","1",""
"null","363129","HierDygdl9lnxv","sub20","08","06","feedback","test","null","","","na","","151","",""
"1199.5","364329","HierDygdl9lnxv","sub20","08","06","rl","test","70","img/r_t_check.png","4","70","pattern,color,shape","152","1",""
"null","365336","HierDygdl9lnxv","sub20","08","06","feedback","test","null","","","na","","152","",""
"1948.7000007629395","367285","HierDygdl9lnxv","sub20","08","06","rl","test","74","img/p_t_diag.png","6","74","pattern,color,shape","153","1",""
"null","368288","HierDygdl9lnxv","sub20","08","06","feedback","test","null","","","na","","153","",""
"996.2000007629395","369285","HierDygdl9lnxv","sub20","08","06","rl","test","83","img/r_d_check.png","3","68","pattern,color,shape","154","0",""
"null","370288","HierDygdl9lnxv","sub20","08","06","feedback","test","null","","","na","","154","",""
"2493.300000190735","372782","HierDygdl9lnxv","sub20","08","06","rl","test","70","img/r_t_check.png","4","70","pattern,color,shape","155","1",""
"null","373784","HierDygdl9lnxv","sub20","08","06","feedback","test","null","","","na","","155","",""
"370.30000019073486","374155","HierDygdl9lnxv","sub20","08","06","rl","test","65","img/p_d_diag.png","5","72","pattern,color,shape","156","0",""
"null","375160","HierDygdl9lnxv","sub20","08","06","feedback","test","null","","","na","","156","",""
"1328.8000001907349","376489","HierDygdl9lnxv","sub20","08","06","rl","test","72","img/p_t_diag.png","6","74","pattern,color,shape","157","0",""
"null","377496","HierDygdl9lnxv","sub20","08","06","feedback","test","null","","","na","","157","",""
"996.3999996185303","378493","HierDygdl9lnxv","sub20","08","06","rl","test","75","img/r_d_diag.png","7","75","pattern,color,shape","158","1",""
"null","379496","HierDygdl9lnxv","sub20","08","06","feedback","test","null","","","na","","158","",""
"1062.5","380560","HierDygdl9lnxv","sub20","08","06","rl","test","65","img/p_d_check.png","1","65","pattern,color,shape","159","1",""
"null","381568","HierDygdl9lnxv","sub20","08","06","feedback","test","null","","","na","","159","",""
"1264","382833","HierDygdl9lnxv","sub20","08","06","rl","test","75","img/r_d_diag.png","7","75","pattern,color,shape","160","1",""
"null","383840","HierDygdl9lnxv","sub20","08","06","feedback","test","null","","","na","","160","",""
"1027.1999998092651","384868","HierDygdl9lnxv","sub20","08","06","rl","test","76","img/r_t_diag.png","8","76","pattern,color,shape","161","1",""
"null","385872","HierDygdl9lnxv","sub20","08","06","feedback","test","null","","","na","","161","",""
"595.5","386468","HierDygdl9lnxv","sub20","08","06","rl","test","76","img/r_t_diag.png","8","76","pattern,color,shape","162","1",""
"null","387472","HierDygdl9lnxv","sub20","08","06","feedback","test","null","","","na","","162","",""
"1238","388711","HierDygdl9lnxv","sub20","08","06","rl","test","72","img/p_d_diag.png","5","72","pattern,color,shape","163","1",""
"null","389720","HierDygdl9lnxv","sub20","08","06","feedback","test","null","","","na","","163","",""
"null","392223","HierDygdl9lnxv","sub20","08","06","rl","test","null","img/p_d_check.png","1","65","pattern,color,shape","164","0",""
"null","393232","HierDygdl9lnxv","sub20","08","06","feedback","test","null","","","na","","164","",""
"1009.5999994277954","394242","HierDygdl9lnxv","sub20","08","06","rl","test","83","img/p_t_check.png","2","83","pattern,color,shape","165","1",""
"null","395248","HierDygdl9lnxv","sub20","08","06","feedback","test","null","","","na","","165","",""
"864","396112","HierDygdl9lnxv","sub20","08","06","rl","test","70","img/r_t_check.png","4","70","pattern,color,shape","166","1",""
"null","397120","HierDygdl9lnxv","sub20","08","06","feedback","test","null","","","na","","166","",""
"758.4000005722046","397879","HierDygdl9lnxv","sub20","08","06","rl","test","68","img/r_d_check.png","3","68","pattern,color,shape","167","1",""
"null","398888","HierDygdl9lnxv","sub20","08","06","feedback","test","null","","","na","","167","",""
"1006.5999994277954","399896","HierDygdl9lnxv","sub20","08","06","rl","test","75","img/p_t_diag.png","6","74","pattern,color,shape","168","0",""
"null","400905","HierDygdl9lnxv","sub20","08","06","feedback","test","null","","","na","","168","",""
"1473.3999996185303","402379","HierDygdl9lnxv","sub20","08","06","rl","test","68","img/r_d_check.png","3","68","pattern,color,shape","169","1",""
"null","403384","HierDygdl9lnxv","sub20","08","06","feedback","test","null","","","na","","169","",""
"1429.2999992370605","404814","HierDygdl9lnxv","sub20","08","06","rl","test","72","img/p_d_diag.png","5","72","pattern,color,shape","170","1",""
"null","405817","HierDygdl9lnxv","sub20","08","06","feedback","test","null","","","na","","170","",""
"1065.6999998092651","406884","HierDygdl9lnxv","sub20","08","06","rl","test","74","img/p_t_diag.png","6","74","pattern,color,shape","171","1",""
"null","407889","HierDygdl9lnxv","sub20","08","06","feedback","test","null","","","na","","171","",""
"993.7000007629395","408883","HierDygdl9lnxv","sub20","08","06","rl","test","75","img/r_d_diag.png","7","75","pattern,color,shape","172","1",""
"null","409888","HierDygdl9lnxv","sub20","08","06","feedback","test","null","","","na","","172","",""
"1278.6999998092651","411167","HierDygdl9lnxv","sub20","08","06","rl","test","83","img/p_t_check.png","2","83","pattern,color,shape","173","1",""
"null","412176","HierDygdl9lnxv","sub20","08","06","feedback","test","null","","","na","","173","",""
"1777.6000003814697","413954","HierDygdl9lnxv","sub20","08","06","rl","test","65","img/p_d_check.png","1","65","pattern,color,shape","174","1",""
"null","414960","HierDygdl9lnxv","sub20","08","06","feedback","test","null","","","na","","174","",""
"672.0999994277954","415633","HierDygdl9lnxv","sub20","08","06","rl","test","65","img/p_d_check.png","1","65","pattern,color,shape","175","1",""
"null","416640","HierDygdl9lnxv","sub20","08","06","feedback","test","null","","","na","","175","",""
"1148.6000003814697","417789","HierDygdl9lnxv","sub20","08","06","rl","test","76","img/r_t_diag.png","8","76","pattern,color,shape","176","1",""
"null","418792","HierDygdl9lnxv","sub20","08","06","feedback","test","null","","","na","","176","",""
"null","421296","HierDygdl9lnxv","sub20","08","06","rl","test","null","img/p_t_check.png","2","83","pattern,color,shape","177","0",""
"null","422303","HierDygdl9lnxv","sub20","08","06","feedback","test","null","","","na","","177","",""
"1186.6999998092651","423491","HierDygdl9lnxv","sub20","08","06","rl","test","70","img/r_t_check.png","4","70","pattern,color,shape","178","1",""
"null","424495","HierDygdl9lnxv","sub20","08","06","feedback","test","null","","","na","","178","",""
"560.1000003814697","425056","HierDygdl9lnxv","sub20","08","06","rl","test","70","img/r_t_check.png","4","70","pattern,color,shape","179","1",""
"null","426064","HierDygdl9lnxv","sub20","08","06","feedback","test","null","","","na","","179","",""
"995.7000007629395","427060","HierDygdl9lnxv","sub20","08","06","rl","test","75","img/r_t_diag.png","8","76","pattern,color,shape","180","0",""
"null","428064","HierDygdl9lnxv","sub20","08","06","feedback","test","null","","","na","","180","",""
"746.8999996185303","428812","HierDygdl9lnxv","sub20","08","06","rl","test","65","img/p_d_check.png","1","65","pattern,color,shape","181","1",""
"null","429816","HierDygdl9lnxv","sub20","08","06","feedback","test","null","","","na","","181","",""
"1554.5999994277954","431372","HierDygdl9lnxv","sub20","08","06","rl","test","75","img/r_d_diag.png","7","75","pattern,color,shape","182","1",""
"null","432376","HierDygdl9lnxv","sub20","08","06","feedback","test","null","","","na","","182","",""
"989.0999994277954","433366","HierDygdl9lnxv","sub20","08","06","rl","test","72","img/p_d_diag.png","5","72","pattern,color,shape","183","1",""
"null","434368","HierDygdl9lnxv","sub20","08","06","feedback","test","null","","","na","","183","",""
"1124.8000001907349","435494","HierDygdl9lnxv","sub20","08","06","rl","test","68","img/r_d_check.png","3","68","pattern,color,shape","184","1",""
"null","436496","HierDygdl9lnxv","sub20","08","06","feedback","test","null","","","na","","184","",""
"1319.0999994277954","437816","HierDygdl9lnxv","sub20","08","06","rl","test","74","img/p_t_diag.png","6","74","pattern,color,shape","185","1",""
"null","438824","HierDygdl9lnxv","sub20","08","06","feedback","test","null","","","na","","185","",""
"1282","440107","HierDygdl9lnxv","sub20","08","06","rl","test","76","img/r_t_diag.png","8","76","pattern,color,shape","186","1",""
"null","441112","HierDygdl9lnxv","sub20","08","06","feedback","test","null","","","na","","186","",""
"1510.1000003814697","442623","HierDygdl9lnxv","sub20","08","06","rl","test","75","img/r_d_diag.png","7","75","pattern,color,shape","187","1",""
"null","443632","HierDygdl9lnxv","sub20","08","06","feedback","test","null","","","na","","187","",""
"894.3000001907349","444527","HierDygdl9lnxv","sub20","08","06","rl","test","70","img/r_t_check.png","4","70","pattern,color,shape","188","1",""
"null","445535","HierDygdl9lnxv","sub20","08","06","feedback","test","null","","","na","","188","",""
"1192.8999996185303","446729","HierDygdl9lnxv","sub20","08","06","rl","test","72","img/p_t_diag.png","6","74","pattern,color,shape","189","0",""
"null","447736","HierDygdl9lnxv","sub20","08","06","feedback","test","null","","","na","","189","",""
"954.6000003814697","448691","HierDygdl9lnxv","sub20","08","06","rl","test","72","img/p_d_diag.png","5","72","pattern,color,shape","190","1",""
"null","449695","HierDygdl9lnxv","sub20","08","06","feedback","test","null","","","na","","190","",""
"721.8000001907349","450418","HierDygdl9lnxv","sub20","08","06","rl","test","68","img/p_t_check.png","2","83","pattern,color,shape","191","0",""
"null","451424","HierDygdl9lnxv","sub20","08","06","feedback","test","null","","","na","","191","",""
"1734.8999996185303","453160","HierDygdl9lnxv","sub20","08","06","rl","test","68","img/r_d_check.png","3","68","pattern,color,shape","192","1",""
"null","454168","HierDygdl9lnxv","sub20","08","06","feedback","test","null","","","na","","192","",""
"781.5","454951","HierDygdl9lnxv","sub20","08","06","rl","test","83","img/p_t_check.png","2","83","pattern,color,shape","193","1",""
"null","455959","HierDygdl9lnxv","sub20","08","06","feedback","test","null","","","na","","193","",""
"759.1999998092651","456719","HierDygdl9lnxv","sub20","08","06","rl","test","68","img/r_d_check.png","3","68","pattern,color,shape","194","1",""
"null","457729","HierDygdl9lnxv","sub20","08","06","feedback","test","null","","","na","","194","",""
"1402.8000001907349","459132","HierDygdl9lnxv","sub20","08","06","rl","test","72","img/p_d_diag.png","5","72","pattern,color,shape","195","1",""
"null","460136","HierDygdl9lnxv","sub20","08","06","feedback","test","null","","","na","","195","",""
"618.8000001907349","460756","HierDygdl9lnxv","sub20","08","06","rl","test","65","img/p_d_check.png","1","65","pattern,color,shape","196","1",""
"null","461760","HierDygdl9lnxv","sub20","08","06","feedback","test","null","","","na","","196","",""
"743.1000003814697","462504","HierDygdl9lnxv","sub20","08","06","rl","test","76","img/r_t_diag.png","8","76","pattern,color,shape","197","1",""
"null","463511","HierDygdl9lnxv","sub20","08","06","feedback","test","null","","","na","","197","",""
"867.3000001907349","464380","HierDygdl9lnxv","sub20","08","06","rl","test","75","img/r_d_diag.png","7","75","pattern,color,shape","198","1",""
"null","465385","HierDygdl9lnxv","sub20","08","06","feedback","test","null","","","na","","198","",""
"954.3999996185303","466340","HierDygdl9lnxv","sub20","08","06","rl","test","72","img/p_t_diag.png","6","74","pattern,color,shape","199","0",""
"null","467344","HierDygdl9lnxv","sub20","08","06","feedback","test","null","","","na","","199","",""
"1031.1999998092651","468376","HierDygdl9lnxv","sub20","08","06","rl","test","70","img/r_t_check.png","4","70","pattern,color,shape","200","1",""
"null","469384","HierDygdl9lnxv","sub20","08","06","feedback","test","null","","","na","","200","",""
"1574.8999996185303","470959","HierDygdl9lnxv","sub20","08","06","rl","test","75","img/r_d_diag.png","7","75","pattern,color,shape","201","1",""
"null","471967","HierDygdl9lnxv","sub20","08","06","feedback","test","null","","","na","","201","",""
"738.5","472707","HierDygdl9lnxv","sub20","08","06","rl","test","65","img/r_d_check.png","3","68","pattern,color,shape","202","0",""
"null","473712","HierDygdl9lnxv","sub20","08","06","feedback","test","null","","","na","","202","",""
"1220.1000003814697","474933","HierDygdl9lnxv","sub20","08","06","rl","test","76","img/r_t_diag.png","8","76","pattern,color,shape","203","1",""
"null","475936","HierDygdl9lnxv","sub20","08","06","feedback","test","null","","","na","","203","",""
"1299","477236","HierDygdl9lnxv","sub20","08","06","rl","test","72","img/p_d_diag.png","5","72","pattern,color,shape","204","1",""
"null","478240","HierDygdl9lnxv","sub20","08","06","feedback","test","null","","","na","","204","",""
"649.3999996185303","478890","HierDygdl9lnxv","sub20","08","06","rl","test","65","img/p_d_check.png","1","65","pattern,color,shape","205","1",""
"null","479896","HierDygdl9lnxv","sub20","08","06","feedback","test","null","","","na","","205","",""
"2220.7000007629395","482118","HierDygdl9lnxv","sub20","08","06","rl","test","65","img/p_t_check.png","2","83","pattern,color,shape","206","0",""
"null","483120","HierDygdl9lnxv","sub20","08","06","feedback","test","null","","","na","","206","",""
"943.8000001907349","484065","HierDygdl9lnxv","sub20","08","06","rl","test","70","img/r_t_check.png","4","70","pattern,color,shape","207","1",""
"null","485071","HierDygdl9lnxv","sub20","08","06","feedback","test","null","","","na","","207","",""
"932","486004","HierDygdl9lnxv","sub20","08","06","rl","test","70","img/r_t_check.png","4","70","pattern,color,shape","208","1",""
"null","487008","HierDygdl9lnxv","sub20","08","06","feedback","test","null","","","na","","208","",""
"1825.5","488834","HierDygdl9lnxv","sub20","08","06","rl","test","74","img/p_t_diag.png","6","74","pattern,color,shape","209","1",""
"null","489839","HierDygdl9lnxv","sub20","08","06","feedback","test","null","","","na","","209","",""
"1798.3999996185303","491638","HierDygdl9lnxv","sub20","08","06","rl","test","83","img/p_t_check.png","2","83","pattern,color,shape","210","1",""
"null","492640","HierDygdl9lnxv","sub20","08","06","feedback","test","null","","","na","","210","",""
"690.5","493332","HierDygdl9lnxv","sub20","08","06","rl","test","68","img/p_d_check.png","1","65","pattern,color,shape","211","0",""
"null","494336","HierDygdl9lnxv","sub20","08","06","feedback","test","null","","","na","","211","",""
"null","496840","HierDygdl9lnxv","sub20","08","06","rl","test","null","img/p_t_diag.png","6","74","pattern,color,shape","212","0",""
"null","497848","HierDygdl9lnxv","sub20","08","06","feedback","test","null","","","na","","212","",""
"841.1999998092651","498691","HierDygdl9lnxv","sub20","08","06","rl","test","68","img/r_d_check.png","3","68","pattern,color,shape","213","1",""
"null","499696","HierDygdl9lnxv","sub20","08","06","feedback","test","null","","","na","","213","",""
"934.5","500631","HierDygdl9lnxv","sub20","08","06","rl","test","75","img/r_d_diag.png","7","75","pattern,color,shape","214","1",""
"null","501640","HierDygdl9lnxv","sub20","08","06","feedback","test","null","","","na","","214","",""
"970.1999998092651","502611","HierDygdl9lnxv","sub20","08","06","rl","test","76","img/r_t_diag.png","8","76","pattern,color,shape","215","1",""
"null","503617","HierDygdl9lnxv","sub20","08","06","feedback","test","null","","","na","","215","",""
"null","506120","HierDygdl9lnxv","sub20","08","06","rl","test","null","img/p_d_diag.png","5","72","pattern,color,shape","216","0",""
"null","507128","HierDygdl9lnxv","sub20","08","06","feedback","test","null","","","na","","216","",""
"933.4000005722046","508063","HierDygdl9lnxv","sub20","08","06","rl","test","83","img/p_t_check.png","2","83","pattern,color,shape","217","1",""
"null","509072","HierDygdl9lnxv","sub20","08","06","feedback","test","null","","","na","","217","",""
"663.6999998092651","509737","HierDygdl9lnxv","sub20","08","06","rl","test","72","img/p_d_diag.png","5","72","pattern,color,shape","218","1",""
"null","510744","HierDygdl9lnxv","sub20","08","06","feedback","test","null","","","na","","218","",""
"885.5","511631","HierDygdl9lnxv","sub20","08","06","rl","test","65","img/p_d_check.png","1","65","pattern,color,shape","219","1",""
"null","512639","HierDygdl9lnxv","sub20","08","06","feedback","test","null","","","na","","219","",""
"1644.5","514284","HierDygdl9lnxv","sub20","08","06","rl","test","76","img/r_t_diag.png","8","76","pattern,color,shape","220","1",""
"null","515289","HierDygdl9lnxv","sub20","08","06","feedback","test","null","","","na","","220","",""
"null","517792","HierDygdl9lnxv","sub20","08","06","rl","test","null","img/p_t_diag.png","6","74","pattern,color,shape","221","0",""
"null","518800","HierDygdl9lnxv","sub20","08","06","feedback","test","null","","","na","","221","",""
"804.2999992370605","519606","HierDygdl9lnxv","sub20","08","06","rl","test","70","img/r_t_check.png","4","70","pattern,color,shape","222","1",""
"null","520608","HierDygdl9lnxv","sub20","08","06","feedback","test","null","","","na","","222","",""
"491.19999980926514","521099","HierDygdl9lnxv","sub20","08","06","rl","test","70","img/r_t_check.png","4","70","pattern,color,shape","223","1",""
"null","522104","HierDygdl9lnxv","sub20","08","06","feedback","test","null","","","na","","223","",""
"1442.1999998092651","523547","HierDygdl9lnxv","sub20","08","06","rl","test","75","img/r_d_diag.png","7","75","pattern,color,shape","224","1",""
"null","524552","HierDygdl9lnxv","sub20","08","06","feedback","test","null","","","na","","224","",""
"508.69999980926514","525061","HierDygdl9lnxv","sub20","08","06","rl","test","75","img/r_t_diag.png","8","76","pattern,color,shape","225","0",""
"null","526064","HierDygdl9lnxv","sub20","08","06","feedback","test","null","","","na","","225","",""
"963.1999998092651","527029","HierDygdl9lnxv","sub20","08","06","rl","test","68","img/r_d_check.png","3","68","pattern,color,shape","226","1",""
"null","528032","HierDygdl9lnxv","sub20","08","06","feedback","test","null","","","na","","226","",""
"980.2999992370605","529014","HierDygdl9lnxv","sub20","08","06","rl","test","75","img/r_d_diag.png","7","75","pattern,color,shape","227","1",""
"null","530016","HierDygdl9lnxv","sub20","08","06","feedback","test","null","","","na","","227","",""
"1361.3999996185303","531378","HierDygdl9lnxv","sub20","08","06","rl","test","74","img/p_t_diag.png","6","74","pattern,color,shape","228","1",""
"null","532385","HierDygdl9lnxv","sub20","08","06","feedback","test","null","","","na","","228","",""
"1000.5","533386","HierDygdl9lnxv","sub20","08","06","rl","test","68","img/r_d_check.png","3","68","pattern,color,shape","229","1",""
"null","534391","HierDygdl9lnxv","sub20","08","06","feedback","test","null","","","na","","229","",""
"850.5","535243","HierDygdl9lnxv","sub20","08","06","rl","test","65","img/p_d_check.png","1","65","pattern,color,shape","230","1",""
"null","536248","HierDygdl9lnxv","sub20","08","06","feedback","test","null","","","na","","230","",""
"1074.1000003814697","537323","HierDygdl9lnxv","sub20","08","06","rl","test","83","img/p_t_check.png","2","83","pattern,color,shape","231","1",""
"null","538328","HierDygdl9lnxv","sub20","08","06","feedback","test","null","","","na","","231","",""
"918.3999996185303","539248","HierDygdl9lnxv","sub20","08","06","rl","test","75","img/p_t_diag.png","6","74","pattern,color,shape","232","0",""
"null","540256","HierDygdl9lnxv","sub20","08","06","feedback","test","null","","","na","","232","",""
"1255","541511","HierDygdl9lnxv","sub20","08","06","rl","test","72","img/p_d_diag.png","5","72","pattern,color,shape","233","1",""
"null","542520","HierDygdl9lnxv","sub20","08","06","feedback","test","null","","","na","","233","",""
"627.7000007629395","543148","HierDygdl9lnxv","sub20","08","06","rl","test","72","img/p_d_diag.png","5","72","pattern,color,shape","234","1",""
"null","544152","HierDygdl9lnxv","sub20","08","06","feedback","test","null","","","na","","234","",""
"1114.3000001907349","545267","HierDygdl9lnxv","sub20","08","06","rl","test","70","img/r_d_check.png","3","68","pattern,color,shape","235","0",""
"null","546273","HierDygdl9lnxv","sub20","08","06","feedback","test","null","","","na","","235","",""
"1427.0999994277954","547700","HierDygdl9lnxv","sub20","08","06","rl","test","72","img/p_d_diag.png","5","72","pattern,color,shape","236","1",""
"null","548704","HierDygdl9lnxv","sub20","08","06","feedback","test","null","","","na","","236","",""
"764.1999998092651","549469","HierDygdl9lnxv","sub20","08","06","rl","test","65","img/p_d_check.png","1","65","pattern,color,shape","237","1",""
"null","550472","HierDygdl9lnxv","sub20","08","06","feedback","test","null","","","na","","237","",""
"null","552977","HierDygdl9lnxv","sub20","08","06","rl","test","null","img/r_t_check.png","4","70","pattern,color,shape","238","0",""
"null","553984","HierDygdl9lnxv","sub20","08","06","feedback","test","null","","","na","","238","",""
"1052.1999998092651","555037","HierDygdl9lnxv","sub20","08","06","rl","test","83","img/p_t_check.png","2","83","pattern,color,shape","239","1",""
"null","556041","HierDygdl9lnxv","sub20","08","06","feedback","test","null","","","na","","239","",""
"1048.0999994277954","557090","HierDygdl9lnxv","sub20","08","06","rl","test","76","img/r_t_diag.png","8","76","pattern,color,shape","240","1",""
"null","558096","HierDygdl9lnxv","sub20","08","06","feedback","test","null","","","na","","240","",""
"1196.3999996185303","559293","HierDygdl9lnxv","sub20","08","06","rl","test","75","img/r_d_diag.png","7","75","pattern,color,shape","241","1",""
"null","560296","HierDygdl9lnxv","sub20","08","06","feedback","test","null","","","na","","241","",""
"1505.2999992370605","561802","HierDygdl9lnxv","sub20","08","06","rl","test","76","img/r_t_diag.png","8","76","pattern,color,shape","242","1",""
"null","562809","HierDygdl9lnxv","sub20","08","06","feedback","test","null","","","na","","242","",""
"886.6000003814697","563696","HierDygdl9lnxv","sub20","08","06","rl","test","70","img/r_t_check.png","4","70","pattern,color,shape","243","1",""
"null","564704","HierDygdl9lnxv","sub20","08","06","feedback","test","null","","","na","","243","",""
"2046","566751","HierDygdl9lnxv","sub20","08","06","rl","test","75","img/r_d_diag.png","7","75","pattern,color,shape","244","1",""
"null","567760","HierDygdl9lnxv","sub20","08","06","feedback","test","null","","","na","","244","",""
"284.0999994277954","568044","HierDygdl9lnxv","sub20","08","06","rl","test","65","img/p_d_check.png","1","65","pattern,color,shape","245","1",""
"null","569049","HierDygdl9lnxv","sub20","08","06","feedback","test","null","","","na","","245","",""
"1887.7999992370605","570937","HierDygdl9lnxv","sub20","08","06","rl","test","68","img/r_d_check.png","3","68","pattern,color,shape","246","1",""
"null","571944","HierDygdl9lnxv","sub20","08","06","feedback","test","null","","","na","","246","",""
"984","572929","HierDygdl9lnxv","sub20","08","06","rl","test","74","img/p_t_diag.png","6","74","pattern,color,shape","247","1",""
"null","573930","HierDygdl9lnxv","sub20","08","06","feedback","test","null","","","na","","247","",""
"1438.6000003814697","575369","HierDygdl9lnxv","sub20","08","06","rl","test","83","img/p_t_check.png","2","83","pattern,color,shape","248","1",""
"null","576377","HierDygdl9lnxv","sub20","08","06","feedback","test","null","","","na","","248","",""
"21566.800000190735","597948","HierDygdl9lnxv","sub20","08","06","","","","","","","","","","{""Q0"":""5""}"
"6763.89999961853","604714","HierDygdl9lnxv","sub20","08","06","","","","","","","","","","{""Q0"":""Nothing specific, just drawing from memory""}"
"2414.0999994277954","607129","HierDygdl9lnxv","sub20","08","06","","","","","","","","","",""
