"rt","time_elapsed","subject","subID","group","day","trialType","phase","key_press","stim","stimNum","corrresp","hierarchy","trialNum","corr","responses"
"16740.39999961853","16741","HierDynah26ajc","sub20","08","02","","","","","","","","","",""
"","20456","HierDynah26ajc","sub20","08","02","fullscreen","","","","","","","","",""
"24436.70000076294","44893","HierDynah26ajc","sub20","08","02","","prac","","","","","","","",""
"7770.89999961853","52666","HierDynah26ajc","sub20","08","02","","","32","","","","","","",""
"3529.1000003814697","56196","HierDynah26ajc","sub20","08","02","","prac","","","","","","","",""
"923.8999996185303","57122","HierDynah26ajc","sub20","08","02","rl","test","65","img/p_t_check.png","2","83","pattern,color,shape","1","0",""
"null","58128","HierDynah26ajc","sub20","08","02","feedback","test","null","","","na","","1","",""
"861.9000005722046","58992","HierDynah26ajc","sub20","08","02","rl","test","75","img/p_d_diag.png","5","72","pattern,color,shape","2","0",""
"null","60000","HierDynah26ajc","sub20","08","02","feedback","test","null","","","na","","2","",""
"841.3000001907349","60842","HierDynah26ajc","sub20","08","02","rl","test","74","img/r_d_check.png","3","68","pattern,color,shape","3","0",""
"null","61848","HierDynah26ajc","sub20","08","02","feedback","test","null","","","na","","3","",""
"810.8999996185303","62660","HierDynah26ajc","sub20","08","02","rl","test","70","img/p_t_diag.png","6","74","pattern,color,shape","4","0",""
"null","63663","HierDynah26ajc","sub20","08","02","feedback","test","null","","","na","","4","",""
"899","64563","HierDynah26ajc","sub20","08","02","rl","test","83","img/p_d_check.png","1","65","pattern,color,shape","5","0",""
"null","65567","HierDynah26ajc","sub20","08","02","feedback","test","null","","","na","","5","",""
"1329","66897","HierDynah26ajc","sub20","08","02","rl","test","75","img/r_t_check.png","4","70","pattern,color,shape","6","0",""
"null","67904","HierDynah26ajc","sub20","08","02","feedback","test","null","","","na","","6","",""
"774.7000007629395","68680","HierDynah26ajc","sub20","08","02","rl","test","74","img/r_t_diag.png","8","76","pattern,color,shape","7","0",""
"null","69687","HierDynah26ajc","sub20","08","02","feedback","test","null","","","na","","7","",""
"802.1000003814697","70490","HierDynah26ajc","sub20","08","02","rl","test","68","img/r_d_diag.png","7","75","pattern,color,shape","8","0",""
"null","71496","HierDynah26ajc","sub20","08","02","feedback","test","null","","","na","","8","",""
"1022.8000001907349","72520","HierDynah26ajc","sub20","08","02","rl","test","65","img/p_d_check.png","1","65","pattern,color,shape","9","1",""
"null","73528","HierDynah26ajc","sub20","08","02","feedback","test","null","","","na","","9","",""
"681.8000001907349","74210","HierDynah26ajc","sub20","08","02","rl","test","75","img/r_t_diag.png","8","76","pattern,color,shape","10","0",""
"null","75216","HierDynah26ajc","sub20","08","02","feedback","test","null","","","na","","10","",""
"646.5","75864","HierDynah26ajc","sub20","08","02","rl","test","83","img/p_d_diag.png","5","72","pattern,color,shape","11","0",""
"null","76872","HierDynah26ajc","sub20","08","02","feedback","test","null","","","na","","11","",""
"658.6999998092651","77532","HierDynah26ajc","sub20","08","02","rl","test","68","img/p_t_diag.png","6","74","pattern,color,shape","12","0",""
"null","78536","HierDynah26ajc","sub20","08","02","feedback","test","null","","","na","","12","",""
"748.5999994277954","79285","HierDynah26ajc","sub20","08","02","rl","test","83","img/r_d_diag.png","7","75","pattern,color,shape","13","0",""
"null","80288","HierDynah26ajc","sub20","08","02","feedback","test","null","","","na","","13","",""
"1986.5999994277954","82275","HierDynah26ajc","sub20","08","02","rl","test","83","img/p_t_check.png","2","83","pattern,color,shape","14","1",""
"null","83279","HierDynah26ajc","sub20","08","02","feedback","test","null","","","na","","14","",""
"1933.5","85214","HierDynah26ajc","sub20","08","02","rl","test","75","img/r_d_diag.png","7","75","pattern,color,shape","15","1",""
"null","86216","HierDynah26ajc","sub20","08","02","feedback","test","null","","","na","","15","",""
"791.3000001907349","87009","HierDynah26ajc","sub20","08","02","rl","test","74","img/r_t_check.png","4","70","pattern,color,shape","16","0",""
"null","88016","HierDynah26ajc","sub20","08","02","feedback","test","null","","","na","","16","",""
"1620.0999994277954","89637","HierDynah26ajc","sub20","08","02","rl","test","72","img/r_d_check.png","3","68","pattern,color,shape","17","0",""
"null","90639","HierDynah26ajc","sub20","08","02","feedback","test","null","","","na","","17","",""
"1466","92106","HierDynah26ajc","sub20","08","02","rl","test","70","img/r_d_check.png","3","68","pattern,color,shape","18","0",""
"null","93112","HierDynah26ajc","sub20","08","02","feedback","test","null","","","na","","18","",""
"1240.5999994277954","94354","HierDynah26ajc","sub20","08","02","rl","test","70","img/r_t_check.png","4","70","pattern,color,shape","19","1",""
"null","95359","HierDynah26ajc","sub20","08","02","feedback","test","null","","","na","","19","",""
"1414.3000001907349","96775","HierDynah26ajc","sub20","08","02","rl","test","65","img/p_d_check.png","1","65","pattern,color,shape","20","1",""
"null","97784","HierDynah26ajc","sub20","08","02","feedback","test","null","","","na","","20","",""
"1002.7000007629395","98788","HierDynah26ajc","sub20","08","02","rl","test","75","img/r_t_diag.png","8","76","pattern,color,shape","21","0",""
"null","99792","HierDynah26ajc","sub20","08","02","feedback","test","null","","","na","","21","",""
"1129.9000005722046","100923","HierDynah26ajc","sub20","08","02","rl","test","65","img/p_d_check.png","1","65","pattern,color,shape","22","1",""
"null","101927","HierDynah26ajc","sub20","08","02","feedback","test","null","","","na","","22","",""
"1364.9000005722046","103293","HierDynah26ajc","sub20","08","02","rl","test","76","img/p_d_diag.png","5","72","pattern,color,shape","23","0",""
"null","104296","HierDynah26ajc","sub20","08","02","feedback","test","null","","","na","","23","",""
"979.1000003814697","105276","HierDynah26ajc","sub20","08","02","rl","test","76","img/p_d_diag.png","5","72","pattern,color,shape","24","0",""
"null","106279","HierDynah26ajc","sub20","08","02","feedback","test","null","","","na","","24","",""
"1721.5","108002","HierDynah26ajc","sub20","08","02","rl","test","72","img/p_t_diag.png","6","74","pattern,color,shape","25","0",""
"null","109008","HierDynah26ajc","sub20","08","02","feedback","test","null","","","na","","25","",""
"1319.1000003814697","110328","HierDynah26ajc","sub20","08","02","rl","test","83","img/p_t_check.png","2","83","pattern,color,shape","26","1",""
"null","111337","HierDynah26ajc","sub20","08","02","feedback","test","null","","","na","","26","",""
"1035.3000001907349","112373","HierDynah26ajc","sub20","08","02","rl","test","68","img/r_t_diag.png","8","76","pattern,color,shape","27","0",""
"null","113375","HierDynah26ajc","sub20","08","02","feedback","test","null","","","na","","27","",""
"1091.6000003814697","114468","HierDynah26ajc","sub20","08","02","rl","test","68","img/r_d_check.png","3","68","pattern,color,shape","28","1",""
"null","115471","HierDynah26ajc","sub20","08","02","feedback","test","null","","","na","","28","",""
"1759.5","117232","HierDynah26ajc","sub20","08","02","rl","test","70","img/p_t_diag.png","6","74","pattern,color,shape","29","0",""
"null","118240","HierDynah26ajc","sub20","08","02","feedback","test","null","","","na","","29","",""
"1402.3000001907349","119643","HierDynah26ajc","sub20","08","02","rl","test","70","img/r_d_diag.png","7","75","pattern,color,shape","30","0",""
"null","120648","HierDynah26ajc","sub20","08","02","feedback","test","null","","","na","","30","",""
"2327.300000190735","122977","HierDynah26ajc","sub20","08","02","rl","test","83","img/p_t_check.png","2","83","pattern,color,shape","31","1",""
"null","123984","HierDynah26ajc","sub20","08","02","feedback","test","null","","","na","","31","",""
"1689.7999992370605","125675","HierDynah26ajc","sub20","08","02","rl","test","70","img/r_t_check.png","4","70","pattern,color,shape","32","1",""
"null","126680","HierDynah26ajc","sub20","08","02","feedback","test","null","","","na","","32","",""
"612.1999998092651","127294","HierDynah26ajc","sub20","08","02","rl","test","70","img/r_t_check.png","4","70","pattern,color,shape","33","1",""
"null","128296","HierDynah26ajc","sub20","08","02","feedback","test","null","","","na","","33","",""
"1017.4000005722046","129315","HierDynah26ajc","sub20","08","02","rl","test","74","img/r_d_check.png","3","68","pattern,color,shape","34","0",""
"null","130320","HierDynah26ajc","sub20","08","02","feedback","test","null","","","na","","34","",""
"562","130884","HierDynah26ajc","sub20","08","02","rl","test","72","img/p_d_diag.png","5","72","pattern,color,shape","35","1",""
"null","131887","HierDynah26ajc","sub20","08","02","feedback","test","null","","","na","","35","",""
"1324.4000005722046","133213","HierDynah26ajc","sub20","08","02","rl","test","65","img/p_d_check.png","1","65","pattern,color,shape","36","1",""
"null","134216","HierDynah26ajc","sub20","08","02","feedback","test","null","","","na","","36","",""
"1776.5","135993","HierDynah26ajc","sub20","08","02","rl","test","75","img/p_t_diag.png","6","74","pattern,color,shape","37","0",""
"null","137000","HierDynah26ajc","sub20","08","02","feedback","test","null","","","na","","37","",""
"1427.3000001907349","138428","HierDynah26ajc","sub20","08","02","rl","test","83","img/p_t_check.png","2","83","pattern,color,shape","38","1",""
"null","139432","HierDynah26ajc","sub20","08","02","feedback","test","null","","","na","","38","",""
"1661.5999994277954","141095","HierDynah26ajc","sub20","08","02","rl","test","74","img/r_d_diag.png","7","75","pattern,color,shape","39","0",""
"null","142104","HierDynah26ajc","sub20","08","02","feedback","test","null","","","na","","39","",""
"1139.8000001907349","143245","HierDynah26ajc","sub20","08","02","rl","test","72","img/p_t_diag.png","6","74","pattern,color,shape","40","0",""
"null","144247","HierDynah26ajc","sub20","08","02","feedback","test","null","","","na","","40","",""
"935.1999998092651","145183","HierDynah26ajc","sub20","08","02","rl","test","72","img/r_t_diag.png","8","76","pattern,color,shape","41","0",""
"null","146192","HierDynah26ajc","sub20","08","02","feedback","test","null","","","na","","41","",""
"1118.4000005722046","147311","HierDynah26ajc","sub20","08","02","rl","test","83","img/p_t_check.png","2","83","pattern,color,shape","42","1",""
"null","148320","HierDynah26ajc","sub20","08","02","feedback","test","null","","","na","","42","",""
"1641.3000001907349","149962","HierDynah26ajc","sub20","08","02","rl","test","75","img/r_t_diag.png","8","76","pattern,color,shape","43","0",""
"null","150968","HierDynah26ajc","sub20","08","02","feedback","test","null","","","na","","43","",""
"1177.8000001907349","152147","HierDynah26ajc","sub20","08","02","rl","test","68","img/r_t_check.png","4","70","pattern,color,shape","44","0",""
"null","153152","HierDynah26ajc","sub20","08","02","feedback","test","null","","","na","","44","",""
"865.6999998092651","154019","HierDynah26ajc","sub20","08","02","rl","test","74","img/r_d_diag.png","7","75","pattern,color,shape","45","0",""
"null","155024","HierDynah26ajc","sub20","08","02","feedback","test","null","","","na","","45","",""
"1136.7000007629395","156161","HierDynah26ajc","sub20","08","02","rl","test","65","img/p_d_check.png","1","65","pattern,color,shape","46","1",""
"null","157168","HierDynah26ajc","sub20","08","02","feedback","test","null","","","na","","46","",""
"1137.6999998092651","158307","HierDynah26ajc","sub20","08","02","rl","test","83","img/p_d_diag.png","5","72","pattern,color,shape","47","0",""
"null","159312","HierDynah26ajc","sub20","08","02","feedback","test","null","","","na","","47","",""
"1455.3000001907349","160769","HierDynah26ajc","sub20","08","02","rl","test","74","img/r_d_check.png","3","68","pattern,color,shape","48","0",""
"null","161776","HierDynah26ajc","sub20","08","02","feedback","test","null","","","na","","48","",""
"1582.5","163359","HierDynah26ajc","sub20","08","02","rl","test","76","img/p_d_diag.png","5","72","pattern,color,shape","49","0",""
"null","164368","HierDynah26ajc","sub20","08","02","feedback","test","null","","","na","","49","",""
"710.8999996185303","165080","HierDynah26ajc","sub20","08","02","rl","test","65","img/p_d_check.png","1","65","pattern,color,shape","50","1",""
"null","166087","HierDynah26ajc","sub20","08","02","feedback","test","null","","","na","","50","",""
"821.8999996185303","166910","HierDynah26ajc","sub20","08","02","rl","test","83","img/p_t_check.png","2","83","pattern,color,shape","51","1",""
"null","167919","HierDynah26ajc","sub20","08","02","feedback","test","null","","","na","","51","",""
"1071.4000005722046","168991","HierDynah26ajc","sub20","08","02","rl","test","70","img/r_t_check.png","4","70","pattern,color,shape","52","1",""
"null","170000","HierDynah26ajc","sub20","08","02","feedback","test","null","","","na","","52","",""
"955.5","170956","HierDynah26ajc","sub20","08","02","rl","test","68","img/r_d_check.png","3","68","pattern,color,shape","53","1",""
"null","171960","HierDynah26ajc","sub20","08","02","feedback","test","null","","","na","","53","",""
"713.8999996185303","172675","HierDynah26ajc","sub20","08","02","rl","test","68","img/r_d_check.png","3","68","pattern,color,shape","54","1",""
"null","173680","HierDynah26ajc","sub20","08","02","feedback","test","null","","","na","","54","",""
"687.7999992370605","174369","HierDynah26ajc","sub20","08","02","rl","test","74","img/p_t_diag.png","6","74","pattern,color,shape","55","1",""
"null","175375","HierDynah26ajc","sub20","08","02","feedback","test","null","","","na","","55","",""
"1456.6999998092651","176833","HierDynah26ajc","sub20","08","02","rl","test","75","img/r_t_diag.png","8","76","pattern,color,shape","56","0",""
"null","177840","HierDynah26ajc","sub20","08","02","feedback","test","null","","","na","","56","",""
"825.8000001907349","178667","HierDynah26ajc","sub20","08","02","rl","test","65","img/p_d_check.png","1","65","pattern,color,shape","57","1",""
"null","179671","HierDynah26ajc","sub20","08","02","feedback","test","null","","","na","","57","",""
"1153.9000005722046","180825","HierDynah26ajc","sub20","08","02","rl","test","74","img/r_d_diag.png","7","75","pattern,color,shape","58","0",""
"null","181832","HierDynah26ajc","sub20","08","02","feedback","test","null","","","na","","58","",""
"2022.3000001907349","183855","HierDynah26ajc","sub20","08","02","rl","test","74","img/r_t_diag.png","8","76","pattern,color,shape","59","0",""
"null","184864","HierDynah26ajc","sub20","08","02","feedback","test","null","","","na","","59","",""
"1211.3999996185303","186077","HierDynah26ajc","sub20","08","02","rl","test","83","img/p_t_check.png","2","83","pattern,color,shape","60","1",""
"null","187079","HierDynah26ajc","sub20","08","02","feedback","test","null","","","na","","60","",""
"1026.1999998092651","188107","HierDynah26ajc","sub20","08","02","rl","test","72","img/r_d_diag.png","7","75","pattern,color,shape","61","0",""
"null","189111","HierDynah26ajc","sub20","08","02","feedback","test","null","","","na","","61","",""
"857.1000003814697","189969","HierDynah26ajc","sub20","08","02","rl","test","70","img/r_t_check.png","4","70","pattern,color,shape","62","1",""
"null","190975","HierDynah26ajc","sub20","08","02","feedback","test","null","","","na","","62","",""
"1266","192242","HierDynah26ajc","sub20","08","02","rl","test","75","img/p_t_diag.png","6","74","pattern,color,shape","63","0",""
"null","193247","HierDynah26ajc","sub20","08","02","feedback","test","null","","","na","","63","",""
"1218.6000003814697","194467","HierDynah26ajc","sub20","08","02","rl","test","76","img/p_d_diag.png","5","72","pattern,color,shape","64","0",""
"null","195471","HierDynah26ajc","sub20","08","02","feedback","test","null","","","na","","64","",""
"1217.5","196689","HierDynah26ajc","sub20","08","02","rl","test","75","img/r_d_diag.png","7","75","pattern,color,shape","65","1",""
"null","197695","HierDynah26ajc","sub20","08","02","feedback","test","null","","","na","","65","",""
"1351.8000001907349","199048","HierDynah26ajc","sub20","08","02","rl","test","68","img/r_d_check.png","3","68","pattern,color,shape","66","1",""
"null","200056","HierDynah26ajc","sub20","08","02","feedback","test","null","","","na","","66","",""
"694.4000005722046","200751","HierDynah26ajc","sub20","08","02","rl","test","70","img/r_t_check.png","4","70","pattern,color,shape","67","1",""
"null","201760","HierDynah26ajc","sub20","08","02","feedback","test","null","","","na","","67","",""
"663.1000003814697","202425","HierDynah26ajc","sub20","08","02","rl","test","65","img/p_d_check.png","1","65","pattern,color,shape","68","1",""
"null","203432","HierDynah26ajc","sub20","08","02","feedback","test","null","","","na","","68","",""
"1228.3000001907349","204661","HierDynah26ajc","sub20","08","02","rl","test","74","img/p_t_diag.png","6","74","pattern,color,shape","69","1",""
"null","205664","HierDynah26ajc","sub20","08","02","feedback","test","null","","","na","","69","",""
"2023.1000003814697","207688","HierDynah26ajc","sub20","08","02","rl","test","72","img/p_d_diag.png","5","72","pattern,color,shape","70","1",""
"null","208695","HierDynah26ajc","sub20","08","02","feedback","test","null","","","na","","70","",""
"647.3000001907349","209344","HierDynah26ajc","sub20","08","02","rl","test","74","img/p_t_diag.png","6","74","pattern,color,shape","71","1",""
"null","210352","HierDynah26ajc","sub20","08","02","feedback","test","null","","","na","","71","",""
"null","212856","HierDynah26ajc","sub20","08","02","rl","test","null","img/r_t_diag.png","8","76","pattern,color,shape","72","0",""
"null","213863","HierDynah26ajc","sub20","08","02","feedback","test","null","","","na","","72","",""
"500.5999994277954","214365","HierDynah26ajc","sub20","08","02","rl","test","70","img/r_t_diag.png","8","76","pattern,color,shape","73","0",""
"null","215376","HierDynah26ajc","sub20","08","02","feedback","test","null","","","na","","73","",""
"1334.1999998092651","216711","HierDynah26ajc","sub20","08","02","rl","test","83","img/p_t_check.png","2","83","pattern,color,shape","74","1",""
"null","217719","HierDynah26ajc","sub20","08","02","feedback","test","null","","","na","","74","",""
"606.8999996185303","218328","HierDynah26ajc","sub20","08","02","rl","test","65","img/p_d_check.png","1","65","pattern,color,shape","75","1",""
"null","219335","HierDynah26ajc","sub20","08","02","feedback","test","null","","","na","","75","",""
"673.1000003814697","220009","HierDynah26ajc","sub20","08","02","rl","test","83","img/p_t_check.png","2","83","pattern,color,shape","76","1",""
"null","221015","HierDynah26ajc","sub20","08","02","feedback","test","null","","","na","","76","",""
"808.1000003814697","221824","HierDynah26ajc","sub20","08","02","rl","test","74","img/p_d_diag.png","5","72","pattern,color,shape","77","0",""
"null","222831","HierDynah26ajc","sub20","08","02","feedback","test","null","","","na","","77","",""
"1264.2999992370605","224097","HierDynah26ajc","sub20","08","02","rl","test","70","img/r_d_check.png","3","68","pattern,color,shape","78","0",""
"null","225104","HierDynah26ajc","sub20","08","02","feedback","test","null","","","na","","78","",""
"1298.1000003814697","226403","HierDynah26ajc","sub20","08","02","rl","test","74","img/r_d_diag.png","7","75","pattern,color,shape","79","0",""
"null","227407","HierDynah26ajc","sub20","08","02","feedback","test","null","","","na","","79","",""
"821.6000003814697","228230","HierDynah26ajc","sub20","08","02","rl","test","65","img/p_d_check.png","1","65","pattern,color,shape","80","1",""
"null","229240","HierDynah26ajc","sub20","08","02","feedback","test","null","","","na","","80","",""
"1034","230275","HierDynah26ajc","sub20","08","02","rl","test","68","img/r_d_check.png","3","68","pattern,color,shape","81","1",""
"null","231279","HierDynah26ajc","sub20","08","02","feedback","test","null","","","na","","81","",""
"807.5","232087","HierDynah26ajc","sub20","08","02","rl","test","70","img/r_t_check.png","4","70","pattern,color,shape","82","1",""
"null","233095","HierDynah26ajc","sub20","08","02","feedback","test","null","","","na","","82","",""
"639.0999994277954","233735","HierDynah26ajc","sub20","08","02","rl","test","74","img/r_t_diag.png","8","76","pattern,color,shape","83","0",""
"null","234743","HierDynah26ajc","sub20","08","02","feedback","test","null","","","na","","83","",""
"980.5","235725","HierDynah26ajc","sub20","08","02","rl","test","83","img/p_t_check.png","2","83","pattern,color,shape","84","1",""
"null","236728","HierDynah26ajc","sub20","08","02","feedback","test","null","","","na","","84","",""
"905.1000003814697","237634","HierDynah26ajc","sub20","08","02","rl","test","70","img/r_t_check.png","4","70","pattern,color,shape","85","1",""
"null","238639","HierDynah26ajc","sub20","08","02","feedback","test","null","","","na","","85","",""
"1046.5","239687","HierDynah26ajc","sub20","08","02","rl","test","75","img/p_t_diag.png","6","74","pattern,color,shape","86","0",""
"null","240695","HierDynah26ajc","sub20","08","02","feedback","test","null","","","na","","86","",""
"746.4000005722046","241443","HierDynah26ajc","sub20","08","02","rl","test","76","img/p_d_diag.png","5","72","pattern,color,shape","87","0",""
"null","242447","HierDynah26ajc","sub20","08","02","feedback","test","null","","","na","","87","",""
"1948.8999996185303","244397","HierDynah26ajc","sub20","08","02","rl","test","74","img/r_d_diag.png","7","75","pattern,color,shape","88","0",""
"null","245399","HierDynah26ajc","sub20","08","02","feedback","test","null","","","na","","88","",""
"1653.8999996185303","247054","HierDynah26ajc","sub20","08","02","rl","test","72","img/r_d_diag.png","7","75","pattern,color,shape","89","0",""
"null","248063","HierDynah26ajc","sub20","08","02","feedback","test","null","","","na","","89","",""
"1507.3000001907349","249571","HierDynah26ajc","sub20","08","02","rl","test","75","img/p_t_diag.png","6","74","pattern,color,shape","90","0",""
"null","250575","HierDynah26ajc","sub20","08","02","feedback","test","null","","","na","","90","",""
"22.800000190734863","250599","HierDynah26ajc","sub20","08","02","rl","test","75","img/p_d_check.png","1","65","pattern,color,shape","91","0",""
"null","251607","HierDynah26ajc","sub20","08","02","feedback","test","null","","","na","","91","",""
"1254","252862","HierDynah26ajc","sub20","08","02","rl","test","68","img/r_d_check.png","3","68","pattern,color,shape","92","1",""
"null","253872","HierDynah26ajc","sub20","08","02","feedback","test","null","","","na","","92","",""
"758.6999998092651","254631","HierDynah26ajc","sub20","08","02","rl","test","74","img/p_d_diag.png","5","72","pattern,color,shape","93","0",""
"null","255639","HierDynah26ajc","sub20","08","02","feedback","test","null","","","na","","93","",""
"933.6000003814697","256574","HierDynah26ajc","sub20","08","02","rl","test","70","img/r_t_check.png","4","70","pattern,color,shape","94","1",""
"null","257584","HierDynah26ajc","sub20","08","02","feedback","test","null","","","na","","94","",""
"893.9000005722046","258479","HierDynah26ajc","sub20","08","02","rl","test","75","img/r_t_diag.png","8","76","pattern,color,shape","95","0",""
"null","259488","HierDynah26ajc","sub20","08","02","feedback","test","null","","","na","","95","",""
"1452.0999994277954","260941","HierDynah26ajc","sub20","08","02","rl","test","68","img/r_d_check.png","3","68","pattern,color,shape","96","1",""
"null","261943","HierDynah26ajc","sub20","08","02","feedback","test","null","","","na","","96","",""
"643.8000001907349","262588","HierDynah26ajc","sub20","08","02","rl","test","83","img/p_t_check.png","2","83","pattern,color,shape","97","1",""
"null","263591","HierDynah26ajc","sub20","08","02","feedback","test","null","","","na","","97","",""
"797.3000001907349","264389","HierDynah26ajc","sub20","08","02","rl","test","75","img/p_t_diag.png","6","74","pattern,color,shape","98","0",""
"null","265399","HierDynah26ajc","sub20","08","02","feedback","test","null","","","na","","98","",""
"651.8000001907349","266052","HierDynah26ajc","sub20","08","02","rl","test","68","img/r_t_check.png","4","70","pattern,color,shape","99","0",""
"null","267055","HierDynah26ajc","sub20","08","02","feedback","test","null","","","na","","99","",""
"734.5999994277954","267792","HierDynah26ajc","sub20","08","02","rl","test","74","img/p_d_diag.png","5","72","pattern,color,shape","100","0",""
"null","268799","HierDynah26ajc","sub20","08","02","feedback","test","null","","","na","","100","",""
"687.5","269487","HierDynah26ajc","sub20","08","02","rl","test","70","img/r_d_diag.png","7","75","pattern,color,shape","101","0",""
"null","270495","HierDynah26ajc","sub20","08","02","feedback","test","null","","","na","","101","",""
"961.9000005722046","271458","HierDynah26ajc","sub20","08","02","rl","test","83","img/p_t_check.png","2","83","pattern,color,shape","102","1",""
"null","272463","HierDynah26ajc","sub20","08","02","feedback","test","null","","","na","","102","",""
"904.0999994277954","273368","HierDynah26ajc","sub20","08","02","rl","test","75","img/r_d_diag.png","7","75","pattern,color,shape","103","1",""
"null","274375","HierDynah26ajc","sub20","08","02","feedback","test","null","","","na","","103","",""
"944.3000001907349","275321","HierDynah26ajc","sub20","08","02","rl","test","65","img/p_d_check.png","1","65","pattern,color,shape","104","1",""
"null","276328","HierDynah26ajc","sub20","08","02","feedback","test","null","","","na","","104","",""
"589.5","276919","HierDynah26ajc","sub20","08","02","rl","test","65","img/p_d_check.png","1","65","pattern,color,shape","105","1",""
"null","277927","HierDynah26ajc","sub20","08","02","feedback","test","null","","","na","","105","",""
"1394.0999994277954","279323","HierDynah26ajc","sub20","08","02","rl","test","74","img/r_t_diag.png","8","76","pattern,color,shape","106","0",""
"null","280327","HierDynah26ajc","sub20","08","02","feedback","test","null","","","na","","106","",""
"819.4000005722046","281148","HierDynah26ajc","sub20","08","02","rl","test","72","img/p_t_diag.png","6","74","pattern,color,shape","107","0",""
"null","282151","HierDynah26ajc","sub20","08","02","feedback","test","null","","","na","","107","",""
"1237.1000003814697","283389","HierDynah26ajc","sub20","08","02","rl","test","72","img/r_t_diag.png","8","76","pattern,color,shape","108","0",""
"null","284392","HierDynah26ajc","sub20","08","02","feedback","test","null","","","na","","108","",""
"1103.6000003814697","285497","HierDynah26ajc","sub20","08","02","rl","test","70","img/r_t_check.png","4","70","pattern,color,shape","109","1",""
"null","286504","HierDynah26ajc","sub20","08","02","feedback","test","null","","","na","","109","",""
"502.30000019073486","287007","HierDynah26ajc","sub20","08","02","rl","test","68","img/r_d_check.png","3","68","pattern,color,shape","110","1",""
"null","288015","HierDynah26ajc","sub20","08","02","feedback","test","null","","","na","","110","",""
"440.5","288457","HierDynah26ajc","sub20","08","02","rl","test","75","img/r_d_diag.png","7","75","pattern,color,shape","111","1",""
"null","289463","HierDynah26ajc","sub20","08","02","feedback","test","null","","","na","","111","",""
"822.4000005722046","290287","HierDynah26ajc","sub20","08","02","rl","test","70","img/r_t_check.png","4","70","pattern,color,shape","112","1",""
"null","291295","HierDynah26ajc","sub20","08","02","feedback","test","null","","","na","","112","",""
"1391.3999996185303","292688","HierDynah26ajc","sub20","08","02","rl","test","76","img/p_t_diag.png","6","74","pattern,color,shape","113","0",""
"null","293695","HierDynah26ajc","sub20","08","02","feedback","test","null","","","na","","113","",""
"949.3000001907349","294646","HierDynah26ajc","sub20","08","02","rl","test","76","img/p_d_diag.png","5","72","pattern,color,shape","114","0",""
"null","295655","HierDynah26ajc","sub20","08","02","feedback","test","null","","","na","","114","",""
"728.5","296384","HierDynah26ajc","sub20","08","02","rl","test","75","img/r_t_diag.png","8","76","pattern,color,shape","115","0",""
"null","297392","HierDynah26ajc","sub20","08","02","feedback","test","null","","","na","","115","",""
"1271.6000003814697","298664","HierDynah26ajc","sub20","08","02","rl","test","83","img/p_t_check.png","2","83","pattern,color,shape","116","1",""
"null","299671","HierDynah26ajc","sub20","08","02","feedback","test","null","","","na","","116","",""
"549.2000007629395","300222","HierDynah26ajc","sub20","08","02","rl","test","83","img/p_t_check.png","2","83","pattern,color,shape","117","1",""
"null","301232","HierDynah26ajc","sub20","08","02","feedback","test","null","","","na","","117","",""
"1048.1999998092651","302281","HierDynah26ajc","sub20","08","02","rl","test","75","img/p_d_diag.png","5","72","pattern,color,shape","118","0",""
"null","303287","HierDynah26ajc","sub20","08","02","feedback","test","null","","","na","","118","",""
"738.5","304026","HierDynah26ajc","sub20","08","02","rl","test","83","img/r_d_check.png","3","68","pattern,color,shape","119","0",""
"null","305031","HierDynah26ajc","sub20","08","02","feedback","test","null","","","na","","119","",""
"1118.8000001907349","306151","HierDynah26ajc","sub20","08","02","rl","test","65","img/p_d_check.png","1","65","pattern,color,shape","120","1",""
"null","307159","HierDynah26ajc","sub20","08","02","feedback","test","null","","","na","","120","",""
"636.1000003814697","307797","HierDynah26ajc","sub20","08","02","rl","test","75","img/r_d_diag.png","7","75","pattern,color,shape","121","1",""
"null","308800","HierDynah26ajc","sub20","08","02","feedback","test","null","","","na","","121","",""
"864.2000007629395","309666","HierDynah26ajc","sub20","08","02","rl","test","65","img/p_d_check.png","1","65","pattern,color,shape","122","1",""
"null","310671","HierDynah26ajc","sub20","08","02","feedback","test","null","","","na","","122","",""
"null","313175","HierDynah26ajc","sub20","08","02","rl","test","null","img/p_d_diag.png","5","72","pattern,color,shape","123","0",""
"null","314184","HierDynah26ajc","sub20","08","02","feedback","test","null","","","na","","123","",""
"824.8000001907349","315009","HierDynah26ajc","sub20","08","02","rl","test","70","img/r_t_check.png","4","70","pattern,color,shape","124","1",""
"null","316015","HierDynah26ajc","sub20","08","02","feedback","test","null","","","na","","124","",""
"1150.5999994277954","317166","HierDynah26ajc","sub20","08","02","rl","test","68","img/r_d_check.png","3","68","pattern,color,shape","125","1",""
"null","318176","HierDynah26ajc","sub20","08","02","feedback","test","null","","","na","","125","",""
"919.3999996185303","319096","HierDynah26ajc","sub20","08","02","rl","test","75","img/r_t_diag.png","8","76","pattern,color,shape","126","0",""
"null","320103","HierDynah26ajc","sub20","08","02","feedback","test","null","","","na","","126","",""
"1517.8000001907349","321622","HierDynah26ajc","sub20","08","02","rl","test","83","img/p_t_check.png","2","83","pattern,color,shape","127","1",""
"null","322631","HierDynah26ajc","sub20","08","02","feedback","test","null","","","na","","127","",""
"636.3000001907349","323269","HierDynah26ajc","sub20","08","02","rl","test","75","img/p_t_diag.png","6","74","pattern,color,shape","128","0",""
"null","324271","HierDynah26ajc","sub20","08","02","feedback","test","null","","","na","","128","",""
"477.5999994277954","324750","HierDynah26ajc","sub20","08","02","rl","test","75","img/r_d_diag.png","7","75","pattern,color,shape","129","1",""
"null","325760","HierDynah26ajc","sub20","08","02","feedback","test","null","","","na","","129","",""
"792.8000001907349","326554","HierDynah26ajc","sub20","08","02","rl","test","74","img/p_d_diag.png","5","72","pattern,color,shape","130","0",""
"null","327559","HierDynah26ajc","sub20","08","02","feedback","test","null","","","na","","130","",""
"1260.6000003814697","328820","HierDynah26ajc","sub20","08","02","rl","test","83","img/p_t_check.png","2","83","pattern,color,shape","131","1",""
"null","329824","HierDynah26ajc","sub20","08","02","feedback","test","null","","","na","","131","",""
"646.9000005722046","330472","HierDynah26ajc","sub20","08","02","rl","test","75","img/r_d_diag.png","7","75","pattern,color,shape","132","1",""
"null","331479","HierDynah26ajc","sub20","08","02","feedback","test","null","","","na","","132","",""
"818.6000003814697","332299","HierDynah26ajc","sub20","08","02","rl","test","65","img/p_d_check.png","1","65","pattern,color,shape","133","1",""
"null","333303","HierDynah26ajc","sub20","08","02","feedback","test","null","","","na","","133","",""
"587.5","333892","HierDynah26ajc","sub20","08","02","rl","test","75","img/r_d_check.png","3","68","pattern,color,shape","134","0",""
"null","334895","HierDynah26ajc","sub20","08","02","feedback","test","null","","","na","","134","",""
"570.6000003814697","335467","HierDynah26ajc","sub20","08","02","rl","test","68","img/r_d_check.png","3","68","pattern,color,shape","135","1",""
"null","336471","HierDynah26ajc","sub20","08","02","feedback","test","null","","","na","","135","",""
"557.8000001907349","337030","HierDynah26ajc","sub20","08","02","rl","test","70","img/r_t_check.png","4","70","pattern,color,shape","136","1",""
"null","338032","HierDynah26ajc","sub20","08","02","feedback","test","null","","","na","","136","",""
"821.1000003814697","338854","HierDynah26ajc","sub20","08","02","rl","test","74","img/p_t_diag.png","6","74","pattern,color,shape","137","1",""
"null","339864","HierDynah26ajc","sub20","08","02","feedback","test","null","","","na","","137","",""
"1345.3999996185303","341210","HierDynah26ajc","sub20","08","02","rl","test","68","img/p_t_check.png","2","83","pattern,color,shape","138","0",""
"null","342216","HierDynah26ajc","sub20","08","02","feedback","test","null","","","na","","138","",""
"997.6999998092651","343215","HierDynah26ajc","sub20","08","02","rl","test","75","img/r_t_diag.png","8","76","pattern,color,shape","139","0",""
"null","344224","HierDynah26ajc","sub20","08","02","feedback","test","null","","","na","","139","",""
"470.5999994277954","344695","HierDynah26ajc","sub20","08","02","rl","test","74","img/p_t_diag.png","6","74","pattern,color,shape","140","1",""
"null","345703","HierDynah26ajc","sub20","08","02","feedback","test","null","","","na","","140","",""
"1080.5","346785","HierDynah26ajc","sub20","08","02","rl","test","72","img/p_d_diag.png","5","72","pattern,color,shape","141","1",""
"null","347792","HierDynah26ajc","sub20","08","02","feedback","test","null","","","na","","141","",""
"1364.8999996185303","349158","HierDynah26ajc","sub20","08","02","rl","test","68","img/r_t_check.png","4","70","pattern,color,shape","142","0",""
"null","350168","HierDynah26ajc","sub20","08","02","feedback","test","null","","","na","","142","",""
"2109.2000007629395","352279","HierDynah26ajc","sub20","08","02","rl","test","75","img/r_t_diag.png","8","76","pattern,color,shape","143","0",""
"null","353287","HierDynah26ajc","sub20","08","02","feedback","test","null","","","na","","143","",""
"820.8000001907349","354109","HierDynah26ajc","sub20","08","02","rl","test","70","img/r_t_check.png","4","70","pattern,color,shape","144","1",""
"null","355112","HierDynah26ajc","sub20","08","02","feedback","test","null","","","na","","144","",""
"899.8999996185303","356013","HierDynah26ajc","sub20","08","02","rl","test","65","img/p_d_check.png","1","65","pattern,color,shape","145","1",""
"null","357015","HierDynah26ajc","sub20","08","02","feedback","test","null","","","na","","145","",""
"1399","358416","HierDynah26ajc","sub20","08","02","rl","test","68","img/r_d_diag.png","7","75","pattern,color,shape","146","0",""
"null","359423","HierDynah26ajc","sub20","08","02","feedback","test","null","","","na","","146","",""
"1084.3999996185303","360508","HierDynah26ajc","sub20","08","02","rl","test","65","img/p_d_check.png","1","65","pattern,color,shape","147","1",""
"null","361511","HierDynah26ajc","sub20","08","02","feedback","test","null","","","na","","147","",""
"1571.6000003814697","363083","HierDynah26ajc","sub20","08","02","rl","test","70","img/r_d_check.png","3","68","pattern,color,shape","148","0",""
"null","364087","HierDynah26ajc","sub20","08","02","feedback","test","null","","","na","","148","",""
"1820.5999994277954","365909","HierDynah26ajc","sub20","08","02","rl","test","74","img/p_d_diag.png","5","72","pattern,color,shape","149","0",""
"null","366912","HierDynah26ajc","sub20","08","02","feedback","test","null","","","na","","149","",""
"1444.1999998092651","368357","HierDynah26ajc","sub20","08","02","rl","test","68","img/r_t_check.png","4","70","pattern,color,shape","150","0",""
"null","369360","HierDynah26ajc","sub20","08","02","feedback","test","null","","","na","","150","",""
"1671.4000005722046","371032","HierDynah26ajc","sub20","08","02","rl","test","83","img/p_t_check.png","2","83","pattern,color,shape","151","1",""
"null","372040","HierDynah26ajc","sub20","08","02","feedback","test","null","","","na","","151","",""
"912.1000003814697","372953","HierDynah26ajc","sub20","08","02","rl","test","83","img/p_t_check.png","2","83","pattern,color,shape","152","1",""
"null","373959","HierDynah26ajc","sub20","08","02","feedback","test","null","","","na","","152","",""
"1591.5","375552","HierDynah26ajc","sub20","08","02","rl","test","68","img/r_d_check.png","3","68","pattern,color,shape","153","1",""
"null","376560","HierDynah26ajc","sub20","08","02","feedback","test","null","","","na","","153","",""
"1100","377660","HierDynah26ajc","sub20","08","02","rl","test","75","img/p_t_diag.png","6","74","pattern,color,shape","154","0",""
"null","378663","HierDynah26ajc","sub20","08","02","feedback","test","null","","","na","","154","",""
"1009.7999992370605","379674","HierDynah26ajc","sub20","08","02","rl","test","65","img/p_d_check.png","1","65","pattern,color,shape","155","1",""
"null","380679","HierDynah26ajc","sub20","08","02","feedback","test","null","","","na","","155","",""
"939.3999996185303","381620","HierDynah26ajc","sub20","08","02","rl","test","75","img/r_t_diag.png","8","76","pattern,color,shape","156","0",""
"null","382623","HierDynah26ajc","sub20","08","02","feedback","test","null","","","na","","156","",""
"758.5","383382","HierDynah26ajc","sub20","08","02","rl","test","68","img/r_t_diag.png","8","76","pattern,color,shape","157","0",""
"null","384391","HierDynah26ajc","sub20","08","02","feedback","test","null","","","na","","157","",""
"1112","385504","HierDynah26ajc","sub20","08","02","rl","test","70","img/p_t_diag.png","6","74","pattern,color,shape","158","0",""
"null","386512","HierDynah26ajc","sub20","08","02","feedback","test","null","","","na","","158","",""
"906.1999998092651","387419","HierDynah26ajc","sub20","08","02","rl","test","70","img/p_d_diag.png","5","72","pattern,color,shape","159","0",""
"null","388424","HierDynah26ajc","sub20","08","02","feedback","test","null","","","na","","159","",""
"951.1000003814697","389376","HierDynah26ajc","sub20","08","02","rl","test","75","img/r_t_diag.png","8","76","pattern,color,shape","160","0",""
"null","390383","HierDynah26ajc","sub20","08","02","feedback","test","null","","","na","","160","",""
"492.29999923706055","390876","HierDynah26ajc","sub20","08","02","rl","test","76","img/r_d_diag.png","7","75","pattern,color,shape","161","0",""
"null","391880","HierDynah26ajc","sub20","08","02","feedback","test","null","","","na","","161","",""
"746.4000005722046","392628","HierDynah26ajc","sub20","08","02","rl","test","65","img/p_d_check.png","1","65","pattern,color,shape","162","1",""
"null","393631","HierDynah26ajc","sub20","08","02","feedback","test","null","","","na","","162","",""
"980.9000005722046","394613","HierDynah26ajc","sub20","08","02","rl","test","75","img/p_t_diag.png","6","74","pattern,color,shape","163","0",""
"null","395615","HierDynah26ajc","sub20","08","02","feedback","test","null","","","na","","163","",""
"640.3000001907349","396257","HierDynah26ajc","sub20","08","02","rl","test","75","img/p_d_diag.png","5","72","pattern,color,shape","164","0",""
"null","397263","HierDynah26ajc","sub20","08","02","feedback","test","null","","","na","","164","",""
"1713.3999996185303","398978","HierDynah26ajc","sub20","08","02","rl","test","68","img/r_t_check.png","4","70","pattern,color,shape","165","0",""
"null","399983","HierDynah26ajc","sub20","08","02","feedback","test","null","","","na","","165","",""
"942.8000001907349","400927","HierDynah26ajc","sub20","08","02","rl","test","65","img/p_t_check.png","2","83","pattern,color,shape","166","0",""
"null","401937","HierDynah26ajc","sub20","08","02","feedback","test","null","","","na","","166","",""
"889.3999996185303","402827","HierDynah26ajc","sub20","08","02","rl","test","74","img/r_d_diag.png","7","75","pattern,color,shape","167","0",""
"null","403832","HierDynah26ajc","sub20","08","02","feedback","test","null","","","na","","167","",""
"932.8000001907349","404765","HierDynah26ajc","sub20","08","02","rl","test","68","img/r_d_check.png","3","68","pattern,color,shape","168","1",""
"null","405767","HierDynah26ajc","sub20","08","02","feedback","test","null","","","na","","168","",""
"1275.1000003814697","407044","HierDynah26ajc","sub20","08","02","rl","test","65","img/p_d_check.png","1","65","pattern,color,shape","169","1",""
"null","408048","HierDynah26ajc","sub20","08","02","feedback","test","null","","","na","","169","",""
"796.6000003814697","408846","HierDynah26ajc","sub20","08","02","rl","test","68","img/r_d_check.png","3","68","pattern,color,shape","170","1",""
"null","409855","HierDynah26ajc","sub20","08","02","feedback","test","null","","","na","","170","",""
"892.3000001907349","410748","HierDynah26ajc","sub20","08","02","rl","test","70","img/r_t_diag.png","8","76","pattern,color,shape","171","0",""
"null","411751","HierDynah26ajc","sub20","08","02","feedback","test","null","","","na","","171","",""
"1108","412861","HierDynah26ajc","sub20","08","02","rl","test","74","img/p_d_diag.png","5","72","pattern,color,shape","172","0",""
"null","413864","HierDynah26ajc","sub20","08","02","feedback","test","null","","","na","","172","",""
"698.6000003814697","414564","HierDynah26ajc","sub20","08","02","rl","test","72","img/p_t_diag.png","6","74","pattern,color,shape","173","0",""
"null","415568","HierDynah26ajc","sub20","08","02","feedback","test","null","","","na","","173","",""
"1260.3000001907349","416830","HierDynah26ajc","sub20","08","02","rl","test","68","img/r_t_check.png","4","70","pattern,color,shape","174","0",""
"null","417839","HierDynah26ajc","sub20","08","02","feedback","test","null","","","na","","174","",""
"891.5999994277954","418731","HierDynah26ajc","sub20","08","02","rl","test","72","img/p_d_diag.png","5","72","pattern,color,shape","175","1",""
"null","419735","HierDynah26ajc","sub20","08","02","feedback","test","null","","","na","","175","",""
"1777.2000007629395","421514","HierDynah26ajc","sub20","08","02","rl","test","74","img/r_d_diag.png","7","75","pattern,color,shape","176","0",""
"null","422519","HierDynah26ajc","sub20","08","02","feedback","test","null","","","na","","176","",""
"1261","423781","HierDynah26ajc","sub20","08","02","rl","test","83","img/p_t_check.png","2","83","pattern,color,shape","177","1",""
"null","424783","HierDynah26ajc","sub20","08","02","feedback","test","null","","","na","","177","",""
"932.1999998092651","425716","HierDynah26ajc","sub20","08","02","rl","test","83","img/p_t_check.png","2","83","pattern,color,shape","178","1",""
"null","426719","HierDynah26ajc","sub20","08","02","feedback","test","null","","","na","","178","",""
"1011.8999996185303","427732","HierDynah26ajc","sub20","08","02","rl","test","75","img/r_t_diag.png","8","76","pattern,color,shape","179","0",""
"null","428736","HierDynah26ajc","sub20","08","02","feedback","test","null","","","na","","179","",""
"926","429663","HierDynah26ajc","sub20","08","02","rl","test","75","img/r_d_diag.png","7","75","pattern,color,shape","180","1",""
"null","430672","HierDynah26ajc","sub20","08","02","feedback","test","null","","","na","","180","",""
"871.1999998092651","431544","HierDynah26ajc","sub20","08","02","rl","test","65","img/p_d_check.png","1","65","pattern,color,shape","181","1",""
"null","432551","HierDynah26ajc","sub20","08","02","feedback","test","null","","","na","","181","",""
"1255.6000003814697","433808","HierDynah26ajc","sub20","08","02","rl","test","68","img/r_d_check.png","3","68","pattern,color,shape","182","1",""
"null","434816","HierDynah26ajc","sub20","08","02","feedback","test","null","","","na","","182","",""
"1781.3999996185303","436599","HierDynah26ajc","sub20","08","02","rl","test","74","img/p_t_diag.png","6","74","pattern,color,shape","183","1",""
"null","437607","HierDynah26ajc","sub20","08","02","feedback","test","null","","","na","","183","",""
"1075","438684","HierDynah26ajc","sub20","08","02","rl","test","65","img/p_d_check.png","1","65","pattern,color,shape","184","1",""
"null","439687","HierDynah26ajc","sub20","08","02","feedback","test","null","","","na","","184","",""
"974.6000003814697","440663","HierDynah26ajc","sub20","08","02","rl","test","68","img/r_t_check.png","4","70","pattern,color,shape","185","0",""
"null","441671","HierDynah26ajc","sub20","08","02","feedback","test","null","","","na","","185","",""
"803.6000003814697","442476","HierDynah26ajc","sub20","08","02","rl","test","74","img/r_d_diag.png","7","75","pattern,color,shape","186","0",""
"null","443480","HierDynah26ajc","sub20","08","02","feedback","test","null","","","na","","186","",""
"1006.5","444488","HierDynah26ajc","sub20","08","02","rl","test","74","img/p_t_diag.png","6","74","pattern,color,shape","187","1",""
"null","445495","HierDynah26ajc","sub20","08","02","feedback","test","null","","","na","","187","",""
"554.6000003814697","446051","HierDynah26ajc","sub20","08","02","rl","test","74","img/p_t_diag.png","6","74","pattern,color,shape","188","1",""
"null","447056","HierDynah26ajc","sub20","08","02","feedback","test","null","","","na","","188","",""
"1036.3999996185303","448094","HierDynah26ajc","sub20","08","02","rl","test","68","img/r_d_check.png","3","68","pattern,color,shape","189","1",""
"null","449104","HierDynah26ajc","sub20","08","02","feedback","test","null","","","na","","189","",""
"1295.6999998092651","450401","HierDynah26ajc","sub20","08","02","rl","test","72","img/p_d_diag.png","5","72","pattern,color,shape","190","1",""
"null","451407","HierDynah26ajc","sub20","08","02","feedback","test","null","","","na","","190","",""
"1577.5","452986","HierDynah26ajc","sub20","08","02","rl","test","83","img/p_t_check.png","2","83","pattern,color,shape","191","1",""
"null","453992","HierDynah26ajc","sub20","08","02","feedback","test","null","","","na","","191","",""
"975","454968","HierDynah26ajc","sub20","08","02","rl","test","70","img/r_t_check.png","4","70","pattern,color,shape","192","1",""
"null","455976","HierDynah26ajc","sub20","08","02","feedback","test","null","","","na","","192","",""
"1282.8999996185303","457259","HierDynah26ajc","sub20","08","02","rl","test","75","img/r_t_diag.png","8","76","pattern,color,shape","193","0",""
"null","458264","HierDynah26ajc","sub20","08","02","feedback","test","null","","","na","","193","",""
"957.1999998092651","459222","HierDynah26ajc","sub20","08","02","rl","test","74","img/r_d_check.png","3","68","pattern,color,shape","194","0",""
"null","460231","HierDynah26ajc","sub20","08","02","feedback","test","null","","","na","","194","",""
"1317.6999998092651","461550","HierDynah26ajc","sub20","08","02","rl","test","74","img/r_t_diag.png","8","76","pattern,color,shape","195","0",""
"null","462560","HierDynah26ajc","sub20","08","02","feedback","test","null","","","na","","195","",""
"936.3999996185303","463497","HierDynah26ajc","sub20","08","02","rl","test","65","img/p_d_check.png","1","65","pattern,color,shape","196","1",""
"null","464503","HierDynah26ajc","sub20","08","02","feedback","test","null","","","na","","196","",""
"797.1000003814697","465302","HierDynah26ajc","sub20","08","02","rl","test","70","img/r_t_check.png","4","70","pattern,color,shape","197","1",""
"null","466311","HierDynah26ajc","sub20","08","02","feedback","test","null","","","na","","197","",""
"1126.6999998092651","467439","HierDynah26ajc","sub20","08","02","rl","test","74","img/p_d_diag.png","5","72","pattern,color,shape","198","0",""
"null","468447","HierDynah26ajc","sub20","08","02","feedback","test","null","","","na","","198","",""
"2033.4000005722046","470482","HierDynah26ajc","sub20","08","02","rl","test","70","img/r_d_diag.png","7","75","pattern,color,shape","199","0",""
"null","471487","HierDynah26ajc","sub20","08","02","feedback","test","null","","","na","","199","",""
"837.4000005722046","472326","HierDynah26ajc","sub20","08","02","rl","test","83","img/p_t_check.png","2","83","pattern,color,shape","200","1",""
"null","473336","HierDynah26ajc","sub20","08","02","feedback","test","null","","","na","","200","",""
"916.1999998092651","474253","HierDynah26ajc","sub20","08","02","rl","test","70","img/r_t_check.png","4","70","pattern,color,shape","201","1",""
"null","475256","HierDynah26ajc","sub20","08","02","feedback","test","null","","","na","","201","",""
"965.3999996185303","476223","HierDynah26ajc","sub20","08","02","rl","test","65","img/p_d_check.png","1","65","pattern,color,shape","202","1",""
"null","477232","HierDynah26ajc","sub20","08","02","feedback","test","null","","","na","","202","",""
"1244.2999992370605","478477","HierDynah26ajc","sub20","08","02","rl","test","72","img/p_t_diag.png","6","74","pattern,color,shape","203","0",""
"null","479480","HierDynah26ajc","sub20","08","02","feedback","test","null","","","na","","203","",""
"1106.3999996185303","480587","HierDynah26ajc","sub20","08","02","rl","test","68","img/r_d_check.png","3","68","pattern,color,shape","204","1",""
"null","481592","HierDynah26ajc","sub20","08","02","feedback","test","null","","","na","","204","",""
"867.7999992370605","482462","HierDynah26ajc","sub20","08","02","rl","test","72","img/p_d_diag.png","5","72","pattern,color,shape","205","1",""
"null","483472","HierDynah26ajc","sub20","08","02","feedback","test","null","","","na","","205","",""
"1721.1000003814697","485194","HierDynah26ajc","sub20","08","02","rl","test","70","img/p_t_check.png","2","83","pattern,color,shape","206","0",""
"null","486200","HierDynah26ajc","sub20","08","02","feedback","test","null","","","na","","206","",""
"1308.3999996185303","487509","HierDynah26ajc","sub20","08","02","rl","test","72","img/p_d_diag.png","5","72","pattern,color,shape","207","1",""
"null","488511","HierDynah26ajc","sub20","08","02","feedback","test","null","","","na","","207","",""
"1433.8000001907349","489946","HierDynah26ajc","sub20","08","02","rl","test","74","img/r_t_diag.png","8","76","pattern,color,shape","208","0",""
"null","490951","HierDynah26ajc","sub20","08","02","feedback","test","null","","","na","","208","",""
"1363.1000003814697","492315","HierDynah26ajc","sub20","08","02","rl","test","83","img/p_t_check.png","2","83","pattern,color,shape","209","1",""
"null","493320","HierDynah26ajc","sub20","08","02","feedback","test","null","","","na","","209","",""
"994.8999996185303","494316","HierDynah26ajc","sub20","08","02","rl","test","75","img/r_d_diag.png","7","75","pattern,color,shape","210","1",""
"null","495319","HierDynah26ajc","sub20","08","02","feedback","test","null","","","na","","210","",""
"605.8000001907349","495926","HierDynah26ajc","sub20","08","02","rl","test","75","img/r_d_diag.png","7","75","pattern,color,shape","211","1",""
"null","496928","HierDynah26ajc","sub20","08","02","feedback","test","null","","","na","","211","",""
"939.8999996185303","497869","HierDynah26ajc","sub20","08","02","rl","test","65","img/p_d_check.png","1","65","pattern,color,shape","212","1",""
"null","498872","HierDynah26ajc","sub20","08","02","feedback","test","null","","","na","","212","",""
"1493.5","500367","HierDynah26ajc","sub20","08","02","rl","test","74","img/r_t_diag.png","8","76","pattern,color,shape","213","0",""
"null","501376","HierDynah26ajc","sub20","08","02","feedback","test","null","","","na","","213","",""
"1797.1999998092651","503175","HierDynah26ajc","sub20","08","02","rl","test","72","img/r_t_diag.png","8","76","pattern,color,shape","214","0",""
"null","504183","HierDynah26ajc","sub20","08","02","feedback","test","null","","","na","","214","",""
"1260.0999994277954","505444","HierDynah26ajc","sub20","08","02","rl","test","70","img/r_t_check.png","4","70","pattern,color,shape","215","1",""
"null","506447","HierDynah26ajc","sub20","08","02","feedback","test","null","","","na","","215","",""
"1229.5","507678","HierDynah26ajc","sub20","08","02","rl","test","68","img/r_d_check.png","3","68","pattern,color,shape","216","1",""
"null","508687","HierDynah26ajc","sub20","08","02","feedback","test","null","","","na","","216","",""
"1084.7000007629395","509773","HierDynah26ajc","sub20","08","02","rl","test","75","img/p_t_diag.png","6","74","pattern,color,shape","217","0",""
"null","510783","HierDynah26ajc","sub20","08","02","feedback","test","null","","","na","","217","",""
"1667","512452","HierDynah26ajc","sub20","08","02","rl","test","68","img/r_d_check.png","3","68","pattern,color,shape","218","1",""
"null","513456","HierDynah26ajc","sub20","08","02","feedback","test","null","","","na","","218","",""
"621.8999996185303","514079","HierDynah26ajc","sub20","08","02","rl","test","70","img/r_t_check.png","4","70","pattern,color,shape","219","1",""
"null","515087","HierDynah26ajc","sub20","08","02","feedback","test","null","","","na","","219","",""
"856.3000001907349","515945","HierDynah26ajc","sub20","08","02","rl","test","65","img/p_d_check.png","1","65","pattern,color,shape","220","1",""
"null","516952","HierDynah26ajc","sub20","08","02","feedback","test","null","","","na","","220","",""
"876","517829","HierDynah26ajc","sub20","08","02","rl","test","83","img/p_t_check.png","2","83","pattern,color,shape","221","1",""
"null","518831","HierDynah26ajc","sub20","08","02","feedback","test","null","","","na","","221","",""
"1111.3999996185303","519944","HierDynah26ajc","sub20","08","02","rl","test","74","img/p_d_diag.png","5","72","pattern,color,shape","222","0",""
"null","520952","HierDynah26ajc","sub20","08","02","feedback","test","null","","","na","","222","",""
"1943.0999994277954","522896","HierDynah26ajc","sub20","08","02","rl","test","75","img/r_t_diag.png","8","76","pattern,color,shape","223","0",""
"null","523903","HierDynah26ajc","sub20","08","02","feedback","test","null","","","na","","223","",""
"1315.1999998092651","525219","HierDynah26ajc","sub20","08","02","rl","test","72","img/p_t_diag.png","6","74","pattern,color,shape","224","0",""
"null","526223","HierDynah26ajc","sub20","08","02","feedback","test","null","","","na","","224","",""
"1147.9000005722046","527372","HierDynah26ajc","sub20","08","02","rl","test","70","img/r_d_diag.png","7","75","pattern,color,shape","225","0",""
"null","528375","HierDynah26ajc","sub20","08","02","feedback","test","null","","","na","","225","",""
"905.6999998092651","529282","HierDynah26ajc","sub20","08","02","rl","test","65","img/p_d_check.png","1","65","pattern,color,shape","226","1",""
"null","530287","HierDynah26ajc","sub20","08","02","feedback","test","null","","","na","","226","",""
"1299.0999994277954","531588","HierDynah26ajc","sub20","08","02","rl","test","74","img/p_t_diag.png","6","74","pattern,color,shape","227","1",""
"null","532592","HierDynah26ajc","sub20","08","02","feedback","test","null","","","na","","227","",""
"1046.0999994277954","533638","HierDynah26ajc","sub20","08","02","rl","test","68","img/r_d_check.png","3","68","pattern,color,shape","228","1",""
"null","534648","HierDynah26ajc","sub20","08","02","feedback","test","null","","","na","","228","",""
"1735","536384","HierDynah26ajc","sub20","08","02","rl","test","75","img/r_d_diag.png","7","75","pattern,color,shape","229","1",""
"null","537392","HierDynah26ajc","sub20","08","02","feedback","test","null","","","na","","229","",""
"1124.5","538517","HierDynah26ajc","sub20","08","02","rl","test","83","img/p_t_check.png","2","83","pattern,color,shape","230","1",""
"null","539520","HierDynah26ajc","sub20","08","02","feedback","test","null","","","na","","230","",""
"1000.0999994277954","540521","HierDynah26ajc","sub20","08","02","rl","test","75","img/r_d_diag.png","7","75","pattern,color,shape","231","1",""
"null","541528","HierDynah26ajc","sub20","08","02","feedback","test","null","","","na","","231","",""
"1157.5999994277954","542687","HierDynah26ajc","sub20","08","02","rl","test","70","img/r_t_check.png","4","70","pattern,color,shape","232","1",""
"null","543695","HierDynah26ajc","sub20","08","02","feedback","test","null","","","na","","232","",""
"1618","545314","HierDynah26ajc","sub20","08","02","rl","test","74","img/p_d_diag.png","5","72","pattern,color,shape","233","0",""
"null","546320","HierDynah26ajc","sub20","08","02","feedback","test","null","","","na","","233","",""
"564","546885","HierDynah26ajc","sub20","08","02","rl","test","72","img/p_d_diag.png","5","72","pattern,color,shape","234","1",""
"null","547888","HierDynah26ajc","sub20","08","02","feedback","test","null","","","na","","234","",""
"1055.6000003814697","548945","HierDynah26ajc","sub20","08","02","rl","test","83","img/p_t_check.png","2","83","pattern,color,shape","235","1",""
"null","549952","HierDynah26ajc","sub20","08","02","feedback","test","null","","","na","","235","",""
"961.5","550914","HierDynah26ajc","sub20","08","02","rl","test","68","img/r_d_check.png","3","68","pattern,color,shape","236","1",""
"null","551919","HierDynah26ajc","sub20","08","02","feedback","test","null","","","na","","236","",""
"899.4000005722046","552820","HierDynah26ajc","sub20","08","02","rl","test","70","img/r_t_check.png","4","70","pattern,color,shape","237","1",""
"null","553824","HierDynah26ajc","sub20","08","02","feedback","test","null","","","na","","237","",""
"959.9000005722046","554785","HierDynah26ajc","sub20","08","02","rl","test","75","img/r_t_diag.png","8","76","pattern,color,shape","238","0",""
"null","555791","HierDynah26ajc","sub20","08","02","feedback","test","null","","","na","","238","",""
"1734.3000001907349","557527","HierDynah26ajc","sub20","08","02","rl","test","68","img/r_d_check.png","3","68","pattern,color,shape","239","1",""
"null","558536","HierDynah26ajc","sub20","08","02","feedback","test","null","","","na","","239","",""
"847.8999996185303","559385","HierDynah26ajc","sub20","08","02","rl","test","83","img/p_d_check.png","1","65","pattern,color,shape","240","0",""
"null","560391","HierDynah26ajc","sub20","08","02","feedback","test","null","","","na","","240","",""
"506.1000003814697","560898","HierDynah26ajc","sub20","08","02","rl","test","65","img/p_d_check.png","1","65","pattern,color,shape","241","1",""
"null","561903","HierDynah26ajc","sub20","08","02","feedback","test","null","","","na","","241","",""
"2287.4000005722046","564191","HierDynah26ajc","sub20","08","02","rl","test","72","img/p_t_diag.png","6","74","pattern,color,shape","242","0",""
"null","565200","HierDynah26ajc","sub20","08","02","feedback","test","null","","","na","","242","",""
"1782.8999996185303","566983","HierDynah26ajc","sub20","08","02","rl","test","70","img/p_t_check.png","2","83","pattern,color,shape","243","0",""
"null","567991","HierDynah26ajc","sub20","08","02","feedback","test","null","","","na","","243","",""
"724.1000003814697","568716","HierDynah26ajc","sub20","08","02","rl","test","74","img/p_t_diag.png","6","74","pattern,color,shape","244","1",""
"null","569720","HierDynah26ajc","sub20","08","02","feedback","test","null","","","na","","244","",""
"1902.5","571625","HierDynah26ajc","sub20","08","02","rl","test","75","img/r_t_diag.png","8","76","pattern,color,shape","245","0",""
"null","572631","HierDynah26ajc","sub20","08","02","feedback","test","null","","","na","","245","",""
"664.1999998092651","573297","HierDynah26ajc","sub20","08","02","rl","test","75","img/r_d_diag.png","7","75","pattern,color,shape","246","1",""
"null","574303","HierDynah26ajc","sub20","08","02","feedback","test","null","","","na","","246","",""
"2147.5999994277954","576452","HierDynah26ajc","sub20","08","02","rl","test","75","img/p_d_diag.png","5","72","pattern,color,shape","247","0",""
"null","577455","HierDynah26ajc","sub20","08","02","feedback","test","null","","","na","","247","",""
"1100.9000005722046","578557","HierDynah26ajc","sub20","08","02","rl","test","70","img/r_t_check.png","4","70","pattern,color,shape","248","1",""
"null","579560","HierDynah26ajc","sub20","08","02","feedback","test","null","","","na","","248","",""
"40175.300000190735","619741","HierDynah26ajc","sub20","08","02","","","","","","","","","","{""Q0"":""5""}"
"39319.699999809265","659066","HierDynah26ajc","sub20","08","02","","","","","","","","","","{""Q0"":""I kept a mental not of what shape/color combo matched with what letter by saying it under my breath.""}"
"5576","664643","HierDynah26ajc","sub20","08","02","","","","","","","","","",""
