"rt","responses","time_elapsed","subject","prolificID","demoID","trialType","stimulus","key_press","corrresp","phase","stimNum","trialNum","corr","repeatTrial","motorSwitch","pracCounter","hierarchy"
"13242","{""Q0"":""msl000824""}","13289","HierDyeoydg61w","b0u995rqhs","msl000824","","","","","","","","","","","",""
"915","","14210","HierDyeoydg61w","b0u995rqhs","msl000824","","","","","","","","","","","",""
"","","16135","HierDyeoydg61w","b0u995rqhs","msl000824","fullscreen","","","","","","","","","","",""
"45248","","61393","HierDyeoydg61w","b0u995rqhs","msl000824","","","","","","","","","","","",""
"933","","62336","HierDyeoydg61w","b0u995rqhs","msl000824","motor","img/motor_5.png","72","72","motor","5","1","1","0","0","",""
"null","","62446","HierDyeoydg61w","b0u995rqhs","msl000824","iti","img/motor_blank.png","null","72","motor","","","","","","",""
"698","","63152","HierDyeoydg61w","b0u995rqhs","msl000824","motor","img/motor_3.png","68","68","motor","3","2","1","0","0","",""
"null","","63262","HierDyeoydg61w","b0u995rqhs","msl000824","iti","img/motor_blank.png","null","68","motor","","","","","","",""
"544","","63814","HierDyeoydg61w","b0u995rqhs","msl000824","motor","img/motor_8.png","76","76","motor","8","3","1","0","0","",""
"null","","63922","HierDyeoydg61w","b0u995rqhs","msl000824","iti","img/motor_blank.png","null","76","motor","","","","","","",""
"553","","64485","HierDyeoydg61w","b0u995rqhs","msl000824","motor","img/motor_7.png","75","75","motor","7","4","1","0","0","",""
"null","","64595","HierDyeoydg61w","b0u995rqhs","msl000824","iti","img/motor_blank.png","null","75","motor","","","","","","",""
"578","","65181","HierDyeoydg61w","b0u995rqhs","msl000824","motor","img/motor_2.png","83","83","motor","2","5","1","0","0","",""
"null","","65290","HierDyeoydg61w","b0u995rqhs","msl000824","iti","img/motor_blank.png","null","83","motor","","","","","","",""
"469","","65768","HierDyeoydg61w","b0u995rqhs","msl000824","motor","img/motor_2.png","83","83","motor","2","6","1","0","0","",""
"null","","65879","HierDyeoydg61w","b0u995rqhs","msl000824","iti","img/motor_blank.png","null","83","motor","","","","","","",""
"614","","66500","HierDyeoydg61w","b0u995rqhs","msl000824","motor","img/motor_6.png","74","74","motor","6","7","1","0","0","",""
"null","","66610","HierDyeoydg61w","b0u995rqhs","msl000824","iti","img/motor_blank.png","null","74","motor","","","","","","",""
"510","","67128","HierDyeoydg61w","b0u995rqhs","msl000824","motor","img/motor_5.png","72","72","motor","5","8","1","0","0","",""
"null","","67239","HierDyeoydg61w","b0u995rqhs","msl000824","iti","img/motor_blank.png","null","72","motor","","","","","","",""
"515","","67762","HierDyeoydg61w","b0u995rqhs","msl000824","motor","img/motor_7.png","75","75","motor","7","9","1","0","0","",""
"null","","67869","HierDyeoydg61w","b0u995rqhs","msl000824","iti","img/motor_blank.png","null","75","motor","","","","","","",""
"546","","68422","HierDyeoydg61w","b0u995rqhs","msl000824","motor","img/motor_2.png","83","83","motor","2","10","1","0","0","",""
"null","","68532","HierDyeoydg61w","b0u995rqhs","msl000824","iti","img/motor_blank.png","null","83","motor","","","","","","",""
"545","","69086","HierDyeoydg61w","b0u995rqhs","msl000824","motor","img/motor_6.png","74","74","motor","6","11","1","0","0","",""
"null","","69196","HierDyeoydg61w","b0u995rqhs","msl000824","iti","img/motor_blank.png","null","74","motor","","","","","","",""
"554","","69758","HierDyeoydg61w","b0u995rqhs","msl000824","motor","img/motor_3.png","68","68","motor","3","12","1","0","0","",""
"null","","69869","HierDyeoydg61w","b0u995rqhs","msl000824","iti","img/motor_blank.png","null","68","motor","","","","","","",""
"539","","70416","HierDyeoydg61w","b0u995rqhs","msl000824","motor","img/motor_7.png","75","75","motor","7","13","1","0","0","",""
"null","","70526","HierDyeoydg61w","b0u995rqhs","msl000824","iti","img/motor_blank.png","null","75","motor","","","","","","",""
"559","","71094","HierDyeoydg61w","b0u995rqhs","msl000824","motor","img/motor_4.png","70","70","motor","4","14","1","0","0","",""
"null","","71204","HierDyeoydg61w","b0u995rqhs","msl000824","iti","img/motor_blank.png","null","70","motor","","","","","","",""
"543","","71758","HierDyeoydg61w","b0u995rqhs","msl000824","motor","img/motor_1.png","65","65","motor","1","15","1","0","0","",""
"null","","71868","HierDyeoydg61w","b0u995rqhs","msl000824","iti","img/motor_blank.png","null","65","motor","","","","","","",""
"470","","72348","HierDyeoydg61w","b0u995rqhs","msl000824","motor","img/motor_2.png","83","83","motor","2","16","1","0","0","",""
"null","","72458","HierDyeoydg61w","b0u995rqhs","msl000824","iti","img/motor_blank.png","null","83","motor","","","","","","",""
"436","","72905","HierDyeoydg61w","b0u995rqhs","msl000824","motor","img/motor_7.png","75","75","motor","7","17","1","0","0","",""
"null","","73015","HierDyeoydg61w","b0u995rqhs","msl000824","iti","img/motor_blank.png","null","75","motor","","","","","","",""
"457","","73480","HierDyeoydg61w","b0u995rqhs","msl000824","motor","img/motor_1.png","65","65","motor","1","18","1","0","0","",""
"null","","73591","HierDyeoydg61w","b0u995rqhs","msl000824","iti","img/motor_blank.png","null","65","motor","","","","","","",""
"407","","74009","HierDyeoydg61w","b0u995rqhs","msl000824","motor","img/motor_2.png","83","83","motor","2","19","1","0","0","",""
"null","","74120","HierDyeoydg61w","b0u995rqhs","msl000824","iti","img/motor_blank.png","null","83","motor","","","","","","",""
"431","","74561","HierDyeoydg61w","b0u995rqhs","msl000824","motor","img/motor_7.png","75","75","motor","7","20","1","0","0","",""
"null","","74672","HierDyeoydg61w","b0u995rqhs","msl000824","iti","img/motor_blank.png","null","75","motor","","","","","","",""
"443","","75123","HierDyeoydg61w","b0u995rqhs","msl000824","motor","img/motor_7.png","75","75","motor","7","21","1","0","0","",""
"null","","75234","HierDyeoydg61w","b0u995rqhs","msl000824","iti","img/motor_blank.png","null","75","motor","","","","","","",""
"519","","75764","HierDyeoydg61w","b0u995rqhs","msl000824","motor","img/motor_5.png","72","72","motor","5","22","1","0","0","",""
"null","","75874","HierDyeoydg61w","b0u995rqhs","msl000824","iti","img/motor_blank.png","null","72","motor","","","","","","",""
"429","","76312","HierDyeoydg61w","b0u995rqhs","msl000824","motor","img/motor_2.png","83","83","motor","2","23","1","0","0","",""
"null","","76421","HierDyeoydg61w","b0u995rqhs","msl000824","iti","img/motor_blank.png","null","83","motor","","","","","","",""
"560","","76990","HierDyeoydg61w","b0u995rqhs","msl000824","motor","img/motor_4.png","70","70","motor","4","24","1","0","0","",""
"null","","77101","HierDyeoydg61w","b0u995rqhs","msl000824","iti","img/motor_blank.png","null","70","motor","","","","","","",""
"436","","77547","HierDyeoydg61w","b0u995rqhs","msl000824","motor","img/motor_1.png","65","65","motor","1","25","1","0","0","",""
"null","","77657","HierDyeoydg61w","b0u995rqhs","msl000824","iti","img/motor_blank.png","null","65","motor","","","","","","",""
"448","","78114","HierDyeoydg61w","b0u995rqhs","msl000824","motor","img/motor_1.png","65","65","motor","1","26","1","0","0","",""
"null","","78224","HierDyeoydg61w","b0u995rqhs","msl000824","iti","img/motor_blank.png","null","65","motor","","","","","","",""
"470","","78702","HierDyeoydg61w","b0u995rqhs","msl000824","motor","img/motor_7.png","75","75","motor","7","27","1","0","0","",""
"null","","78810","HierDyeoydg61w","b0u995rqhs","msl000824","iti","img/motor_blank.png","null","75","motor","","","","","","",""
"634","","79453","HierDyeoydg61w","b0u995rqhs","msl000824","motor","img/motor_3.png","68","68","motor","3","28","1","0","0","",""
"null","","79564","HierDyeoydg61w","b0u995rqhs","msl000824","iti","img/motor_blank.png","null","68","motor","","","","","","",""
"418","","79991","HierDyeoydg61w","b0u995rqhs","msl000824","motor","img/motor_3.png","68","68","motor","3","29","1","0","0","",""
"null","","80102","HierDyeoydg61w","b0u995rqhs","msl000824","iti","img/motor_blank.png","null","68","motor","","","","","","",""
"483","","80593","HierDyeoydg61w","b0u995rqhs","msl000824","motor","img/motor_6.png","74","74","motor","6","30","1","0","0","",""
"null","","80703","HierDyeoydg61w","b0u995rqhs","msl000824","iti","img/motor_blank.png","null","74","motor","","","","","","",""
"498","","81209","HierDyeoydg61w","b0u995rqhs","msl000824","motor","img/motor_1.png","65","65","motor","1","31","1","0","0","",""
"null","","81319","HierDyeoydg61w","b0u995rqhs","msl000824","iti","img/motor_blank.png","null","65","motor","","","","","","",""
"458","","81786","HierDyeoydg61w","b0u995rqhs","msl000824","motor","img/motor_7.png","75","75","motor","7","32","1","0","0","",""
"null","","81896","HierDyeoydg61w","b0u995rqhs","msl000824","iti","img/motor_blank.png","null","75","motor","","","","","","",""
"399","","82304","HierDyeoydg61w","b0u995rqhs","msl000824","motor","img/motor_7.png","75","75","motor","7","33","1","0","0","",""
"null","","82413","HierDyeoydg61w","b0u995rqhs","msl000824","iti","img/motor_blank.png","null","75","motor","","","","","","",""
"439","","82861","HierDyeoydg61w","b0u995rqhs","msl000824","motor","img/motor_1.png","65","65","motor","1","34","1","0","0","",""
"null","","82970","HierDyeoydg61w","b0u995rqhs","msl000824","iti","img/motor_blank.png","null","65","motor","","","","","","",""
"439","","83418","HierDyeoydg61w","b0u995rqhs","msl000824","motor","img/motor_2.png","83","83","motor","2","35","1","0","0","",""
"null","","83527","HierDyeoydg61w","b0u995rqhs","msl000824","iti","img/motor_blank.png","null","83","motor","","","","","","",""
"600","","84136","HierDyeoydg61w","b0u995rqhs","msl000824","motor","img/motor_8.png","76","76","motor","8","36","1","0","0","",""
"null","","84246","HierDyeoydg61w","b0u995rqhs","msl000824","iti","img/motor_blank.png","null","76","motor","","","","","","",""
"435","","84688","HierDyeoydg61w","b0u995rqhs","msl000824","motor","img/motor_2.png","83","83","motor","2","37","1","0","0","",""
"null","","84800","HierDyeoydg61w","b0u995rqhs","msl000824","iti","img/motor_blank.png","null","83","motor","","","","","","",""
"466","","85273","HierDyeoydg61w","b0u995rqhs","msl000824","motor","img/motor_6.png","75","74","motor","6","38","0","1","0","",""
"383","","85667","HierDyeoydg61w","b0u995rqhs","msl000824","motorRepeat","img/motor_6.png","74","74","motor","6","38","1","0","0","",""
"null","","85777","HierDyeoydg61w","b0u995rqhs","msl000824","iti","img/motor_blank.png","null","74","motor","","","","","","",""
"476","","86261","HierDyeoydg61w","b0u995rqhs","msl000824","motor","img/motor_2.png","83","83","motor","2","39","1","0","0","",""
"null","","86371","HierDyeoydg61w","b0u995rqhs","msl000824","iti","img/motor_blank.png","null","83","motor","","","","","","",""
"476","","86854","HierDyeoydg61w","b0u995rqhs","msl000824","motor","img/motor_7.png","75","75","motor","7","40","1","0","0","",""
"null","","86965","HierDyeoydg61w","b0u995rqhs","msl000824","iti","img/motor_blank.png","null","75","motor","","","","","","",""
"439","","87412","HierDyeoydg61w","b0u995rqhs","msl000824","motor","img/motor_6.png","74","74","motor","6","41","1","0","0","",""
"null","","87520","HierDyeoydg61w","b0u995rqhs","msl000824","iti","img/motor_blank.png","null","74","motor","","","","","","",""
"408","","87935","HierDyeoydg61w","b0u995rqhs","msl000824","motor","img/motor_2.png","83","83","motor","2","42","1","0","0","",""
"null","","88044","HierDyeoydg61w","b0u995rqhs","msl000824","iti","img/motor_blank.png","null","83","motor","","","","","","",""
"505","","88557","HierDyeoydg61w","b0u995rqhs","msl000824","motor","img/motor_7.png","75","75","motor","7","43","1","0","0","",""
"null","","88666","HierDyeoydg61w","b0u995rqhs","msl000824","iti","img/motor_blank.png","null","75","motor","","","","","","",""
"565","","89238","HierDyeoydg61w","b0u995rqhs","msl000824","motor","img/motor_4.png","70","70","motor","4","44","1","0","0","",""
"null","","89348","HierDyeoydg61w","b0u995rqhs","msl000824","iti","img/motor_blank.png","null","70","motor","","","","","","",""
"421","","89778","HierDyeoydg61w","b0u995rqhs","msl000824","motor","img/motor_1.png","65","65","motor","1","45","1","0","0","",""
"null","","89886","HierDyeoydg61w","b0u995rqhs","msl000824","iti","img/motor_blank.png","null","65","motor","","","","","","",""
"569","","90464","HierDyeoydg61w","b0u995rqhs","msl000824","motor","img/motor_6.png","74","74","motor","6","46","1","0","0","",""
"null","","90573","HierDyeoydg61w","b0u995rqhs","msl000824","iti","img/motor_blank.png","null","74","motor","","","","","","",""
"460","","91043","HierDyeoydg61w","b0u995rqhs","msl000824","motor","img/motor_7.png","75","75","motor","7","47","1","0","0","",""
"null","","91149","HierDyeoydg61w","b0u995rqhs","msl000824","iti","img/motor_blank.png","null","75","motor","","","","","","",""
"429","","91587","HierDyeoydg61w","b0u995rqhs","msl000824","motor","img/motor_7.png","75","75","motor","7","48","1","0","0","",""
"null","","91697","HierDyeoydg61w","b0u995rqhs","msl000824","iti","img/motor_blank.png","null","75","motor","","","","","","",""
"525","","92230","HierDyeoydg61w","b0u995rqhs","msl000824","motor","img/motor_3.png","68","68","motor","3","49","1","0","0","",""
"null","","92340","HierDyeoydg61w","b0u995rqhs","msl000824","iti","img/motor_blank.png","null","68","motor","","","","","","",""
"534","","92884","HierDyeoydg61w","b0u995rqhs","msl000824","motor","img/motor_4.png","70","70","motor","4","50","1","0","0","",""
"null","","92994","HierDyeoydg61w","b0u995rqhs","msl000824","iti","img/motor_blank.png","null","70","motor","","","","","","",""
"442","","93445","HierDyeoydg61w","b0u995rqhs","msl000824","motor","img/motor_2.png","83","83","motor","2","51","1","0","0","",""
"null","","93554","HierDyeoydg61w","b0u995rqhs","msl000824","iti","img/motor_blank.png","null","83","motor","","","","","","",""
"450","","94012","HierDyeoydg61w","b0u995rqhs","msl000824","motor","img/motor_7.png","75","75","motor","7","52","1","0","0","",""
"null","","94121","HierDyeoydg61w","b0u995rqhs","msl000824","iti","img/motor_blank.png","null","75","motor","","","","","","",""
"504","","94633","HierDyeoydg61w","b0u995rqhs","msl000824","motor","img/motor_2.png","83","83","motor","2","53","1","0","0","",""
"null","","94743","HierDyeoydg61w","b0u995rqhs","msl000824","iti","img/motor_blank.png","null","83","motor","","","","","","",""
"490","","95243","HierDyeoydg61w","b0u995rqhs","msl000824","motor","img/motor_4.png","70","70","motor","4","54","1","0","0","",""
"null","","95351","HierDyeoydg61w","b0u995rqhs","msl000824","iti","img/motor_blank.png","null","70","motor","","","","","","",""
"473","","95833","HierDyeoydg61w","b0u995rqhs","msl000824","motor","img/motor_6.png","74","74","motor","6","55","1","0","0","",""
"null","","95943","HierDyeoydg61w","b0u995rqhs","msl000824","iti","img/motor_blank.png","null","74","motor","","","","","","",""
"436","","96386","HierDyeoydg61w","b0u995rqhs","msl000824","motor","img/motor_6.png","74","74","motor","6","56","1","0","0","",""
"null","","96496","HierDyeoydg61w","b0u995rqhs","msl000824","iti","img/motor_blank.png","null","74","motor","","","","","","",""
"491","","96995","HierDyeoydg61w","b0u995rqhs","msl000824","motor","img/motor_1.png","65","65","motor","1","57","1","0","0","",""
"null","","97103","HierDyeoydg61w","b0u995rqhs","msl000824","iti","img/motor_blank.png","null","65","motor","","","","","","",""
"508","","97617","HierDyeoydg61w","b0u995rqhs","msl000824","motor","img/motor_2.png","83","83","motor","2","58","1","0","0","",""
"null","","97724","HierDyeoydg61w","b0u995rqhs","msl000824","iti","img/motor_blank.png","null","83","motor","","","","","","",""
"475","","98207","HierDyeoydg61w","b0u995rqhs","msl000824","motor","img/motor_8.png","76","76","motor","8","59","1","0","0","",""
"null","","98317","HierDyeoydg61w","b0u995rqhs","msl000824","iti","img/motor_blank.png","null","76","motor","","","","","","",""
"604","","98927","HierDyeoydg61w","b0u995rqhs","msl000824","motor","img/motor_7.png","75","75","motor","7","60","1","0","0","",""
"null","","99038","HierDyeoydg61w","b0u995rqhs","msl000824","iti","img/motor_blank.png","null","75","motor","","","","","","",""
"451","","99496","HierDyeoydg61w","b0u995rqhs","msl000824","motor","img/motor_1.png","65","65","motor","1","61","1","0","0","",""
"null","","99604","HierDyeoydg61w","b0u995rqhs","msl000824","iti","img/motor_blank.png","null","65","motor","","","","","","",""
"516","","100129","HierDyeoydg61w","b0u995rqhs","msl000824","motor","img/motor_6.png","75","74","motor","6","62","0","1","0","",""
"349","","100485","HierDyeoydg61w","b0u995rqhs","msl000824","motorRepeat","img/motor_6.png","74","74","motor","6","62","1","0","0","",""
"null","","100593","HierDyeoydg61w","b0u995rqhs","msl000824","iti","img/motor_blank.png","null","74","motor","","","","","","",""
"584","","101185","HierDyeoydg61w","b0u995rqhs","msl000824","motor","img/motor_8.png","76","76","motor","8","63","1","0","0","",""
"null","","101295","HierDyeoydg61w","b0u995rqhs","msl000824","iti","img/motor_blank.png","null","76","motor","","","","","","",""
"431","","101735","HierDyeoydg61w","b0u995rqhs","msl000824","motor","img/motor_2.png","83","83","motor","2","64","1","0","0","",""
"null","","101842","HierDyeoydg61w","b0u995rqhs","msl000824","iti","img/motor_blank.png","null","83","motor","","","","","","",""
"525","","102373","HierDyeoydg61w","b0u995rqhs","msl000824","motor","img/motor_5.png","72","72","motor","5","65","1","0","0","",""
"null","","102480","HierDyeoydg61w","b0u995rqhs","msl000824","iti","img/motor_blank.png","null","72","motor","","","","","","",""
"516","","103006","HierDyeoydg61w","b0u995rqhs","msl000824","motor","img/motor_6.png","74","74","motor","6","66","1","0","0","",""
"null","","103116","HierDyeoydg61w","b0u995rqhs","msl000824","iti","img/motor_blank.png","null","74","motor","","","","","","",""
"541","","103665","HierDyeoydg61w","b0u995rqhs","msl000824","motor","img/motor_5.png","72","72","motor","5","67","1","0","0","",""
"null","","103771","HierDyeoydg61w","b0u995rqhs","msl000824","iti","img/motor_blank.png","null","72","motor","","","","","","",""
"450","","104230","HierDyeoydg61w","b0u995rqhs","msl000824","motor","img/motor_6.png","74","74","motor","6","68","1","0","0","",""
"null","","104340","HierDyeoydg61w","b0u995rqhs","msl000824","iti","img/motor_blank.png","null","74","motor","","","","","","",""
"422","","104769","HierDyeoydg61w","b0u995rqhs","msl000824","motor","img/motor_2.png","83","83","motor","2","69","1","0","0","",""
"null","","104877","HierDyeoydg61w","b0u995rqhs","msl000824","iti","img/motor_blank.png","null","83","motor","","","","","","",""
"463","","105347","HierDyeoydg61w","b0u995rqhs","msl000824","motor","img/motor_8.png","76","76","motor","8","70","1","0","0","",""
"null","","105457","HierDyeoydg61w","b0u995rqhs","msl000824","iti","img/motor_blank.png","null","76","motor","","","","","","",""
"465","","105931","HierDyeoydg61w","b0u995rqhs","msl000824","motor","img/motor_1.png","65","65","motor","1","71","1","0","0","",""
"null","","106042","HierDyeoydg61w","b0u995rqhs","msl000824","iti","img/motor_blank.png","null","65","motor","","","","","","",""
"428","","106478","HierDyeoydg61w","b0u995rqhs","msl000824","motor","img/motor_8.png","76","76","motor","8","72","1","0","0","",""
"null","","106588","HierDyeoydg61w","b0u995rqhs","msl000824","iti","img/motor_blank.png","null","76","motor","","","","","","",""
"514","","107109","HierDyeoydg61w","b0u995rqhs","msl000824","motor","img/motor_4.png","70","70","motor","4","73","1","0","0","",""
"null","","107220","HierDyeoydg61w","b0u995rqhs","msl000824","iti","img/motor_blank.png","null","70","motor","","","","","","",""
"477","","107704","HierDyeoydg61w","b0u995rqhs","msl000824","motor","img/motor_5.png","72","72","motor","5","74","1","0","0","",""
"null","","107810","HierDyeoydg61w","b0u995rqhs","msl000824","iti","img/motor_blank.png","null","72","motor","","","","","","",""
"464","","108282","HierDyeoydg61w","b0u995rqhs","msl000824","motor","img/motor_4.png","70","70","motor","4","75","1","0","0","",""
"null","","108389","HierDyeoydg61w","b0u995rqhs","msl000824","iti","img/motor_blank.png","null","70","motor","","","","","","",""
"473","","108868","HierDyeoydg61w","b0u995rqhs","msl000824","motor","img/motor_2.png","83","83","motor","2","76","1","0","0","",""
"null","","108975","HierDyeoydg61w","b0u995rqhs","msl000824","iti","img/motor_blank.png","null","83","motor","","","","","","",""
"467","","109450","HierDyeoydg61w","b0u995rqhs","msl000824","motor","img/motor_2.png","83","83","motor","2","77","1","0","0","",""
"null","","109556","HierDyeoydg61w","b0u995rqhs","msl000824","iti","img/motor_blank.png","null","83","motor","","","","","","",""
"486","","110049","HierDyeoydg61w","b0u995rqhs","msl000824","motor","img/motor_4.png","70","70","motor","4","78","1","0","0","",""
"null","","110156","HierDyeoydg61w","b0u995rqhs","msl000824","iti","img/motor_blank.png","null","70","motor","","","","","","",""
"579","","110741","HierDyeoydg61w","b0u995rqhs","msl000824","motor","img/motor_7.png","75","75","motor","7","79","1","0","0","",""
"null","","110847","HierDyeoydg61w","b0u995rqhs","msl000824","iti","img/motor_blank.png","null","75","motor","","","","","","",""
"523","","111378","HierDyeoydg61w","b0u995rqhs","msl000824","motor","img/motor_3.png","68","68","motor","3","80","1","0","0","",""
"null","","111484","HierDyeoydg61w","b0u995rqhs","msl000824","iti","img/motor_blank.png","null","68","motor","","","","","","",""
"835","","112326","HierDyeoydg61w","b0u995rqhs","msl000824","motor","img/motor_7.png","75","75","motor","7","81","1","0","0","",""
"null","","112432","HierDyeoydg61w","b0u995rqhs","msl000824","iti","img/motor_blank.png","null","75","motor","","","","","","",""
"444","","112883","HierDyeoydg61w","b0u995rqhs","msl000824","motor","img/motor_4.png","70","70","motor","4","82","1","0","0","",""
"null","","112989","HierDyeoydg61w","b0u995rqhs","msl000824","iti","img/motor_blank.png","null","70","motor","","","","","","",""
"466","","113462","HierDyeoydg61w","b0u995rqhs","msl000824","motor","img/motor_2.png","83","83","motor","2","83","1","0","0","",""
"null","","113569","HierDyeoydg61w","b0u995rqhs","msl000824","iti","img/motor_blank.png","null","83","motor","","","","","","",""
"493","","114069","HierDyeoydg61w","b0u995rqhs","msl000824","motor","img/motor_1.png","65","65","motor","1","84","1","0","0","",""
"null","","114176","HierDyeoydg61w","b0u995rqhs","msl000824","iti","img/motor_blank.png","null","65","motor","","","","","","",""
"398","","114581","HierDyeoydg61w","b0u995rqhs","msl000824","motor","img/motor_5.png","72","72","motor","5","85","1","0","0","",""
"null","","114691","HierDyeoydg61w","b0u995rqhs","msl000824","iti","img/motor_blank.png","null","72","motor","","","","","","",""
"733","","115429","HierDyeoydg61w","b0u995rqhs","msl000824","motor","img/motor_3.png","68","68","motor","3","86","1","0","0","",""
"null","","115538","HierDyeoydg61w","b0u995rqhs","msl000824","iti","img/motor_blank.png","null","68","motor","","","","","","",""
"416","","115960","HierDyeoydg61w","b0u995rqhs","msl000824","motor","img/motor_1.png","65","65","motor","1","87","1","0","0","",""
"null","","116067","HierDyeoydg61w","b0u995rqhs","msl000824","iti","img/motor_blank.png","null","65","motor","","","","","","",""
"543","","116616","HierDyeoydg61w","b0u995rqhs","msl000824","motor","img/motor_4.png","70","70","motor","4","88","1","0","0","",""
"null","","116723","HierDyeoydg61w","b0u995rqhs","msl000824","iti","img/motor_blank.png","null","70","motor","","","","","","",""
"479","","117210","HierDyeoydg61w","b0u995rqhs","msl000824","motor","img/motor_8.png","76","76","motor","8","89","1","0","0","",""
"null","","117316","HierDyeoydg61w","b0u995rqhs","msl000824","iti","img/motor_blank.png","null","76","motor","","","","","","",""
"408","","117731","HierDyeoydg61w","b0u995rqhs","msl000824","motor","img/motor_1.png","65","65","motor","1","90","1","0","0","",""
"null","","117836","HierDyeoydg61w","b0u995rqhs","msl000824","iti","img/motor_blank.png","null","65","motor","","","","","","",""
"546","","118388","HierDyeoydg61w","b0u995rqhs","msl000824","motor","img/motor_8.png","76","76","motor","8","91","1","0","0","",""
"null","","118496","HierDyeoydg61w","b0u995rqhs","msl000824","iti","img/motor_blank.png","null","76","motor","","","","","","",""
"428","","118931","HierDyeoydg61w","b0u995rqhs","msl000824","motor","img/motor_8.png","76","76","motor","8","92","1","0","0","",""
"null","","119038","HierDyeoydg61w","b0u995rqhs","msl000824","iti","img/motor_blank.png","null","76","motor","","","","","","",""
"413","","119457","HierDyeoydg61w","b0u995rqhs","msl000824","motor","img/motor_2.png","83","83","motor","2","93","1","0","0","",""
"null","","119562","HierDyeoydg61w","b0u995rqhs","msl000824","iti","img/motor_blank.png","null","83","motor","","","","","","",""
"701","","120270","HierDyeoydg61w","b0u995rqhs","msl000824","motor","img/motor_5.png","72","72","motor","5","94","1","0","0","",""
"null","","120376","HierDyeoydg61w","b0u995rqhs","msl000824","iti","img/motor_blank.png","null","72","motor","","","","","","",""
"481","","120863","HierDyeoydg61w","b0u995rqhs","msl000824","motor","img/motor_3.png","70","68","motor","3","95","0","1","0","",""
"324","","121194","HierDyeoydg61w","b0u995rqhs","msl000824","motorRepeat","img/motor_3.png","68","68","motor","3","95","1","0","0","",""
"null","","121299","HierDyeoydg61w","b0u995rqhs","msl000824","iti","img/motor_blank.png","null","68","motor","","","","","","",""
"530","","121837","HierDyeoydg61w","b0u995rqhs","msl000824","motor","img/motor_7.png","75","75","motor","7","96","1","0","0","",""
"null","","121943","HierDyeoydg61w","b0u995rqhs","msl000824","iti","img/motor_blank.png","null","75","motor","","","","","","",""
"440","","122389","HierDyeoydg61w","b0u995rqhs","msl000824","motor","img/motor_8.png","76","76","motor","8","97","1","0","0","",""
"null","","122498","HierDyeoydg61w","b0u995rqhs","msl000824","iti","img/motor_blank.png","null","76","motor","","","","","","",""
"573","","123078","HierDyeoydg61w","b0u995rqhs","msl000824","motor","img/motor_3.png","68","68","motor","3","98","1","0","0","",""
"null","","123185","HierDyeoydg61w","b0u995rqhs","msl000824","iti","img/motor_blank.png","null","68","motor","","","","","","",""
"512","","123704","HierDyeoydg61w","b0u995rqhs","msl000824","motor","img/motor_4.png","70","70","motor","4","99","1","0","0","",""
"null","","123811","HierDyeoydg61w","b0u995rqhs","msl000824","iti","img/motor_blank.png","null","70","motor","","","","","","",""
"423","","124242","HierDyeoydg61w","b0u995rqhs","msl000824","motor","img/motor_3.png","68","68","motor","3","100","1","0","0","",""
"null","","124349","HierDyeoydg61w","b0u995rqhs","msl000824","iti","img/motor_blank.png","null","68","motor","","","","","","",""
"440","","124796","HierDyeoydg61w","b0u995rqhs","msl000824","motor","img/motor_7.png","75","75","motor","7","101","1","0","0","",""
"null","","124904","HierDyeoydg61w","b0u995rqhs","msl000824","iti","img/motor_blank.png","null","75","motor","","","","","","",""
"444","","125355","HierDyeoydg61w","b0u995rqhs","msl000824","motor","img/motor_1.png","65","65","motor","1","102","1","0","0","",""
"null","","125462","HierDyeoydg61w","b0u995rqhs","msl000824","iti","img/motor_blank.png","null","65","motor","","","","","","",""
"562","","126031","HierDyeoydg61w","b0u995rqhs","msl000824","motor","img/motor_3.png","68","68","motor","3","103","1","0","0","",""
"null","","126140","HierDyeoydg61w","b0u995rqhs","msl000824","iti","img/motor_blank.png","null","68","motor","","","","","","",""
"464","","126611","HierDyeoydg61w","b0u995rqhs","msl000824","motor","img/motor_5.png","72","72","motor","5","104","1","0","0","",""
"null","","126719","HierDyeoydg61w","b0u995rqhs","msl000824","iti","img/motor_blank.png","null","72","motor","","","","","","",""
"611","","127335","HierDyeoydg61w","b0u995rqhs","msl000824","motor","img/motor_2.png","83","83","motor","2","105","1","0","0","",""
"null","","127442","HierDyeoydg61w","b0u995rqhs","msl000824","iti","img/motor_blank.png","null","83","motor","","","","","","",""
"444","","127892","HierDyeoydg61w","b0u995rqhs","msl000824","motor","img/motor_1.png","65","65","motor","1","106","1","0","0","",""
"null","","128000","HierDyeoydg61w","b0u995rqhs","msl000824","iti","img/motor_blank.png","null","65","motor","","","","","","",""
"469","","128475","HierDyeoydg61w","b0u995rqhs","msl000824","motor","img/motor_5.png","72","72","motor","5","107","1","0","0","",""
"null","","128582","HierDyeoydg61w","b0u995rqhs","msl000824","iti","img/motor_blank.png","null","72","motor","","","","","","",""
"481","","129070","HierDyeoydg61w","b0u995rqhs","msl000824","motor","img/motor_8.png","76","76","motor","8","108","1","0","0","",""
"null","","129177","HierDyeoydg61w","b0u995rqhs","msl000824","iti","img/motor_blank.png","null","76","motor","","","","","","",""
"649","","129833","HierDyeoydg61w","b0u995rqhs","msl000824","motor","img/motor_5.png","72","72","motor","5","109","1","0","0","",""
"null","","129940","HierDyeoydg61w","b0u995rqhs","msl000824","iti","img/motor_blank.png","null","72","motor","","","","","","",""
"401","","130346","HierDyeoydg61w","b0u995rqhs","msl000824","motor","img/motor_8.png","76","76","motor","8","110","1","0","0","",""
"null","","130454","HierDyeoydg61w","b0u995rqhs","msl000824","iti","img/motor_blank.png","null","76","motor","","","","","","",""
"565","","131027","HierDyeoydg61w","b0u995rqhs","msl000824","motor","img/motor_6.png","74","74","motor","6","111","1","0","0","",""
"null","","131137","HierDyeoydg61w","b0u995rqhs","msl000824","iti","img/motor_blank.png","null","74","motor","","","","","","",""
"563","","131707","HierDyeoydg61w","b0u995rqhs","msl000824","motor","img/motor_4.png","70","70","motor","4","112","1","0","0","",""
"null","","131816","HierDyeoydg61w","b0u995rqhs","msl000824","iti","img/motor_blank.png","null","70","motor","","","","","","",""
"467","","132289","HierDyeoydg61w","b0u995rqhs","msl000824","motor","img/motor_3.png","68","68","motor","3","113","1","0","0","",""
"null","","132396","HierDyeoydg61w","b0u995rqhs","msl000824","iti","img/motor_blank.png","null","68","motor","","","","","","",""
"501","","132903","HierDyeoydg61w","b0u995rqhs","msl000824","motor","img/motor_4.png","70","70","motor","4","114","1","0","0","",""
"null","","133011","HierDyeoydg61w","b0u995rqhs","msl000824","iti","img/motor_blank.png","null","70","motor","","","","","","",""
"315","","133333","HierDyeoydg61w","b0u995rqhs","msl000824","motor","img/motor_3.png","68","68","motor","3","115","1","0","0","",""
"null","","133441","HierDyeoydg61w","b0u995rqhs","msl000824","iti","img/motor_blank.png","null","68","motor","","","","","","",""
"457","","133905","HierDyeoydg61w","b0u995rqhs","msl000824","motor","img/motor_6.png","74","74","motor","6","116","1","0","0","",""
"null","","134012","HierDyeoydg61w","b0u995rqhs","msl000824","iti","img/motor_blank.png","null","74","motor","","","","","","",""
"581","","134600","HierDyeoydg61w","b0u995rqhs","msl000824","motor","img/motor_8.png","76","76","motor","8","117","1","0","0","",""
"null","","134707","HierDyeoydg61w","b0u995rqhs","msl000824","iti","img/motor_blank.png","null","76","motor","","","","","","",""
"602","","135316","HierDyeoydg61w","b0u995rqhs","msl000824","motor","img/motor_3.png","68","68","motor","3","118","1","0","0","",""
"null","","135423","HierDyeoydg61w","b0u995rqhs","msl000824","iti","img/motor_blank.png","null","68","motor","","","","","","",""
"381","","135813","HierDyeoydg61w","b0u995rqhs","msl000824","motor","img/motor_8.png","76","76","motor","8","119","1","0","0","",""
"null","","135924","HierDyeoydg61w","b0u995rqhs","msl000824","iti","img/motor_blank.png","null","76","motor","","","","","","",""
"599","","136535","HierDyeoydg61w","b0u995rqhs","msl000824","motor","img/motor_7.png","75","75","motor","7","120","1","0","0","",""
"null","","136643","HierDyeoydg61w","b0u995rqhs","msl000824","iti","img/motor_blank.png","null","75","motor","","","","","","",""
"456","","137107","HierDyeoydg61w","b0u995rqhs","msl000824","motor","img/motor_5.png","72","72","motor","5","121","1","0","0","",""
"null","","137214","HierDyeoydg61w","b0u995rqhs","msl000824","iti","img/motor_blank.png","null","72","motor","","","","","","",""
"448","","137669","HierDyeoydg61w","b0u995rqhs","msl000824","motor","img/motor_5.png","72","72","motor","5","122","1","0","0","",""
"null","","137779","HierDyeoydg61w","b0u995rqhs","msl000824","iti","img/motor_blank.png","null","72","motor","","","","","","",""
"432","","138219","HierDyeoydg61w","b0u995rqhs","msl000824","motor","img/motor_4.png","70","70","motor","4","123","1","0","0","",""
"null","","138329","HierDyeoydg61w","b0u995rqhs","msl000824","iti","img/motor_blank.png","null","70","motor","","","","","","",""
"389","","138726","HierDyeoydg61w","b0u995rqhs","msl000824","motor","img/motor_4.png","70","70","motor","4","124","1","0","0","",""
"null","","138836","HierDyeoydg61w","b0u995rqhs","msl000824","iti","img/motor_blank.png","null","70","motor","","","","","","",""
"499","","139346","HierDyeoydg61w","b0u995rqhs","msl000824","motor","img/motor_6.png","74","74","motor","6","125","1","0","0","",""
"null","","139455","HierDyeoydg61w","b0u995rqhs","msl000824","iti","img/motor_blank.png","null","74","motor","","","","","","",""
"493","","139957","HierDyeoydg61w","b0u995rqhs","msl000824","motor","img/motor_2.png","83","83","motor","2","126","1","0","0","",""
"null","","140067","HierDyeoydg61w","b0u995rqhs","msl000824","iti","img/motor_blank.png","null","83","motor","","","","","","",""
"432","","140511","HierDyeoydg61w","b0u995rqhs","msl000824","motor","img/motor_1.png","65","65","motor","1","127","1","0","0","",""
"null","","140621","HierDyeoydg61w","b0u995rqhs","msl000824","iti","img/motor_blank.png","null","65","motor","","","","","","",""
"568","","141201","HierDyeoydg61w","b0u995rqhs","msl000824","motor","img/motor_3.png","68","68","motor","3","128","1","0","0","",""
"null","","141313","HierDyeoydg61w","b0u995rqhs","msl000824","iti","img/motor_blank.png","null","68","motor","","","","","","",""
"483","","141804","HierDyeoydg61w","b0u995rqhs","msl000824","motor","img/motor_4.png","70","70","motor","4","129","1","0","0","",""
"null","","141915","HierDyeoydg61w","b0u995rqhs","msl000824","iti","img/motor_blank.png","null","70","motor","","","","","","",""
"390","","142314","HierDyeoydg61w","b0u995rqhs","msl000824","motor","img/motor_4.png","70","70","motor","4","130","1","0","0","",""
"null","","142423","HierDyeoydg61w","b0u995rqhs","msl000824","iti","img/motor_blank.png","null","70","motor","","","","","","",""
"423","","142857","HierDyeoydg61w","b0u995rqhs","msl000824","motor","img/motor_7.png","75","75","motor","7","131","1","0","0","",""
"null","","142966","HierDyeoydg61w","b0u995rqhs","msl000824","iti","img/motor_blank.png","null","75","motor","","","","","","",""
"523","","143499","HierDyeoydg61w","b0u995rqhs","msl000824","motor","img/motor_2.png","83","83","motor","2","132","1","0","0","",""
"null","","143609","HierDyeoydg61w","b0u995rqhs","msl000824","iti","img/motor_blank.png","null","83","motor","","","","","","",""
"487","","144106","HierDyeoydg61w","b0u995rqhs","msl000824","motor","img/motor_4.png","70","70","motor","4","133","1","0","0","",""
"null","","144217","HierDyeoydg61w","b0u995rqhs","msl000824","iti","img/motor_blank.png","null","70","motor","","","","","","",""
"447","","144672","HierDyeoydg61w","b0u995rqhs","msl000824","motor","img/motor_3.png","68","68","motor","3","134","1","0","0","",""
"null","","144783","HierDyeoydg61w","b0u995rqhs","msl000824","iti","img/motor_blank.png","null","68","motor","","","","","","",""
"524","","145316","HierDyeoydg61w","b0u995rqhs","msl000824","motor","img/motor_5.png","72","72","motor","5","135","1","0","0","",""
"null","","145426","HierDyeoydg61w","b0u995rqhs","msl000824","iti","img/motor_blank.png","null","72","motor","","","","","","",""
"403","","145839","HierDyeoydg61w","b0u995rqhs","msl000824","motor","img/motor_7.png","75","75","motor","7","136","1","0","0","",""
"null","","145949","HierDyeoydg61w","b0u995rqhs","msl000824","iti","img/motor_blank.png","null","75","motor","","","","","","",""
"366","","146324","HierDyeoydg61w","b0u995rqhs","msl000824","motor","img/motor_7.png","75","75","motor","7","137","1","0","0","",""
"null","","146432","HierDyeoydg61w","b0u995rqhs","msl000824","iti","img/motor_blank.png","null","75","motor","","","","","","",""
"468","","146907","HierDyeoydg61w","b0u995rqhs","msl000824","motor","img/motor_2.png","83","83","motor","2","138","1","0","0","",""
"null","","147014","HierDyeoydg61w","b0u995rqhs","msl000824","iti","img/motor_blank.png","null","83","motor","","","","","","",""
"420","","147444","HierDyeoydg61w","b0u995rqhs","msl000824","motor","img/motor_7.png","75","75","motor","7","139","1","0","0","",""
"null","","147553","HierDyeoydg61w","b0u995rqhs","msl000824","iti","img/motor_blank.png","null","75","motor","","","","","","",""
"424","","147983","HierDyeoydg61w","b0u995rqhs","msl000824","motor","img/motor_1.png","65","65","motor","1","140","1","0","0","",""
"null","","148090","HierDyeoydg61w","b0u995rqhs","msl000824","iti","img/motor_blank.png","null","65","motor","","","","","","",""
"413","","148511","HierDyeoydg61w","b0u995rqhs","msl000824","motor","img/motor_8.png","76","76","motor","8","141","1","0","0","",""
"null","","148622","HierDyeoydg61w","b0u995rqhs","msl000824","iti","img/motor_blank.png","null","76","motor","","","","","","",""
"407","","149040","HierDyeoydg61w","b0u995rqhs","msl000824","motor","img/motor_2.png","83","83","motor","2","142","1","0","0","",""
"null","","149149","HierDyeoydg61w","b0u995rqhs","msl000824","iti","img/motor_blank.png","null","83","motor","","","","","","",""
"409","","149566","HierDyeoydg61w","b0u995rqhs","msl000824","motor","img/motor_8.png","76","76","motor","8","143","1","0","0","",""
"null","","149676","HierDyeoydg61w","b0u995rqhs","msl000824","iti","img/motor_blank.png","null","76","motor","","","","","","",""
"408","","150091","HierDyeoydg61w","b0u995rqhs","msl000824","motor","img/motor_2.png","83","83","motor","2","144","1","0","0","",""
"null","","150199","HierDyeoydg61w","b0u995rqhs","msl000824","iti","img/motor_blank.png","null","83","motor","","","","","","",""
"537","","150745","HierDyeoydg61w","b0u995rqhs","msl000824","motor","img/motor_6.png","75","74","motor","6","145","0","1","0","",""
"433","","151186","HierDyeoydg61w","b0u995rqhs","msl000824","motorRepeat","img/motor_6.png","74","74","motor","6","145","1","0","0","",""
"null","","151297","HierDyeoydg61w","b0u995rqhs","msl000824","iti","img/motor_blank.png","null","74","motor","","","","","","",""
"507","","151812","HierDyeoydg61w","b0u995rqhs","msl000824","motor","img/motor_5.png","72","72","motor","5","146","1","0","0","",""
"null","","151921","HierDyeoydg61w","b0u995rqhs","msl000824","iti","img/motor_blank.png","null","72","motor","","","","","","",""
"502","","152431","HierDyeoydg61w","b0u995rqhs","msl000824","motor","img/motor_8.png","76","76","motor","8","147","1","0","0","",""
"null","","152542","HierDyeoydg61w","b0u995rqhs","msl000824","iti","img/motor_blank.png","null","76","motor","","","","","","",""
"424","","152975","HierDyeoydg61w","b0u995rqhs","msl000824","motor","img/motor_7.png","75","75","motor","7","148","1","0","0","",""
"null","","153083","HierDyeoydg61w","b0u995rqhs","msl000824","iti","img/motor_blank.png","null","75","motor","","","","","","",""
"440","","153533","HierDyeoydg61w","b0u995rqhs","msl000824","motor","img/motor_8.png","76","76","motor","8","149","1","0","0","",""
"null","","153644","HierDyeoydg61w","b0u995rqhs","msl000824","iti","img/motor_blank.png","null","76","motor","","","","","","",""
"448","","154101","HierDyeoydg61w","b0u995rqhs","msl000824","motor","img/motor_5.png","72","72","motor","5","150","1","0","0","",""
"null","","154212","HierDyeoydg61w","b0u995rqhs","msl000824","iti","img/motor_blank.png","null","72","motor","","","","","","",""
"459","","154678","HierDyeoydg61w","b0u995rqhs","msl000824","motor","img/motor_4.png","68","70","motor","4","151","0","1","0","",""
"345","","155032","HierDyeoydg61w","b0u995rqhs","msl000824","motorRepeat","img/motor_4.png","70","70","motor","4","151","1","0","0","",""
"null","","155142","HierDyeoydg61w","b0u995rqhs","msl000824","iti","img/motor_blank.png","null","70","motor","","","","","","",""
"418","","155569","HierDyeoydg61w","b0u995rqhs","msl000824","motor","img/motor_8.png","76","76","motor","8","152","1","0","0","",""
"null","","155679","HierDyeoydg61w","b0u995rqhs","msl000824","iti","img/motor_blank.png","null","76","motor","","","","","","",""
"512","","156199","HierDyeoydg61w","b0u995rqhs","msl000824","motor","img/motor_4.png","70","70","motor","4","153","1","0","0","",""
"null","","156308","HierDyeoydg61w","b0u995rqhs","msl000824","iti","img/motor_blank.png","null","70","motor","","","","","","",""
"402","","156719","HierDyeoydg61w","b0u995rqhs","msl000824","motor","img/motor_4.png","70","70","motor","4","154","1","0","0","",""
"null","","156828","HierDyeoydg61w","b0u995rqhs","msl000824","iti","img/motor_blank.png","null","70","motor","","","","","","",""
"545","","157381","HierDyeoydg61w","b0u995rqhs","msl000824","motor","img/motor_5.png","72","72","motor","5","155","1","0","0","",""
"null","","157491","HierDyeoydg61w","b0u995rqhs","msl000824","iti","img/motor_blank.png","null","72","motor","","","","","","",""
"492","","157993","HierDyeoydg61w","b0u995rqhs","msl000824","motor","img/motor_7.png","75","75","motor","7","156","1","0","0","",""
"null","","158104","HierDyeoydg61w","b0u995rqhs","msl000824","iti","img/motor_blank.png","null","75","motor","","","","","","",""
"437","","158550","HierDyeoydg61w","b0u995rqhs","msl000824","motor","img/motor_8.png","76","76","motor","8","157","1","0","0","",""
"null","","158661","HierDyeoydg61w","b0u995rqhs","msl000824","iti","img/motor_blank.png","null","76","motor","","","","","","",""
"536","","159205","HierDyeoydg61w","b0u995rqhs","msl000824","motor","img/motor_6.png","74","74","motor","6","158","1","0","0","",""
"null","","159316","HierDyeoydg61w","b0u995rqhs","msl000824","iti","img/motor_blank.png","null","74","motor","","","","","","",""
"562","","159887","HierDyeoydg61w","b0u995rqhs","msl000824","motor","img/motor_3.png","68","68","motor","3","159","1","0","0","",""
"null","","159998","HierDyeoydg61w","b0u995rqhs","msl000824","iti","img/motor_blank.png","null","68","motor","","","","","","",""
"451","","160458","HierDyeoydg61w","b0u995rqhs","msl000824","motor","img/motor_6.png","74","74","motor","6","160","1","0","0","",""
"null","","160568","HierDyeoydg61w","b0u995rqhs","msl000824","iti","img/motor_blank.png","null","74","motor","","","","","","",""
"454","","161030","HierDyeoydg61w","b0u995rqhs","msl000824","motor","img/motor_3.png","68","68","motor","3","161","1","0","0","",""
"null","","161137","HierDyeoydg61w","b0u995rqhs","msl000824","iti","img/motor_blank.png","null","68","motor","","","","","","",""
"456","","161601","HierDyeoydg61w","b0u995rqhs","msl000824","motor","img/motor_5.png","72","72","motor","5","162","1","0","0","",""
"null","","161710","HierDyeoydg61w","b0u995rqhs","msl000824","iti","img/motor_blank.png","null","72","motor","","","","","","",""
"415","","162134","HierDyeoydg61w","b0u995rqhs","msl000824","motor","img/motor_7.png","75","75","motor","7","163","1","0","0","",""
"null","","162243","HierDyeoydg61w","b0u995rqhs","msl000824","iti","img/motor_blank.png","null","75","motor","","","","","","",""
"529","","162779","HierDyeoydg61w","b0u995rqhs","msl000824","motor","img/motor_4.png","70","70","motor","4","164","1","0","0","",""
"null","","162886","HierDyeoydg61w","b0u995rqhs","msl000824","iti","img/motor_blank.png","null","70","motor","","","","","","",""
"483","","163379","HierDyeoydg61w","b0u995rqhs","msl000824","motor","img/motor_8.png","76","76","motor","8","165","1","0","0","",""
"null","","163489","HierDyeoydg61w","b0u995rqhs","msl000824","iti","img/motor_blank.png","null","76","motor","","","","","","",""
"366","","163865","HierDyeoydg61w","b0u995rqhs","msl000824","motor","img/motor_2.png","83","83","motor","2","166","1","0","0","",""
"null","","163975","HierDyeoydg61w","b0u995rqhs","msl000824","iti","img/motor_blank.png","null","83","motor","","","","","","",""
"377","","164363","HierDyeoydg61w","b0u995rqhs","msl000824","motor","img/motor_2.png","83","83","motor","2","167","1","0","0","",""
"null","","164472","HierDyeoydg61w","b0u995rqhs","msl000824","iti","img/motor_blank.png","null","83","motor","","","","","","",""
"478","","164960","HierDyeoydg61w","b0u995rqhs","msl000824","motor","img/motor_3.png","68","68","motor","3","168","1","0","0","",""
"null","","165071","HierDyeoydg61w","b0u995rqhs","msl000824","iti","img/motor_blank.png","null","68","motor","","","","","","",""
"442","","165521","HierDyeoydg61w","b0u995rqhs","msl000824","motor","img/motor_4.png","70","70","motor","4","169","1","0","0","",""
"null","","165631","HierDyeoydg61w","b0u995rqhs","msl000824","iti","img/motor_blank.png","null","70","motor","","","","","","",""
"405","","166046","HierDyeoydg61w","b0u995rqhs","msl000824","motor","img/motor_4.png","70","70","motor","4","170","1","0","0","",""
"null","","166156","HierDyeoydg61w","b0u995rqhs","msl000824","iti","img/motor_blank.png","null","70","motor","","","","","","",""
"451","","166617","HierDyeoydg61w","b0u995rqhs","msl000824","motor","img/motor_7.png","74","75","motor","7","171","0","1","0","",""
"366","","166989","HierDyeoydg61w","b0u995rqhs","msl000824","motorRepeat","img/motor_7.png","75","75","motor","7","171","1","0","0","",""
"null","","167100","HierDyeoydg61w","b0u995rqhs","msl000824","iti","img/motor_blank.png","null","75","motor","","","","","","",""
"469","","167576","HierDyeoydg61w","b0u995rqhs","msl000824","motor","img/motor_6.png","74","74","motor","6","172","1","0","0","",""
"null","","167686","HierDyeoydg61w","b0u995rqhs","msl000824","iti","img/motor_blank.png","null","74","motor","","","","","","",""
"462","","168155","HierDyeoydg61w","b0u995rqhs","msl000824","motor","img/motor_4.png","70","70","motor","4","173","1","0","0","",""
"null","","168264","HierDyeoydg61w","b0u995rqhs","msl000824","iti","img/motor_blank.png","null","70","motor","","","","","","",""
"473","","168746","HierDyeoydg61w","b0u995rqhs","msl000824","motor","img/motor_6.png","74","74","motor","6","174","1","0","0","",""
"null","","168857","HierDyeoydg61w","b0u995rqhs","msl000824","iti","img/motor_blank.png","null","74","motor","","","","","","",""
"410","","169274","HierDyeoydg61w","b0u995rqhs","msl000824","motor","img/motor_7.png","75","75","motor","7","175","1","0","0","",""
"null","","169385","HierDyeoydg61w","b0u995rqhs","msl000824","iti","img/motor_blank.png","null","75","motor","","","","","","",""
"578","","169972","HierDyeoydg61w","b0u995rqhs","msl000824","motor","img/motor_1.png","65","65","motor","1","176","1","0","0","",""
"31","","170080","HierDyeoydg61w","b0u995rqhs","msl000824","iti","img/motor_blank.png","83","65","motor","","","","","","",""
"484","","170574","HierDyeoydg61w","b0u995rqhs","msl000824","motor","img/motor_8.png","76","76","motor","8","177","1","0","0","",""
"null","","170683","HierDyeoydg61w","b0u995rqhs","msl000824","iti","img/motor_blank.png","null","76","motor","","","","","","",""
"413","","171105","HierDyeoydg61w","b0u995rqhs","msl000824","motor","img/motor_2.png","83","83","motor","2","178","1","0","0","",""
"null","","171215","HierDyeoydg61w","b0u995rqhs","msl000824","iti","img/motor_blank.png","null","83","motor","","","","","","",""
"585","","171808","HierDyeoydg61w","b0u995rqhs","msl000824","motor","img/motor_5.png","72","72","motor","5","179","1","0","0","",""
"null","","171915","HierDyeoydg61w","b0u995rqhs","msl000824","iti","img/motor_blank.png","null","72","motor","","","","","","",""
"423","","172346","HierDyeoydg61w","b0u995rqhs","msl000824","motor","img/motor_7.png","75","75","motor","7","180","1","0","0","",""
"null","","172458","HierDyeoydg61w","b0u995rqhs","msl000824","iti","img/motor_blank.png","null","75","motor","","","","","","",""
"471","","172937","HierDyeoydg61w","b0u995rqhs","msl000824","motor","img/motor_4.png","70","70","motor","4","181","1","0","0","",""
"null","","173044","HierDyeoydg61w","b0u995rqhs","msl000824","iti","img/motor_blank.png","null","70","motor","","","","","","",""
"595","","173644","HierDyeoydg61w","b0u995rqhs","msl000824","motor","img/motor_5.png","72","72","motor","5","182","1","0","0","",""
"null","","173753","HierDyeoydg61w","b0u995rqhs","msl000824","iti","img/motor_blank.png","null","72","motor","","","","","","",""
"416","","174176","HierDyeoydg61w","b0u995rqhs","msl000824","motor","img/motor_6.png","74","74","motor","6","183","1","0","0","",""
"null","","174287","HierDyeoydg61w","b0u995rqhs","msl000824","iti","img/motor_blank.png","null","74","motor","","","","","","",""
"458","","174753","HierDyeoydg61w","b0u995rqhs","msl000824","motor","img/motor_4.png","70","70","motor","4","184","1","0","0","",""
"null","","174861","HierDyeoydg61w","b0u995rqhs","msl000824","iti","img/motor_blank.png","null","70","motor","","","","","","",""
"497","","175366","HierDyeoydg61w","b0u995rqhs","msl000824","motor","img/motor_1.png","65","65","motor","1","185","1","0","0","",""
"null","","175475","HierDyeoydg61w","b0u995rqhs","msl000824","iti","img/motor_blank.png","null","65","motor","","","","","","",""
"470","","175953","HierDyeoydg61w","b0u995rqhs","msl000824","motor","img/motor_6.png","74","74","motor","6","186","1","0","0","",""
"null","","176061","HierDyeoydg61w","b0u995rqhs","msl000824","iti","img/motor_blank.png","null","74","motor","","","","","","",""
"558","","176626","HierDyeoydg61w","b0u995rqhs","msl000824","motor","img/motor_8.png","76","76","motor","8","187","1","0","0","",""
"null","","176735","HierDyeoydg61w","b0u995rqhs","msl000824","iti","img/motor_blank.png","null","76","motor","","","","","","",""
"440","","177181","HierDyeoydg61w","b0u995rqhs","msl000824","motor","img/motor_4.png","70","70","motor","4","188","1","0","0","",""
"null","","177290","HierDyeoydg61w","b0u995rqhs","msl000824","iti","img/motor_blank.png","null","70","motor","","","","","","",""
"452","","177748","HierDyeoydg61w","b0u995rqhs","msl000824","motor","img/motor_2.png","83","83","motor","2","189","1","0","0","",""
"null","","177855","HierDyeoydg61w","b0u995rqhs","msl000824","iti","img/motor_blank.png","null","83","motor","","","","","","",""
"534","","178395","HierDyeoydg61w","b0u995rqhs","msl000824","motor","img/motor_5.png","72","72","motor","5","190","1","0","0","",""
"null","","178503","HierDyeoydg61w","b0u995rqhs","msl000824","iti","img/motor_blank.png","null","72","motor","","","","","","",""
"445","","178955","HierDyeoydg61w","b0u995rqhs","msl000824","motor","img/motor_8.png","76","76","motor","8","191","1","0","0","",""
"null","","179064","HierDyeoydg61w","b0u995rqhs","msl000824","iti","img/motor_blank.png","null","76","motor","","","","","","",""
"526","","179597","HierDyeoydg61w","b0u995rqhs","msl000824","motor","img/motor_3.png","68","68","motor","3","192","1","0","0","",""
"null","","179704","HierDyeoydg61w","b0u995rqhs","msl000824","iti","img/motor_blank.png","null","68","motor","","","","","","",""
"490","","180202","HierDyeoydg61w","b0u995rqhs","msl000824","motor","img/motor_8.png","76","76","motor","8","193","1","0","0","",""
"null","","180312","HierDyeoydg61w","b0u995rqhs","msl000824","iti","img/motor_blank.png","null","76","motor","","","","","","",""
"422","","180742","HierDyeoydg61w","b0u995rqhs","msl000824","motor","img/motor_5.png","72","72","motor","5","194","1","0","0","",""
"null","","180850","HierDyeoydg61w","b0u995rqhs","msl000824","iti","img/motor_blank.png","null","72","motor","","","","","","",""
"426","","181283","HierDyeoydg61w","b0u995rqhs","msl000824","motor","img/motor_5.png","72","72","motor","5","195","1","0","0","",""
"null","","181392","HierDyeoydg61w","b0u995rqhs","msl000824","iti","img/motor_blank.png","null","72","motor","","","","","","",""
"426","","181829","HierDyeoydg61w","b0u995rqhs","msl000824","motor","img/motor_3.png","70","68","motor","3","196","0","1","0","",""
"300","","182138","HierDyeoydg61w","b0u995rqhs","msl000824","motorRepeat","img/motor_3.png","68","68","motor","3","196","1","0","0","",""
"null","","182249","HierDyeoydg61w","b0u995rqhs","msl000824","iti","img/motor_blank.png","null","68","motor","","","","","","",""
"377","","182636","HierDyeoydg61w","b0u995rqhs","msl000824","motor","img/motor_2.png","83","83","motor","2","197","1","0","0","",""
"null","","182746","HierDyeoydg61w","b0u995rqhs","msl000824","iti","img/motor_blank.png","null","83","motor","","","","","","",""
"464","","183221","HierDyeoydg61w","b0u995rqhs","msl000824","motor","img/motor_3.png","68","68","motor","3","198","1","0","0","",""
"null","","183331","HierDyeoydg61w","b0u995rqhs","msl000824","iti","img/motor_blank.png","null","68","motor","","","","","","",""
"460","","183801","HierDyeoydg61w","b0u995rqhs","msl000824","motor","img/motor_5.png","72","72","motor","5","199","1","0","0","",""
"null","","183912","HierDyeoydg61w","b0u995rqhs","msl000824","iti","img/motor_blank.png","null","72","motor","","","","","","",""
"496","","184418","HierDyeoydg61w","b0u995rqhs","msl000824","motor","img/motor_1.png","65","65","motor","1","200","1","0","0","",""
"null","","184527","HierDyeoydg61w","b0u995rqhs","msl000824","iti","img/motor_blank.png","null","65","motor","","","","","","",""
"554","","185091","HierDyeoydg61w","b0u995rqhs","msl000824","motor","img/motor_4.png","70","70","motor","4","201","1","0","0","",""
"null","","185202","HierDyeoydg61w","b0u995rqhs","msl000824","iti","img/motor_blank.png","null","70","motor","","","","","","",""
"396","","185607","HierDyeoydg61w","b0u995rqhs","msl000824","motor","img/motor_5.png","72","72","motor","5","202","1","0","0","",""
"null","","185718","HierDyeoydg61w","b0u995rqhs","msl000824","iti","img/motor_blank.png","null","72","motor","","","","","","",""
"420","","186147","HierDyeoydg61w","b0u995rqhs","msl000824","motor","img/motor_6.png","74","74","motor","6","203","1","0","0","",""
"null","","186257","HierDyeoydg61w","b0u995rqhs","msl000824","iti","img/motor_blank.png","null","74","motor","","","","","","",""
"473","","186741","HierDyeoydg61w","b0u995rqhs","msl000824","motor","img/motor_6.png","74","74","motor","6","204","1","0","0","",""
"null","","186852","HierDyeoydg61w","b0u995rqhs","msl000824","iti","img/motor_blank.png","null","74","motor","","","","","","",""
"446","","187307","HierDyeoydg61w","b0u995rqhs","msl000824","motor","img/motor_7.png","75","75","motor","7","205","1","0","0","",""
"null","","187418","HierDyeoydg61w","b0u995rqhs","msl000824","iti","img/motor_blank.png","null","75","motor","","","","","","",""
"477","","187906","HierDyeoydg61w","b0u995rqhs","msl000824","motor","img/motor_6.png","74","74","motor","6","206","1","0","0","",""
"null","","188017","HierDyeoydg61w","b0u995rqhs","msl000824","iti","img/motor_blank.png","null","74","motor","","","","","","",""
"382","","188408","HierDyeoydg61w","b0u995rqhs","msl000824","motor","img/motor_7.png","75","75","motor","7","207","1","0","0","",""
"null","","188519","HierDyeoydg61w","b0u995rqhs","msl000824","iti","img/motor_blank.png","null","75","motor","","","","","","",""
"487","","189014","HierDyeoydg61w","b0u995rqhs","msl000824","motor","img/motor_4.png","70","70","motor","4","208","1","0","0","",""
"null","","189125","HierDyeoydg61w","b0u995rqhs","msl000824","iti","img/motor_blank.png","null","70","motor","","","","","","",""
"413","","189547","HierDyeoydg61w","b0u995rqhs","msl000824","motor","img/motor_7.png","75","75","motor","7","209","1","0","0","",""
"null","","189657","HierDyeoydg61w","b0u995rqhs","msl000824","iti","img/motor_blank.png","null","75","motor","","","","","","",""
"488","","190154","HierDyeoydg61w","b0u995rqhs","msl000824","motor","img/motor_8.png","76","76","motor","8","210","1","0","0","",""
"null","","190265","HierDyeoydg61w","b0u995rqhs","msl000824","iti","img/motor_blank.png","null","76","motor","","","","","","",""
"476","","190751","HierDyeoydg61w","b0u995rqhs","msl000824","motor","img/motor_7.png","75","75","motor","7","211","1","0","0","",""
"null","","190861","HierDyeoydg61w","b0u995rqhs","msl000824","iti","img/motor_blank.png","null","75","motor","","","","","","",""
"485","","191355","HierDyeoydg61w","b0u995rqhs","msl000824","motor","img/motor_5.png","72","72","motor","5","212","1","0","0","",""
"null","","191466","HierDyeoydg61w","b0u995rqhs","msl000824","iti","img/motor_blank.png","null","72","motor","","","","","","",""
"560","","192035","HierDyeoydg61w","b0u995rqhs","msl000824","motor","img/motor_3.png","68","68","motor","3","213","1","0","0","",""
"null","","192145","HierDyeoydg61w","b0u995rqhs","msl000824","iti","img/motor_blank.png","null","68","motor","","","","","","",""
"478","","192634","HierDyeoydg61w","b0u995rqhs","msl000824","motor","img/motor_5.png","72","72","motor","5","214","1","0","0","",""
"null","","192744","HierDyeoydg61w","b0u995rqhs","msl000824","iti","img/motor_blank.png","null","72","motor","","","","","","",""
"518","","193271","HierDyeoydg61w","b0u995rqhs","msl000824","motor","img/motor_1.png","65","65","motor","1","215","1","0","0","",""
"null","","193382","HierDyeoydg61w","b0u995rqhs","msl000824","iti","img/motor_blank.png","null","65","motor","","","","","","",""
"457","","193849","HierDyeoydg61w","b0u995rqhs","msl000824","motor","img/motor_3.png","83","68","motor","3","216","0","1","0","",""
"300","","194159","HierDyeoydg61w","b0u995rqhs","msl000824","motorRepeat","img/motor_3.png","68","68","motor","3","216","1","0","0","",""
"null","","194270","HierDyeoydg61w","b0u995rqhs","msl000824","iti","img/motor_blank.png","null","68","motor","","","","","","",""
"433","","194713","HierDyeoydg61w","b0u995rqhs","msl000824","motor","img/motor_1.png","65","65","motor","1","217","1","0","0","",""
"null","","194823","HierDyeoydg61w","b0u995rqhs","msl000824","iti","img/motor_blank.png","null","65","motor","","","","","","",""
"377","","195210","HierDyeoydg61w","b0u995rqhs","msl000824","motor","img/motor_5.png","72","72","motor","5","218","1","0","0","",""
"null","","195320","HierDyeoydg61w","b0u995rqhs","msl000824","iti","img/motor_blank.png","null","72","motor","","","","","","",""
"375","","195703","HierDyeoydg61w","b0u995rqhs","msl000824","motor","img/motor_6.png","74","74","motor","6","219","1","0","0","",""
"null","","195814","HierDyeoydg61w","b0u995rqhs","msl000824","iti","img/motor_blank.png","null","74","motor","","","","","","",""
"423","","196246","HierDyeoydg61w","b0u995rqhs","msl000824","motor","img/motor_8.png","76","76","motor","8","220","1","0","0","",""
"null","","196358","HierDyeoydg61w","b0u995rqhs","msl000824","iti","img/motor_blank.png","null","76","motor","","","","","","",""
"428","","196794","HierDyeoydg61w","b0u995rqhs","msl000824","motor","img/motor_4.png","72","70","motor","4","221","0","1","0","",""
"281","","197084","HierDyeoydg61w","b0u995rqhs","msl000824","motorRepeat","img/motor_4.png","70","70","motor","4","221","1","0","0","",""
"null","","197195","HierDyeoydg61w","b0u995rqhs","msl000824","iti","img/motor_blank.png","null","70","motor","","","","","","",""
"448","","197653","HierDyeoydg61w","b0u995rqhs","msl000824","motor","img/motor_1.png","65","65","motor","1","222","1","0","0","",""
"null","","197765","HierDyeoydg61w","b0u995rqhs","msl000824","iti","img/motor_blank.png","null","65","motor","","","","","","",""
"429","","198202","HierDyeoydg61w","b0u995rqhs","msl000824","motor","img/motor_6.png","74","74","motor","6","223","1","0","0","",""
"null","","198313","HierDyeoydg61w","b0u995rqhs","msl000824","iti","img/motor_blank.png","null","74","motor","","","","","","",""
"410","","198735","HierDyeoydg61w","b0u995rqhs","msl000824","motor","img/motor_2.png","83","83","motor","2","224","1","0","0","",""
"null","","198845","HierDyeoydg61w","b0u995rqhs","msl000824","iti","img/motor_blank.png","null","83","motor","","","","","","",""
"443","","199297","HierDyeoydg61w","b0u995rqhs","msl000824","motor","img/motor_3.png","68","68","motor","3","225","1","0","0","",""
"null","","199407","HierDyeoydg61w","b0u995rqhs","msl000824","iti","img/motor_blank.png","null","68","motor","","","","","","",""
"408","","199824","HierDyeoydg61w","b0u995rqhs","msl000824","motor","img/motor_8.png","76","76","motor","8","226","1","0","0","",""
"null","","199931","HierDyeoydg61w","b0u995rqhs","msl000824","iti","img/motor_blank.png","null","76","motor","","","","","","",""
"422","","200361","HierDyeoydg61w","b0u995rqhs","msl000824","motor","img/motor_8.png","76","76","motor","8","227","1","0","0","",""
"null","","200472","HierDyeoydg61w","b0u995rqhs","msl000824","iti","img/motor_blank.png","null","76","motor","","","","","","",""
"427","","200912","HierDyeoydg61w","b0u995rqhs","msl000824","motor","img/motor_7.png","75","75","motor","7","228","1","0","0","",""
"null","","201024","HierDyeoydg61w","b0u995rqhs","msl000824","iti","img/motor_blank.png","null","75","motor","","","","","","",""
"411","","201446","HierDyeoydg61w","b0u995rqhs","msl000824","motor","img/motor_6.png","74","74","motor","6","229","1","0","0","",""
"null","","201557","HierDyeoydg61w","b0u995rqhs","msl000824","iti","img/motor_blank.png","null","74","motor","","","","","","",""
"519","","202085","HierDyeoydg61w","b0u995rqhs","msl000824","motor","img/motor_5.png","72","72","motor","5","230","1","0","0","",""
"null","","202197","HierDyeoydg61w","b0u995rqhs","msl000824","iti","img/motor_blank.png","null","72","motor","","","","","","",""
"528","","202736","HierDyeoydg61w","b0u995rqhs","msl000824","motor","img/motor_2.png","83","83","motor","2","231","1","0","0","",""
"null","","202847","HierDyeoydg61w","b0u995rqhs","msl000824","iti","img/motor_blank.png","null","83","motor","","","","","","",""
"447","","203304","HierDyeoydg61w","b0u995rqhs","msl000824","motor","img/motor_4.png","70","70","motor","4","232","1","0","0","",""
"null","","203414","HierDyeoydg61w","b0u995rqhs","msl000824","iti","img/motor_blank.png","null","70","motor","","","","","","",""
"436","","203860","HierDyeoydg61w","b0u995rqhs","msl000824","motor","img/motor_1.png","65","65","motor","1","233","1","0","0","",""
"null","","203971","HierDyeoydg61w","b0u995rqhs","msl000824","iti","img/motor_blank.png","null","65","motor","","","","","","",""
"466","","204448","HierDyeoydg61w","b0u995rqhs","msl000824","motor","img/motor_4.png","70","70","motor","4","234","1","0","0","",""
"null","","204559","HierDyeoydg61w","b0u995rqhs","msl000824","iti","img/motor_blank.png","null","70","motor","","","","","","",""
"416","","204988","HierDyeoydg61w","b0u995rqhs","msl000824","motor","img/motor_8.png","76","76","motor","8","235","1","0","0","",""
"null","","205100","HierDyeoydg61w","b0u995rqhs","msl000824","iti","img/motor_blank.png","null","76","motor","","","","","","",""
"402","","205513","HierDyeoydg61w","b0u995rqhs","msl000824","motor","img/motor_8.png","76","76","motor","8","236","1","0","0","",""
"null","","205625","HierDyeoydg61w","b0u995rqhs","msl000824","iti","img/motor_blank.png","null","76","motor","","","","","","",""
"537","","206169","HierDyeoydg61w","b0u995rqhs","msl000824","motor","img/motor_3.png","68","68","motor","3","237","1","0","0","",""
"null","","206282","HierDyeoydg61w","b0u995rqhs","msl000824","iti","img/motor_blank.png","null","68","motor","","","","","","",""
"440","","206731","HierDyeoydg61w","b0u995rqhs","msl000824","motor","img/motor_5.png","72","72","motor","5","238","1","0","0","",""
"null","","206841","HierDyeoydg61w","b0u995rqhs","msl000824","iti","img/motor_blank.png","null","72","motor","","","","","","",""
"462","","207313","HierDyeoydg61w","b0u995rqhs","msl000824","motor","img/motor_1.png","65","65","motor","1","239","1","0","0","",""
"null","","207423","HierDyeoydg61w","b0u995rqhs","msl000824","iti","img/motor_blank.png","null","65","motor","","","","","","",""
"433","","207865","HierDyeoydg61w","b0u995rqhs","msl000824","motor","img/motor_7.png","75","75","motor","7","240","1","0","0","",""
"null","","207976","HierDyeoydg61w","b0u995rqhs","msl000824","iti","img/motor_blank.png","null","75","motor","","","","","","",""
"441","","208425","HierDyeoydg61w","b0u995rqhs","msl000824","motor","img/motor_5.png","72","72","motor","5","241","1","0","0","",""
"null","","208536","HierDyeoydg61w","b0u995rqhs","msl000824","iti","img/motor_blank.png","null","72","motor","","","","","","",""
"513","","209059","HierDyeoydg61w","b0u995rqhs","msl000824","motor","img/motor_8.png","76","76","motor","8","242","1","0","0","",""
"null","","209168","HierDyeoydg61w","b0u995rqhs","msl000824","iti","img/motor_blank.png","null","76","motor","","","","","","",""
"464","","209642","HierDyeoydg61w","b0u995rqhs","msl000824","motor","img/motor_6.png","74","74","motor","6","243","1","0","0","",""
"null","","209753","HierDyeoydg61w","b0u995rqhs","msl000824","iti","img/motor_blank.png","null","74","motor","","","","","","",""
"485","","210245","HierDyeoydg61w","b0u995rqhs","msl000824","motor","img/motor_8.png","76","76","motor","8","244","1","0","0","",""
"null","","210355","HierDyeoydg61w","b0u995rqhs","msl000824","iti","img/motor_blank.png","null","76","motor","","","","","","",""
"522","","210886","HierDyeoydg61w","b0u995rqhs","msl000824","motor","img/motor_6.png","74","74","motor","6","245","1","0","0","",""
"null","","210996","HierDyeoydg61w","b0u995rqhs","msl000824","iti","img/motor_blank.png","null","74","motor","","","","","","",""
"519","","211523","HierDyeoydg61w","b0u995rqhs","msl000824","motor","img/motor_7.png","75","75","motor","7","246","1","0","0","",""
"null","","211632","HierDyeoydg61w","b0u995rqhs","msl000824","iti","img/motor_blank.png","null","75","motor","","","","","","",""
"490","","212131","HierDyeoydg61w","b0u995rqhs","msl000824","motor","img/motor_6.png","74","74","motor","6","247","1","0","0","",""
"null","","212241","HierDyeoydg61w","b0u995rqhs","msl000824","iti","img/motor_blank.png","null","74","motor","","","","","","",""
"503","","212754","HierDyeoydg61w","b0u995rqhs","msl000824","motor","img/motor_3.png","68","68","motor","3","248","1","0","0","",""
"null","","212864","HierDyeoydg61w","b0u995rqhs","msl000824","iti","img/motor_blank.png","null","68","motor","","","","","","",""
"399","","213271","HierDyeoydg61w","b0u995rqhs","msl000824","motor","img/motor_3.png","68","68","motor","3","249","1","0","0","",""
"null","","213382","HierDyeoydg61w","b0u995rqhs","msl000824","iti","img/motor_blank.png","null","68","motor","","","","","","",""
"467","","213858","HierDyeoydg61w","b0u995rqhs","msl000824","motor","img/motor_2.png","83","83","motor","2","250","1","0","0","",""
"null","","213969","HierDyeoydg61w","b0u995rqhs","msl000824","iti","img/motor_blank.png","null","83","motor","","","","","","",""
"487","","214463","HierDyeoydg61w","b0u995rqhs","msl000824","motor","img/motor_1.png","65","65","motor","1","251","1","0","0","",""
"null","","214571","HierDyeoydg61w","b0u995rqhs","msl000824","iti","img/motor_blank.png","null","65","motor","","","","","","",""
"462","","215040","HierDyeoydg61w","b0u995rqhs","msl000824","motor","img/motor_4.png","70","70","motor","4","252","1","0","0","",""
"null","","215150","HierDyeoydg61w","b0u995rqhs","msl000824","iti","img/motor_blank.png","null","70","motor","","","","","","",""
"451","","215610","HierDyeoydg61w","b0u995rqhs","msl000824","motor","img/motor_8.png","76","76","motor","8","253","1","0","0","",""
"null","","215721","HierDyeoydg61w","b0u995rqhs","msl000824","iti","img/motor_blank.png","null","76","motor","","","","","","",""
"406","","216137","HierDyeoydg61w","b0u995rqhs","msl000824","motor","img/motor_6.png","74","74","motor","6","254","1","0","0","",""
"null","","216247","HierDyeoydg61w","b0u995rqhs","msl000824","iti","img/motor_blank.png","null","74","motor","","","","","","",""
"485","","216743","HierDyeoydg61w","b0u995rqhs","msl000824","motor","img/motor_4.png","70","70","motor","4","255","1","0","0","",""
"null","","216852","HierDyeoydg61w","b0u995rqhs","msl000824","iti","img/motor_blank.png","null","70","motor","","","","","","",""
"413","","217273","HierDyeoydg61w","b0u995rqhs","msl000824","motor","img/motor_3.png","68","68","motor","3","256","1","0","0","",""
"null","","217383","HierDyeoydg61w","b0u995rqhs","msl000824","iti","img/motor_blank.png","null","68","motor","","","","","","",""
"425","","217818","HierDyeoydg61w","b0u995rqhs","msl000824","motor","img/motor_2.png","83","83","motor","2","257","1","0","0","",""
"null","","217927","HierDyeoydg61w","b0u995rqhs","msl000824","iti","img/motor_blank.png","null","83","motor","","","","","","",""
"474","","218409","HierDyeoydg61w","b0u995rqhs","msl000824","motor","img/motor_3.png","68","68","motor","3","258","1","0","0","",""
"null","","218520","HierDyeoydg61w","b0u995rqhs","msl000824","iti","img/motor_blank.png","null","68","motor","","","","","","",""
"387","","218917","HierDyeoydg61w","b0u995rqhs","msl000824","motor","img/motor_3.png","68","68","motor","3","259","1","0","0","",""
"null","","219027","HierDyeoydg61w","b0u995rqhs","msl000824","iti","img/motor_blank.png","null","68","motor","","","","","","",""
"419","","219454","HierDyeoydg61w","b0u995rqhs","msl000824","motor","img/motor_2.png","83","83","motor","2","260","1","0","0","",""
"null","","219563","HierDyeoydg61w","b0u995rqhs","msl000824","iti","img/motor_blank.png","null","83","motor","","","","","","",""
"414","","219985","HierDyeoydg61w","b0u995rqhs","msl000824","motor","img/motor_3.png","68","68","motor","3","261","1","0","0","",""
"null","","220092","HierDyeoydg61w","b0u995rqhs","msl000824","iti","img/motor_blank.png","null","68","motor","","","","","","",""
"420","","220522","HierDyeoydg61w","b0u995rqhs","msl000824","motor","img/motor_8.png","76","76","motor","8","262","1","0","0","",""
"null","","220633","HierDyeoydg61w","b0u995rqhs","msl000824","iti","img/motor_blank.png","null","76","motor","","","","","","",""
"418","","221059","HierDyeoydg61w","b0u995rqhs","msl000824","motor","img/motor_6.png","74","74","motor","6","263","1","0","0","",""
"null","","221168","HierDyeoydg61w","b0u995rqhs","msl000824","iti","img/motor_blank.png","null","74","motor","","","","","","",""
"450","","221628","HierDyeoydg61w","b0u995rqhs","msl000824","motor","img/motor_8.png","76","76","motor","8","264","1","0","0","",""
"null","","221738","HierDyeoydg61w","b0u995rqhs","msl000824","iti","img/motor_blank.png","null","76","motor","","","","","","",""
"418","","222166","HierDyeoydg61w","b0u995rqhs","msl000824","motor","img/motor_1.png","65","65","motor","1","265","1","0","0","",""
"null","","222277","HierDyeoydg61w","b0u995rqhs","msl000824","iti","img/motor_blank.png","null","65","motor","","","","","","",""
"454","","222741","HierDyeoydg61w","b0u995rqhs","msl000824","motor","img/motor_5.png","72","72","motor","5","266","1","0","0","",""
"null","","222851","HierDyeoydg61w","b0u995rqhs","msl000824","iti","img/motor_blank.png","null","72","motor","","","","","","",""
"448","","223308","HierDyeoydg61w","b0u995rqhs","msl000824","motor","img/motor_7.png","75","75","motor","7","267","1","0","0","",""
"null","","223417","HierDyeoydg61w","b0u995rqhs","msl000824","iti","img/motor_blank.png","null","75","motor","","","","","","",""
"456","","223882","HierDyeoydg61w","b0u995rqhs","msl000824","motor","img/motor_5.png","72","72","motor","5","268","1","0","0","",""
"null","","223993","HierDyeoydg61w","b0u995rqhs","msl000824","iti","img/motor_blank.png","null","72","motor","","","","","","",""
"383","","224384","HierDyeoydg61w","b0u995rqhs","msl000824","motor","img/motor_8.png","75","76","motor","8","269","0","1","0","",""
"437","","224831","HierDyeoydg61w","b0u995rqhs","msl000824","motorRepeat","img/motor_8.png","76","76","motor","8","269","1","0","0","",""
"null","","224940","HierDyeoydg61w","b0u995rqhs","msl000824","iti","img/motor_blank.png","null","76","motor","","","","","","",""
"447","","225397","HierDyeoydg61w","b0u995rqhs","msl000824","motor","img/motor_1.png","65","65","motor","1","270","1","0","0","",""
"null","","225507","HierDyeoydg61w","b0u995rqhs","msl000824","iti","img/motor_blank.png","null","65","motor","","","","","","",""
"482","","225998","HierDyeoydg61w","b0u995rqhs","msl000824","motor","img/motor_8.png","76","76","motor","8","271","1","0","0","",""
"null","","226109","HierDyeoydg61w","b0u995rqhs","msl000824","iti","img/motor_blank.png","null","76","motor","","","","","","",""
"749","","226868","HierDyeoydg61w","b0u995rqhs","msl000824","motor","img/motor_1.png","65","65","motor","1","272","1","0","0","",""
"null","","226980","HierDyeoydg61w","b0u995rqhs","msl000824","iti","img/motor_blank.png","null","65","motor","","","","","","",""
"397","","227385","HierDyeoydg61w","b0u995rqhs","msl000824","motor","img/motor_2.png","83","83","motor","2","273","1","0","0","",""
"null","","227495","HierDyeoydg61w","b0u995rqhs","msl000824","iti","img/motor_blank.png","null","83","motor","","","","","","",""
"395","","227901","HierDyeoydg61w","b0u995rqhs","msl000824","motor","img/motor_3.png","68","68","motor","3","274","1","0","0","",""
"null","","228010","HierDyeoydg61w","b0u995rqhs","msl000824","iti","img/motor_blank.png","null","68","motor","","","","","","",""
"470","","228490","HierDyeoydg61w","b0u995rqhs","msl000824","motor","img/motor_6.png","74","74","motor","6","275","1","0","0","",""
"null","","228601","HierDyeoydg61w","b0u995rqhs","msl000824","iti","img/motor_blank.png","null","74","motor","","","","","","",""
"448","","229055","HierDyeoydg61w","b0u995rqhs","msl000824","motor","img/motor_1.png","65","65","motor","1","276","1","0","0","",""
"null","","229165","HierDyeoydg61w","b0u995rqhs","msl000824","iti","img/motor_blank.png","null","65","motor","","","","","","",""
"579","","229753","HierDyeoydg61w","b0u995rqhs","msl000824","motor","img/motor_1.png","65","65","motor","1","277","1","0","0","",""
"null","","229863","HierDyeoydg61w","b0u995rqhs","msl000824","iti","img/motor_blank.png","null","65","motor","","","","","","",""
"395","","230265","HierDyeoydg61w","b0u995rqhs","msl000824","motor","img/motor_3.png","68","68","motor","3","278","1","0","0","",""
"null","","230376","HierDyeoydg61w","b0u995rqhs","msl000824","iti","img/motor_blank.png","null","68","motor","","","","","","",""
"488","","230869","HierDyeoydg61w","b0u995rqhs","msl000824","motor","img/motor_4.png","70","70","motor","4","279","1","0","0","",""
"null","","230978","HierDyeoydg61w","b0u995rqhs","msl000824","iti","img/motor_blank.png","null","70","motor","","","","","","",""
"407","","231395","HierDyeoydg61w","b0u995rqhs","msl000824","motor","img/motor_6.png","74","74","motor","6","280","1","0","0","",""
"null","","231505","HierDyeoydg61w","b0u995rqhs","msl000824","iti","img/motor_blank.png","null","74","motor","","","","","","",""
"463","","231978","HierDyeoydg61w","b0u995rqhs","msl000824","motor","img/motor_1.png","65","65","motor","1","281","1","0","0","",""
"null","","232087","HierDyeoydg61w","b0u995rqhs","msl000824","iti","img/motor_blank.png","null","65","motor","","","","","","",""
"506","","232604","HierDyeoydg61w","b0u995rqhs","msl000824","motor","img/motor_1.png","65","65","motor","1","282","1","0","0","",""
"null","","232714","HierDyeoydg61w","b0u995rqhs","msl000824","iti","img/motor_blank.png","null","65","motor","","","","","","",""
"392","","233115","HierDyeoydg61w","b0u995rqhs","msl000824","motor","img/motor_7.png","74","75","motor","7","283","0","1","0","",""
"388","","233512","HierDyeoydg61w","b0u995rqhs","msl000824","motorRepeat","img/motor_7.png","75","75","motor","7","283","1","0","0","",""
"null","","233623","HierDyeoydg61w","b0u995rqhs","msl000824","iti","img/motor_blank.png","null","75","motor","","","","","","",""
"547","","234178","HierDyeoydg61w","b0u995rqhs","msl000824","motor","img/motor_2.png","68","83","motor","2","284","0","1","0","",""
"339","","234525","HierDyeoydg61w","b0u995rqhs","msl000824","motorRepeat","img/motor_2.png","83","83","motor","2","284","1","0","0","",""
"null","","234633","HierDyeoydg61w","b0u995rqhs","msl000824","iti","img/motor_blank.png","null","83","motor","","","","","","",""
"480","","235121","HierDyeoydg61w","b0u995rqhs","msl000824","motor","img/motor_5.png","72","72","motor","5","285","1","0","0","",""
"null","","235230","HierDyeoydg61w","b0u995rqhs","msl000824","iti","img/motor_blank.png","null","72","motor","","","","","","",""
"514","","235749","HierDyeoydg61w","b0u995rqhs","msl000824","motor","img/motor_6.png","74","74","motor","6","286","1","0","0","",""
"null","","235860","HierDyeoydg61w","b0u995rqhs","msl000824","iti","img/motor_blank.png","null","74","motor","","","","","","",""
"485","","236354","HierDyeoydg61w","b0u995rqhs","msl000824","motor","img/motor_2.png","83","83","motor","2","287","1","0","0","",""
"null","","236462","HierDyeoydg61w","b0u995rqhs","msl000824","iti","img/motor_blank.png","null","83","motor","","","","","","",""
"449","","236920","HierDyeoydg61w","b0u995rqhs","msl000824","motor","img/motor_4.png","70","70","motor","4","288","1","0","0","",""
"null","","237030","HierDyeoydg61w","b0u995rqhs","msl000824","iti","img/motor_blank.png","null","70","motor","","","","","","",""
"383","","237421","HierDyeoydg61w","b0u995rqhs","msl000824","motor","img/motor_3.png","68","68","motor","3","289","1","0","0","",""
"null","","237529","HierDyeoydg61w","b0u995rqhs","msl000824","iti","img/motor_blank.png","null","68","motor","","","","","","",""
"453","","237991","HierDyeoydg61w","b0u995rqhs","msl000824","motor","img/motor_7.png","75","75","motor","7","290","1","0","0","",""
"null","","238100","HierDyeoydg61w","b0u995rqhs","msl000824","iti","img/motor_blank.png","null","75","motor","","","","","","",""
"426","","238536","HierDyeoydg61w","b0u995rqhs","msl000824","motor","img/motor_7.png","75","75","motor","7","291","1","0","0","",""
"null","","238647","HierDyeoydg61w","b0u995rqhs","msl000824","iti","img/motor_blank.png","null","75","motor","","","","","","",""
"497","","239151","HierDyeoydg61w","b0u995rqhs","msl000824","motor","img/motor_3.png","70","68","motor","3","292","0","1","0","",""
"314","","239476","HierDyeoydg61w","b0u995rqhs","msl000824","motorRepeat","img/motor_3.png","68","68","motor","3","292","1","0","0","",""
"null","","239588","HierDyeoydg61w","b0u995rqhs","msl000824","iti","img/motor_blank.png","null","68","motor","","","","","","",""
"574","","240170","HierDyeoydg61w","b0u995rqhs","msl000824","motor","img/motor_5.png","72","72","motor","5","293","1","0","0","",""
"null","","240278","HierDyeoydg61w","b0u995rqhs","msl000824","iti","img/motor_blank.png","null","72","motor","","","","","","",""
"457","","240745","HierDyeoydg61w","b0u995rqhs","msl000824","motor","img/motor_1.png","65","65","motor","1","294","1","0","0","",""
"null","","240855","HierDyeoydg61w","b0u995rqhs","msl000824","iti","img/motor_blank.png","null","65","motor","","","","","","",""
"499","","241362","HierDyeoydg61w","b0u995rqhs","msl000824","motor","img/motor_3.png","68","68","motor","3","295","1","0","0","",""
"null","","241473","HierDyeoydg61w","b0u995rqhs","msl000824","iti","img/motor_blank.png","null","68","motor","","","","","","",""
"445","","241926","HierDyeoydg61w","b0u995rqhs","msl000824","motor","img/motor_8.png","76","76","motor","8","296","1","0","0","",""
"null","","242036","HierDyeoydg61w","b0u995rqhs","msl000824","iti","img/motor_blank.png","null","76","motor","","","","","","",""
"459","","242507","HierDyeoydg61w","b0u995rqhs","msl000824","motor","img/motor_3.png","83","68","motor","3","297","0","1","0","",""
"435","","242951","HierDyeoydg61w","b0u995rqhs","msl000824","motorRepeat","img/motor_3.png","68","68","motor","3","297","1","0","0","",""
"null","","243061","HierDyeoydg61w","b0u995rqhs","msl000824","iti","img/motor_blank.png","null","68","motor","","","","","","",""
"432","","243501","HierDyeoydg61w","b0u995rqhs","msl000824","motor","img/motor_1.png","65","65","motor","1","298","1","0","0","",""
"null","","243612","HierDyeoydg61w","b0u995rqhs","msl000824","iti","img/motor_blank.png","null","65","motor","","","","","","",""
"531","","244152","HierDyeoydg61w","b0u995rqhs","msl000824","motor","img/motor_4.png","70","70","motor","4","299","1","0","0","",""
"null","","244263","HierDyeoydg61w","b0u995rqhs","msl000824","iti","img/motor_blank.png","null","70","motor","","","","","","",""
"433","","244706","HierDyeoydg61w","b0u995rqhs","msl000824","motor","img/motor_6.png","74","74","motor","6","300","1","0","0","",""
"null","","244817","HierDyeoydg61w","b0u995rqhs","msl000824","iti","img/motor_blank.png","null","74","motor","","","","","","",""
"478","","245304","HierDyeoydg61w","b0u995rqhs","msl000824","motor","img/motor_8.png","76","76","motor","8","301","1","0","0","",""
"null","","245414","HierDyeoydg61w","b0u995rqhs","msl000824","iti","img/motor_blank.png","null","76","motor","","","","","","",""
"495","","245918","HierDyeoydg61w","b0u995rqhs","msl000824","motor","img/motor_3.png","68","68","motor","3","302","1","0","0","",""
"null","","246030","HierDyeoydg61w","b0u995rqhs","msl000824","iti","img/motor_blank.png","null","68","motor","","","","","","",""
"662","","246701","HierDyeoydg61w","b0u995rqhs","msl000824","motor","img/motor_6.png","75","74","motor","6","303","0","1","0","",""
"66","","246774","HierDyeoydg61w","b0u995rqhs","msl000824","motorRepeat","img/motor_6.png","74","74","motor","6","303","1","0","0","",""
"null","","246886","HierDyeoydg61w","b0u995rqhs","msl000824","iti","img/motor_blank.png","null","74","motor","","","","","","",""
"515","","247410","HierDyeoydg61w","b0u995rqhs","msl000824","motor","img/motor_6.png","74","74","motor","6","304","1","0","0","",""
"null","","247521","HierDyeoydg61w","b0u995rqhs","msl000824","iti","img/motor_blank.png","null","74","motor","","","","","","",""
"596","","248127","HierDyeoydg61w","b0u995rqhs","msl000824","motor","img/motor_4.png","74","70","motor","4","305","0","1","0","",""
"296","","248431","HierDyeoydg61w","b0u995rqhs","msl000824","motorRepeat","img/motor_4.png","70","70","motor","4","305","1","0","0","",""
"null","","248543","HierDyeoydg61w","b0u995rqhs","msl000824","iti","img/motor_blank.png","null","70","motor","","","","","","",""
"507","","249060","HierDyeoydg61w","b0u995rqhs","msl000824","motor","img/motor_6.png","74","74","motor","6","306","1","0","0","",""
"null","","249170","HierDyeoydg61w","b0u995rqhs","msl000824","iti","img/motor_blank.png","null","74","motor","","","","","","",""
"485","","249664","HierDyeoydg61w","b0u995rqhs","msl000824","motor","img/motor_7.png","75","75","motor","7","307","1","0","0","",""
"null","","249775","HierDyeoydg61w","b0u995rqhs","msl000824","iti","img/motor_blank.png","null","75","motor","","","","","","",""
"416","","250200","HierDyeoydg61w","b0u995rqhs","msl000824","motor","img/motor_8.png","76","76","motor","8","308","1","0","0","",""
"null","","250312","HierDyeoydg61w","b0u995rqhs","msl000824","iti","img/motor_blank.png","null","76","motor","","","","","","",""
"680","","251000","HierDyeoydg61w","b0u995rqhs","msl000824","motor","img/motor_5.png","72","72","motor","5","309","1","0","0","",""
"null","","251111","HierDyeoydg61w","b0u995rqhs","msl000824","iti","img/motor_blank.png","null","72","motor","","","","","","",""
"515","","251636","HierDyeoydg61w","b0u995rqhs","msl000824","motor","img/motor_1.png","65","65","motor","1","310","1","0","0","",""
"null","","251747","HierDyeoydg61w","b0u995rqhs","msl000824","iti","img/motor_blank.png","null","65","motor","","","","","","",""
"536","","252293","HierDyeoydg61w","b0u995rqhs","msl000824","motor","img/motor_6.png","74","74","motor","6","311","1","0","0","",""
"null","","252404","HierDyeoydg61w","b0u995rqhs","msl000824","iti","img/motor_blank.png","null","74","motor","","","","","","",""
"729","","253141","HierDyeoydg61w","b0u995rqhs","msl000824","motor","img/motor_4.png","70","70","motor","4","312","1","0","0","",""
"null","","253251","HierDyeoydg61w","b0u995rqhs","msl000824","iti","img/motor_blank.png","null","70","motor","","","","","","",""
"457","","253718","HierDyeoydg61w","b0u995rqhs","msl000824","motor","img/motor_2.png","83","83","motor","2","313","1","0","0","",""
"null","","253827","HierDyeoydg61w","b0u995rqhs","msl000824","iti","img/motor_blank.png","null","83","motor","","","","","","",""
"514","","254351","HierDyeoydg61w","b0u995rqhs","msl000824","motor","img/motor_6.png","72","74","motor","6","314","0","1","0","",""
"346","","254708","HierDyeoydg61w","b0u995rqhs","msl000824","motorRepeat","img/motor_6.png","74","74","motor","6","314","1","0","0","",""
"null","","254818","HierDyeoydg61w","b0u995rqhs","msl000824","iti","img/motor_blank.png","null","74","motor","","","","","","",""
"453","","255281","HierDyeoydg61w","b0u995rqhs","msl000824","motor","img/motor_7.png","75","75","motor","7","315","1","0","0","",""
"null","","255392","HierDyeoydg61w","b0u995rqhs","msl000824","iti","img/motor_blank.png","null","75","motor","","","","","","",""
"416","","255816","HierDyeoydg61w","b0u995rqhs","msl000824","motor","img/motor_5.png","72","72","motor","5","316","1","0","0","",""
"null","","255924","HierDyeoydg61w","b0u995rqhs","msl000824","iti","img/motor_blank.png","null","72","motor","","","","","","",""
"529","","256461","HierDyeoydg61w","b0u995rqhs","msl000824","motor","img/motor_3.png","68","68","motor","3","317","1","0","0","",""
"null","","256569","HierDyeoydg61w","b0u995rqhs","msl000824","iti","img/motor_blank.png","null","68","motor","","","","","","",""
"462","","257037","HierDyeoydg61w","b0u995rqhs","msl000824","motor","img/motor_3.png","68","68","motor","3","318","1","0","0","",""
"null","","257145","HierDyeoydg61w","b0u995rqhs","msl000824","iti","img/motor_blank.png","null","68","motor","","","","","","",""
"453","","257604","HierDyeoydg61w","b0u995rqhs","msl000824","motor","img/motor_1.png","65","65","motor","1","319","1","0","0","",""
"null","","257711","HierDyeoydg61w","b0u995rqhs","msl000824","iti","img/motor_blank.png","null","65","motor","","","","","","",""
"553","","258272","HierDyeoydg61w","b0u995rqhs","msl000824","motor","img/motor_7.png","74","75","motor","7","320","0","1","0","",""
"450","","258730","HierDyeoydg61w","b0u995rqhs","msl000824","motorRepeat","img/motor_7.png","75","75","motor","7","320","1","0","0","",""
"null","","258838","HierDyeoydg61w","b0u995rqhs","msl000824","iti","img/motor_blank.png","null","75","motor","","","","","","",""
"526","","259372","HierDyeoydg61w","b0u995rqhs","msl000824","motor","img/motor_3.png","68","68","motor","3","321","1","0","0","",""
"null","","259479","HierDyeoydg61w","b0u995rqhs","msl000824","iti","img/motor_blank.png","null","68","motor","","","","","","",""
"428","","259915","HierDyeoydg61w","b0u995rqhs","msl000824","motor","img/motor_2.png","83","83","motor","2","322","1","0","0","",""
"null","","260023","HierDyeoydg61w","b0u995rqhs","msl000824","iti","img/motor_blank.png","null","83","motor","","","","","","",""
"465","","260496","HierDyeoydg61w","b0u995rqhs","msl000824","motor","img/motor_5.png","72","72","motor","5","323","1","0","0","",""
"null","","260604","HierDyeoydg61w","b0u995rqhs","msl000824","iti","img/motor_blank.png","null","72","motor","","","","","","",""
"516","","261128","HierDyeoydg61w","b0u995rqhs","msl000824","motor","img/motor_2.png","83","83","motor","2","324","1","0","0","",""
"null","","261236","HierDyeoydg61w","b0u995rqhs","msl000824","iti","img/motor_blank.png","null","83","motor","","","","","","",""
"549","","261791","HierDyeoydg61w","b0u995rqhs","msl000824","motor","img/motor_8.png","76","76","motor","8","325","1","0","0","",""
"null","","261902","HierDyeoydg61w","b0u995rqhs","msl000824","iti","img/motor_blank.png","null","76","motor","","","","","","",""
"472","","262383","HierDyeoydg61w","b0u995rqhs","msl000824","motor","img/motor_7.png","75","75","motor","7","326","1","0","0","",""
"null","","262492","HierDyeoydg61w","b0u995rqhs","msl000824","iti","img/motor_blank.png","null","75","motor","","","","","","",""
"476","","262975","HierDyeoydg61w","b0u995rqhs","msl000824","motor","img/motor_8.png","76","76","motor","8","327","1","0","0","",""
"null","","263083","HierDyeoydg61w","b0u995rqhs","msl000824","iti","img/motor_blank.png","null","76","motor","","","","","","",""
"567","","263658","HierDyeoydg61w","b0u995rqhs","msl000824","motor","img/motor_4.png","70","70","motor","4","328","1","0","0","",""
"null","","263766","HierDyeoydg61w","b0u995rqhs","msl000824","iti","img/motor_blank.png","null","70","motor","","","","","","",""
"451","","264223","HierDyeoydg61w","b0u995rqhs","msl000824","motor","img/motor_2.png","83","83","motor","2","329","1","0","0","",""
"null","","264330","HierDyeoydg61w","b0u995rqhs","msl000824","iti","img/motor_blank.png","null","83","motor","","","","","","",""
"449","","264785","HierDyeoydg61w","b0u995rqhs","msl000824","motor","img/motor_1.png","65","65","motor","1","330","1","0","0","",""
"null","","264894","HierDyeoydg61w","b0u995rqhs","msl000824","iti","img/motor_blank.png","null","65","motor","","","","","","",""
"468","","265369","HierDyeoydg61w","b0u995rqhs","msl000824","motor","img/motor_5.png","72","72","motor","5","331","1","0","0","",""
"null","","265478","HierDyeoydg61w","b0u995rqhs","msl000824","iti","img/motor_blank.png","null","72","motor","","","","","","",""
"533","","266018","HierDyeoydg61w","b0u995rqhs","msl000824","motor","img/motor_4.png","70","70","motor","4","332","1","0","0","",""
"null","","266126","HierDyeoydg61w","b0u995rqhs","msl000824","iti","img/motor_blank.png","null","70","motor","","","","","","",""
"452","","266583","HierDyeoydg61w","b0u995rqhs","msl000824","motor","img/motor_7.png","75","75","motor","7","333","1","0","0","",""
"null","","266695","HierDyeoydg61w","b0u995rqhs","msl000824","iti","img/motor_blank.png","null","75","motor","","","","","","",""
"473","","267176","HierDyeoydg61w","b0u995rqhs","msl000824","motor","img/motor_3.png","68","68","motor","3","334","1","0","0","",""
"null","","267285","HierDyeoydg61w","b0u995rqhs","msl000824","iti","img/motor_blank.png","null","68","motor","","","","","","",""
"475","","267766","HierDyeoydg61w","b0u995rqhs","msl000824","motor","img/motor_7.png","75","75","motor","7","335","1","0","0","",""
"null","","267874","HierDyeoydg61w","b0u995rqhs","msl000824","iti","img/motor_blank.png","null","75","motor","","","","","","",""
"525","","268405","HierDyeoydg61w","b0u995rqhs","msl000824","motor","img/motor_5.png","72","72","motor","5","336","1","0","0","",""
"null","","268514","HierDyeoydg61w","b0u995rqhs","msl000824","iti","img/motor_blank.png","null","72","motor","","","","","","",""
"461","","268982","HierDyeoydg61w","b0u995rqhs","msl000824","motor","img/motor_1.png","65","65","motor","1","337","1","0","0","",""
"null","","269090","HierDyeoydg61w","b0u995rqhs","msl000824","iti","img/motor_blank.png","null","65","motor","","","","","","",""
"488","","269587","HierDyeoydg61w","b0u995rqhs","msl000824","motor","img/motor_3.png","68","68","motor","3","338","1","0","0","",""
"null","","269698","HierDyeoydg61w","b0u995rqhs","msl000824","iti","img/motor_blank.png","null","68","motor","","","","","","",""
"472","","270178","HierDyeoydg61w","b0u995rqhs","msl000824","motor","img/motor_8.png","76","76","motor","8","339","1","0","0","",""
"null","","270286","HierDyeoydg61w","b0u995rqhs","msl000824","iti","img/motor_blank.png","null","76","motor","","","","","","",""
"469","","270762","HierDyeoydg61w","b0u995rqhs","msl000824","motor","img/motor_8.png","76","76","motor","8","340","1","0","0","",""
"null","","270872","HierDyeoydg61w","b0u995rqhs","msl000824","iti","img/motor_blank.png","null","76","motor","","","","","","",""
"448","","271329","HierDyeoydg61w","b0u995rqhs","msl000824","motor","img/motor_1.png","65","65","motor","1","341","1","0","0","",""
"null","","271438","HierDyeoydg61w","b0u995rqhs","msl000824","iti","img/motor_blank.png","null","65","motor","","","","","","",""
"640","","272087","HierDyeoydg61w","b0u995rqhs","msl000824","motor","img/motor_8.png","76","76","motor","8","342","1","0","0","",""
"null","","272198","HierDyeoydg61w","b0u995rqhs","msl000824","iti","img/motor_blank.png","null","76","motor","","","","","","",""
"498","","272705","HierDyeoydg61w","b0u995rqhs","msl000824","motor","img/motor_8.png","76","76","motor","8","343","1","0","0","",""
"null","","272817","HierDyeoydg61w","b0u995rqhs","msl000824","iti","img/motor_blank.png","null","76","motor","","","","","","",""
"510","","273337","HierDyeoydg61w","b0u995rqhs","msl000824","motor","img/motor_5.png","72","72","motor","5","344","1","0","0","",""
"null","","273446","HierDyeoydg61w","b0u995rqhs","msl000824","iti","img/motor_blank.png","null","72","motor","","","","","","",""
"454","","273910","HierDyeoydg61w","b0u995rqhs","msl000824","motor","img/motor_1.png","65","65","motor","1","345","1","0","0","",""
"null","","274021","HierDyeoydg61w","b0u995rqhs","msl000824","iti","img/motor_blank.png","null","65","motor","","","","","","",""
"428","","274459","HierDyeoydg61w","b0u995rqhs","msl000824","motor","img/motor_8.png","76","76","motor","8","346","1","0","0","",""
"null","","274570","HierDyeoydg61w","b0u995rqhs","msl000824","iti","img/motor_blank.png","null","76","motor","","","","","","",""
"544","","275123","HierDyeoydg61w","b0u995rqhs","msl000824","motor","img/motor_4.png","70","70","motor","4","347","1","0","0","",""
"null","","275235","HierDyeoydg61w","b0u995rqhs","msl000824","iti","img/motor_blank.png","null","70","motor","","","","","","",""
"487","","275732","HierDyeoydg61w","b0u995rqhs","msl000824","motor","img/motor_7.png","75","75","motor","7","348","1","0","0","",""
"null","","275843","HierDyeoydg61w","b0u995rqhs","msl000824","iti","img/motor_blank.png","null","75","motor","","","","","","",""
"531","","276383","HierDyeoydg61w","b0u995rqhs","msl000824","motor","img/motor_4.png","70","70","motor","4","349","1","0","0","",""
"null","","276495","HierDyeoydg61w","b0u995rqhs","msl000824","iti","img/motor_blank.png","null","70","motor","","","","","","",""
"476","","276980","HierDyeoydg61w","b0u995rqhs","msl000824","motor","img/motor_7.png","75","75","motor","7","350","1","0","0","",""
"null","","277089","HierDyeoydg61w","b0u995rqhs","msl000824","iti","img/motor_blank.png","null","75","motor","","","","","","",""
"469","","277569","HierDyeoydg61w","b0u995rqhs","msl000824","motor","img/motor_6.png","74","74","motor","6","351","1","0","0","",""
"null","","277679","HierDyeoydg61w","b0u995rqhs","msl000824","iti","img/motor_blank.png","null","74","motor","","","","","","",""
"562","","278250","HierDyeoydg61w","b0u995rqhs","msl000824","motor","img/motor_1.png","65","65","motor","1","352","1","0","0","",""
"null","","278361","HierDyeoydg61w","b0u995rqhs","msl000824","iti","img/motor_blank.png","null","65","motor","","","","","","",""
"529","","278901","HierDyeoydg61w","b0u995rqhs","msl000824","motor","img/motor_4.png","70","70","motor","4","353","1","0","0","",""
"null","","279012","HierDyeoydg61w","b0u995rqhs","msl000824","iti","img/motor_blank.png","null","70","motor","","","","","","",""
"475","","279497","HierDyeoydg61w","b0u995rqhs","msl000824","motor","img/motor_8.png","76","76","motor","8","354","1","0","0","",""
"null","","279608","HierDyeoydg61w","b0u995rqhs","msl000824","iti","img/motor_blank.png","null","76","motor","","","","","","",""
"444","","280063","HierDyeoydg61w","b0u995rqhs","msl000824","motor","img/motor_6.png","74","74","motor","6","355","1","0","0","",""
"null","","280172","HierDyeoydg61w","b0u995rqhs","msl000824","iti","img/motor_blank.png","null","74","motor","","","","","","",""
"567","","280750","HierDyeoydg61w","b0u995rqhs","msl000824","motor","img/motor_3.png","68","68","motor","3","356","1","0","0","",""
"null","","280861","HierDyeoydg61w","b0u995rqhs","msl000824","iti","img/motor_blank.png","null","68","motor","","","","","","",""
"395","","281263","HierDyeoydg61w","b0u995rqhs","msl000824","motor","img/motor_3.png","68","68","motor","3","357","1","0","0","",""
"null","","281371","HierDyeoydg61w","b0u995rqhs","msl000824","iti","img/motor_blank.png","null","68","motor","","","","","","",""
"445","","281822","HierDyeoydg61w","b0u995rqhs","msl000824","motor","img/motor_1.png","65","65","motor","1","358","1","0","0","",""
"null","","281930","HierDyeoydg61w","b0u995rqhs","msl000824","iti","img/motor_blank.png","null","65","motor","","","","","","",""
"432","","282371","HierDyeoydg61w","b0u995rqhs","msl000824","motor","img/motor_6.png","74","74","motor","6","359","1","0","0","",""
"null","","282481","HierDyeoydg61w","b0u995rqhs","msl000824","iti","img/motor_blank.png","null","74","motor","","","","","","",""
"492","","282983","HierDyeoydg61w","b0u995rqhs","msl000824","motor","img/motor_1.png","65","65","motor","1","360","1","0","0","",""
"null","","283094","HierDyeoydg61w","b0u995rqhs","msl000824","iti","img/motor_blank.png","null","65","motor","","","","","","",""
"517","","283620","HierDyeoydg61w","b0u995rqhs","msl000824","motor","img/motor_2.png","83","83","motor","2","361","1","0","0","",""
"null","","283731","HierDyeoydg61w","b0u995rqhs","msl000824","iti","img/motor_blank.png","null","83","motor","","","","","","",""
"442","","284181","HierDyeoydg61w","b0u995rqhs","msl000824","motor","img/motor_4.png","70","70","motor","4","362","1","0","0","",""
"null","","284292","HierDyeoydg61w","b0u995rqhs","msl000824","iti","img/motor_blank.png","null","70","motor","","","","","","",""
"424","","284722","HierDyeoydg61w","b0u995rqhs","msl000824","motor","img/motor_5.png","72","72","motor","5","363","1","0","0","",""
"null","","284831","HierDyeoydg61w","b0u995rqhs","msl000824","iti","img/motor_blank.png","null","72","motor","","","","","","",""
"431","","285268","HierDyeoydg61w","b0u995rqhs","msl000824","motor","img/motor_5.png","72","72","motor","5","364","1","0","0","",""
"null","","285378","HierDyeoydg61w","b0u995rqhs","msl000824","iti","img/motor_blank.png","null","72","motor","","","","","","",""
"547","","285933","HierDyeoydg61w","b0u995rqhs","msl000824","motor","img/motor_2.png","68","83","motor","2","365","0","1","0","",""
"267","","286210","HierDyeoydg61w","b0u995rqhs","msl000824","motorRepeat","img/motor_2.png","83","83","motor","2","365","1","0","0","",""
"null","","286320","HierDyeoydg61w","b0u995rqhs","msl000824","iti","img/motor_blank.png","null","83","motor","","","","","","",""
"359","","286690","HierDyeoydg61w","b0u995rqhs","msl000824","motor","img/motor_2.png","83","83","motor","2","366","1","0","0","",""
"null","","286801","HierDyeoydg61w","b0u995rqhs","msl000824","iti","img/motor_blank.png","null","83","motor","","","","","","",""
"411","","287221","HierDyeoydg61w","b0u995rqhs","msl000824","motor","img/motor_1.png","65","65","motor","1","367","1","0","0","",""
"null","","287331","HierDyeoydg61w","b0u995rqhs","msl000824","iti","img/motor_blank.png","null","65","motor","","","","","","",""
