"rt","responses","time_elapsed","subject","prolificID","demoID","trialType","stimulus","key_press","corrresp","phase","stimNum","trialNum","corr","repeatTrial","motorSwitch","pracCounter","hierarchy"
"15507","{""Q0"":""msl000834""}","15560","HierDyo2z4pl64","cmsh9ceenc","msl000834","","","","","","","","","","","",""
"840","","16407","HierDyo2z4pl64","cmsh9ceenc","msl000834","","","","","","","","","","","",""
"","","18233","HierDyo2z4pl64","cmsh9ceenc","msl000834","fullscreen","","","","","","","","","","",""
"137713","","155955","HierDyo2z4pl64","cmsh9ceenc","msl000834","","","","","","","","","","","",""
"1805","","157771","HierDyo2z4pl64","cmsh9ceenc","msl000834","motor","img/motor_1.png","65","65","motor","1","1","1","0","0","",""
"null","","157881","HierDyo2z4pl64","cmsh9ceenc","msl000834","iti","img/motor_blank.png","null","65","motor","","","","","","",""
"1515","","159406","HierDyo2z4pl64","cmsh9ceenc","msl000834","motor","img/motor_7.png","75","75","motor","7","2","1","0","0","",""
"null","","159515","HierDyo2z4pl64","cmsh9ceenc","msl000834","iti","img/motor_blank.png","null","75","motor","","","","","","",""
"719","","160244","HierDyo2z4pl64","cmsh9ceenc","msl000834","motor","img/motor_8.png","76","76","motor","8","3","1","0","0","",""
"null","","160355","HierDyo2z4pl64","cmsh9ceenc","msl000834","iti","img/motor_blank.png","null","76","motor","","","","","","",""
"1460","","161826","HierDyo2z4pl64","cmsh9ceenc","msl000834","motor","img/motor_2.png","83","83","motor","2","4","1","0","0","",""
"null","","161937","HierDyo2z4pl64","cmsh9ceenc","msl000834","iti","img/motor_blank.png","null","83","motor","","","","","","",""
"945","","162887","HierDyo2z4pl64","cmsh9ceenc","msl000834","motor","img/motor_3.png","68","68","motor","3","5","1","0","0","",""
"null","","162995","HierDyo2z4pl64","cmsh9ceenc","msl000834","iti","img/motor_blank.png","null","68","motor","","","","","","",""
"668","","163672","HierDyo2z4pl64","cmsh9ceenc","msl000834","motor","img/motor_2.png","83","83","motor","2","6","1","0","0","",""
"null","","163781","HierDyo2z4pl64","cmsh9ceenc","msl000834","iti","img/motor_blank.png","null","83","motor","","","","","","",""
"764","","164556","HierDyo2z4pl64","cmsh9ceenc","msl000834","motor","img/motor_7.png","75","75","motor","7","7","1","0","0","",""
"null","","164666","HierDyo2z4pl64","cmsh9ceenc","msl000834","iti","img/motor_blank.png","null","75","motor","","","","","","",""
"668","","165343","HierDyo2z4pl64","cmsh9ceenc","msl000834","motor","img/motor_2.png","83","83","motor","2","8","1","0","0","",""
"null","","165454","HierDyo2z4pl64","cmsh9ceenc","msl000834","iti","img/motor_blank.png","null","83","motor","","","","","","",""
"660","","166121","HierDyo2z4pl64","cmsh9ceenc","msl000834","motor","img/motor_3.png","68","68","motor","3","9","1","0","0","",""
"null","","166229","HierDyo2z4pl64","cmsh9ceenc","msl000834","iti","img/motor_blank.png","null","68","motor","","","","","","",""
"828","","167067","HierDyo2z4pl64","cmsh9ceenc","msl000834","motor","img/motor_7.png","75","75","motor","7","10","1","0","0","",""
"null","","167178","HierDyo2z4pl64","cmsh9ceenc","msl000834","iti","img/motor_blank.png","null","75","motor","","","","","","",""
"778","","167965","HierDyo2z4pl64","cmsh9ceenc","msl000834","motor","img/motor_6.png","74","74","motor","6","11","1","0","0","",""
"null","","168073","HierDyo2z4pl64","cmsh9ceenc","msl000834","iti","img/motor_blank.png","null","74","motor","","","","","","",""
"1057","","169137","HierDyo2z4pl64","cmsh9ceenc","msl000834","motor","img/motor_5.png","72","72","motor","5","12","1","0","0","",""
"null","","169247","HierDyo2z4pl64","cmsh9ceenc","msl000834","iti","img/motor_blank.png","null","72","motor","","","","","","",""
"829","","170086","HierDyo2z4pl64","cmsh9ceenc","msl000834","motor","img/motor_2.png","83","83","motor","2","13","1","0","0","",""
"null","","170196","HierDyo2z4pl64","cmsh9ceenc","msl000834","iti","img/motor_blank.png","null","83","motor","","","","","","",""
"1499","","171703","HierDyo2z4pl64","cmsh9ceenc","msl000834","motor","img/motor_6.png","74","74","motor","6","14","1","0","0","",""
"null","","171815","HierDyo2z4pl64","cmsh9ceenc","msl000834","iti","img/motor_blank.png","null","74","motor","","","","","","",""
"629","","172453","HierDyo2z4pl64","cmsh9ceenc","msl000834","motor","img/motor_6.png","74","74","motor","6","15","1","0","0","",""
"null","","172564","HierDyo2z4pl64","cmsh9ceenc","msl000834","iti","img/motor_blank.png","null","74","motor","","","","","","",""
"2368","","174938","HierDyo2z4pl64","cmsh9ceenc","msl000834","motor","img/motor_1.png","65","65","motor","1","16","1","0","0","",""
"null","","175046","HierDyo2z4pl64","cmsh9ceenc","msl000834","iti","img/motor_blank.png","null","65","motor","","","","","","",""
"1722","","176773","HierDyo2z4pl64","cmsh9ceenc","msl000834","motor","img/motor_4.png","70","70","motor","4","17","1","0","0","",""
"null","","176881","HierDyo2z4pl64","cmsh9ceenc","msl000834","iti","img/motor_blank.png","null","70","motor","","","","","","",""
"2122","","179010","HierDyo2z4pl64","cmsh9ceenc","msl000834","motor","img/motor_4.png","70","70","motor","4","18","1","0","0","",""
"null","","179117","HierDyo2z4pl64","cmsh9ceenc","msl000834","iti","img/motor_blank.png","null","70","motor","","","","","","",""
"645","","179768","HierDyo2z4pl64","cmsh9ceenc","msl000834","motor","img/motor_1.png","65","65","motor","1","19","1","0","0","",""
"null","","179875","HierDyo2z4pl64","cmsh9ceenc","msl000834","iti","img/motor_blank.png","null","65","motor","","","","","","",""
"955","","180837","HierDyo2z4pl64","cmsh9ceenc","msl000834","motor","img/motor_5.png","72","72","motor","5","20","1","0","0","",""
"null","","180944","HierDyo2z4pl64","cmsh9ceenc","msl000834","iti","img/motor_blank.png","null","72","motor","","","","","","",""
"736","","181686","HierDyo2z4pl64","cmsh9ceenc","msl000834","motor","img/motor_4.png","70","70","motor","4","21","1","0","0","",""
"null","","181792","HierDyo2z4pl64","cmsh9ceenc","msl000834","iti","img/motor_blank.png","null","70","motor","","","","","","",""
"611","","182409","HierDyo2z4pl64","cmsh9ceenc","msl000834","motor","img/motor_5.png","72","72","motor","5","22","1","0","0","",""
"null","","182517","HierDyo2z4pl64","cmsh9ceenc","msl000834","iti","img/motor_blank.png","null","72","motor","","","","","","",""
"570","","183092","HierDyo2z4pl64","cmsh9ceenc","msl000834","motor","img/motor_1.png","65","65","motor","1","23","1","0","0","",""
"null","","183199","HierDyo2z4pl64","cmsh9ceenc","msl000834","iti","img/motor_blank.png","null","65","motor","","","","","","",""
"1594","","184799","HierDyo2z4pl64","cmsh9ceenc","msl000834","motor","img/motor_3.png","68","68","motor","3","24","1","0","0","",""
"null","","184905","HierDyo2z4pl64","cmsh9ceenc","msl000834","iti","img/motor_blank.png","null","68","motor","","","","","","",""
"619","","185531","HierDyo2z4pl64","cmsh9ceenc","msl000834","motor","img/motor_6.png","74","74","motor","6","25","1","0","0","",""
"null","","185635","HierDyo2z4pl64","cmsh9ceenc","msl000834","iti","img/motor_blank.png","null","74","motor","","","","","","",""
"767","","186408","HierDyo2z4pl64","cmsh9ceenc","msl000834","motor","img/motor_4.png","70","70","motor","4","26","1","0","0","",""
"null","","186517","HierDyo2z4pl64","cmsh9ceenc","msl000834","iti","img/motor_blank.png","null","70","motor","","","","","","",""
"623","","187146","HierDyo2z4pl64","cmsh9ceenc","msl000834","motor","img/motor_3.png","68","68","motor","3","27","1","0","0","",""
"null","","187253","HierDyo2z4pl64","cmsh9ceenc","msl000834","iti","img/motor_blank.png","null","68","motor","","","","","","",""
"776","","188035","HierDyo2z4pl64","cmsh9ceenc","msl000834","motor","img/motor_5.png","72","72","motor","5","28","1","0","0","",""
"null","","188143","HierDyo2z4pl64","cmsh9ceenc","msl000834","iti","img/motor_blank.png","null","72","motor","","","","","","",""
"558","","188708","HierDyo2z4pl64","cmsh9ceenc","msl000834","motor","img/motor_7.png","75","75","motor","7","29","1","0","0","",""
"null","","188816","HierDyo2z4pl64","cmsh9ceenc","msl000834","iti","img/motor_blank.png","null","75","motor","","","","","","",""
"567","","189389","HierDyo2z4pl64","cmsh9ceenc","msl000834","motor","img/motor_7.png","75","75","motor","7","30","1","0","0","",""
"null","","189496","HierDyo2z4pl64","cmsh9ceenc","msl000834","iti","img/motor_blank.png","null","75","motor","","","","","","",""
"651","","190153","HierDyo2z4pl64","cmsh9ceenc","msl000834","motor","img/motor_4.png","70","70","motor","4","31","1","0","0","",""
"null","","190261","HierDyo2z4pl64","cmsh9ceenc","msl000834","iti","img/motor_blank.png","null","70","motor","","","","","","",""
"541","","190807","HierDyo2z4pl64","cmsh9ceenc","msl000834","motor","img/motor_4.png","70","70","motor","4","32","1","0","0","",""
"null","","190915","HierDyo2z4pl64","cmsh9ceenc","msl000834","iti","img/motor_blank.png","null","70","motor","","","","","","",""
"629","","191550","HierDyo2z4pl64","cmsh9ceenc","msl000834","motor","img/motor_7.png","75","75","motor","7","33","1","0","0","",""
"null","","191658","HierDyo2z4pl64","cmsh9ceenc","msl000834","iti","img/motor_blank.png","null","75","motor","","","","","","",""
"444","","192106","HierDyo2z4pl64","cmsh9ceenc","msl000834","motor","img/motor_3.png","70","68","motor","3","34","0","1","0","",""
"582","","192695","HierDyo2z4pl64","cmsh9ceenc","msl000834","motorRepeat","img/motor_3.png","83","68","motor","3","34","0","1","0","",""
"1681","","194382","HierDyo2z4pl64","cmsh9ceenc","msl000834","motorRepeat","img/motor_3.png","68","68","motor","3","34","1","0","0","",""
"null","","194490","HierDyo2z4pl64","cmsh9ceenc","msl000834","iti","img/motor_blank.png","null","68","motor","","","","","","",""
"536","","195033","HierDyo2z4pl64","cmsh9ceenc","msl000834","motor","img/motor_4.png","70","70","motor","4","35","1","0","0","",""
"null","","195139","HierDyo2z4pl64","cmsh9ceenc","msl000834","iti","img/motor_blank.png","null","70","motor","","","","","","",""
"620","","195765","HierDyo2z4pl64","cmsh9ceenc","msl000834","motor","img/motor_1.png","65","65","motor","1","36","1","0","0","",""
"null","","195872","HierDyo2z4pl64","cmsh9ceenc","msl000834","iti","img/motor_blank.png","null","65","motor","","","","","","",""
"686","","196564","HierDyo2z4pl64","cmsh9ceenc","msl000834","motor","img/motor_7.png","75","75","motor","7","37","1","0","0","",""
"null","","196671","HierDyo2z4pl64","cmsh9ceenc","msl000834","iti","img/motor_blank.png","null","75","motor","","","","","","",""
"564","","197242","HierDyo2z4pl64","cmsh9ceenc","msl000834","motor","img/motor_7.png","75","75","motor","7","38","1","0","0","",""
"null","","197349","HierDyo2z4pl64","cmsh9ceenc","msl000834","iti","img/motor_blank.png","null","75","motor","","","","","","",""
"701","","198057","HierDyo2z4pl64","cmsh9ceenc","msl000834","motor","img/motor_6.png","74","74","motor","6","39","1","0","0","",""
"null","","198164","HierDyo2z4pl64","cmsh9ceenc","msl000834","iti","img/motor_blank.png","null","74","motor","","","","","","",""
"938","","199109","HierDyo2z4pl64","cmsh9ceenc","msl000834","motor","img/motor_8.png","76","76","motor","8","40","1","0","0","",""
"null","","199217","HierDyo2z4pl64","cmsh9ceenc","msl000834","iti","img/motor_blank.png","null","76","motor","","","","","","",""
"795","","200021","HierDyo2z4pl64","cmsh9ceenc","msl000834","motor","img/motor_2.png","83","83","motor","2","41","1","0","0","",""
"null","","200129","HierDyo2z4pl64","cmsh9ceenc","msl000834","iti","img/motor_blank.png","null","83","motor","","","","","","",""
"652","","200790","HierDyo2z4pl64","cmsh9ceenc","msl000834","motor","img/motor_7.png","75","75","motor","7","42","1","0","0","",""
"null","","200897","HierDyo2z4pl64","cmsh9ceenc","msl000834","iti","img/motor_blank.png","null","75","motor","","","","","","",""
"860","","201764","HierDyo2z4pl64","cmsh9ceenc","msl000834","motor","img/motor_1.png","65","65","motor","1","43","1","0","0","",""
"null","","201874","HierDyo2z4pl64","cmsh9ceenc","msl000834","iti","img/motor_blank.png","null","65","motor","","","","","","",""
"643","","202524","HierDyo2z4pl64","cmsh9ceenc","msl000834","motor","img/motor_8.png","76","76","motor","8","44","1","0","0","",""
"null","","202632","HierDyo2z4pl64","cmsh9ceenc","msl000834","iti","img/motor_blank.png","null","76","motor","","","","","","",""
"633","","203272","HierDyo2z4pl64","cmsh9ceenc","msl000834","motor","img/motor_5.png","72","72","motor","5","45","1","0","0","",""
"null","","203378","HierDyo2z4pl64","cmsh9ceenc","msl000834","iti","img/motor_blank.png","null","72","motor","","","","","","",""
"633","","204021","HierDyo2z4pl64","cmsh9ceenc","msl000834","motor","img/motor_3.png","68","68","motor","3","46","1","0","0","",""
"null","","204130","HierDyo2z4pl64","cmsh9ceenc","msl000834","iti","img/motor_blank.png","null","68","motor","","","","","","",""
"700","","204837","HierDyo2z4pl64","cmsh9ceenc","msl000834","motor","img/motor_1.png","65","65","motor","1","47","1","0","0","",""
"null","","204945","HierDyo2z4pl64","cmsh9ceenc","msl000834","iti","img/motor_blank.png","null","65","motor","","","","","","",""
"868","","205820","HierDyo2z4pl64","cmsh9ceenc","msl000834","motor","img/motor_7.png","75","75","motor","7","48","1","0","0","",""
"null","","205929","HierDyo2z4pl64","cmsh9ceenc","msl000834","iti","img/motor_blank.png","null","75","motor","","","","","","",""
"924","","206860","HierDyo2z4pl64","cmsh9ceenc","msl000834","motor","img/motor_2.png","83","83","motor","2","49","1","0","0","",""
"null","","206967","HierDyo2z4pl64","cmsh9ceenc","msl000834","iti","img/motor_blank.png","null","83","motor","","","","","","",""
"1035","","208009","HierDyo2z4pl64","cmsh9ceenc","msl000834","motor","img/motor_7.png","75","75","motor","7","50","1","0","0","",""
"null","","208117","HierDyo2z4pl64","cmsh9ceenc","msl000834","iti","img/motor_blank.png","null","75","motor","","","","","","",""
"702","","208825","HierDyo2z4pl64","cmsh9ceenc","msl000834","motor","img/motor_2.png","83","83","motor","2","51","1","0","0","",""
"null","","208932","HierDyo2z4pl64","cmsh9ceenc","msl000834","iti","img/motor_blank.png","null","83","motor","","","","","","",""
"1425","","210363","HierDyo2z4pl64","cmsh9ceenc","msl000834","motor","img/motor_5.png","72","72","motor","5","52","1","0","0","",""
"null","","210470","HierDyo2z4pl64","cmsh9ceenc","msl000834","iti","img/motor_blank.png","null","72","motor","","","","","","",""
"927","","211402","HierDyo2z4pl64","cmsh9ceenc","msl000834","motor","img/motor_2.png","83","83","motor","2","53","1","0","0","",""
"null","","211508","HierDyo2z4pl64","cmsh9ceenc","msl000834","iti","img/motor_blank.png","null","83","motor","","","","","","",""
"708","","212221","HierDyo2z4pl64","cmsh9ceenc","msl000834","motor","img/motor_1.png","65","65","motor","1","54","1","0","0","",""
"null","","212329","HierDyo2z4pl64","cmsh9ceenc","msl000834","iti","img/motor_blank.png","null","65","motor","","","","","","",""
"585","","212920","HierDyo2z4pl64","cmsh9ceenc","msl000834","motor","img/motor_8.png","76","76","motor","8","55","1","0","0","",""
"null","","213027","HierDyo2z4pl64","cmsh9ceenc","msl000834","iti","img/motor_blank.png","null","76","motor","","","","","","",""
"489","","213521","HierDyo2z4pl64","cmsh9ceenc","msl000834","motor","img/motor_7.png","75","75","motor","7","56","1","0","0","",""
"null","","213629","HierDyo2z4pl64","cmsh9ceenc","msl000834","iti","img/motor_blank.png","null","75","motor","","","","","","",""
"564","","214199","HierDyo2z4pl64","cmsh9ceenc","msl000834","motor","img/motor_6.png","74","74","motor","6","57","1","0","0","",""
"null","","214305","HierDyo2z4pl64","cmsh9ceenc","msl000834","iti","img/motor_blank.png","null","74","motor","","","","","","",""
"965","","215278","HierDyo2z4pl64","cmsh9ceenc","msl000834","motor","img/motor_4.png","70","70","motor","4","58","1","0","0","",""
"null","","215385","HierDyo2z4pl64","cmsh9ceenc","msl000834","iti","img/motor_blank.png","null","70","motor","","","","","","",""
"855","","216246","HierDyo2z4pl64","cmsh9ceenc","msl000834","motor","img/motor_2.png","83","83","motor","2","59","1","0","0","",""
"null","","216353","HierDyo2z4pl64","cmsh9ceenc","msl000834","iti","img/motor_blank.png","null","83","motor","","","","","","",""
"535","","216895","HierDyo2z4pl64","cmsh9ceenc","msl000834","motor","img/motor_8.png","76","76","motor","8","60","1","0","0","",""
"null","","217002","HierDyo2z4pl64","cmsh9ceenc","msl000834","iti","img/motor_blank.png","null","76","motor","","","","","","",""
"494","","217502","HierDyo2z4pl64","cmsh9ceenc","msl000834","motor","img/motor_7.png","75","75","motor","7","61","1","0","0","",""
"null","","217609","HierDyo2z4pl64","cmsh9ceenc","msl000834","iti","img/motor_blank.png","null","75","motor","","","","","","",""
"554","","218170","HierDyo2z4pl64","cmsh9ceenc","msl000834","motor","img/motor_1.png","65","65","motor","1","62","1","0","0","",""
"null","","218276","HierDyo2z4pl64","cmsh9ceenc","msl000834","iti","img/motor_blank.png","null","65","motor","","","","","","",""
"458","","218741","HierDyo2z4pl64","cmsh9ceenc","msl000834","motor","img/motor_8.png","76","76","motor","8","63","1","0","0","",""
"null","","218849","HierDyo2z4pl64","cmsh9ceenc","msl000834","iti","img/motor_blank.png","null","76","motor","","","","","","",""
"564","","219420","HierDyo2z4pl64","cmsh9ceenc","msl000834","motor","img/motor_5.png","72","72","motor","5","64","1","0","0","",""
"null","","219526","HierDyo2z4pl64","cmsh9ceenc","msl000834","iti","img/motor_blank.png","null","72","motor","","","","","","",""
"619","","220151","HierDyo2z4pl64","cmsh9ceenc","msl000834","motor","img/motor_8.png","76","76","motor","8","65","1","0","0","",""
"null","","220259","HierDyo2z4pl64","cmsh9ceenc","msl000834","iti","img/motor_blank.png","null","76","motor","","","","","","",""
"795","","221060","HierDyo2z4pl64","cmsh9ceenc","msl000834","motor","img/motor_4.png","70","70","motor","4","66","1","0","0","",""
"null","","221165","HierDyo2z4pl64","cmsh9ceenc","msl000834","iti","img/motor_blank.png","null","70","motor","","","","","","",""
"552","","221722","HierDyo2z4pl64","cmsh9ceenc","msl000834","motor","img/motor_5.png","72","72","motor","5","67","1","0","0","",""
"null","","221831","HierDyo2z4pl64","cmsh9ceenc","msl000834","iti","img/motor_blank.png","null","72","motor","","","","","","",""
"875","","222710","HierDyo2z4pl64","cmsh9ceenc","msl000834","motor","img/motor_4.png","70","70","motor","4","68","1","0","0","",""
"null","","222817","HierDyo2z4pl64","cmsh9ceenc","msl000834","iti","img/motor_blank.png","null","70","motor","","","","","","",""
"547","","223371","HierDyo2z4pl64","cmsh9ceenc","msl000834","motor","img/motor_1.png","65","65","motor","1","69","1","0","0","",""
"null","","223477","HierDyo2z4pl64","cmsh9ceenc","msl000834","iti","img/motor_blank.png","null","65","motor","","","","","","",""
"574","","224058","HierDyo2z4pl64","cmsh9ceenc","msl000834","motor","img/motor_4.png","70","70","motor","4","70","1","0","0","",""
"null","","224166","HierDyo2z4pl64","cmsh9ceenc","msl000834","iti","img/motor_blank.png","null","70","motor","","","","","","",""
"712","","224886","HierDyo2z4pl64","cmsh9ceenc","msl000834","motor","img/motor_6.png","74","74","motor","6","71","1","0","0","",""
"null","","224993","HierDyo2z4pl64","cmsh9ceenc","msl000834","iti","img/motor_blank.png","null","74","motor","","","","","","",""
"617","","225616","HierDyo2z4pl64","cmsh9ceenc","msl000834","motor","img/motor_7.png","75","75","motor","7","72","1","0","0","",""
"null","","225723","HierDyo2z4pl64","cmsh9ceenc","msl000834","iti","img/motor_blank.png","null","75","motor","","","","","","",""
"744","","226474","HierDyo2z4pl64","cmsh9ceenc","msl000834","motor","img/motor_3.png","68","68","motor","3","73","1","0","0","",""
"null","","226581","HierDyo2z4pl64","cmsh9ceenc","msl000834","iti","img/motor_blank.png","null","68","motor","","","","","","",""
"859","","227446","HierDyo2z4pl64","cmsh9ceenc","msl000834","motor","img/motor_6.png","72","74","motor","6","74","0","1","0","",""
"586","","228039","HierDyo2z4pl64","cmsh9ceenc","msl000834","motorRepeat","img/motor_6.png","74","74","motor","6","74","1","0","0","",""
"null","","228146","HierDyo2z4pl64","cmsh9ceenc","msl000834","iti","img/motor_blank.png","null","74","motor","","","","","","",""
"857","","229011","HierDyo2z4pl64","cmsh9ceenc","msl000834","motor","img/motor_2.png","83","83","motor","2","75","1","0","0","",""
"null","","229118","HierDyo2z4pl64","cmsh9ceenc","msl000834","iti","img/motor_blank.png","null","83","motor","","","","","","",""
"681","","229807","HierDyo2z4pl64","cmsh9ceenc","msl000834","motor","img/motor_8.png","76","76","motor","8","76","1","0","0","",""
"null","","229914","HierDyo2z4pl64","cmsh9ceenc","msl000834","iti","img/motor_blank.png","null","76","motor","","","","","","",""
"554","","230474","HierDyo2z4pl64","cmsh9ceenc","msl000834","motor","img/motor_7.png","75","75","motor","7","77","1","0","0","",""
"null","","230581","HierDyo2z4pl64","cmsh9ceenc","msl000834","iti","img/motor_blank.png","null","75","motor","","","","","","",""
"565","","231152","HierDyo2z4pl64","cmsh9ceenc","msl000834","motor","img/motor_6.png","74","74","motor","6","78","1","0","0","",""
"null","","231259","HierDyo2z4pl64","cmsh9ceenc","msl000834","iti","img/motor_blank.png","null","74","motor","","","","","","",""
"593","","231860","HierDyo2z4pl64","cmsh9ceenc","msl000834","motor","img/motor_5.png","72","72","motor","5","79","1","0","0","",""
"null","","231966","HierDyo2z4pl64","cmsh9ceenc","msl000834","iti","img/motor_blank.png","null","72","motor","","","","","","",""
"862","","232835","HierDyo2z4pl64","cmsh9ceenc","msl000834","motor","img/motor_7.png","75","75","motor","7","80","1","0","0","",""
"null","","232942","HierDyo2z4pl64","cmsh9ceenc","msl000834","iti","img/motor_blank.png","null","75","motor","","","","","","",""
"576","","233525","HierDyo2z4pl64","cmsh9ceenc","msl000834","motor","img/motor_7.png","75","75","motor","7","81","1","0","0","",""
"null","","233633","HierDyo2z4pl64","cmsh9ceenc","msl000834","iti","img/motor_blank.png","null","75","motor","","","","","","",""
"507","","234148","HierDyo2z4pl64","cmsh9ceenc","msl000834","motor","img/motor_8.png","76","76","motor","8","82","1","0","0","",""
"null","","234254","HierDyo2z4pl64","cmsh9ceenc","msl000834","iti","img/motor_blank.png","null","76","motor","","","","","","",""
"444","","234706","HierDyo2z4pl64","cmsh9ceenc","msl000834","motor","img/motor_8.png","76","76","motor","8","83","1","0","0","",""
"null","","234813","HierDyo2z4pl64","cmsh9ceenc","msl000834","iti","img/motor_blank.png","null","76","motor","","","","","","",""
"504","","235324","HierDyo2z4pl64","cmsh9ceenc","msl000834","motor","img/motor_1.png","65","65","motor","1","84","1","0","0","",""
"null","","235429","HierDyo2z4pl64","cmsh9ceenc","msl000834","iti","img/motor_blank.png","null","65","motor","","","","","","",""
"524","","235961","HierDyo2z4pl64","cmsh9ceenc","msl000834","motor","img/motor_2.png","83","83","motor","2","85","1","0","0","",""
"null","","236068","HierDyo2z4pl64","cmsh9ceenc","msl000834","iti","img/motor_blank.png","null","83","motor","","","","","","",""
"618","","236693","HierDyo2z4pl64","cmsh9ceenc","msl000834","motor","img/motor_3.png","68","68","motor","3","86","1","0","0","",""
"null","","236801","HierDyo2z4pl64","cmsh9ceenc","msl000834","iti","img/motor_blank.png","null","68","motor","","","","","","",""
"723","","237532","HierDyo2z4pl64","cmsh9ceenc","msl000834","motor","img/motor_1.png","65","65","motor","1","87","1","0","0","",""
"null","","237638","HierDyo2z4pl64","cmsh9ceenc","msl000834","iti","img/motor_blank.png","null","65","motor","","","","","","",""
"544","","238190","HierDyo2z4pl64","cmsh9ceenc","msl000834","motor","img/motor_7.png","75","75","motor","7","88","1","0","0","",""
"null","","238297","HierDyo2z4pl64","cmsh9ceenc","msl000834","iti","img/motor_blank.png","null","75","motor","","","","","","",""
"1000","","239303","HierDyo2z4pl64","cmsh9ceenc","msl000834","motor","img/motor_1.png","65","65","motor","1","89","1","0","0","",""
"null","","239408","HierDyo2z4pl64","cmsh9ceenc","msl000834","iti","img/motor_blank.png","null","65","motor","","","","","","",""
"428","","239843","HierDyo2z4pl64","cmsh9ceenc","msl000834","motor","img/motor_8.png","76","76","motor","8","90","1","0","0","",""
"null","","239948","HierDyo2z4pl64","cmsh9ceenc","msl000834","iti","img/motor_blank.png","null","76","motor","","","","","","",""
"875","","240830","HierDyo2z4pl64","cmsh9ceenc","msl000834","motor","img/motor_3.png","68","68","motor","3","91","1","0","0","",""
"null","","240937","HierDyo2z4pl64","cmsh9ceenc","msl000834","iti","img/motor_blank.png","null","68","motor","","","","","","",""
"502","","241447","HierDyo2z4pl64","cmsh9ceenc","msl000834","motor","img/motor_1.png","65","65","motor","1","92","1","0","0","",""
"null","","241554","HierDyo2z4pl64","cmsh9ceenc","msl000834","iti","img/motor_blank.png","null","65","motor","","","","","","",""
"512","","242075","HierDyo2z4pl64","cmsh9ceenc","msl000834","motor","img/motor_7.png","75","75","motor","7","93","1","0","0","",""
"null","","242182","HierDyo2z4pl64","cmsh9ceenc","msl000834","iti","img/motor_blank.png","null","75","motor","","","","","","",""
"574","","242764","HierDyo2z4pl64","cmsh9ceenc","msl000834","motor","img/motor_8.png","76","76","motor","8","94","1","0","0","",""
"null","","242869","HierDyo2z4pl64","cmsh9ceenc","msl000834","iti","img/motor_blank.png","null","76","motor","","","","","","",""
"876","","243752","HierDyo2z4pl64","cmsh9ceenc","msl000834","motor","img/motor_3.png","68","68","motor","3","95","1","0","0","",""
"null","","243858","HierDyo2z4pl64","cmsh9ceenc","msl000834","iti","img/motor_blank.png","null","68","motor","","","","","","",""
"605","","244469","HierDyo2z4pl64","cmsh9ceenc","msl000834","motor","img/motor_6.png","75","74","motor","6","96","0","1","0","",""
"436","","244912","HierDyo2z4pl64","cmsh9ceenc","msl000834","motorRepeat","img/motor_6.png","74","74","motor","6","96","1","0","0","",""
"null","","245019","HierDyo2z4pl64","cmsh9ceenc","msl000834","iti","img/motor_blank.png","null","74","motor","","","","","","",""
"518","","245544","HierDyo2z4pl64","cmsh9ceenc","msl000834","motor","img/motor_7.png","75","75","motor","7","97","1","0","0","",""
"null","","245651","HierDyo2z4pl64","cmsh9ceenc","msl000834","iti","img/motor_blank.png","null","75","motor","","","","","","",""
"650","","246306","HierDyo2z4pl64","cmsh9ceenc","msl000834","motor","img/motor_8.png","76","76","motor","8","98","1","0","0","",""
"null","","246412","HierDyo2z4pl64","cmsh9ceenc","msl000834","iti","img/motor_blank.png","null","76","motor","","","","","","",""
"530","","246949","HierDyo2z4pl64","cmsh9ceenc","msl000834","motor","img/motor_8.png","76","76","motor","8","99","1","0","0","",""
"null","","247055","HierDyo2z4pl64","cmsh9ceenc","msl000834","iti","img/motor_blank.png","null","76","motor","","","","","","",""
"695","","247758","HierDyo2z4pl64","cmsh9ceenc","msl000834","motor","img/motor_3.png","68","68","motor","3","100","1","0","0","",""
"null","","247865","HierDyo2z4pl64","cmsh9ceenc","msl000834","iti","img/motor_blank.png","null","68","motor","","","","","","",""
"654","","248525","HierDyo2z4pl64","cmsh9ceenc","msl000834","motor","img/motor_3.png","68","68","motor","3","101","1","0","0","",""
"null","","248633","HierDyo2z4pl64","cmsh9ceenc","msl000834","iti","img/motor_blank.png","null","68","motor","","","","","","",""
"814","","249454","HierDyo2z4pl64","cmsh9ceenc","msl000834","motor","img/motor_4.png","70","70","motor","4","102","1","0","0","",""
"null","","249561","HierDyo2z4pl64","cmsh9ceenc","msl000834","iti","img/motor_blank.png","null","70","motor","","","","","","",""
"770","","250337","HierDyo2z4pl64","cmsh9ceenc","msl000834","motor","img/motor_2.png","83","83","motor","2","103","1","0","0","",""
"null","","250444","HierDyo2z4pl64","cmsh9ceenc","msl000834","iti","img/motor_blank.png","null","83","motor","","","","","","",""
"684","","251136","HierDyo2z4pl64","cmsh9ceenc","msl000834","motor","img/motor_6.png","74","74","motor","6","104","1","0","0","",""
"null","","251245","HierDyo2z4pl64","cmsh9ceenc","msl000834","iti","img/motor_blank.png","null","74","motor","","","","","","",""
"573","","251826","HierDyo2z4pl64","cmsh9ceenc","msl000834","motor","img/motor_1.png","65","65","motor","1","105","1","0","0","",""
"null","","251933","HierDyo2z4pl64","cmsh9ceenc","msl000834","iti","img/motor_blank.png","null","65","motor","","","","","","",""
"526","","252465","HierDyo2z4pl64","cmsh9ceenc","msl000834","motor","img/motor_2.png","83","83","motor","2","106","1","0","0","",""
"null","","252573","HierDyo2z4pl64","cmsh9ceenc","msl000834","iti","img/motor_blank.png","null","83","motor","","","","","","",""
"926","","253505","HierDyo2z4pl64","cmsh9ceenc","msl000834","motor","img/motor_5.png","72","72","motor","5","107","1","0","0","",""
"null","","253612","HierDyo2z4pl64","cmsh9ceenc","msl000834","iti","img/motor_blank.png","null","72","motor","","","","","","",""
"589","","254209","HierDyo2z4pl64","cmsh9ceenc","msl000834","motor","img/motor_3.png","68","68","motor","3","108","1","0","0","",""
"null","","254316","HierDyo2z4pl64","cmsh9ceenc","msl000834","iti","img/motor_blank.png","null","68","motor","","","","","","",""
"680","","255002","HierDyo2z4pl64","cmsh9ceenc","msl000834","motor","img/motor_2.png","83","83","motor","2","109","1","0","0","",""
"null","","255109","HierDyo2z4pl64","cmsh9ceenc","msl000834","iti","img/motor_blank.png","null","83","motor","","","","","","",""
"689","","255805","HierDyo2z4pl64","cmsh9ceenc","msl000834","motor","img/motor_8.png","76","76","motor","8","110","1","0","0","",""
"null","","255912","HierDyo2z4pl64","cmsh9ceenc","msl000834","iti","img/motor_blank.png","null","76","motor","","","","","","",""
"532","","256451","HierDyo2z4pl64","cmsh9ceenc","msl000834","motor","img/motor_7.png","75","75","motor","7","111","1","0","0","",""
"null","","256559","HierDyo2z4pl64","cmsh9ceenc","msl000834","iti","img/motor_blank.png","null","75","motor","","","","","","",""
"1101","","257667","HierDyo2z4pl64","cmsh9ceenc","msl000834","motor","img/motor_4.png","70","70","motor","4","112","1","0","0","",""
"null","","257774","HierDyo2z4pl64","cmsh9ceenc","msl000834","iti","img/motor_blank.png","null","70","motor","","","","","","",""
"514","","258294","HierDyo2z4pl64","cmsh9ceenc","msl000834","motor","img/motor_1.png","65","65","motor","1","113","1","0","0","",""
"null","","258401","HierDyo2z4pl64","cmsh9ceenc","msl000834","iti","img/motor_blank.png","null","65","motor","","","","","","",""
"429","","258837","HierDyo2z4pl64","cmsh9ceenc","msl000834","motor","img/motor_8.png","76","76","motor","8","114","1","0","0","",""
"null","","258945","HierDyo2z4pl64","cmsh9ceenc","msl000834","iti","img/motor_blank.png","null","76","motor","","","","","","",""
"965","","259917","HierDyo2z4pl64","cmsh9ceenc","msl000834","motor","img/motor_6.png","74","74","motor","6","115","1","0","0","",""
"null","","260024","HierDyo2z4pl64","cmsh9ceenc","msl000834","iti","img/motor_blank.png","null","74","motor","","","","","","",""
"673","","260704","HierDyo2z4pl64","cmsh9ceenc","msl000834","motor","img/motor_6.png","74","74","motor","6","116","1","0","0","",""
"null","","260812","HierDyo2z4pl64","cmsh9ceenc","msl000834","iti","img/motor_blank.png","null","74","motor","","","","","","",""
"687","","261507","HierDyo2z4pl64","cmsh9ceenc","msl000834","motor","img/motor_5.png","72","72","motor","5","117","1","0","0","",""
"null","","261613","HierDyo2z4pl64","cmsh9ceenc","msl000834","iti","img/motor_blank.png","null","72","motor","","","","","","",""
"469","","262089","HierDyo2z4pl64","cmsh9ceenc","msl000834","motor","img/motor_8.png","76","76","motor","8","118","1","0","0","",""
"null","","262197","HierDyo2z4pl64","cmsh9ceenc","msl000834","iti","img/motor_blank.png","null","76","motor","","","","","","",""
"560","","262762","HierDyo2z4pl64","cmsh9ceenc","msl000834","motor","img/motor_1.png","65","65","motor","1","119","1","0","0","",""
"null","","262869","HierDyo2z4pl64","cmsh9ceenc","msl000834","iti","img/motor_blank.png","null","65","motor","","","","","","",""
"470","","263347","HierDyo2z4pl64","cmsh9ceenc","msl000834","motor","img/motor_8.png","76","76","motor","8","120","1","0","0","",""
"null","","263454","HierDyo2z4pl64","cmsh9ceenc","msl000834","iti","img/motor_blank.png","null","76","motor","","","","","","",""
"537","","264000","HierDyo2z4pl64","cmsh9ceenc","msl000834","motor","img/motor_5.png","72","72","motor","5","121","1","0","0","",""
"null","","264107","HierDyo2z4pl64","cmsh9ceenc","msl000834","iti","img/motor_blank.png","null","72","motor","","","","","","",""
"467","","264579","HierDyo2z4pl64","cmsh9ceenc","msl000834","motor","img/motor_1.png","65","65","motor","1","122","1","0","0","",""
"null","","264686","HierDyo2z4pl64","cmsh9ceenc","msl000834","iti","img/motor_blank.png","null","65","motor","","","","","","",""
"824","","265515","HierDyo2z4pl64","cmsh9ceenc","msl000834","motor","img/motor_4.png","70","70","motor","4","123","1","0","0","",""
"null","","265623","HierDyo2z4pl64","cmsh9ceenc","msl000834","iti","img/motor_blank.png","null","70","motor","","","","","","",""
"460","","266090","HierDyo2z4pl64","cmsh9ceenc","msl000834","motor","img/motor_4.png","70","70","motor","4","124","1","0","0","",""
"null","","266197","HierDyo2z4pl64","cmsh9ceenc","msl000834","iti","img/motor_blank.png","null","70","motor","","","","","","",""
"679","","266883","HierDyo2z4pl64","cmsh9ceenc","msl000834","motor","img/motor_6.png","74","74","motor","6","125","1","0","0","",""
"null","","266990","HierDyo2z4pl64","cmsh9ceenc","msl000834","iti","img/motor_blank.png","null","74","motor","","","","","","",""
"644","","267642","HierDyo2z4pl64","cmsh9ceenc","msl000834","motor","img/motor_3.png","68","68","motor","3","126","1","0","0","",""
"null","","267749","HierDyo2z4pl64","cmsh9ceenc","msl000834","iti","img/motor_blank.png","null","68","motor","","","","","","",""
"563","","268323","HierDyo2z4pl64","cmsh9ceenc","msl000834","motor","img/motor_7.png","75","75","motor","7","127","1","0","0","",""
"null","","268431","HierDyo2z4pl64","cmsh9ceenc","msl000834","iti","img/motor_blank.png","null","75","motor","","","","","","",""
"572","","269011","HierDyo2z4pl64","cmsh9ceenc","msl000834","motor","img/motor_5.png","72","72","motor","5","128","1","0","0","",""
"null","","269120","HierDyo2z4pl64","cmsh9ceenc","msl000834","iti","img/motor_blank.png","null","72","motor","","","","","","",""
"483","","269609","HierDyo2z4pl64","cmsh9ceenc","msl000834","motor","img/motor_7.png","75","75","motor","7","129","1","0","0","",""
"null","","269718","HierDyo2z4pl64","cmsh9ceenc","msl000834","iti","img/motor_blank.png","null","75","motor","","","","","","",""
"770","","270495","HierDyo2z4pl64","cmsh9ceenc","msl000834","motor","img/motor_2.png","83","83","motor","2","130","1","0","0","",""
"null","","270602","HierDyo2z4pl64","cmsh9ceenc","msl000834","iti","img/motor_blank.png","null","83","motor","","","","","","",""
"727","","271336","HierDyo2z4pl64","cmsh9ceenc","msl000834","motor","img/motor_6.png","74","74","motor","6","131","1","0","0","",""
"null","","271443","HierDyo2z4pl64","cmsh9ceenc","msl000834","iti","img/motor_blank.png","null","74","motor","","","","","","",""
"819","","272270","HierDyo2z4pl64","cmsh9ceenc","msl000834","motor","img/motor_2.png","83","83","motor","2","132","1","0","0","",""
"null","","272376","HierDyo2z4pl64","cmsh9ceenc","msl000834","iti","img/motor_blank.png","null","83","motor","","","","","","",""
"961","","273344","HierDyo2z4pl64","cmsh9ceenc","msl000834","motor","img/motor_2.png","83","83","motor","2","133","1","0","0","",""
"null","","273451","HierDyo2z4pl64","cmsh9ceenc","msl000834","iti","img/motor_blank.png","null","83","motor","","","","","","",""
"764","","274223","HierDyo2z4pl64","cmsh9ceenc","msl000834","motor","img/motor_4.png","70","70","motor","4","134","1","0","0","",""
"null","","274331","HierDyo2z4pl64","cmsh9ceenc","msl000834","iti","img/motor_blank.png","null","70","motor","","","","","","",""
"442","","274781","HierDyo2z4pl64","cmsh9ceenc","msl000834","motor","img/motor_4.png","70","70","motor","4","135","1","0","0","",""
"null","","274888","HierDyo2z4pl64","cmsh9ceenc","msl000834","iti","img/motor_blank.png","null","70","motor","","","","","","",""
"708","","275603","HierDyo2z4pl64","cmsh9ceenc","msl000834","motor","img/motor_6.png","74","74","motor","6","136","1","0","0","",""
"null","","275711","HierDyo2z4pl64","cmsh9ceenc","msl000834","iti","img/motor_blank.png","null","74","motor","","","","","","",""
"519","","276237","HierDyo2z4pl64","cmsh9ceenc","msl000834","motor","img/motor_8.png","76","76","motor","8","137","1","0","0","",""
"null","","276344","HierDyo2z4pl64","cmsh9ceenc","msl000834","iti","img/motor_blank.png","null","76","motor","","","","","","",""
"916","","277267","HierDyo2z4pl64","cmsh9ceenc","msl000834","motor","img/motor_6.png","74","74","motor","6","138","1","0","0","",""
"null","","277373","HierDyo2z4pl64","cmsh9ceenc","msl000834","iti","img/motor_blank.png","null","74","motor","","","","","","",""
"815","","278195","HierDyo2z4pl64","cmsh9ceenc","msl000834","motor","img/motor_1.png","65","65","motor","1","139","1","0","0","",""
"null","","278303","HierDyo2z4pl64","cmsh9ceenc","msl000834","iti","img/motor_blank.png","null","65","motor","","","","","","",""
"722","","279033","HierDyo2z4pl64","cmsh9ceenc","msl000834","motor","img/motor_4.png","70","70","motor","4","140","1","0","0","",""
"null","","279140","HierDyo2z4pl64","cmsh9ceenc","msl000834","iti","img/motor_blank.png","null","70","motor","","","","","","",""
"607","","279754","HierDyo2z4pl64","cmsh9ceenc","msl000834","motor","img/motor_8.png","76","76","motor","8","141","1","0","0","",""
"null","","279862","HierDyo2z4pl64","cmsh9ceenc","msl000834","iti","img/motor_blank.png","null","76","motor","","","","","","",""
"679","","280549","HierDyo2z4pl64","cmsh9ceenc","msl000834","motor","img/motor_6.png","74","74","motor","6","142","1","0","0","",""
"null","","280657","HierDyo2z4pl64","cmsh9ceenc","msl000834","iti","img/motor_blank.png","null","74","motor","","","","","","",""
"592","","281256","HierDyo2z4pl64","cmsh9ceenc","msl000834","motor","img/motor_2.png","83","83","motor","2","143","1","0","0","",""
"null","","281363","HierDyo2z4pl64","cmsh9ceenc","msl000834","iti","img/motor_blank.png","null","83","motor","","","","","","",""
"745","","282115","HierDyo2z4pl64","cmsh9ceenc","msl000834","motor","img/motor_4.png","70","70","motor","4","144","1","0","0","",""
"null","","282222","HierDyo2z4pl64","cmsh9ceenc","msl000834","iti","img/motor_blank.png","null","70","motor","","","","","","",""
"508","","282736","HierDyo2z4pl64","cmsh9ceenc","msl000834","motor","img/motor_8.png","76","76","motor","8","145","1","0","0","",""
"null","","282844","HierDyo2z4pl64","cmsh9ceenc","msl000834","iti","img/motor_blank.png","null","76","motor","","","","","","",""
"548","","283400","HierDyo2z4pl64","cmsh9ceenc","msl000834","motor","img/motor_4.png","70","70","motor","4","146","1","0","0","",""
"null","","283505","HierDyo2z4pl64","cmsh9ceenc","msl000834","iti","img/motor_blank.png","null","70","motor","","","","","","",""
"675","","284189","HierDyo2z4pl64","cmsh9ceenc","msl000834","motor","img/motor_3.png","83","68","motor","3","147","0","1","0","",""
"575","","284771","HierDyo2z4pl64","cmsh9ceenc","msl000834","motorRepeat","img/motor_3.png","68","68","motor","3","147","1","0","0","",""
"null","","284878","HierDyo2z4pl64","cmsh9ceenc","msl000834","iti","img/motor_blank.png","null","68","motor","","","","","","",""
"579","","285462","HierDyo2z4pl64","cmsh9ceenc","msl000834","motor","img/motor_7.png","75","75","motor","7","148","1","0","0","",""
"null","","285568","HierDyo2z4pl64","cmsh9ceenc","msl000834","iti","img/motor_blank.png","null","75","motor","","","","","","",""
"586","","286160","HierDyo2z4pl64","cmsh9ceenc","msl000834","motor","img/motor_5.png","72","72","motor","5","149","1","0","0","",""
"null","","286267","HierDyo2z4pl64","cmsh9ceenc","msl000834","iti","img/motor_blank.png","null","72","motor","","","","","","",""
"484","","286758","HierDyo2z4pl64","cmsh9ceenc","msl000834","motor","img/motor_8.png","76","76","motor","8","150","1","0","0","",""
"null","","286865","HierDyo2z4pl64","cmsh9ceenc","msl000834","iti","img/motor_blank.png","null","76","motor","","","","","","",""
"683","","287556","HierDyo2z4pl64","cmsh9ceenc","msl000834","motor","img/motor_7.png","74","75","motor","7","151","0","1","0","",""
"415","","287978","HierDyo2z4pl64","cmsh9ceenc","msl000834","motorRepeat","img/motor_7.png","75","75","motor","7","151","1","0","0","",""
"null","","288084","HierDyo2z4pl64","cmsh9ceenc","msl000834","iti","img/motor_blank.png","null","75","motor","","","","","","",""
"609","","288702","HierDyo2z4pl64","cmsh9ceenc","msl000834","motor","img/motor_5.png","72","72","motor","5","152","1","0","0","",""
"null","","288809","HierDyo2z4pl64","cmsh9ceenc","msl000834","iti","img/motor_blank.png","null","72","motor","","","","","","",""
"844","","289659","HierDyo2z4pl64","cmsh9ceenc","msl000834","motor","img/motor_3.png","68","68","motor","3","153","1","0","0","",""
"null","","289767","HierDyo2z4pl64","cmsh9ceenc","msl000834","iti","img/motor_blank.png","null","68","motor","","","","","","",""
"577","","290353","HierDyo2z4pl64","cmsh9ceenc","msl000834","motor","img/motor_1.png","65","65","motor","1","154","1","0","0","",""
"null","","290460","HierDyo2z4pl64","cmsh9ceenc","msl000834","iti","img/motor_blank.png","null","65","motor","","","","","","",""
"498","","290966","HierDyo2z4pl64","cmsh9ceenc","msl000834","motor","img/motor_8.png","76","76","motor","8","155","1","0","0","",""
"null","","291073","HierDyo2z4pl64","cmsh9ceenc","msl000834","iti","img/motor_blank.png","null","76","motor","","","","","","",""
"742","","291825","HierDyo2z4pl64","cmsh9ceenc","msl000834","motor","img/motor_1.png","65","65","motor","1","156","1","0","0","",""
"null","","291931","HierDyo2z4pl64","cmsh9ceenc","msl000834","iti","img/motor_blank.png","null","65","motor","","","","","","",""
"579","","292518","HierDyo2z4pl64","cmsh9ceenc","msl000834","motor","img/motor_1.png","65","65","motor","1","157","1","0","0","",""
"null","","292626","HierDyo2z4pl64","cmsh9ceenc","msl000834","iti","img/motor_blank.png","null","65","motor","","","","","","",""
"719","","293352","HierDyo2z4pl64","cmsh9ceenc","msl000834","motor","img/motor_3.png","68","68","motor","3","158","1","0","0","",""
"null","","293460","HierDyo2z4pl64","cmsh9ceenc","msl000834","iti","img/motor_blank.png","null","68","motor","","","","","","",""
"609","","294077","HierDyo2z4pl64","cmsh9ceenc","msl000834","motor","img/motor_7.png","75","75","motor","7","159","1","0","0","",""
"null","","294183","HierDyo2z4pl64","cmsh9ceenc","msl000834","iti","img/motor_blank.png","null","75","motor","","","","","","",""
"1288","","295477","HierDyo2z4pl64","cmsh9ceenc","msl000834","motor","img/motor_2.png","83","83","motor","2","160","1","0","0","",""
"null","","295584","HierDyo2z4pl64","cmsh9ceenc","msl000834","iti","img/motor_blank.png","null","83","motor","","","","","","",""
"680","","296271","HierDyo2z4pl64","cmsh9ceenc","msl000834","motor","img/motor_4.png","70","70","motor","4","161","1","0","0","",""
"null","","296377","HierDyo2z4pl64","cmsh9ceenc","msl000834","iti","img/motor_blank.png","null","70","motor","","","","","","",""
"612","","296995","HierDyo2z4pl64","cmsh9ceenc","msl000834","motor","img/motor_4.png","70","70","motor","4","162","1","0","0","",""
"null","","297102","HierDyo2z4pl64","cmsh9ceenc","msl000834","iti","img/motor_blank.png","null","70","motor","","","","","","",""
"658","","297769","HierDyo2z4pl64","cmsh9ceenc","msl000834","motor","img/motor_3.png","68","68","motor","3","163","1","0","0","",""
"null","","297876","HierDyo2z4pl64","cmsh9ceenc","msl000834","iti","img/motor_blank.png","null","68","motor","","","","","","",""
"572","","298455","HierDyo2z4pl64","cmsh9ceenc","msl000834","motor","img/motor_3.png","68","68","motor","3","164","1","0","0","",""
"null","","298562","HierDyo2z4pl64","cmsh9ceenc","msl000834","iti","img/motor_blank.png","null","68","motor","","","","","","",""
"501","","299069","HierDyo2z4pl64","cmsh9ceenc","msl000834","motor","img/motor_8.png","76","76","motor","8","165","1","0","0","",""
"null","","299177","HierDyo2z4pl64","cmsh9ceenc","msl000834","iti","img/motor_blank.png","null","76","motor","","","","","","",""
"968","","300152","HierDyo2z4pl64","cmsh9ceenc","msl000834","motor","img/motor_5.png","72","72","motor","5","166","1","0","0","",""
"null","","300258","HierDyo2z4pl64","cmsh9ceenc","msl000834","iti","img/motor_blank.png","null","72","motor","","","","","","",""
"634","","300898","HierDyo2z4pl64","cmsh9ceenc","msl000834","motor","img/motor_1.png","65","65","motor","1","167","1","0","0","",""
"null","","301004","HierDyo2z4pl64","cmsh9ceenc","msl000834","iti","img/motor_blank.png","null","65","motor","","","","","","",""
"572","","301583","HierDyo2z4pl64","cmsh9ceenc","msl000834","motor","img/motor_5.png","72","72","motor","5","168","1","0","0","",""
"null","","301691","HierDyo2z4pl64","cmsh9ceenc","msl000834","iti","img/motor_blank.png","null","72","motor","","","","","","",""
"749","","302448","HierDyo2z4pl64","cmsh9ceenc","msl000834","motor","img/motor_4.png","70","70","motor","4","169","1","0","0","",""
"null","","302555","HierDyo2z4pl64","cmsh9ceenc","msl000834","iti","img/motor_blank.png","null","70","motor","","","","","","",""
"566","","303128","HierDyo2z4pl64","cmsh9ceenc","msl000834","motor","img/motor_2.png","83","83","motor","2","170","1","0","0","",""
"null","","303234","HierDyo2z4pl64","cmsh9ceenc","msl000834","iti","img/motor_blank.png","null","83","motor","","","","","","",""
"574","","303816","HierDyo2z4pl64","cmsh9ceenc","msl000834","motor","img/motor_5.png","72","72","motor","5","171","1","0","0","",""
"null","","303924","HierDyo2z4pl64","cmsh9ceenc","msl000834","iti","img/motor_blank.png","null","72","motor","","","","","","",""
"578","","304509","HierDyo2z4pl64","cmsh9ceenc","msl000834","motor","img/motor_2.png","83","83","motor","2","172","1","0","0","",""
"null","","304617","HierDyo2z4pl64","cmsh9ceenc","msl000834","iti","img/motor_blank.png","null","83","motor","","","","","","",""
"524","","305148","HierDyo2z4pl64","cmsh9ceenc","msl000834","motor","img/motor_4.png","70","70","motor","4","173","1","0","0","",""
"null","","305256","HierDyo2z4pl64","cmsh9ceenc","msl000834","iti","img/motor_blank.png","null","70","motor","","","","","","",""
"842","","306106","HierDyo2z4pl64","cmsh9ceenc","msl000834","motor","img/motor_7.png","75","75","motor","7","174","1","0","0","",""
"null","","306214","HierDyo2z4pl64","cmsh9ceenc","msl000834","iti","img/motor_blank.png","null","75","motor","","","","","","",""
"784","","307005","HierDyo2z4pl64","cmsh9ceenc","msl000834","motor","img/motor_4.png","70","70","motor","4","175","1","0","0","",""
"null","","307114","HierDyo2z4pl64","cmsh9ceenc","msl000834","iti","img/motor_blank.png","null","70","motor","","","","","","",""
"915","","308036","HierDyo2z4pl64","cmsh9ceenc","msl000834","motor","img/motor_5.png","72","72","motor","5","176","1","0","0","",""
"null","","308144","HierDyo2z4pl64","cmsh9ceenc","msl000834","iti","img/motor_blank.png","null","72","motor","","","","","","",""
"566","","308716","HierDyo2z4pl64","cmsh9ceenc","msl000834","motor","img/motor_1.png","65","65","motor","1","177","1","0","0","",""
"null","","308824","HierDyo2z4pl64","cmsh9ceenc","msl000834","iti","img/motor_blank.png","null","65","motor","","","","","","",""
"421","","309253","HierDyo2z4pl64","cmsh9ceenc","msl000834","motor","img/motor_1.png","65","65","motor","1","178","1","0","0","",""
"null","","309360","HierDyo2z4pl64","cmsh9ceenc","msl000834","iti","img/motor_blank.png","null","65","motor","","","","","","",""
"530","","309897","HierDyo2z4pl64","cmsh9ceenc","msl000834","motor","img/motor_4.png","70","70","motor","4","179","1","0","0","",""
"null","","310004","HierDyo2z4pl64","cmsh9ceenc","msl000834","iti","img/motor_blank.png","null","70","motor","","","","","","",""
"772","","310784","HierDyo2z4pl64","cmsh9ceenc","msl000834","motor","img/motor_6.png","74","74","motor","6","180","1","0","0","",""
"null","","310890","HierDyo2z4pl64","cmsh9ceenc","msl000834","iti","img/motor_blank.png","null","74","motor","","","","","","",""
"776","","311672","HierDyo2z4pl64","cmsh9ceenc","msl000834","motor","img/motor_5.png","72","72","motor","5","181","1","0","0","",""
"null","","311779","HierDyo2z4pl64","cmsh9ceenc","msl000834","iti","img/motor_blank.png","null","72","motor","","","","","","",""
"449","","312234","HierDyo2z4pl64","cmsh9ceenc","msl000834","motor","img/motor_5.png","72","72","motor","5","182","1","0","0","",""
"null","","312342","HierDyo2z4pl64","cmsh9ceenc","msl000834","iti","img/motor_blank.png","null","72","motor","","","","","","",""
"645","","312993","HierDyo2z4pl64","cmsh9ceenc","msl000834","motor","img/motor_4.png","70","70","motor","4","183","1","0","0","",""
"null","","313102","HierDyo2z4pl64","cmsh9ceenc","msl000834","iti","img/motor_blank.png","null","70","motor","","","","","","",""
"577","","313686","HierDyo2z4pl64","cmsh9ceenc","msl000834","motor","img/motor_1.png","65","65","motor","1","184","1","0","0","",""
"null","","313793","HierDyo2z4pl64","cmsh9ceenc","msl000834","iti","img/motor_blank.png","null","65","motor","","","","","","",""
"492","","314292","HierDyo2z4pl64","cmsh9ceenc","msl000834","motor","img/motor_7.png","75","75","motor","7","185","1","0","0","",""
"null","","314400","HierDyo2z4pl64","cmsh9ceenc","msl000834","iti","img/motor_blank.png","null","75","motor","","","","","","",""
"429","","314836","HierDyo2z4pl64","cmsh9ceenc","msl000834","motor","img/motor_4.png","70","70","motor","4","186","1","0","0","",""
"null","","314943","HierDyo2z4pl64","cmsh9ceenc","msl000834","iti","img/motor_blank.png","null","70","motor","","","","","","",""
"472","","315423","HierDyo2z4pl64","cmsh9ceenc","msl000834","motor","img/motor_8.png","76","76","motor","8","187","1","0","0","",""
"null","","315531","HierDyo2z4pl64","cmsh9ceenc","msl000834","iti","img/motor_blank.png","null","76","motor","","","","","","",""
"648","","316186","HierDyo2z4pl64","cmsh9ceenc","msl000834","motor","img/motor_6.png","74","74","motor","6","188","1","0","0","",""
"null","","316294","HierDyo2z4pl64","cmsh9ceenc","msl000834","iti","img/motor_blank.png","null","74","motor","","","","","","",""
"409","","316710","HierDyo2z4pl64","cmsh9ceenc","msl000834","motor","img/motor_6.png","74","74","motor","6","189","1","0","0","",""
"null","","316817","HierDyo2z4pl64","cmsh9ceenc","msl000834","iti","img/motor_blank.png","null","74","motor","","","","","","",""
"737","","317562","HierDyo2z4pl64","cmsh9ceenc","msl000834","motor","img/motor_3.png","68","68","motor","3","190","1","0","0","",""
"null","","317669","HierDyo2z4pl64","cmsh9ceenc","msl000834","iti","img/motor_blank.png","null","68","motor","","","","","","",""
"603","","318280","HierDyo2z4pl64","cmsh9ceenc","msl000834","motor","img/motor_8.png","76","76","motor","8","191","1","0","0","",""
"null","","318388","HierDyo2z4pl64","cmsh9ceenc","msl000834","iti","img/motor_blank.png","null","76","motor","","","","","","",""
"668","","319062","HierDyo2z4pl64","cmsh9ceenc","msl000834","motor","img/motor_1.png","65","65","motor","1","192","1","0","0","",""
"null","","319170","HierDyo2z4pl64","cmsh9ceenc","msl000834","iti","img/motor_blank.png","null","65","motor","","","","","","",""
"380","","319557","HierDyo2z4pl64","cmsh9ceenc","msl000834","motor","img/motor_1.png","65","65","motor","1","193","1","0","0","",""
"null","","319665","HierDyo2z4pl64","cmsh9ceenc","msl000834","iti","img/motor_blank.png","null","65","motor","","","","","","",""
"410","","320083","HierDyo2z4pl64","cmsh9ceenc","msl000834","motor","img/motor_2.png","65","83","motor","2","194","0","1","0","",""
"444","","320534","HierDyo2z4pl64","cmsh9ceenc","msl000834","motorRepeat","img/motor_2.png","83","83","motor","2","194","1","0","0","",""
"null","","320642","HierDyo2z4pl64","cmsh9ceenc","msl000834","iti","img/motor_blank.png","null","83","motor","","","","","","",""
"1139","","321789","HierDyo2z4pl64","cmsh9ceenc","msl000834","motor","img/motor_1.png","65","65","motor","1","195","1","0","0","",""
"null","","321897","HierDyo2z4pl64","cmsh9ceenc","msl000834","iti","img/motor_blank.png","null","65","motor","","","","","","",""
"792","","322697","HierDyo2z4pl64","cmsh9ceenc","msl000834","motor","img/motor_6.png","74","74","motor","6","196","1","0","0","",""
"null","","322803","HierDyo2z4pl64","cmsh9ceenc","msl000834","iti","img/motor_blank.png","null","74","motor","","","","","","",""
"717","","323529","HierDyo2z4pl64","cmsh9ceenc","msl000834","motor","img/motor_4.png","70","70","motor","4","197","1","0","0","",""
"null","","323636","HierDyo2z4pl64","cmsh9ceenc","msl000834","iti","img/motor_blank.png","null","70","motor","","","","","","",""
"583","","324225","HierDyo2z4pl64","cmsh9ceenc","msl000834","motor","img/motor_7.png","75","75","motor","7","198","1","0","0","",""
"null","","324331","HierDyo2z4pl64","cmsh9ceenc","msl000834","iti","img/motor_blank.png","null","75","motor","","","","","","",""
"710","","325049","HierDyo2z4pl64","cmsh9ceenc","msl000834","motor","img/motor_6.png","74","74","motor","6","199","1","0","0","",""
"null","","325155","HierDyo2z4pl64","cmsh9ceenc","msl000834","iti","img/motor_blank.png","null","74","motor","","","","","","",""
"804","","325966","HierDyo2z4pl64","cmsh9ceenc","msl000834","motor","img/motor_3.png","68","68","motor","3","200","1","0","0","",""
"null","","326073","HierDyo2z4pl64","cmsh9ceenc","msl000834","iti","img/motor_blank.png","null","68","motor","","","","","","",""
"561","","326640","HierDyo2z4pl64","cmsh9ceenc","msl000834","motor","img/motor_1.png","65","65","motor","1","201","1","0","0","",""
"null","","326747","HierDyo2z4pl64","cmsh9ceenc","msl000834","iti","img/motor_blank.png","null","65","motor","","","","","","",""
"688","","327442","HierDyo2z4pl64","cmsh9ceenc","msl000834","motor","img/motor_2.png","83","83","motor","2","202","1","0","0","",""
"null","","327548","HierDyo2z4pl64","cmsh9ceenc","msl000834","iti","img/motor_blank.png","null","83","motor","","","","","","",""
"650","","328208","HierDyo2z4pl64","cmsh9ceenc","msl000834","motor","img/motor_1.png","65","65","motor","1","203","1","0","0","",""
"null","","328315","HierDyo2z4pl64","cmsh9ceenc","msl000834","iti","img/motor_blank.png","null","65","motor","","","","","","",""
"710","","329037","HierDyo2z4pl64","cmsh9ceenc","msl000834","motor","img/motor_5.png","72","72","motor","5","204","1","0","0","",""
"null","","329146","HierDyo2z4pl64","cmsh9ceenc","msl000834","iti","img/motor_blank.png","null","72","motor","","","","","","",""
"804","","329958","HierDyo2z4pl64","cmsh9ceenc","msl000834","motor","img/motor_3.png","68","68","motor","3","205","1","0","0","",""
"null","","330066","HierDyo2z4pl64","cmsh9ceenc","msl000834","iti","img/motor_blank.png","null","68","motor","","","","","","",""
"606","","330679","HierDyo2z4pl64","cmsh9ceenc","msl000834","motor","img/motor_2.png","83","83","motor","2","206","1","0","0","",""
"null","","330787","HierDyo2z4pl64","cmsh9ceenc","msl000834","iti","img/motor_blank.png","null","83","motor","","","","","","",""
"607","","331402","HierDyo2z4pl64","cmsh9ceenc","msl000834","motor","img/motor_7.png","75","75","motor","7","207","1","0","0","",""
"null","","331510","HierDyo2z4pl64","cmsh9ceenc","msl000834","iti","img/motor_blank.png","null","75","motor","","","","","","",""
"548","","332067","HierDyo2z4pl64","cmsh9ceenc","msl000834","motor","img/motor_3.png","68","68","motor","3","208","1","0","0","",""
"null","","332174","HierDyo2z4pl64","cmsh9ceenc","msl000834","iti","img/motor_blank.png","null","68","motor","","","","","","",""
"868","","333053","HierDyo2z4pl64","cmsh9ceenc","msl000834","motor","img/motor_5.png","72","72","motor","5","209","1","0","0","",""
"null","","333160","HierDyo2z4pl64","cmsh9ceenc","msl000834","iti","img/motor_blank.png","null","72","motor","","","","","","",""
"538","","333707","HierDyo2z4pl64","cmsh9ceenc","msl000834","motor","img/motor_1.png","65","65","motor","1","210","1","0","0","",""
"null","","333814","HierDyo2z4pl64","cmsh9ceenc","msl000834","iti","img/motor_blank.png","null","65","motor","","","","","","",""
"750","","334570","HierDyo2z4pl64","cmsh9ceenc","msl000834","motor","img/motor_6.png","74","74","motor","6","211","1","0","0","",""
"null","","334678","HierDyo2z4pl64","cmsh9ceenc","msl000834","iti","img/motor_blank.png","null","74","motor","","","","","","",""
"739","","335424","HierDyo2z4pl64","cmsh9ceenc","msl000834","motor","img/motor_2.png","83","83","motor","2","212","1","0","0","",""
"null","","335531","HierDyo2z4pl64","cmsh9ceenc","msl000834","iti","img/motor_blank.png","null","83","motor","","","","","","",""
"709","","336248","HierDyo2z4pl64","cmsh9ceenc","msl000834","motor","img/motor_8.png","76","76","motor","8","213","1","0","0","",""
"null","","336355","HierDyo2z4pl64","cmsh9ceenc","msl000834","iti","img/motor_blank.png","null","76","motor","","","","","","",""
"424","","336786","HierDyo2z4pl64","cmsh9ceenc","msl000834","motor","img/motor_8.png","76","76","motor","8","214","1","0","0","",""
"null","","336892","HierDyo2z4pl64","cmsh9ceenc","msl000834","iti","img/motor_blank.png","null","76","motor","","","","","","",""
"643","","337544","HierDyo2z4pl64","cmsh9ceenc","msl000834","motor","img/motor_3.png","68","68","motor","3","215","1","0","0","",""
"null","","337650","HierDyo2z4pl64","cmsh9ceenc","msl000834","iti","img/motor_blank.png","null","68","motor","","","","","","",""
"508","","338166","HierDyo2z4pl64","cmsh9ceenc","msl000834","motor","img/motor_3.png","68","68","motor","3","216","1","0","0","",""
"null","","338272","HierDyo2z4pl64","cmsh9ceenc","msl000834","iti","img/motor_blank.png","null","68","motor","","","","","","",""
"750","","339030","HierDyo2z4pl64","cmsh9ceenc","msl000834","motor","img/motor_5.png","72","72","motor","5","217","1","0","0","",""
"null","","339135","HierDyo2z4pl64","cmsh9ceenc","msl000834","iti","img/motor_blank.png","null","72","motor","","","","","","",""
"690","","339832","HierDyo2z4pl64","cmsh9ceenc","msl000834","motor","img/motor_4.png","70","70","motor","4","218","1","0","0","",""
"null","","339939","HierDyo2z4pl64","cmsh9ceenc","msl000834","iti","img/motor_blank.png","null","70","motor","","","","","","",""
"681","","340627","HierDyo2z4pl64","cmsh9ceenc","msl000834","motor","img/motor_5.png","72","72","motor","5","219","1","0","0","",""
"null","","340734","HierDyo2z4pl64","cmsh9ceenc","msl000834","iti","img/motor_blank.png","null","72","motor","","","","","","",""
"400","","341142","HierDyo2z4pl64","cmsh9ceenc","msl000834","motor","img/motor_5.png","72","72","motor","5","220","1","0","0","",""
"null","","341248","HierDyo2z4pl64","cmsh9ceenc","msl000834","iti","img/motor_blank.png","null","72","motor","","","","","","",""
"543","","341799","HierDyo2z4pl64","cmsh9ceenc","msl000834","motor","img/motor_8.png","76","76","motor","8","221","1","0","0","",""
"null","","341906","HierDyo2z4pl64","cmsh9ceenc","msl000834","iti","img/motor_blank.png","null","76","motor","","","","","","",""
"591","","342503","HierDyo2z4pl64","cmsh9ceenc","msl000834","motor","img/motor_5.png","72","72","motor","5","222","1","0","0","",""
"null","","342609","HierDyo2z4pl64","cmsh9ceenc","msl000834","iti","img/motor_blank.png","null","72","motor","","","","","","",""
"471","","343087","HierDyo2z4pl64","cmsh9ceenc","msl000834","motor","img/motor_5.png","72","72","motor","5","223","1","0","0","",""
"null","","343192","HierDyo2z4pl64","cmsh9ceenc","msl000834","iti","img/motor_blank.png","null","72","motor","","","","","","",""
"568","","343767","HierDyo2z4pl64","cmsh9ceenc","msl000834","motor","img/motor_6.png","74","74","motor","6","224","1","0","0","",""
"null","","343875","HierDyo2z4pl64","cmsh9ceenc","msl000834","iti","img/motor_blank.png","null","74","motor","","","","","","",""
"590","","344472","HierDyo2z4pl64","cmsh9ceenc","msl000834","motor","img/motor_2.png","83","83","motor","2","225","1","0","0","",""
"null","","344578","HierDyo2z4pl64","cmsh9ceenc","msl000834","iti","img/motor_blank.png","null","83","motor","","","","","","",""
"609","","345195","HierDyo2z4pl64","cmsh9ceenc","msl000834","motor","img/motor_5.png","72","72","motor","5","226","1","0","0","",""
"null","","345303","HierDyo2z4pl64","cmsh9ceenc","msl000834","iti","img/motor_blank.png","null","72","motor","","","","","","",""
"566","","345876","HierDyo2z4pl64","cmsh9ceenc","msl000834","motor","img/motor_1.png","65","65","motor","1","227","1","0","0","",""
"null","","345983","HierDyo2z4pl64","cmsh9ceenc","msl000834","iti","img/motor_blank.png","null","65","motor","","","","","","",""
"379","","346370","HierDyo2z4pl64","cmsh9ceenc","msl000834","motor","img/motor_1.png","65","65","motor","1","228","1","0","0","",""
"null","","346478","HierDyo2z4pl64","cmsh9ceenc","msl000834","iti","img/motor_blank.png","null","65","motor","","","","","","",""
"471","","346956","HierDyo2z4pl64","cmsh9ceenc","msl000834","motor","img/motor_5.png","72","72","motor","5","229","1","0","0","",""
"null","","347064","HierDyo2z4pl64","cmsh9ceenc","msl000834","iti","img/motor_blank.png","null","72","motor","","","","","","",""
"820","","347888","HierDyo2z4pl64","cmsh9ceenc","msl000834","motor","img/motor_3.png","68","68","motor","3","230","1","0","0","",""
"null","","347994","HierDyo2z4pl64","cmsh9ceenc","msl000834","iti","img/motor_blank.png","null","68","motor","","","","","","",""
"917","","348917","HierDyo2z4pl64","cmsh9ceenc","msl000834","motor","img/motor_4.png","70","70","motor","4","231","1","0","0","",""
"null","","349023","HierDyo2z4pl64","cmsh9ceenc","msl000834","iti","img/motor_blank.png","null","70","motor","","","","","","",""
"815","","349844","HierDyo2z4pl64","cmsh9ceenc","msl000834","motor","img/motor_3.png","68","68","motor","3","232","1","0","0","",""
"null","","349950","HierDyo2z4pl64","cmsh9ceenc","msl000834","iti","img/motor_blank.png","null","68","motor","","","","","","",""
"563","","350520","HierDyo2z4pl64","cmsh9ceenc","msl000834","motor","img/motor_4.png","70","70","motor","4","233","1","0","0","",""
"null","","350625","HierDyo2z4pl64","cmsh9ceenc","msl000834","iti","img/motor_blank.png","null","70","motor","","","","","","",""
"505","","351137","HierDyo2z4pl64","cmsh9ceenc","msl000834","motor","img/motor_5.png","72","72","motor","5","234","1","0","0","",""
"null","","351246","HierDyo2z4pl64","cmsh9ceenc","msl000834","iti","img/motor_blank.png","null","72","motor","","","","","","",""
"578","","351830","HierDyo2z4pl64","cmsh9ceenc","msl000834","motor","img/motor_3.png","68","68","motor","3","235","1","0","0","",""
"null","","351938","HierDyo2z4pl64","cmsh9ceenc","msl000834","iti","img/motor_blank.png","null","68","motor","","","","","","",""
"625","","352569","HierDyo2z4pl64","cmsh9ceenc","msl000834","motor","img/motor_8.png","76","76","motor","8","236","1","0","0","",""
"null","","352676","HierDyo2z4pl64","cmsh9ceenc","msl000834","iti","img/motor_blank.png","null","76","motor","","","","","","",""
"482","","353167","HierDyo2z4pl64","cmsh9ceenc","msl000834","motor","img/motor_6.png","72","74","motor","6","237","0","1","0","",""
"403","","353577","HierDyo2z4pl64","cmsh9ceenc","msl000834","motorRepeat","img/motor_6.png","74","74","motor","6","237","1","0","0","",""
"null","","353686","HierDyo2z4pl64","cmsh9ceenc","msl000834","iti","img/motor_blank.png","null","74","motor","","","","","","",""
"753","","354446","HierDyo2z4pl64","cmsh9ceenc","msl000834","motor","img/motor_2.png","83","83","motor","2","238","1","0","0","",""
"null","","354554","HierDyo2z4pl64","cmsh9ceenc","msl000834","iti","img/motor_blank.png","null","83","motor","","","","","","",""
"438","","354999","HierDyo2z4pl64","cmsh9ceenc","msl000834","motor","img/motor_2.png","83","83","motor","2","239","1","0","0","",""
"null","","355107","HierDyo2z4pl64","cmsh9ceenc","msl000834","iti","img/motor_blank.png","null","83","motor","","","","","","",""
"633","","355747","HierDyo2z4pl64","cmsh9ceenc","msl000834","motor","img/motor_1.png","65","65","motor","1","240","1","0","0","",""
"null","","355854","HierDyo2z4pl64","cmsh9ceenc","msl000834","iti","img/motor_blank.png","null","65","motor","","","","","","",""
"996","","356858","HierDyo2z4pl64","cmsh9ceenc","msl000834","motor","img/motor_6.png","74","74","motor","6","241","1","0","0","",""
"null","","356967","HierDyo2z4pl64","cmsh9ceenc","msl000834","iti","img/motor_blank.png","null","74","motor","","","","","","",""
"701","","357676","HierDyo2z4pl64","cmsh9ceenc","msl000834","motor","img/motor_8.png","76","76","motor","8","242","1","0","0","",""
"null","","357782","HierDyo2z4pl64","cmsh9ceenc","msl000834","iti","img/motor_blank.png","null","76","motor","","","","","","",""
"747","","358538","HierDyo2z4pl64","cmsh9ceenc","msl000834","motor","img/motor_4.png","70","70","motor","4","243","1","0","0","",""
"null","","358645","HierDyo2z4pl64","cmsh9ceenc","msl000834","iti","img/motor_blank.png","null","70","motor","","","","","","",""
"725","","359379","HierDyo2z4pl64","cmsh9ceenc","msl000834","motor","img/motor_6.png","74","74","motor","6","244","1","0","0","",""
"null","","359487","HierDyo2z4pl64","cmsh9ceenc","msl000834","iti","img/motor_blank.png","null","74","motor","","","","","","",""
"656","","360150","HierDyo2z4pl64","cmsh9ceenc","msl000834","motor","img/motor_4.png","70","70","motor","4","245","1","0","0","",""
"null","","360258","HierDyo2z4pl64","cmsh9ceenc","msl000834","iti","img/motor_blank.png","null","70","motor","","","","","","",""
"616","","360882","HierDyo2z4pl64","cmsh9ceenc","msl000834","motor","img/motor_2.png","83","83","motor","2","246","1","0","0","",""
"null","","360989","HierDyo2z4pl64","cmsh9ceenc","msl000834","iti","img/motor_blank.png","null","83","motor","","","","","","",""
"635","","361632","HierDyo2z4pl64","cmsh9ceenc","msl000834","motor","img/motor_1.png","65","65","motor","1","247","1","0","0","",""
"null","","361739","HierDyo2z4pl64","cmsh9ceenc","msl000834","iti","img/motor_blank.png","null","65","motor","","","","","","",""
"601","","362349","HierDyo2z4pl64","cmsh9ceenc","msl000834","motor","img/motor_2.png","83","83","motor","2","248","1","0","0","",""
"null","","362457","HierDyo2z4pl64","cmsh9ceenc","msl000834","iti","img/motor_blank.png","null","83","motor","","","","","","",""
"566","","363031","HierDyo2z4pl64","cmsh9ceenc","msl000834","motor","img/motor_6.png","75","74","motor","6","249","0","1","0","",""
"447","","363485","HierDyo2z4pl64","cmsh9ceenc","msl000834","motorRepeat","img/motor_6.png","74","74","motor","6","249","1","0","0","",""
"null","","363592","HierDyo2z4pl64","cmsh9ceenc","msl000834","iti","img/motor_blank.png","null","74","motor","","","","","","",""
"551","","364150","HierDyo2z4pl64","cmsh9ceenc","msl000834","motor","img/motor_1.png","65","65","motor","1","250","1","0","0","",""
"null","","364258","HierDyo2z4pl64","cmsh9ceenc","msl000834","iti","img/motor_blank.png","null","65","motor","","","","","","",""
"648","","364915","HierDyo2z4pl64","cmsh9ceenc","msl000834","motor","img/motor_5.png","72","72","motor","5","251","1","0","0","",""
"null","","365023","HierDyo2z4pl64","cmsh9ceenc","msl000834","iti","img/motor_blank.png","null","72","motor","","","","","","",""
"1350","","366381","HierDyo2z4pl64","cmsh9ceenc","msl000834","motor","img/motor_7.png","75","75","motor","7","252","1","0","0","",""
"null","","366488","HierDyo2z4pl64","cmsh9ceenc","msl000834","iti","img/motor_blank.png","null","75","motor","","","","","","",""
"422","","366917","HierDyo2z4pl64","cmsh9ceenc","msl000834","motor","img/motor_1.png","65","65","motor","1","253","1","0","0","",""
"null","","367025","HierDyo2z4pl64","cmsh9ceenc","msl000834","iti","img/motor_blank.png","null","65","motor","","","","","","",""
"727","","367761","HierDyo2z4pl64","cmsh9ceenc","msl000834","motor","img/motor_3.png","68","68","motor","3","254","1","0","0","",""
"null","","367868","HierDyo2z4pl64","cmsh9ceenc","msl000834","iti","img/motor_blank.png","null","68","motor","","","","","","",""
"745","","368621","HierDyo2z4pl64","cmsh9ceenc","msl000834","motor","img/motor_8.png","76","76","motor","8","255","1","0","0","",""
"null","","368728","HierDyo2z4pl64","cmsh9ceenc","msl000834","iti","img/motor_blank.png","null","76","motor","","","","","","",""
"596","","369333","HierDyo2z4pl64","cmsh9ceenc","msl000834","motor","img/motor_3.png","68","68","motor","3","256","1","0","0","",""
"null","","369441","HierDyo2z4pl64","cmsh9ceenc","msl000834","iti","img/motor_blank.png","null","68","motor","","","","","","",""
"743","","370191","HierDyo2z4pl64","cmsh9ceenc","msl000834","motor","img/motor_4.png","70","70","motor","4","257","1","0","0","",""
"null","","370298","HierDyo2z4pl64","cmsh9ceenc","msl000834","iti","img/motor_blank.png","null","70","motor","","","","","","",""
"543","","370850","HierDyo2z4pl64","cmsh9ceenc","msl000834","motor","img/motor_5.png","72","72","motor","5","258","1","0","0","",""
"null","","370955","HierDyo2z4pl64","cmsh9ceenc","msl000834","iti","img/motor_blank.png","null","72","motor","","","","","","",""
"507","","371470","HierDyo2z4pl64","cmsh9ceenc","msl000834","motor","img/motor_7.png","75","75","motor","7","259","1","0","0","",""
"null","","371576","HierDyo2z4pl64","cmsh9ceenc","msl000834","iti","img/motor_blank.png","null","75","motor","","","","","","",""
"650","","372234","HierDyo2z4pl64","cmsh9ceenc","msl000834","motor","img/motor_2.png","83","83","motor","2","260","1","0","0","",""
"null","","372341","HierDyo2z4pl64","cmsh9ceenc","msl000834","iti","img/motor_blank.png","null","83","motor","","","","","","",""
"873","","373222","HierDyo2z4pl64","cmsh9ceenc","msl000834","motor","img/motor_6.png","74","74","motor","6","261","1","0","0","",""
"null","","373330","HierDyo2z4pl64","cmsh9ceenc","msl000834","iti","img/motor_blank.png","null","74","motor","","","","","","",""
"709","","374048","HierDyo2z4pl64","cmsh9ceenc","msl000834","motor","img/motor_3.png","68","68","motor","3","262","1","0","0","",""
"null","","374156","HierDyo2z4pl64","cmsh9ceenc","msl000834","iti","img/motor_blank.png","null","68","motor","","","","","","",""
"681","","374846","HierDyo2z4pl64","cmsh9ceenc","msl000834","motor","img/motor_6.png","74","74","motor","6","263","1","0","0","",""
"null","","374955","HierDyo2z4pl64","cmsh9ceenc","msl000834","iti","img/motor_blank.png","null","74","motor","","","","","","",""
"575","","375537","HierDyo2z4pl64","cmsh9ceenc","msl000834","motor","img/motor_8.png","76","76","motor","8","264","1","0","0","",""
"null","","375643","HierDyo2z4pl64","cmsh9ceenc","msl000834","iti","img/motor_blank.png","null","76","motor","","","","","","",""
"480","","376129","HierDyo2z4pl64","cmsh9ceenc","msl000834","motor","img/motor_3.png","68","68","motor","3","265","1","0","0","",""
"null","","376235","HierDyo2z4pl64","cmsh9ceenc","msl000834","iti","img/motor_blank.png","null","68","motor","","","","","","",""
"892","","377136","HierDyo2z4pl64","cmsh9ceenc","msl000834","motor","img/motor_2.png","83","83","motor","2","266","1","0","0","",""
"null","","377244","HierDyo2z4pl64","cmsh9ceenc","msl000834","iti","img/motor_blank.png","null","83","motor","","","","","","",""
"617","","377868","HierDyo2z4pl64","cmsh9ceenc","msl000834","motor","img/motor_4.png","70","70","motor","4","267","1","0","0","",""
"null","","377977","HierDyo2z4pl64","cmsh9ceenc","msl000834","iti","img/motor_blank.png","null","70","motor","","","","","","",""
"495","","378479","HierDyo2z4pl64","cmsh9ceenc","msl000834","motor","img/motor_2.png","83","83","motor","2","268","1","0","0","",""
"null","","378585","HierDyo2z4pl64","cmsh9ceenc","msl000834","iti","img/motor_blank.png","null","83","motor","","","","","","",""
"621","","379211","HierDyo2z4pl64","cmsh9ceenc","msl000834","motor","img/motor_3.png","68","68","motor","3","269","1","0","0","",""
"null","","379320","HierDyo2z4pl64","cmsh9ceenc","msl000834","iti","img/motor_blank.png","null","68","motor","","","","","","",""
"531","","379858","HierDyo2z4pl64","cmsh9ceenc","msl000834","motor","img/motor_2.png","83","83","motor","2","270","1","0","0","",""
"null","","379965","HierDyo2z4pl64","cmsh9ceenc","msl000834","iti","img/motor_blank.png","null","83","motor","","","","","","",""
"533","","380506","HierDyo2z4pl64","cmsh9ceenc","msl000834","motor","img/motor_2.png","83","83","motor","2","271","1","0","0","",""
"null","","380613","HierDyo2z4pl64","cmsh9ceenc","msl000834","iti","img/motor_blank.png","null","83","motor","","","","","","",""
"534","","381156","HierDyo2z4pl64","cmsh9ceenc","msl000834","motor","img/motor_3.png","68","68","motor","3","272","1","0","0","",""
"null","","381262","HierDyo2z4pl64","cmsh9ceenc","msl000834","iti","img/motor_blank.png","null","68","motor","","","","","","",""
"456","","381725","HierDyo2z4pl64","cmsh9ceenc","msl000834","motor","img/motor_2.png","83","83","motor","2","273","1","0","0","",""
"null","","381832","HierDyo2z4pl64","cmsh9ceenc","msl000834","iti","img/motor_blank.png","null","83","motor","","","","","","",""
"600","","382441","HierDyo2z4pl64","cmsh9ceenc","msl000834","motor","img/motor_8.png","76","76","motor","8","274","1","0","0","",""
"null","","382547","HierDyo2z4pl64","cmsh9ceenc","msl000834","iti","img/motor_blank.png","null","76","motor","","","","","","",""
"500","","383054","HierDyo2z4pl64","cmsh9ceenc","msl000834","motor","img/motor_2.png","83","83","motor","2","275","1","0","0","",""
"null","","383160","HierDyo2z4pl64","cmsh9ceenc","msl000834","iti","img/motor_blank.png","null","83","motor","","","","","","",""
"515","","383684","HierDyo2z4pl64","cmsh9ceenc","msl000834","motor","img/motor_7.png","75","75","motor","7","276","1","0","0","",""
"null","","383791","HierDyo2z4pl64","cmsh9ceenc","msl000834","iti","img/motor_blank.png","null","75","motor","","","","","","",""
"495","","384295","HierDyo2z4pl64","cmsh9ceenc","msl000834","motor","img/motor_3.png","68","68","motor","3","277","1","0","0","",""
"null","","384402","HierDyo2z4pl64","cmsh9ceenc","msl000834","iti","img/motor_blank.png","null","68","motor","","","","","","",""
"711","","385122","HierDyo2z4pl64","cmsh9ceenc","msl000834","motor","img/motor_5.png","72","72","motor","5","278","1","0","0","",""
"null","","385229","HierDyo2z4pl64","cmsh9ceenc","msl000834","iti","img/motor_blank.png","null","72","motor","","","","","","",""
"563","","385801","HierDyo2z4pl64","cmsh9ceenc","msl000834","motor","img/motor_6.png","74","74","motor","6","279","1","0","0","",""
"null","","385909","HierDyo2z4pl64","cmsh9ceenc","msl000834","iti","img/motor_blank.png","null","74","motor","","","","","","",""
"508","","386425","HierDyo2z4pl64","cmsh9ceenc","msl000834","motor","img/motor_7.png","75","75","motor","7","280","1","0","0","",""
"null","","386532","HierDyo2z4pl64","cmsh9ceenc","msl000834","iti","img/motor_blank.png","null","75","motor","","","","","","",""
"617","","387156","HierDyo2z4pl64","cmsh9ceenc","msl000834","motor","img/motor_5.png","72","72","motor","5","281","1","0","0","",""
"null","","387262","HierDyo2z4pl64","cmsh9ceenc","msl000834","iti","img/motor_blank.png","null","72","motor","","","","","","",""
"529","","387798","HierDyo2z4pl64","cmsh9ceenc","msl000834","motor","img/motor_7.png","75","75","motor","7","282","1","0","0","",""
"null","","387905","HierDyo2z4pl64","cmsh9ceenc","msl000834","iti","img/motor_blank.png","null","75","motor","","","","","","",""
"598","","388510","HierDyo2z4pl64","cmsh9ceenc","msl000834","motor","img/motor_6.png","74","74","motor","6","283","1","0","0","",""
"null","","388618","HierDyo2z4pl64","cmsh9ceenc","msl000834","iti","img/motor_blank.png","null","74","motor","","","","","","",""
"645","","389270","HierDyo2z4pl64","cmsh9ceenc","msl000834","motor","img/motor_6.png","74","74","motor","6","284","1","0","0","",""
"null","","389375","HierDyo2z4pl64","cmsh9ceenc","msl000834","iti","img/motor_blank.png","null","74","motor","","","","","","",""
"437","","389820","HierDyo2z4pl64","cmsh9ceenc","msl000834","motor","img/motor_7.png","75","75","motor","7","285","1","0","0","",""
"null","","389927","HierDyo2z4pl64","cmsh9ceenc","msl000834","iti","img/motor_blank.png","null","75","motor","","","","","","",""
"675","","390610","HierDyo2z4pl64","cmsh9ceenc","msl000834","motor","img/motor_1.png","65","65","motor","1","286","1","0","0","",""
"null","","390716","HierDyo2z4pl64","cmsh9ceenc","msl000834","iti","img/motor_blank.png","null","65","motor","","","","","","",""
"528","","391253","HierDyo2z4pl64","cmsh9ceenc","msl000834","motor","img/motor_3.png","68","68","motor","3","287","1","0","0","",""
"null","","391360","HierDyo2z4pl64","cmsh9ceenc","msl000834","iti","img/motor_blank.png","null","68","motor","","","","","","",""
"662","","392030","HierDyo2z4pl64","cmsh9ceenc","msl000834","motor","img/motor_6.png","72","74","motor","6","288","0","1","0","",""
"329","","392368","HierDyo2z4pl64","cmsh9ceenc","msl000834","motorRepeat","img/motor_6.png","74","74","motor","6","288","1","0","0","",""
"null","","392474","HierDyo2z4pl64","cmsh9ceenc","msl000834","iti","img/motor_blank.png","null","74","motor","","","","","","",""
"753","","393239","HierDyo2z4pl64","cmsh9ceenc","msl000834","motor","img/motor_4.png","70","70","motor","4","289","1","0","0","",""
"null","","393348","HierDyo2z4pl64","cmsh9ceenc","msl000834","iti","img/motor_blank.png","null","70","motor","","","","","","",""
"918","","394275","HierDyo2z4pl64","cmsh9ceenc","msl000834","motor","img/motor_3.png","68","68","motor","3","290","1","0","0","",""
"null","","394383","HierDyo2z4pl64","cmsh9ceenc","msl000834","iti","img/motor_blank.png","null","68","motor","","","","","","",""
"563","","394953","HierDyo2z4pl64","cmsh9ceenc","msl000834","motor","img/motor_1.png","65","65","motor","1","291","1","0","0","",""
"null","","395061","HierDyo2z4pl64","cmsh9ceenc","msl000834","iti","img/motor_blank.png","null","65","motor","","","","","","",""
"575","","395644","HierDyo2z4pl64","cmsh9ceenc","msl000834","motor","img/motor_2.png","83","83","motor","2","292","1","0","0","",""
"null","","395754","HierDyo2z4pl64","cmsh9ceenc","msl000834","iti","img/motor_blank.png","null","83","motor","","","","","","",""
"622","","396383","HierDyo2z4pl64","cmsh9ceenc","msl000834","motor","img/motor_1.png","65","65","motor","1","293","1","0","0","",""
"null","","396490","HierDyo2z4pl64","cmsh9ceenc","msl000834","iti","img/motor_blank.png","null","65","motor","","","","","","",""
"574","","397074","HierDyo2z4pl64","cmsh9ceenc","msl000834","motor","img/motor_3.png","68","68","motor","3","294","1","0","0","",""
"null","","397185","HierDyo2z4pl64","cmsh9ceenc","msl000834","iti","img/motor_blank.png","null","68","motor","","","","","","",""
"561","","397755","HierDyo2z4pl64","cmsh9ceenc","msl000834","motor","img/motor_4.png","70","70","motor","4","295","1","0","0","",""
"null","","397863","HierDyo2z4pl64","cmsh9ceenc","msl000834","iti","img/motor_blank.png","null","70","motor","","","","","","",""
"596","","398467","HierDyo2z4pl64","cmsh9ceenc","msl000834","motor","img/motor_3.png","68","68","motor","3","296","1","0","0","",""
"null","","398576","HierDyo2z4pl64","cmsh9ceenc","msl000834","iti","img/motor_blank.png","null","68","motor","","","","","","",""
"631","","399215","HierDyo2z4pl64","cmsh9ceenc","msl000834","motor","img/motor_5.png","72","72","motor","5","297","1","0","0","",""
"null","","399324","HierDyo2z4pl64","cmsh9ceenc","msl000834","iti","img/motor_blank.png","null","72","motor","","","","","","",""
"526","","399857","HierDyo2z4pl64","cmsh9ceenc","msl000834","motor","img/motor_4.png","68","70","motor","4","298","0","1","0","",""
"429","","400294","HierDyo2z4pl64","cmsh9ceenc","msl000834","motorRepeat","img/motor_4.png","70","70","motor","4","298","1","0","0","",""
"null","","400403","HierDyo2z4pl64","cmsh9ceenc","msl000834","iti","img/motor_blank.png","null","70","motor","","","","","","",""
"702","","401113","HierDyo2z4pl64","cmsh9ceenc","msl000834","motor","img/motor_7.png","75","75","motor","7","299","1","0","0","",""
"null","","401221","HierDyo2z4pl64","cmsh9ceenc","msl000834","iti","img/motor_blank.png","null","75","motor","","","","","","",""
"613","","401843","HierDyo2z4pl64","cmsh9ceenc","msl000834","motor","img/motor_1.png","65","65","motor","1","300","1","0","0","",""
"null","","401950","HierDyo2z4pl64","cmsh9ceenc","msl000834","iti","img/motor_blank.png","null","65","motor","","","","","","",""
"645","","402603","HierDyo2z4pl64","cmsh9ceenc","msl000834","motor","img/motor_7.png","75","75","motor","7","301","1","0","0","",""
"null","","402712","HierDyo2z4pl64","cmsh9ceenc","msl000834","iti","img/motor_blank.png","null","75","motor","","","","","","",""
"798","","403518","HierDyo2z4pl64","cmsh9ceenc","msl000834","motor","img/motor_4.png","70","70","motor","4","302","1","0","0","",""
"null","","403626","HierDyo2z4pl64","cmsh9ceenc","msl000834","iti","img/motor_blank.png","null","70","motor","","","","","","",""
"677","","404311","HierDyo2z4pl64","cmsh9ceenc","msl000834","motor","img/motor_7.png","75","75","motor","7","303","1","0","0","",""
"null","","404418","HierDyo2z4pl64","cmsh9ceenc","msl000834","iti","img/motor_blank.png","null","75","motor","","","","","","",""
"720","","405146","HierDyo2z4pl64","cmsh9ceenc","msl000834","motor","img/motor_5.png","72","72","motor","5","304","1","0","0","",""
"null","","405254","HierDyo2z4pl64","cmsh9ceenc","msl000834","iti","img/motor_blank.png","null","72","motor","","","","","","",""
"692","","405954","HierDyo2z4pl64","cmsh9ceenc","msl000834","motor","img/motor_8.png","76","76","motor","8","305","1","0","0","",""
"null","","406061","HierDyo2z4pl64","cmsh9ceenc","msl000834","iti","img/motor_blank.png","null","76","motor","","","","","","",""
"556","","406625","HierDyo2z4pl64","cmsh9ceenc","msl000834","motor","img/motor_8.png","76","76","motor","8","306","1","0","0","",""
"null","","406734","HierDyo2z4pl64","cmsh9ceenc","msl000834","iti","img/motor_blank.png","null","76","motor","","","","","","",""
"723","","407464","HierDyo2z4pl64","cmsh9ceenc","msl000834","motor","img/motor_4.png","70","70","motor","4","307","1","0","0","",""
"null","","407571","HierDyo2z4pl64","cmsh9ceenc","msl000834","iti","img/motor_blank.png","null","70","motor","","","","","","",""
"374","","407955","HierDyo2z4pl64","cmsh9ceenc","msl000834","motor","img/motor_1.png","65","65","motor","1","308","1","0","0","",""
"null","","408063","HierDyo2z4pl64","cmsh9ceenc","msl000834","iti","img/motor_blank.png","null","65","motor","","","","","","",""
"587","","408658","HierDyo2z4pl64","cmsh9ceenc","msl000834","motor","img/motor_3.png","68","68","motor","3","309","1","0","0","",""
"null","","408765","HierDyo2z4pl64","cmsh9ceenc","msl000834","iti","img/motor_blank.png","null","68","motor","","","","","","",""
"659","","409434","HierDyo2z4pl64","cmsh9ceenc","msl000834","motor","img/motor_6.png","74","74","motor","6","310","1","0","0","",""
"null","","409542","HierDyo2z4pl64","cmsh9ceenc","msl000834","iti","img/motor_blank.png","null","74","motor","","","","","","",""
"635","","410185","HierDyo2z4pl64","cmsh9ceenc","msl000834","motor","img/motor_5.png","72","72","motor","5","311","1","0","0","",""
"null","","410293","HierDyo2z4pl64","cmsh9ceenc","msl000834","iti","img/motor_blank.png","null","72","motor","","","","","","",""
"1019","","411319","HierDyo2z4pl64","cmsh9ceenc","msl000834","motor","img/motor_3.png","68","68","motor","3","312","1","0","0","",""
"null","","411426","HierDyo2z4pl64","cmsh9ceenc","msl000834","iti","img/motor_blank.png","null","68","motor","","","","","","",""
"961","","412394","HierDyo2z4pl64","cmsh9ceenc","msl000834","motor","img/motor_7.png","75","75","motor","7","313","1","0","0","",""
"null","","412502","HierDyo2z4pl64","cmsh9ceenc","msl000834","iti","img/motor_blank.png","null","75","motor","","","","","","",""
"591","","413102","HierDyo2z4pl64","cmsh9ceenc","msl000834","motor","img/motor_8.png","76","76","motor","8","314","1","0","0","",""
"null","","413210","HierDyo2z4pl64","cmsh9ceenc","msl000834","iti","img/motor_blank.png","null","76","motor","","","","","","",""
"687","","413906","HierDyo2z4pl64","cmsh9ceenc","msl000834","motor","img/motor_8.png","76","76","motor","8","315","1","0","0","",""
"null","","414014","HierDyo2z4pl64","cmsh9ceenc","msl000834","iti","img/motor_blank.png","null","76","motor","","","","","","",""
"565","","414588","HierDyo2z4pl64","cmsh9ceenc","msl000834","motor","img/motor_3.png","68","68","motor","3","316","1","0","0","",""
"null","","414695","HierDyo2z4pl64","cmsh9ceenc","msl000834","iti","img/motor_blank.png","null","68","motor","","","","","","",""
"473","","415174","HierDyo2z4pl64","cmsh9ceenc","msl000834","motor","img/motor_8.png","76","76","motor","8","317","1","0","0","",""
"null","","415282","HierDyo2z4pl64","cmsh9ceenc","msl000834","iti","img/motor_blank.png","null","76","motor","","","","","","",""
"640","","415929","HierDyo2z4pl64","cmsh9ceenc","msl000834","motor","img/motor_7.png","75","75","motor","7","318","1","0","0","",""
"null","","416038","HierDyo2z4pl64","cmsh9ceenc","msl000834","iti","img/motor_blank.png","null","75","motor","","","","","","",""
"475","","416518","HierDyo2z4pl64","cmsh9ceenc","msl000834","motor","img/motor_4.png","68","70","motor","4","319","0","1","0","",""
"463","","416987","HierDyo2z4pl64","cmsh9ceenc","msl000834","motorRepeat","img/motor_4.png","70","70","motor","4","319","1","0","0","",""
"null","","417092","HierDyo2z4pl64","cmsh9ceenc","msl000834","iti","img/motor_blank.png","null","70","motor","","","","","","",""
"607","","417705","HierDyo2z4pl64","cmsh9ceenc","msl000834","motor","img/motor_5.png","72","72","motor","5","320","1","0","0","",""
"null","","417814","HierDyo2z4pl64","cmsh9ceenc","msl000834","iti","img/motor_blank.png","null","72","motor","","","","","","",""
"477","","418297","HierDyo2z4pl64","cmsh9ceenc","msl000834","motor","img/motor_8.png","76","76","motor","8","321","1","0","0","",""
"null","","418406","HierDyo2z4pl64","cmsh9ceenc","msl000834","iti","img/motor_blank.png","null","76","motor","","","","","","",""
"655","","419070","HierDyo2z4pl64","cmsh9ceenc","msl000834","motor","img/motor_1.png","65","65","motor","1","322","1","0","0","",""
"null","","419179","HierDyo2z4pl64","cmsh9ceenc","msl000834","iti","img/motor_blank.png","null","65","motor","","","","","","",""
"539","","419725","HierDyo2z4pl64","cmsh9ceenc","msl000834","motor","img/motor_4.png","70","70","motor","4","323","1","0","0","",""
"null","","419834","HierDyo2z4pl64","cmsh9ceenc","msl000834","iti","img/motor_blank.png","null","70","motor","","","","","","",""
"485","","420326","HierDyo2z4pl64","cmsh9ceenc","msl000834","motor","img/motor_8.png","76","76","motor","8","324","1","0","0","",""
"null","","420435","HierDyo2z4pl64","cmsh9ceenc","msl000834","iti","img/motor_blank.png","null","76","motor","","","","","","",""
"596","","421038","HierDyo2z4pl64","cmsh9ceenc","msl000834","motor","img/motor_2.png","83","83","motor","2","325","1","0","0","",""
"null","","421147","HierDyo2z4pl64","cmsh9ceenc","msl000834","iti","img/motor_blank.png","null","83","motor","","","","","","",""
"556","","421711","HierDyo2z4pl64","cmsh9ceenc","msl000834","motor","img/motor_5.png","72","72","motor","5","326","1","0","0","",""
"null","","421819","HierDyo2z4pl64","cmsh9ceenc","msl000834","iti","img/motor_blank.png","null","72","motor","","","","","","",""
"624","","422450","HierDyo2z4pl64","cmsh9ceenc","msl000834","motor","img/motor_2.png","83","83","motor","2","327","1","0","0","",""
"null","","422557","HierDyo2z4pl64","cmsh9ceenc","msl000834","iti","img/motor_blank.png","null","83","motor","","","","","","",""
"761","","423325","HierDyo2z4pl64","cmsh9ceenc","msl000834","motor","img/motor_1.png","65","65","motor","1","328","1","0","0","",""
"null","","423434","HierDyo2z4pl64","cmsh9ceenc","msl000834","iti","img/motor_blank.png","null","65","motor","","","","","","",""
"655","","424097","HierDyo2z4pl64","cmsh9ceenc","msl000834","motor","img/motor_2.png","83","83","motor","2","329","1","0","0","",""
"null","","424205","HierDyo2z4pl64","cmsh9ceenc","msl000834","iti","img/motor_blank.png","null","83","motor","","","","","","",""
"938","","425151","HierDyo2z4pl64","cmsh9ceenc","msl000834","motor","img/motor_5.png","72","72","motor","5","330","1","0","0","",""
"null","","425259","HierDyo2z4pl64","cmsh9ceenc","msl000834","iti","img/motor_blank.png","null","72","motor","","","","","","",""
"604","","425871","HierDyo2z4pl64","cmsh9ceenc","msl000834","motor","img/motor_2.png","83","83","motor","2","331","1","0","0","",""
"null","","425978","HierDyo2z4pl64","cmsh9ceenc","msl000834","iti","img/motor_blank.png","null","83","motor","","","","","","",""
"1278","","427266","HierDyo2z4pl64","cmsh9ceenc","msl000834","motor","img/motor_7.png","75","75","motor","7","332","1","0","0","",""
"null","","427374","HierDyo2z4pl64","cmsh9ceenc","msl000834","iti","img/motor_blank.png","null","75","motor","","","","","","",""
"622","","428005","HierDyo2z4pl64","cmsh9ceenc","msl000834","motor","img/motor_6.png","74","74","motor","6","333","1","0","0","",""
"null","","428113","HierDyo2z4pl64","cmsh9ceenc","msl000834","iti","img/motor_blank.png","null","74","motor","","","","","","",""
"525","","428646","HierDyo2z4pl64","cmsh9ceenc","msl000834","motor","img/motor_3.png","68","68","motor","3","334","1","0","0","",""
"null","","428754","HierDyo2z4pl64","cmsh9ceenc","msl000834","iti","img/motor_blank.png","null","68","motor","","","","","","",""
"618","","429380","HierDyo2z4pl64","cmsh9ceenc","msl000834","motor","img/motor_8.png","76","76","motor","8","335","1","0","0","",""
"null","","429488","HierDyo2z4pl64","cmsh9ceenc","msl000834","iti","img/motor_blank.png","null","76","motor","","","","","","",""
"506","","430002","HierDyo2z4pl64","cmsh9ceenc","msl000834","motor","img/motor_1.png","65","65","motor","1","336","1","0","0","",""
"null","","430109","HierDyo2z4pl64","cmsh9ceenc","msl000834","iti","img/motor_blank.png","null","65","motor","","","","","","",""
"513","","430630","HierDyo2z4pl64","cmsh9ceenc","msl000834","motor","img/motor_3.png","68","68","motor","3","337","1","0","0","",""
"null","","430737","HierDyo2z4pl64","cmsh9ceenc","msl000834","iti","img/motor_blank.png","null","68","motor","","","","","","",""
"488","","431235","HierDyo2z4pl64","cmsh9ceenc","msl000834","motor","img/motor_3.png","68","68","motor","3","338","1","0","0","",""
"null","","431341","HierDyo2z4pl64","cmsh9ceenc","msl000834","iti","img/motor_blank.png","null","68","motor","","","","","","",""
"467","","431816","HierDyo2z4pl64","cmsh9ceenc","msl000834","motor","img/motor_1.png","65","65","motor","1","339","1","0","0","",""
"null","","431922","HierDyo2z4pl64","cmsh9ceenc","msl000834","iti","img/motor_blank.png","null","65","motor","","","","","","",""
"524","","432453","HierDyo2z4pl64","cmsh9ceenc","msl000834","motor","img/motor_6.png","74","74","motor","6","340","1","0","0","",""
"null","","432562","HierDyo2z4pl64","cmsh9ceenc","msl000834","iti","img/motor_blank.png","null","74","motor","","","","","","",""
"442","","433013","HierDyo2z4pl64","cmsh9ceenc","msl000834","motor","img/motor_7.png","75","75","motor","7","341","1","0","0","",""
"null","","433122","HierDyo2z4pl64","cmsh9ceenc","msl000834","iti","img/motor_blank.png","null","75","motor","","","","","","",""
"738","","433867","HierDyo2z4pl64","cmsh9ceenc","msl000834","motor","img/motor_7.png","75","75","motor","7","342","1","0","0","",""
"null","","433975","HierDyo2z4pl64","cmsh9ceenc","msl000834","iti","img/motor_blank.png","null","75","motor","","","","","","",""
"523","","434505","HierDyo2z4pl64","cmsh9ceenc","msl000834","motor","img/motor_4.png","68","70","motor","4","343","0","1","0","",""
"408","","434921","HierDyo2z4pl64","cmsh9ceenc","msl000834","motorRepeat","img/motor_4.png","70","70","motor","4","343","1","0","0","",""
"null","","435030","HierDyo2z4pl64","cmsh9ceenc","msl000834","iti","img/motor_blank.png","null","70","motor","","","","","","",""
"522","","435559","HierDyo2z4pl64","cmsh9ceenc","msl000834","motor","img/motor_1.png","65","65","motor","1","344","1","0","0","",""
"null","","435664","HierDyo2z4pl64","cmsh9ceenc","msl000834","iti","img/motor_blank.png","null","65","motor","","","","","","",""
"981","","436654","HierDyo2z4pl64","cmsh9ceenc","msl000834","motor","img/motor_5.png","72","72","motor","5","345","1","0","0","",""
"null","","436761","HierDyo2z4pl64","cmsh9ceenc","msl000834","iti","img/motor_blank.png","null","72","motor","","","","","","",""
"551","","437322","HierDyo2z4pl64","cmsh9ceenc","msl000834","motor","img/motor_6.png","74","74","motor","6","346","1","0","0","",""
"null","","437430","HierDyo2z4pl64","cmsh9ceenc","msl000834","iti","img/motor_blank.png","null","74","motor","","","","","","",""
"557","","437995","HierDyo2z4pl64","cmsh9ceenc","msl000834","motor","img/motor_7.png","75","75","motor","7","347","1","0","0","",""
"null","","438104","HierDyo2z4pl64","cmsh9ceenc","msl000834","iti","img/motor_blank.png","null","75","motor","","","","","","",""
"426","","438537","HierDyo2z4pl64","cmsh9ceenc","msl000834","motor","img/motor_7.png","75","75","motor","7","348","1","0","0","",""
"null","","438645","HierDyo2z4pl64","cmsh9ceenc","msl000834","iti","img/motor_blank.png","null","75","motor","","","","","","",""
"480","","439134","HierDyo2z4pl64","cmsh9ceenc","msl000834","motor","img/motor_5.png","72","72","motor","5","349","1","0","0","",""
"null","","439243","HierDyo2z4pl64","cmsh9ceenc","msl000834","iti","img/motor_blank.png","null","72","motor","","","","","","",""
"502","","439753","HierDyo2z4pl64","cmsh9ceenc","msl000834","motor","img/motor_7.png","75","75","motor","7","350","1","0","0","",""
"null","","439861","HierDyo2z4pl64","cmsh9ceenc","msl000834","iti","img/motor_blank.png","null","75","motor","","","","","","",""
"640","","440510","HierDyo2z4pl64","cmsh9ceenc","msl000834","motor","img/motor_3.png","68","68","motor","3","351","1","0","0","",""
"null","","440618","HierDyo2z4pl64","cmsh9ceenc","msl000834","iti","img/motor_blank.png","null","68","motor","","","","","","",""
"491","","441118","HierDyo2z4pl64","cmsh9ceenc","msl000834","motor","img/motor_4.png","72","70","motor","4","352","0","1","0","",""
"344","","441468","HierDyo2z4pl64","cmsh9ceenc","msl000834","motorRepeat","img/motor_4.png","68","70","motor","4","352","0","1","0","",""
"370","","441845","HierDyo2z4pl64","cmsh9ceenc","msl000834","motorRepeat","img/motor_4.png","70","70","motor","4","352","1","0","0","",""
"null","","441952","HierDyo2z4pl64","cmsh9ceenc","msl000834","iti","img/motor_blank.png","null","70","motor","","","","","","",""
"735","","442696","HierDyo2z4pl64","cmsh9ceenc","msl000834","motor","img/motor_3.png","68","68","motor","3","353","1","0","0","",""
"null","","442803","HierDyo2z4pl64","cmsh9ceenc","msl000834","iti","img/motor_blank.png","null","68","motor","","","","","","",""
"537","","443346","HierDyo2z4pl64","cmsh9ceenc","msl000834","motor","img/motor_7.png","75","75","motor","7","354","1","0","0","",""
"null","","443454","HierDyo2z4pl64","cmsh9ceenc","msl000834","iti","img/motor_blank.png","null","75","motor","","","","","","",""
"689","","444149","HierDyo2z4pl64","cmsh9ceenc","msl000834","motor","img/motor_8.png","76","76","motor","8","355","1","0","0","",""
"null","","444259","HierDyo2z4pl64","cmsh9ceenc","msl000834","iti","img/motor_blank.png","null","76","motor","","","","","","",""
"683","","444949","HierDyo2z4pl64","cmsh9ceenc","msl000834","motor","img/motor_6.png","74","74","motor","6","356","1","0","0","",""
"null","","445055","HierDyo2z4pl64","cmsh9ceenc","msl000834","iti","img/motor_blank.png","null","74","motor","","","","","","",""
"495","","445557","HierDyo2z4pl64","cmsh9ceenc","msl000834","motor","img/motor_3.png","68","68","motor","3","357","1","0","0","",""
"null","","445664","HierDyo2z4pl64","cmsh9ceenc","msl000834","iti","img/motor_blank.png","null","68","motor","","","","","","",""
"879","","446551","HierDyo2z4pl64","cmsh9ceenc","msl000834","motor","img/motor_6.png","74","74","motor","6","358","1","0","0","",""
"null","","446657","HierDyo2z4pl64","cmsh9ceenc","msl000834","iti","img/motor_blank.png","null","74","motor","","","","","","",""
"849","","447514","HierDyo2z4pl64","cmsh9ceenc","msl000834","motor","img/motor_2.png","83","83","motor","2","359","1","0","0","",""
"null","","447620","HierDyo2z4pl64","cmsh9ceenc","msl000834","iti","img/motor_blank.png","null","83","motor","","","","","","",""
"594","","448222","HierDyo2z4pl64","cmsh9ceenc","msl000834","motor","img/motor_2.png","83","83","motor","2","360","1","0","0","",""
"null","","448328","HierDyo2z4pl64","cmsh9ceenc","msl000834","iti","img/motor_blank.png","null","83","motor","","","","","","",""
"503","","448841","HierDyo2z4pl64","cmsh9ceenc","msl000834","motor","img/motor_3.png","68","68","motor","3","361","1","0","0","",""
"null","","448949","HierDyo2z4pl64","cmsh9ceenc","msl000834","iti","img/motor_blank.png","null","68","motor","","","","","","",""
"937","","449894","HierDyo2z4pl64","cmsh9ceenc","msl000834","motor","img/motor_5.png","72","72","motor","5","362","1","0","0","",""
"null","","450002","HierDyo2z4pl64","cmsh9ceenc","msl000834","iti","img/motor_blank.png","null","72","motor","","","","","","",""
"633","","450643","HierDyo2z4pl64","cmsh9ceenc","msl000834","motor","img/motor_6.png","74","74","motor","6","363","1","0","0","",""
"null","","450753","HierDyo2z4pl64","cmsh9ceenc","msl000834","iti","img/motor_blank.png","null","74","motor","","","","","","",""
"506","","451267","HierDyo2z4pl64","cmsh9ceenc","msl000834","motor","img/motor_8.png","76","76","motor","8","364","1","0","0","",""
"null","","451375","HierDyo2z4pl64","cmsh9ceenc","msl000834","iti","img/motor_blank.png","null","76","motor","","","","","","",""
"890","","452274","HierDyo2z4pl64","cmsh9ceenc","msl000834","motor","img/motor_6.png","74","74","motor","6","365","1","0","0","",""
"null","","452383","HierDyo2z4pl64","cmsh9ceenc","msl000834","iti","img/motor_blank.png","null","74","motor","","","","","","",""
"1069","","453459","HierDyo2z4pl64","cmsh9ceenc","msl000834","motor","img/motor_5.png","72","72","motor","5","366","1","0","0","",""
"null","","453568","HierDyo2z4pl64","cmsh9ceenc","msl000834","iti","img/motor_blank.png","null","72","motor","","","","","","",""
"537","","454113","HierDyo2z4pl64","cmsh9ceenc","msl000834","motor","img/motor_2.png","83","83","motor","2","367","1","0","0","",""
"null","","454221","HierDyo2z4pl64","cmsh9ceenc","msl000834","iti","img/motor_blank.png","null","83","motor","","","","","","",""
"515","","454745","HierDyo2z4pl64","cmsh9ceenc","msl000834","motor","img/motor_6.png","75","74","motor","6","368","0","1","0","",""
"695","","455448","HierDyo2z4pl64","cmsh9ceenc","msl000834","motorRepeat","img/motor_6.png","74","74","motor","6","368","1","0","0","",""
"null","","455556","HierDyo2z4pl64","cmsh9ceenc","msl000834","iti","img/motor_blank.png","null","74","motor","","","","","","",""
