"rt","responses","time_elapsed","subject","prolificID","demoID","trialType","stimulus","key_press","corrresp","phase","stimNum","trialNum","corr","repeatTrial","motorSwitch","pracCounter","hierarchy"
"50244","{""Q0"":""msl000491""}","50286","HierDyfdo116xx","6yb5i1u49f","msl000491","","","","","","","","","","","",""
"2749","","53041","HierDyfdo116xx","6yb5i1u49f","msl000491","","","","","","","","","","","",""
"","","55752","HierDyfdo116xx","6yb5i1u49f","msl000491","fullscreen","","","","","","","","","","",""
"53570","","109334","HierDyfdo116xx","6yb5i1u49f","msl000491","","","","","","","","","","","",""
"1030","","110373","HierDyfdo116xx","6yb5i1u49f","msl000491","motor","img/motor_5.png","72","72","motor","5","1","1","0","0","",""
"null","","110482","HierDyfdo116xx","6yb5i1u49f","msl000491","iti","img/motor_blank.png","null","72","motor","","","","","","",""
"591","","111083","HierDyfdo116xx","6yb5i1u49f","msl000491","motor","img/motor_6.png","74","74","motor","6","2","1","0","0","",""
"null","","111192","HierDyfdo116xx","6yb5i1u49f","msl000491","iti","img/motor_blank.png","null","74","motor","","","","","","",""
"565","","111765","HierDyfdo116xx","6yb5i1u49f","msl000491","motor","img/motor_4.png","70","70","motor","4","3","1","0","0","",""
"null","","111876","HierDyfdo116xx","6yb5i1u49f","msl000491","iti","img/motor_blank.png","null","70","motor","","","","","","",""
"501","","112386","HierDyfdo116xx","6yb5i1u49f","msl000491","motor","img/motor_3.png","68","68","motor","3","4","1","0","0","",""
"null","","112496","HierDyfdo116xx","6yb5i1u49f","msl000491","iti","img/motor_blank.png","null","68","motor","","","","","","",""
"638","","113143","HierDyfdo116xx","6yb5i1u49f","msl000491","motor","img/motor_6.png","74","74","motor","6","5","1","0","0","",""
"null","","113254","HierDyfdo116xx","6yb5i1u49f","msl000491","iti","img/motor_blank.png","null","74","motor","","","","","","",""
"530","","113793","HierDyfdo116xx","6yb5i1u49f","msl000491","motor","img/motor_4.png","70","70","motor","4","6","1","0","0","",""
"null","","113904","HierDyfdo116xx","6yb5i1u49f","msl000491","iti","img/motor_blank.png","null","70","motor","","","","","","",""
"1575","","115487","HierDyfdo116xx","6yb5i1u49f","msl000491","motor","img/motor_4.png","70","70","motor","4","7","1","0","0","",""
"null","","115597","HierDyfdo116xx","6yb5i1u49f","msl000491","iti","img/motor_blank.png","null","70","motor","","","","","","",""
"567","","116174","HierDyfdo116xx","6yb5i1u49f","msl000491","motor","img/motor_1.png","83","65","motor","1","8","0","1","0","",""
"355","","116536","HierDyfdo116xx","6yb5i1u49f","msl000491","motorRepeat","img/motor_1.png","65","65","motor","1","8","1","0","0","",""
"null","","116646","HierDyfdo116xx","6yb5i1u49f","msl000491","iti","img/motor_blank.png","null","65","motor","","","","","","",""
"499","","117156","HierDyfdo116xx","6yb5i1u49f","msl000491","motor","img/motor_4.png","70","70","motor","4","9","1","0","0","",""
"null","","117266","HierDyfdo116xx","6yb5i1u49f","msl000491","iti","img/motor_blank.png","null","70","motor","","","","","","",""
"533","","117809","HierDyfdo116xx","6yb5i1u49f","msl000491","motor","img/motor_2.png","83","83","motor","2","10","1","0","0","",""
"null","","117917","HierDyfdo116xx","6yb5i1u49f","msl000491","iti","img/motor_blank.png","null","83","motor","","","","","","",""
"547","","118471","HierDyfdo116xx","6yb5i1u49f","msl000491","motor","img/motor_1.png","65","65","motor","1","11","1","0","0","",""
"null","","118582","HierDyfdo116xx","6yb5i1u49f","msl000491","iti","img/motor_blank.png","null","65","motor","","","","","","",""
"556","","119148","HierDyfdo116xx","6yb5i1u49f","msl000491","motor","img/motor_8.png","76","76","motor","8","12","1","0","0","",""
"null","","119258","HierDyfdo116xx","6yb5i1u49f","msl000491","iti","img/motor_blank.png","null","76","motor","","","","","","",""
"564","","119830","HierDyfdo116xx","6yb5i1u49f","msl000491","motor","img/motor_2.png","83","83","motor","2","13","1","0","0","",""
"null","","119940","HierDyfdo116xx","6yb5i1u49f","msl000491","iti","img/motor_blank.png","null","83","motor","","","","","","",""
"567","","120515","HierDyfdo116xx","6yb5i1u49f","msl000491","motor","img/motor_5.png","72","72","motor","5","14","1","0","0","",""
"null","","120626","HierDyfdo116xx","6yb5i1u49f","msl000491","iti","img/motor_blank.png","null","72","motor","","","","","","",""
"594","","121230","HierDyfdo116xx","6yb5i1u49f","msl000491","motor","img/motor_2.png","83","83","motor","2","15","1","0","0","",""
"null","","121339","HierDyfdo116xx","6yb5i1u49f","msl000491","iti","img/motor_blank.png","null","83","motor","","","","","","",""
"475","","121822","HierDyfdo116xx","6yb5i1u49f","msl000491","motor","img/motor_4.png","70","70","motor","4","16","1","0","0","",""
"null","","121931","HierDyfdo116xx","6yb5i1u49f","msl000491","iti","img/motor_blank.png","null","70","motor","","","","","","",""
"568","","122508","HierDyfdo116xx","6yb5i1u49f","msl000491","motor","img/motor_8.png","76","76","motor","8","17","1","0","0","",""
"null","","122618","HierDyfdo116xx","6yb5i1u49f","msl000491","iti","img/motor_blank.png","null","76","motor","","","","","","",""
"447","","123074","HierDyfdo116xx","6yb5i1u49f","msl000491","motor","img/motor_1.png","65","65","motor","1","18","1","0","0","",""
"null","","123182","HierDyfdo116xx","6yb5i1u49f","msl000491","iti","img/motor_blank.png","null","65","motor","","","","","","",""
"630","","123821","HierDyfdo116xx","6yb5i1u49f","msl000491","motor","img/motor_7.png","75","75","motor","7","19","1","0","0","",""
"null","","123928","HierDyfdo116xx","6yb5i1u49f","msl000491","iti","img/motor_blank.png","null","75","motor","","","","","","",""
"533","","124471","HierDyfdo116xx","6yb5i1u49f","msl000491","motor","img/motor_4.png","70","70","motor","4","20","1","0","0","",""
"null","","124580","HierDyfdo116xx","6yb5i1u49f","msl000491","iti","img/motor_blank.png","null","70","motor","","","","","","",""
"560","","125150","HierDyfdo116xx","6yb5i1u49f","msl000491","motor","img/motor_5.png","72","72","motor","5","21","1","0","0","",""
"null","","125258","HierDyfdo116xx","6yb5i1u49f","msl000491","iti","img/motor_blank.png","null","72","motor","","","","","","",""
"546","","125814","HierDyfdo116xx","6yb5i1u49f","msl000491","motor","img/motor_3.png","83","68","motor","3","22","0","1","0","",""
"410","","126233","HierDyfdo116xx","6yb5i1u49f","msl000491","motorRepeat","img/motor_3.png","68","68","motor","3","22","1","0","0","",""
"null","","126343","HierDyfdo116xx","6yb5i1u49f","msl000491","iti","img/motor_blank.png","null","68","motor","","","","","","",""
"539","","126891","HierDyfdo116xx","6yb5i1u49f","msl000491","motor","img/motor_5.png","72","72","motor","5","23","1","0","0","",""
"null","","127002","HierDyfdo116xx","6yb5i1u49f","msl000491","iti","img/motor_blank.png","null","72","motor","","","","","","",""
"526","","127536","HierDyfdo116xx","6yb5i1u49f","msl000491","motor","img/motor_3.png","68","68","motor","3","24","1","0","0","",""
"null","","127647","HierDyfdo116xx","6yb5i1u49f","msl000491","iti","img/motor_blank.png","null","68","motor","","","","","","",""
"593","","128249","HierDyfdo116xx","6yb5i1u49f","msl000491","motor","img/motor_2.png","83","83","motor","2","25","1","0","0","",""
"null","","128358","HierDyfdo116xx","6yb5i1u49f","msl000491","iti","img/motor_blank.png","null","83","motor","","","","","","",""
"437","","128804","HierDyfdo116xx","6yb5i1u49f","msl000491","motor","img/motor_3.png","68","68","motor","3","26","1","0","0","",""
"null","","128914","HierDyfdo116xx","6yb5i1u49f","msl000491","iti","img/motor_blank.png","null","68","motor","","","","","","",""
"473","","129398","HierDyfdo116xx","6yb5i1u49f","msl000491","motor","img/motor_1.png","65","65","motor","1","27","1","0","0","",""
"null","","129505","HierDyfdo116xx","6yb5i1u49f","msl000491","iti","img/motor_blank.png","null","65","motor","","","","","","",""
"440","","129956","HierDyfdo116xx","6yb5i1u49f","msl000491","motor","img/motor_1.png","65","65","motor","1","28","1","0","0","",""
"null","","130065","HierDyfdo116xx","6yb5i1u49f","msl000491","iti","img/motor_blank.png","null","65","motor","","","","","","",""
"533","","130607","HierDyfdo116xx","6yb5i1u49f","msl000491","motor","img/motor_5.png","72","72","motor","5","29","1","0","0","",""
"null","","130716","HierDyfdo116xx","6yb5i1u49f","msl000491","iti","img/motor_blank.png","null","72","motor","","","","","","",""
"570","","131294","HierDyfdo116xx","6yb5i1u49f","msl000491","motor","img/motor_7.png","75","75","motor","7","30","1","0","0","",""
"null","","131403","HierDyfdo116xx","6yb5i1u49f","msl000491","iti","img/motor_blank.png","null","75","motor","","","","","","",""
"582","","131995","HierDyfdo116xx","6yb5i1u49f","msl000491","motor","img/motor_2.png","83","83","motor","2","31","1","0","0","",""
"null","","132103","HierDyfdo116xx","6yb5i1u49f","msl000491","iti","img/motor_blank.png","null","83","motor","","","","","","",""
"467","","132580","HierDyfdo116xx","6yb5i1u49f","msl000491","motor","img/motor_7.png","75","75","motor","7","32","1","0","0","",""
"null","","132689","HierDyfdo116xx","6yb5i1u49f","msl000491","iti","img/motor_blank.png","null","75","motor","","","","","","",""
"451","","133149","HierDyfdo116xx","6yb5i1u49f","msl000491","motor","img/motor_4.png","70","70","motor","4","33","1","0","0","",""
"null","","133256","HierDyfdo116xx","6yb5i1u49f","msl000491","iti","img/motor_blank.png","null","70","motor","","","","","","",""
"598","","133861","HierDyfdo116xx","6yb5i1u49f","msl000491","motor","img/motor_6.png","74","74","motor","6","34","1","0","0","",""
"null","","133972","HierDyfdo116xx","6yb5i1u49f","msl000491","iti","img/motor_blank.png","null","74","motor","","","","","","",""
"519","","134499","HierDyfdo116xx","6yb5i1u49f","msl000491","motor","img/motor_5.png","72","72","motor","5","35","1","0","0","",""
"null","","134609","HierDyfdo116xx","6yb5i1u49f","msl000491","iti","img/motor_blank.png","null","72","motor","","","","","","",""
"611","","135228","HierDyfdo116xx","6yb5i1u49f","msl000491","motor","img/motor_7.png","75","75","motor","7","36","1","0","0","",""
"null","","135338","HierDyfdo116xx","6yb5i1u49f","msl000491","iti","img/motor_blank.png","null","75","motor","","","","","","",""
"494","","135844","HierDyfdo116xx","6yb5i1u49f","msl000491","motor","img/motor_2.png","83","83","motor","2","37","1","0","0","",""
"null","","135955","HierDyfdo116xx","6yb5i1u49f","msl000491","iti","img/motor_blank.png","null","83","motor","","","","","","",""
"407","","136372","HierDyfdo116xx","6yb5i1u49f","msl000491","motor","img/motor_4.png","70","70","motor","4","38","1","0","0","",""
"null","","136483","HierDyfdo116xx","6yb5i1u49f","msl000491","iti","img/motor_blank.png","null","70","motor","","","","","","",""
"619","","137111","HierDyfdo116xx","6yb5i1u49f","msl000491","motor","img/motor_7.png","75","75","motor","7","39","1","0","0","",""
"null","","137222","HierDyfdo116xx","6yb5i1u49f","msl000491","iti","img/motor_blank.png","null","75","motor","","","","","","",""
"521","","137751","HierDyfdo116xx","6yb5i1u49f","msl000491","motor","img/motor_6.png","74","74","motor","6","40","1","0","0","",""
"null","","137862","HierDyfdo116xx","6yb5i1u49f","msl000491","iti","img/motor_blank.png","null","74","motor","","","","","","",""
"575","","138445","HierDyfdo116xx","6yb5i1u49f","msl000491","motor","img/motor_4.png","70","70","motor","4","41","1","0","0","",""
"null","","138556","HierDyfdo116xx","6yb5i1u49f","msl000491","iti","img/motor_blank.png","null","70","motor","","","","","","",""
"513","","139078","HierDyfdo116xx","6yb5i1u49f","msl000491","motor","img/motor_3.png","68","68","motor","3","42","1","0","0","",""
"null","","139188","HierDyfdo116xx","6yb5i1u49f","msl000491","iti","img/motor_blank.png","null","68","motor","","","","","","",""
"549","","139748","HierDyfdo116xx","6yb5i1u49f","msl000491","motor","img/motor_7.png","75","75","motor","7","43","1","0","0","",""
"null","","139859","HierDyfdo116xx","6yb5i1u49f","msl000491","iti","img/motor_blank.png","null","75","motor","","","","","","",""
"626","","140495","HierDyfdo116xx","6yb5i1u49f","msl000491","motor","img/motor_6.png","74","74","motor","6","44","1","0","0","",""
"null","","140606","HierDyfdo116xx","6yb5i1u49f","msl000491","iti","img/motor_blank.png","null","74","motor","","","","","","",""
"539","","141154","HierDyfdo116xx","6yb5i1u49f","msl000491","motor","img/motor_2.png","83","83","motor","2","45","1","0","0","",""
"null","","141266","HierDyfdo116xx","6yb5i1u49f","msl000491","iti","img/motor_blank.png","null","83","motor","","","","","","",""
"605","","141880","HierDyfdo116xx","6yb5i1u49f","msl000491","motor","img/motor_6.png","74","74","motor","6","46","1","0","0","",""
"null","","141992","HierDyfdo116xx","6yb5i1u49f","msl000491","iti","img/motor_blank.png","null","74","motor","","","","","","",""
"614","","142614","HierDyfdo116xx","6yb5i1u49f","msl000491","motor","img/motor_4.png","70","70","motor","4","47","1","0","0","",""
"null","","142721","HierDyfdo116xx","6yb5i1u49f","msl000491","iti","img/motor_blank.png","null","70","motor","","","","","","",""
"460","","143190","HierDyfdo116xx","6yb5i1u49f","msl000491","motor","img/motor_5.png","72","72","motor","5","48","1","0","0","",""
"null","","143301","HierDyfdo116xx","6yb5i1u49f","msl000491","iti","img/motor_blank.png","null","72","motor","","","","","","",""
"459","","143767","HierDyfdo116xx","6yb5i1u49f","msl000491","motor","img/motor_4.png","70","70","motor","4","49","1","0","0","",""
"null","","143878","HierDyfdo116xx","6yb5i1u49f","msl000491","iti","img/motor_blank.png","null","70","motor","","","","","","",""
"555","","144441","HierDyfdo116xx","6yb5i1u49f","msl000491","motor","img/motor_6.png","75","74","motor","6","50","0","1","0","",""
"343","","144792","HierDyfdo116xx","6yb5i1u49f","msl000491","motorRepeat","img/motor_6.png","74","74","motor","6","50","1","0","0","",""
"null","","144901","HierDyfdo116xx","6yb5i1u49f","msl000491","iti","img/motor_blank.png","null","74","motor","","","","","","",""
"479","","145390","HierDyfdo116xx","6yb5i1u49f","msl000491","motor","img/motor_8.png","76","76","motor","8","51","1","0","0","",""
"null","","145499","HierDyfdo116xx","6yb5i1u49f","msl000491","iti","img/motor_blank.png","null","76","motor","","","","","","",""
"516","","146023","HierDyfdo116xx","6yb5i1u49f","msl000491","motor","img/motor_4.png","70","70","motor","4","52","1","0","0","",""
"null","","146132","HierDyfdo116xx","6yb5i1u49f","msl000491","iti","img/motor_blank.png","null","70","motor","","","","","","",""
"398","","146540","HierDyfdo116xx","6yb5i1u49f","msl000491","motor","img/motor_2.png","83","83","motor","2","53","1","0","0","",""
"null","","146650","HierDyfdo116xx","6yb5i1u49f","msl000491","iti","img/motor_blank.png","null","83","motor","","","","","","",""
"423","","147082","HierDyfdo116xx","6yb5i1u49f","msl000491","motor","img/motor_1.png","65","65","motor","1","54","1","0","0","",""
"null","","147190","HierDyfdo116xx","6yb5i1u49f","msl000491","iti","img/motor_blank.png","null","65","motor","","","","","","",""
"630","","147830","HierDyfdo116xx","6yb5i1u49f","msl000491","motor","img/motor_3.png","68","68","motor","3","55","1","0","0","",""
"null","","147940","HierDyfdo116xx","6yb5i1u49f","msl000491","iti","img/motor_blank.png","null","68","motor","","","","","","",""
"433","","148383","HierDyfdo116xx","6yb5i1u49f","msl000491","motor","img/motor_2.png","83","83","motor","2","56","1","0","0","",""
"null","","148493","HierDyfdo116xx","6yb5i1u49f","msl000491","iti","img/motor_blank.png","null","83","motor","","","","","","",""
"398","","148899","HierDyfdo116xx","6yb5i1u49f","msl000491","motor","img/motor_4.png","70","70","motor","4","57","1","0","0","",""
"null","","149009","HierDyfdo116xx","6yb5i1u49f","msl000491","iti","img/motor_blank.png","null","70","motor","","","","","","",""
"489","","149508","HierDyfdo116xx","6yb5i1u49f","msl000491","motor","img/motor_7.png","75","75","motor","7","58","1","0","0","",""
"null","","149619","HierDyfdo116xx","6yb5i1u49f","msl000491","iti","img/motor_blank.png","null","75","motor","","","","","","",""
"477","","150104","HierDyfdo116xx","6yb5i1u49f","msl000491","motor","img/motor_3.png","68","68","motor","3","59","1","0","0","",""
"null","","150213","HierDyfdo116xx","6yb5i1u49f","msl000491","iti","img/motor_blank.png","null","68","motor","","","","","","",""
"615","","150838","HierDyfdo116xx","6yb5i1u49f","msl000491","motor","img/motor_5.png","72","72","motor","5","60","1","0","0","",""
"null","","150947","HierDyfdo116xx","6yb5i1u49f","msl000491","iti","img/motor_blank.png","null","72","motor","","","","","","",""
"691","","151646","HierDyfdo116xx","6yb5i1u49f","msl000491","motor","img/motor_8.png","76","76","motor","8","61","1","0","0","",""
"null","","151757","HierDyfdo116xx","6yb5i1u49f","msl000491","iti","img/motor_blank.png","null","76","motor","","","","","","",""
"444","","152210","HierDyfdo116xx","6yb5i1u49f","msl000491","motor","img/motor_1.png","65","65","motor","1","62","1","0","0","",""
"null","","152321","HierDyfdo116xx","6yb5i1u49f","msl000491","iti","img/motor_blank.png","null","65","motor","","","","","","",""
"543","","152872","HierDyfdo116xx","6yb5i1u49f","msl000491","motor","img/motor_1.png","65","65","motor","1","63","1","0","0","",""
"null","","152982","HierDyfdo116xx","6yb5i1u49f","msl000491","iti","img/motor_blank.png","null","65","motor","","","","","","",""
"498","","153489","HierDyfdo116xx","6yb5i1u49f","msl000491","motor","img/motor_8.png","76","76","motor","8","64","1","0","0","",""
"null","","153599","HierDyfdo116xx","6yb5i1u49f","msl000491","iti","img/motor_blank.png","null","76","motor","","","","","","",""
"479","","154087","HierDyfdo116xx","6yb5i1u49f","msl000491","motor","img/motor_8.png","76","76","motor","8","65","1","0","0","",""
"null","","154195","HierDyfdo116xx","6yb5i1u49f","msl000491","iti","img/motor_blank.png","null","76","motor","","","","","","",""
"894","","155098","HierDyfdo116xx","6yb5i1u49f","msl000491","motor","img/motor_3.png","68","68","motor","3","66","1","0","0","",""
"null","","155209","HierDyfdo116xx","6yb5i1u49f","msl000491","iti","img/motor_blank.png","null","68","motor","","","","","","",""
"532","","155748","HierDyfdo116xx","6yb5i1u49f","msl000491","motor","img/motor_8.png","76","76","motor","8","67","1","0","0","",""
"null","","155859","HierDyfdo116xx","6yb5i1u49f","msl000491","iti","img/motor_blank.png","null","76","motor","","","","","","",""
"502","","156371","HierDyfdo116xx","6yb5i1u49f","msl000491","motor","img/motor_5.png","72","72","motor","5","68","1","0","0","",""
"null","","156479","HierDyfdo116xx","6yb5i1u49f","msl000491","iti","img/motor_blank.png","null","72","motor","","","","","","",""
"440","","156927","HierDyfdo116xx","6yb5i1u49f","msl000491","motor","img/motor_8.png","76","76","motor","8","69","1","0","0","",""
"null","","157037","HierDyfdo116xx","6yb5i1u49f","msl000491","iti","img/motor_blank.png","null","76","motor","","","","","","",""
"482","","157527","HierDyfdo116xx","6yb5i1u49f","msl000491","motor","img/motor_1.png","65","65","motor","1","70","1","0","0","",""
"null","","157637","HierDyfdo116xx","6yb5i1u49f","msl000491","iti","img/motor_blank.png","null","65","motor","","","","","","",""
"613","","158259","HierDyfdo116xx","6yb5i1u49f","msl000491","motor","img/motor_6.png","74","74","motor","6","71","1","0","0","",""
"null","","158369","HierDyfdo116xx","6yb5i1u49f","msl000491","iti","img/motor_blank.png","null","74","motor","","","","","","",""
"553","","158929","HierDyfdo116xx","6yb5i1u49f","msl000491","motor","img/motor_1.png","65","65","motor","1","72","1","0","0","",""
"null","","159040","HierDyfdo116xx","6yb5i1u49f","msl000491","iti","img/motor_blank.png","null","65","motor","","","","","","",""
"487","","159535","HierDyfdo116xx","6yb5i1u49f","msl000491","motor","img/motor_6.png","75","74","motor","6","73","0","1","0","",""
"382","","159924","HierDyfdo116xx","6yb5i1u49f","msl000491","motorRepeat","img/motor_6.png","74","74","motor","6","73","1","0","0","",""
"null","","160031","HierDyfdo116xx","6yb5i1u49f","msl000491","iti","img/motor_blank.png","null","74","motor","","","","","","",""
"855","","160896","HierDyfdo116xx","6yb5i1u49f","msl000491","motor","img/motor_1.png","83","65","motor","1","74","0","1","0","",""
"273","","161175","HierDyfdo116xx","6yb5i1u49f","msl000491","motorRepeat","img/motor_1.png","65","65","motor","1","74","1","0","0","",""
"null","","161284","HierDyfdo116xx","6yb5i1u49f","msl000491","iti","img/motor_blank.png","null","65","motor","","","","","","",""
"502","","161794","HierDyfdo116xx","6yb5i1u49f","msl000491","motor","img/motor_2.png","83","83","motor","2","75","1","0","0","",""
"null","","161903","HierDyfdo116xx","6yb5i1u49f","msl000491","iti","img/motor_blank.png","null","83","motor","","","","","","",""
"414","","162327","HierDyfdo116xx","6yb5i1u49f","msl000491","motor","img/motor_1.png","65","65","motor","1","76","1","0","0","",""
"null","","162435","HierDyfdo116xx","6yb5i1u49f","msl000491","iti","img/motor_blank.png","null","65","motor","","","","","","",""
"651","","163094","HierDyfdo116xx","6yb5i1u49f","msl000491","motor","img/motor_7.png","75","75","motor","7","77","1","0","0","",""
"null","","163205","HierDyfdo116xx","6yb5i1u49f","msl000491","iti","img/motor_blank.png","null","75","motor","","","","","","",""
"705","","163918","HierDyfdo116xx","6yb5i1u49f","msl000491","motor","img/motor_3.png","68","68","motor","3","78","1","0","0","",""
"null","","164026","HierDyfdo116xx","6yb5i1u49f","msl000491","iti","img/motor_blank.png","null","68","motor","","","","","","",""
"536","","164571","HierDyfdo116xx","6yb5i1u49f","msl000491","motor","img/motor_2.png","83","83","motor","2","79","1","0","0","",""
"null","","164679","HierDyfdo116xx","6yb5i1u49f","msl000491","iti","img/motor_blank.png","null","83","motor","","","","","","",""
"495","","165183","HierDyfdo116xx","6yb5i1u49f","msl000491","motor","img/motor_8.png","76","76","motor","8","80","1","0","0","",""
"null","","165291","HierDyfdo116xx","6yb5i1u49f","msl000491","iti","img/motor_blank.png","null","76","motor","","","","","","",""
"572","","165871","HierDyfdo116xx","6yb5i1u49f","msl000491","motor","img/motor_5.png","72","72","motor","5","81","1","0","0","",""
"null","","165980","HierDyfdo116xx","6yb5i1u49f","msl000491","iti","img/motor_blank.png","null","72","motor","","","","","","",""
"615","","166604","HierDyfdo116xx","6yb5i1u49f","msl000491","motor","img/motor_4.png","68","70","motor","4","82","0","1","0","",""
"304","","166918","HierDyfdo116xx","6yb5i1u49f","msl000491","motorRepeat","img/motor_4.png","70","70","motor","4","82","1","0","0","",""
"null","","167026","HierDyfdo116xx","6yb5i1u49f","msl000491","iti","img/motor_blank.png","null","70","motor","","","","","","",""
"514","","167549","HierDyfdo116xx","6yb5i1u49f","msl000491","motor","img/motor_5.png","72","72","motor","5","83","1","0","0","",""
"null","","167661","HierDyfdo116xx","6yb5i1u49f","msl000491","iti","img/motor_blank.png","null","72","motor","","","","","","",""
"579","","168249","HierDyfdo116xx","6yb5i1u49f","msl000491","motor","img/motor_7.png","75","75","motor","7","84","1","0","0","",""
"null","","168358","HierDyfdo116xx","6yb5i1u49f","msl000491","iti","img/motor_blank.png","null","75","motor","","","","","","",""
"788","","169155","HierDyfdo116xx","6yb5i1u49f","msl000491","motor","img/motor_3.png","68","68","motor","3","85","1","0","0","",""
"null","","169265","HierDyfdo116xx","6yb5i1u49f","msl000491","iti","img/motor_blank.png","null","68","motor","","","","","","",""
"505","","169779","HierDyfdo116xx","6yb5i1u49f","msl000491","motor","img/motor_3.png","68","68","motor","3","86","1","0","0","",""
"null","","169889","HierDyfdo116xx","6yb5i1u49f","msl000491","iti","img/motor_blank.png","null","68","motor","","","","","","",""
"557","","170456","HierDyfdo116xx","6yb5i1u49f","msl000491","motor","img/motor_2.png","83","83","motor","2","87","1","0","0","",""
"null","","170567","HierDyfdo116xx","6yb5i1u49f","msl000491","iti","img/motor_blank.png","null","83","motor","","","","","","",""
"513","","171089","HierDyfdo116xx","6yb5i1u49f","msl000491","motor","img/motor_3.png","68","68","motor","3","88","1","0","0","",""
"null","","171198","HierDyfdo116xx","6yb5i1u49f","msl000491","iti","img/motor_blank.png","null","68","motor","","","","","","",""
"505","","171713","HierDyfdo116xx","6yb5i1u49f","msl000491","motor","img/motor_8.png","76","76","motor","8","89","1","0","0","",""
"null","","171823","HierDyfdo116xx","6yb5i1u49f","msl000491","iti","img/motor_blank.png","null","76","motor","","","","","","",""
"502","","172334","HierDyfdo116xx","6yb5i1u49f","msl000491","motor","img/motor_7.png","75","75","motor","7","90","1","0","0","",""
"null","","172444","HierDyfdo116xx","6yb5i1u49f","msl000491","iti","img/motor_blank.png","null","75","motor","","","","","","",""
"504","","172958","HierDyfdo116xx","6yb5i1u49f","msl000491","motor","img/motor_4.png","70","70","motor","4","91","1","0","0","",""
"null","","173068","HierDyfdo116xx","6yb5i1u49f","msl000491","iti","img/motor_blank.png","null","70","motor","","","","","","",""
"488","","173564","HierDyfdo116xx","6yb5i1u49f","msl000491","motor","img/motor_2.png","83","83","motor","2","92","1","0","0","",""
"null","","173673","HierDyfdo116xx","6yb5i1u49f","msl000491","iti","img/motor_blank.png","null","83","motor","","","","","","",""
"532","","174213","HierDyfdo116xx","6yb5i1u49f","msl000491","motor","img/motor_4.png","70","70","motor","4","93","1","0","0","",""
"null","","174323","HierDyfdo116xx","6yb5i1u49f","msl000491","iti","img/motor_blank.png","null","70","motor","","","","","","",""
"467","","174799","HierDyfdo116xx","6yb5i1u49f","msl000491","motor","img/motor_4.png","70","70","motor","4","94","1","0","0","",""
"null","","174909","HierDyfdo116xx","6yb5i1u49f","msl000491","iti","img/motor_blank.png","null","70","motor","","","","","","",""
"529","","175447","HierDyfdo116xx","6yb5i1u49f","msl000491","motor","img/motor_2.png","83","83","motor","2","95","1","0","0","",""
"null","","175558","HierDyfdo116xx","6yb5i1u49f","msl000491","iti","img/motor_blank.png","null","83","motor","","","","","","",""
"428","","175994","HierDyfdo116xx","6yb5i1u49f","msl000491","motor","img/motor_1.png","65","65","motor","1","96","1","0","0","",""
"null","","176105","HierDyfdo116xx","6yb5i1u49f","msl000491","iti","img/motor_blank.png","null","65","motor","","","","","","",""
"534","","176649","HierDyfdo116xx","6yb5i1u49f","msl000491","motor","img/motor_7.png","75","75","motor","7","97","1","0","0","",""
"null","","176759","HierDyfdo116xx","6yb5i1u49f","msl000491","iti","img/motor_blank.png","null","75","motor","","","","","","",""
"459","","177227","HierDyfdo116xx","6yb5i1u49f","msl000491","motor","img/motor_8.png","76","76","motor","8","98","1","0","0","",""
"null","","177338","HierDyfdo116xx","6yb5i1u49f","msl000491","iti","img/motor_blank.png","null","76","motor","","","","","","",""
"481","","177828","HierDyfdo116xx","6yb5i1u49f","msl000491","motor","img/motor_6.png","74","74","motor","6","99","1","0","0","",""
"null","","177936","HierDyfdo116xx","6yb5i1u49f","msl000491","iti","img/motor_blank.png","null","74","motor","","","","","","",""
"565","","178511","HierDyfdo116xx","6yb5i1u49f","msl000491","motor","img/motor_7.png","75","75","motor","7","100","1","0","0","",""
"null","","178622","HierDyfdo116xx","6yb5i1u49f","msl000491","iti","img/motor_blank.png","null","75","motor","","","","","","",""
"710","","179340","HierDyfdo116xx","6yb5i1u49f","msl000491","motor","img/motor_3.png","68","68","motor","3","101","1","0","0","",""
"null","","179450","HierDyfdo116xx","6yb5i1u49f","msl000491","iti","img/motor_blank.png","null","68","motor","","","","","","",""
"408","","179867","HierDyfdo116xx","6yb5i1u49f","msl000491","motor","img/motor_2.png","83","83","motor","2","102","1","0","0","",""
"null","","179978","HierDyfdo116xx","6yb5i1u49f","msl000491","iti","img/motor_blank.png","null","83","motor","","","","","","",""
"492","","180478","HierDyfdo116xx","6yb5i1u49f","msl000491","motor","img/motor_8.png","76","76","motor","8","103","1","0","0","",""
"null","","180588","HierDyfdo116xx","6yb5i1u49f","msl000491","iti","img/motor_blank.png","null","76","motor","","","","","","",""
"506","","181105","HierDyfdo116xx","6yb5i1u49f","msl000491","motor","img/motor_3.png","68","68","motor","3","104","1","0","0","",""
"null","","181215","HierDyfdo116xx","6yb5i1u49f","msl000491","iti","img/motor_blank.png","null","68","motor","","","","","","",""
"455","","181677","HierDyfdo116xx","6yb5i1u49f","msl000491","motor","img/motor_4.png","70","70","motor","4","105","1","0","0","",""
"null","","181788","HierDyfdo116xx","6yb5i1u49f","msl000491","iti","img/motor_blank.png","null","70","motor","","","","","","",""
"439","","182237","HierDyfdo116xx","6yb5i1u49f","msl000491","motor","img/motor_4.png","70","70","motor","4","106","1","0","0","",""
"null","","182347","HierDyfdo116xx","6yb5i1u49f","msl000491","iti","img/motor_blank.png","null","70","motor","","","","","","",""
"418","","182773","HierDyfdo116xx","6yb5i1u49f","msl000491","motor","img/motor_1.png","65","65","motor","1","107","1","0","0","",""
"null","","182883","HierDyfdo116xx","6yb5i1u49f","msl000491","iti","img/motor_blank.png","null","65","motor","","","","","","",""
"450","","183342","HierDyfdo116xx","6yb5i1u49f","msl000491","motor","img/motor_5.png","72","72","motor","5","108","1","0","0","",""
"null","","183451","HierDyfdo116xx","6yb5i1u49f","msl000491","iti","img/motor_blank.png","null","72","motor","","","","","","",""
"623","","184082","HierDyfdo116xx","6yb5i1u49f","msl000491","motor","img/motor_4.png","70","70","motor","4","109","1","0","0","",""
"null","","184190","HierDyfdo116xx","6yb5i1u49f","msl000491","iti","img/motor_blank.png","null","70","motor","","","","","","",""
"467","","184666","HierDyfdo116xx","6yb5i1u49f","msl000491","motor","img/motor_8.png","76","76","motor","8","110","1","0","0","",""
"null","","184775","HierDyfdo116xx","6yb5i1u49f","msl000491","iti","img/motor_blank.png","null","76","motor","","","","","","",""
"384","","185169","HierDyfdo116xx","6yb5i1u49f","msl000491","motor","img/motor_5.png","70","72","motor","5","111","0","1","0","",""
"387","","185565","HierDyfdo116xx","6yb5i1u49f","msl000491","motorRepeat","img/motor_5.png","72","72","motor","5","111","1","0","0","",""
"null","","185673","HierDyfdo116xx","6yb5i1u49f","msl000491","iti","img/motor_blank.png","null","72","motor","","","","","","",""
"472","","186153","HierDyfdo116xx","6yb5i1u49f","msl000491","motor","img/motor_4.png","70","70","motor","4","112","1","0","0","",""
"null","","186263","HierDyfdo116xx","6yb5i1u49f","msl000491","iti","img/motor_blank.png","null","70","motor","","","","","","",""
"554","","186826","HierDyfdo116xx","6yb5i1u49f","msl000491","motor","img/motor_5.png","74","72","motor","5","113","0","1","0","",""
"392","","187228","HierDyfdo116xx","6yb5i1u49f","msl000491","motorRepeat","img/motor_5.png","72","72","motor","5","113","1","0","0","",""
"null","","187338","HierDyfdo116xx","6yb5i1u49f","msl000491","iti","img/motor_blank.png","null","72","motor","","","","","","",""
"729","","188075","HierDyfdo116xx","6yb5i1u49f","msl000491","motor","img/motor_2.png","83","83","motor","2","114","1","0","0","",""
"null","","188184","HierDyfdo116xx","6yb5i1u49f","msl000491","iti","img/motor_blank.png","null","83","motor","","","","","","",""
"813","","189006","HierDyfdo116xx","6yb5i1u49f","msl000491","motor","img/motor_6.png","74","74","motor","6","115","1","0","0","",""
"null","","189116","HierDyfdo116xx","6yb5i1u49f","msl000491","iti","img/motor_blank.png","null","74","motor","","","","","","",""
"450","","189576","HierDyfdo116xx","6yb5i1u49f","msl000491","motor","img/motor_1.png","65","65","motor","1","116","1","0","0","",""
"null","","189685","HierDyfdo116xx","6yb5i1u49f","msl000491","iti","img/motor_blank.png","null","65","motor","","","","","","",""
"539","","190233","HierDyfdo116xx","6yb5i1u49f","msl000491","motor","img/motor_2.png","68","83","motor","2","117","0","1","0","",""
"291","","190535","HierDyfdo116xx","6yb5i1u49f","msl000491","motorRepeat","img/motor_2.png","83","83","motor","2","117","1","0","0","",""
"null","","190646","HierDyfdo116xx","6yb5i1u49f","msl000491","iti","img/motor_blank.png","null","83","motor","","","","","","",""
"1014","","191668","HierDyfdo116xx","6yb5i1u49f","msl000491","motor","img/motor_6.png","74","74","motor","6","118","1","0","0","",""
"null","","191778","HierDyfdo116xx","6yb5i1u49f","msl000491","iti","img/motor_blank.png","null","74","motor","","","","","","",""
"442","","192230","HierDyfdo116xx","6yb5i1u49f","msl000491","motor","img/motor_3.png","68","68","motor","3","119","1","0","0","",""
"null","","192339","HierDyfdo116xx","6yb5i1u49f","msl000491","iti","img/motor_blank.png","null","68","motor","","","","","","",""
"529","","192877","HierDyfdo116xx","6yb5i1u49f","msl000491","motor","img/motor_8.png","76","76","motor","8","120","1","0","0","",""
"null","","192988","HierDyfdo116xx","6yb5i1u49f","msl000491","iti","img/motor_blank.png","null","76","motor","","","","","","",""
"397","","193393","HierDyfdo116xx","6yb5i1u49f","msl000491","motor","img/motor_8.png","76","76","motor","8","121","1","0","0","",""
"null","","193503","HierDyfdo116xx","6yb5i1u49f","msl000491","iti","img/motor_blank.png","null","76","motor","","","","","","",""
"538","","194048","HierDyfdo116xx","6yb5i1u49f","msl000491","motor","img/motor_3.png","68","68","motor","3","122","1","0","0","",""
"null","","194158","HierDyfdo116xx","6yb5i1u49f","msl000491","iti","img/motor_blank.png","null","68","motor","","","","","","",""
"470","","194637","HierDyfdo116xx","6yb5i1u49f","msl000491","motor","img/motor_5.png","72","72","motor","5","123","1","0","0","",""
"null","","194748","HierDyfdo116xx","6yb5i1u49f","msl000491","iti","img/motor_blank.png","null","72","motor","","","","","","",""
"622","","195378","HierDyfdo116xx","6yb5i1u49f","msl000491","motor","img/motor_4.png","70","70","motor","4","124","1","0","0","",""
"null","","195489","HierDyfdo116xx","6yb5i1u49f","msl000491","iti","img/motor_blank.png","null","70","motor","","","","","","",""
"404","","195901","HierDyfdo116xx","6yb5i1u49f","msl000491","motor","img/motor_1.png","65","65","motor","1","125","1","0","0","",""
"null","","196013","HierDyfdo116xx","6yb5i1u49f","msl000491","iti","img/motor_blank.png","null","65","motor","","","","","","",""
"441","","196462","HierDyfdo116xx","6yb5i1u49f","msl000491","motor","img/motor_5.png","72","72","motor","5","126","1","0","0","",""
"null","","196574","HierDyfdo116xx","6yb5i1u49f","msl000491","iti","img/motor_blank.png","null","72","motor","","","","","","",""
"662","","197244","HierDyfdo116xx","6yb5i1u49f","msl000491","motor","img/motor_6.png","74","74","motor","6","127","1","0","0","",""
"null","","197354","HierDyfdo116xx","6yb5i1u49f","msl000491","iti","img/motor_blank.png","null","74","motor","","","","","","",""
"403","","197765","HierDyfdo116xx","6yb5i1u49f","msl000491","motor","img/motor_6.png","74","74","motor","6","128","1","0","0","",""
"null","","197876","HierDyfdo116xx","6yb5i1u49f","msl000491","iti","img/motor_blank.png","null","74","motor","","","","","","",""
"518","","198402","HierDyfdo116xx","6yb5i1u49f","msl000491","motor","img/motor_3.png","68","68","motor","3","129","1","0","0","",""
"null","","198512","HierDyfdo116xx","6yb5i1u49f","msl000491","iti","img/motor_blank.png","null","68","motor","","","","","","",""
"507","","199027","HierDyfdo116xx","6yb5i1u49f","msl000491","motor","img/motor_7.png","75","75","motor","7","130","1","0","0","",""
"null","","199137","HierDyfdo116xx","6yb5i1u49f","msl000491","iti","img/motor_blank.png","null","75","motor","","","","","","",""
"430","","199577","HierDyfdo116xx","6yb5i1u49f","msl000491","motor","img/motor_1.png","65","65","motor","1","131","1","0","0","",""
"null","","199686","HierDyfdo116xx","6yb5i1u49f","msl000491","iti","img/motor_blank.png","null","65","motor","","","","","","",""
"457","","200155","HierDyfdo116xx","6yb5i1u49f","msl000491","motor","img/motor_5.png","72","72","motor","5","132","1","0","0","",""
"null","","200267","HierDyfdo116xx","6yb5i1u49f","msl000491","iti","img/motor_blank.png","null","72","motor","","","","","","",""
"522","","200800","HierDyfdo116xx","6yb5i1u49f","msl000491","motor","img/motor_8.png","76","76","motor","8","133","1","0","0","",""
"null","","200912","HierDyfdo116xx","6yb5i1u49f","msl000491","iti","img/motor_blank.png","null","76","motor","","","","","","",""
"541","","201461","HierDyfdo116xx","6yb5i1u49f","msl000491","motor","img/motor_6.png","74","74","motor","6","134","1","0","0","",""
"null","","201574","HierDyfdo116xx","6yb5i1u49f","msl000491","iti","img/motor_blank.png","null","74","motor","","","","","","",""
"470","","202053","HierDyfdo116xx","6yb5i1u49f","msl000491","motor","img/motor_7.png","75","75","motor","7","135","1","0","0","",""
"null","","202163","HierDyfdo116xx","6yb5i1u49f","msl000491","iti","img/motor_blank.png","null","75","motor","","","","","","",""
"504","","202676","HierDyfdo116xx","6yb5i1u49f","msl000491","motor","img/motor_4.png","70","70","motor","4","136","1","0","0","",""
"null","","202787","HierDyfdo116xx","6yb5i1u49f","msl000491","iti","img/motor_blank.png","null","70","motor","","","","","","",""
"674","","203469","HierDyfdo116xx","6yb5i1u49f","msl000491","motor","img/motor_8.png","76","76","motor","8","137","1","0","0","",""
"null","","203580","HierDyfdo116xx","6yb5i1u49f","msl000491","iti","img/motor_blank.png","null","76","motor","","","","","","",""
"478","","204069","HierDyfdo116xx","6yb5i1u49f","msl000491","motor","img/motor_5.png","72","72","motor","5","138","1","0","0","",""
"null","","204178","HierDyfdo116xx","6yb5i1u49f","msl000491","iti","img/motor_blank.png","null","72","motor","","","","","","",""
"398","","204588","HierDyfdo116xx","6yb5i1u49f","msl000491","motor","img/motor_6.png","74","74","motor","6","139","1","0","0","",""
"null","","204698","HierDyfdo116xx","6yb5i1u49f","msl000491","iti","img/motor_blank.png","null","74","motor","","","","","","",""
"468","","205175","HierDyfdo116xx","6yb5i1u49f","msl000491","motor","img/motor_4.png","70","70","motor","4","140","1","0","0","",""
"null","","205284","HierDyfdo116xx","6yb5i1u49f","msl000491","iti","img/motor_blank.png","null","70","motor","","","","","","",""
"587","","205880","HierDyfdo116xx","6yb5i1u49f","msl000491","motor","img/motor_7.png","75","75","motor","7","141","1","0","0","",""
"null","","205992","HierDyfdo116xx","6yb5i1u49f","msl000491","iti","img/motor_blank.png","null","75","motor","","","","","","",""
"498","","206499","HierDyfdo116xx","6yb5i1u49f","msl000491","motor","img/motor_2.png","83","83","motor","2","142","1","0","0","",""
"null","","206610","HierDyfdo116xx","6yb5i1u49f","msl000491","iti","img/motor_blank.png","null","83","motor","","","","","","",""
"490","","207111","HierDyfdo116xx","6yb5i1u49f","msl000491","motor","img/motor_7.png","75","75","motor","7","143","1","0","0","",""
"null","","207220","HierDyfdo116xx","6yb5i1u49f","msl000491","iti","img/motor_blank.png","null","75","motor","","","","","","",""
"453","","207680","HierDyfdo116xx","6yb5i1u49f","msl000491","motor","img/motor_4.png","70","70","motor","4","144","1","0","0","",""
"null","","207791","HierDyfdo116xx","6yb5i1u49f","msl000491","iti","img/motor_blank.png","null","70","motor","","","","","","",""
"583","","208383","HierDyfdo116xx","6yb5i1u49f","msl000491","motor","img/motor_6.png","74","74","motor","6","145","1","0","0","",""
"null","","208492","HierDyfdo116xx","6yb5i1u49f","msl000491","iti","img/motor_blank.png","null","74","motor","","","","","","",""
"435","","208933","HierDyfdo116xx","6yb5i1u49f","msl000491","motor","img/motor_4.png","70","70","motor","4","146","1","0","0","",""
"null","","209043","HierDyfdo116xx","6yb5i1u49f","msl000491","iti","img/motor_blank.png","null","70","motor","","","","","","",""
"571","","209623","HierDyfdo116xx","6yb5i1u49f","msl000491","motor","img/motor_7.png","75","75","motor","7","147","1","0","0","",""
"null","","209733","HierDyfdo116xx","6yb5i1u49f","msl000491","iti","img/motor_blank.png","null","75","motor","","","","","","",""
"679","","210419","HierDyfdo116xx","6yb5i1u49f","msl000491","motor","img/motor_3.png","83","68","motor","3","148","0","1","0","",""
"302","","210730","HierDyfdo116xx","6yb5i1u49f","msl000491","motorRepeat","img/motor_3.png","68","68","motor","3","148","1","0","0","",""
"null","","210840","HierDyfdo116xx","6yb5i1u49f","msl000491","iti","img/motor_blank.png","null","68","motor","","","","","","",""
"526","","211374","HierDyfdo116xx","6yb5i1u49f","msl000491","motor","img/motor_6.png","74","74","motor","6","149","1","0","0","",""
"null","","211484","HierDyfdo116xx","6yb5i1u49f","msl000491","iti","img/motor_blank.png","null","74","motor","","","","","","",""
"634","","212128","HierDyfdo116xx","6yb5i1u49f","msl000491","motor","img/motor_7.png","75","75","motor","7","150","1","0","0","",""
"null","","212239","HierDyfdo116xx","6yb5i1u49f","msl000491","iti","img/motor_blank.png","null","75","motor","","","","","","",""
"411","","212659","HierDyfdo116xx","6yb5i1u49f","msl000491","motor","img/motor_5.png","72","72","motor","5","151","1","0","0","",""
"null","","212770","HierDyfdo116xx","6yb5i1u49f","msl000491","iti","img/motor_blank.png","null","72","motor","","","","","","",""
"456","","213235","HierDyfdo116xx","6yb5i1u49f","msl000491","motor","img/motor_6.png","74","74","motor","6","152","1","0","0","",""
"null","","213345","HierDyfdo116xx","6yb5i1u49f","msl000491","iti","img/motor_blank.png","null","74","motor","","","","","","",""
"473","","213828","HierDyfdo116xx","6yb5i1u49f","msl000491","motor","img/motor_5.png","72","72","motor","5","153","1","0","0","",""
"null","","213936","HierDyfdo116xx","6yb5i1u49f","msl000491","iti","img/motor_blank.png","null","72","motor","","","","","","",""
"495","","214440","HierDyfdo116xx","6yb5i1u49f","msl000491","motor","img/motor_2.png","83","83","motor","2","154","1","0","0","",""
"null","","214550","HierDyfdo116xx","6yb5i1u49f","msl000491","iti","img/motor_blank.png","null","83","motor","","","","","","",""
"352","","214911","HierDyfdo116xx","6yb5i1u49f","msl000491","motor","img/motor_2.png","83","83","motor","2","155","1","0","0","",""
"null","","215019","HierDyfdo116xx","6yb5i1u49f","msl000491","iti","img/motor_blank.png","null","83","motor","","","","","","",""
"457","","215487","HierDyfdo116xx","6yb5i1u49f","msl000491","motor","img/motor_5.png","72","72","motor","5","156","1","0","0","",""
"null","","215596","HierDyfdo116xx","6yb5i1u49f","msl000491","iti","img/motor_blank.png","null","72","motor","","","","","","",""
"526","","216131","HierDyfdo116xx","6yb5i1u49f","msl000491","motor","img/motor_8.png","76","76","motor","8","157","1","0","0","",""
"null","","216241","HierDyfdo116xx","6yb5i1u49f","msl000491","iti","img/motor_blank.png","null","76","motor","","","","","","",""
"633","","216883","HierDyfdo116xx","6yb5i1u49f","msl000491","motor","img/motor_3.png","68","68","motor","3","158","1","0","0","",""
"null","","216993","HierDyfdo116xx","6yb5i1u49f","msl000491","iti","img/motor_blank.png","null","68","motor","","","","","","",""
"353","","217354","HierDyfdo116xx","6yb5i1u49f","msl000491","motor","img/motor_3.png","68","68","motor","3","159","1","0","0","",""
"null","","217464","HierDyfdo116xx","6yb5i1u49f","msl000491","iti","img/motor_blank.png","null","68","motor","","","","","","",""
"459","","217931","HierDyfdo116xx","6yb5i1u49f","msl000491","motor","img/motor_8.png","76","76","motor","8","160","1","0","0","",""
"null","","218040","HierDyfdo116xx","6yb5i1u49f","msl000491","iti","img/motor_blank.png","null","76","motor","","","","","","",""
"395","","218442","HierDyfdo116xx","6yb5i1u49f","msl000491","motor","img/motor_3.png","68","68","motor","3","161","1","0","0","",""
"null","","218553","HierDyfdo116xx","6yb5i1u49f","msl000491","iti","img/motor_blank.png","null","68","motor","","","","","","",""
"463","","219023","HierDyfdo116xx","6yb5i1u49f","msl000491","motor","img/motor_1.png","65","65","motor","1","162","1","0","0","",""
"null","","219134","HierDyfdo116xx","6yb5i1u49f","msl000491","iti","img/motor_blank.png","null","65","motor","","","","","","",""
"421","","219564","HierDyfdo116xx","6yb5i1u49f","msl000491","motor","img/motor_3.png","68","68","motor","3","163","1","0","0","",""
"null","","219674","HierDyfdo116xx","6yb5i1u49f","msl000491","iti","img/motor_blank.png","null","68","motor","","","","","","",""
"419","","220100","HierDyfdo116xx","6yb5i1u49f","msl000491","motor","img/motor_4.png","70","70","motor","4","164","1","0","0","",""
"null","","220210","HierDyfdo116xx","6yb5i1u49f","msl000491","iti","img/motor_blank.png","null","70","motor","","","","","","",""
"318","","220538","HierDyfdo116xx","6yb5i1u49f","msl000491","motor","img/motor_2.png","68","83","motor","2","165","0","1","0","",""
"185","","220732","HierDyfdo116xx","6yb5i1u49f","msl000491","motorRepeat","img/motor_2.png","83","83","motor","2","165","1","0","0","",""
"null","","220842","HierDyfdo116xx","6yb5i1u49f","msl000491","iti","img/motor_blank.png","null","83","motor","","","","","","",""
"448","","221301","HierDyfdo116xx","6yb5i1u49f","msl000491","motor","img/motor_5.png","70","72","motor","5","166","0","1","0","",""
"331","","221641","HierDyfdo116xx","6yb5i1u49f","msl000491","motorRepeat","img/motor_5.png","74","72","motor","5","166","0","1","0","",""
"262","","221912","HierDyfdo116xx","6yb5i1u49f","msl000491","motorRepeat","img/motor_5.png","72","72","motor","5","166","1","0","0","",""
"null","","222022","HierDyfdo116xx","6yb5i1u49f","msl000491","iti","img/motor_blank.png","null","72","motor","","","","","","",""
"368","","222399","HierDyfdo116xx","6yb5i1u49f","msl000491","motor","img/motor_5.png","72","72","motor","5","167","1","0","0","",""
"null","","222510","HierDyfdo116xx","6yb5i1u49f","msl000491","iti","img/motor_blank.png","null","72","motor","","","","","","",""
"401","","222920","HierDyfdo116xx","6yb5i1u49f","msl000491","motor","img/motor_6.png","74","74","motor","6","168","1","0","0","",""
"null","","223029","HierDyfdo116xx","6yb5i1u49f","msl000491","iti","img/motor_blank.png","null","74","motor","","","","","","",""
"461","","223499","HierDyfdo116xx","6yb5i1u49f","msl000491","motor","img/motor_7.png","75","75","motor","7","169","1","0","0","",""
"null","","223608","HierDyfdo116xx","6yb5i1u49f","msl000491","iti","img/motor_blank.png","null","75","motor","","","","","","",""
"583","","224201","HierDyfdo116xx","6yb5i1u49f","msl000491","motor","img/motor_3.png","68","68","motor","3","170","1","0","0","",""
"null","","224311","HierDyfdo116xx","6yb5i1u49f","msl000491","iti","img/motor_blank.png","null","68","motor","","","","","","",""
"443","","224763","HierDyfdo116xx","6yb5i1u49f","msl000491","motor","img/motor_1.png","65","65","motor","1","171","1","0","0","",""
"null","","224874","HierDyfdo116xx","6yb5i1u49f","msl000491","iti","img/motor_blank.png","null","65","motor","","","","","","",""
"518","","225401","HierDyfdo116xx","6yb5i1u49f","msl000491","motor","img/motor_7.png","74","75","motor","7","172","0","1","0","",""
"196","","225607","HierDyfdo116xx","6yb5i1u49f","msl000491","motorRepeat","img/motor_7.png","75","75","motor","7","172","1","0","0","",""
"null","","225717","HierDyfdo116xx","6yb5i1u49f","msl000491","iti","img/motor_blank.png","null","75","motor","","","","","","",""
"417","","226143","HierDyfdo116xx","6yb5i1u49f","msl000491","motor","img/motor_8.png","76","76","motor","8","173","1","0","0","",""
"null","","226253","HierDyfdo116xx","6yb5i1u49f","msl000491","iti","img/motor_blank.png","null","76","motor","","","","","","",""
"429","","226689","HierDyfdo116xx","6yb5i1u49f","msl000491","motor","img/motor_2.png","68","83","motor","2","174","0","1","0","",""
"213","","226913","HierDyfdo116xx","6yb5i1u49f","msl000491","motorRepeat","img/motor_2.png","83","83","motor","2","174","1","0","0","",""
"null","","227022","HierDyfdo116xx","6yb5i1u49f","msl000491","iti","img/motor_blank.png","null","83","motor","","","","","","",""
"547","","227578","HierDyfdo116xx","6yb5i1u49f","msl000491","motor","img/motor_6.png","74","74","motor","6","175","1","0","0","",""
"null","","227687","HierDyfdo116xx","6yb5i1u49f","msl000491","iti","img/motor_blank.png","null","74","motor","","","","","","",""
"494","","228189","HierDyfdo116xx","6yb5i1u49f","msl000491","motor","img/motor_3.png","68","68","motor","3","176","1","0","0","",""
"null","","228299","HierDyfdo116xx","6yb5i1u49f","msl000491","iti","img/motor_blank.png","null","68","motor","","","","","","",""
"485","","228794","HierDyfdo116xx","6yb5i1u49f","msl000491","motor","img/motor_4.png","70","70","motor","4","177","1","0","0","",""
"null","","228903","HierDyfdo116xx","6yb5i1u49f","msl000491","iti","img/motor_blank.png","null","70","motor","","","","","","",""
"521","","229432","HierDyfdo116xx","6yb5i1u49f","msl000491","motor","img/motor_7.png","75","75","motor","7","178","1","0","0","",""
"null","","229542","HierDyfdo116xx","6yb5i1u49f","msl000491","iti","img/motor_blank.png","null","75","motor","","","","","","",""
"482","","230031","HierDyfdo116xx","6yb5i1u49f","msl000491","motor","img/motor_1.png","65","65","motor","1","179","1","0","0","",""
"null","","230141","HierDyfdo116xx","6yb5i1u49f","msl000491","iti","img/motor_blank.png","null","65","motor","","","","","","",""
"395","","230544","HierDyfdo116xx","6yb5i1u49f","msl000491","motor","img/motor_1.png","65","65","motor","1","180","1","0","0","",""
"null","","230654","HierDyfdo116xx","6yb5i1u49f","msl000491","iti","img/motor_blank.png","null","65","motor","","","","","","",""
"444","","231107","HierDyfdo116xx","6yb5i1u49f","msl000491","motor","img/motor_5.png","72","72","motor","5","181","1","0","0","",""
"null","","231218","HierDyfdo116xx","6yb5i1u49f","msl000491","iti","img/motor_blank.png","null","72","motor","","","","","","",""
"356","","231582","HierDyfdo116xx","6yb5i1u49f","msl000491","motor","img/motor_5.png","72","72","motor","5","182","1","0","0","",""
"null","","231690","HierDyfdo116xx","6yb5i1u49f","msl000491","iti","img/motor_blank.png","null","72","motor","","","","","","",""
"460","","232160","HierDyfdo116xx","6yb5i1u49f","msl000491","motor","img/motor_8.png","76","76","motor","8","183","1","0","0","",""
"null","","232271","HierDyfdo116xx","6yb5i1u49f","msl000491","iti","img/motor_blank.png","null","76","motor","","","","","","",""
"321","","232600","HierDyfdo116xx","6yb5i1u49f","msl000491","motor","img/motor_8.png","76","76","motor","8","184","1","0","0","",""
"null","","232710","HierDyfdo116xx","6yb5i1u49f","msl000491","iti","img/motor_blank.png","null","76","motor","","","","","","",""
"465","","233182","HierDyfdo116xx","6yb5i1u49f","msl000491","motor","img/motor_6.png","74","74","motor","6","185","1","0","0","",""
"null","","233292","HierDyfdo116xx","6yb5i1u49f","msl000491","iti","img/motor_blank.png","null","74","motor","","","","","","",""
"259","","233561","HierDyfdo116xx","6yb5i1u49f","msl000491","motor","img/motor_6.png","74","74","motor","6","186","1","0","0","",""
"null","","233668","HierDyfdo116xx","6yb5i1u49f","msl000491","iti","img/motor_blank.png","null","74","motor","","","","","","",""
"385","","234061","HierDyfdo116xx","6yb5i1u49f","msl000491","motor","img/motor_1.png","65","65","motor","1","187","1","0","0","",""
"null","","234169","HierDyfdo116xx","6yb5i1u49f","msl000491","iti","img/motor_blank.png","null","65","motor","","","","","","",""
"181","","234358","HierDyfdo116xx","6yb5i1u49f","msl000491","motor","img/motor_4.png","65","70","motor","4","188","0","1","0","",""
"358","","234726","HierDyfdo116xx","6yb5i1u49f","msl000491","motorRepeat","img/motor_4.png","70","70","motor","4","188","1","0","0","",""
"null","","234837","HierDyfdo116xx","6yb5i1u49f","msl000491","iti","img/motor_blank.png","null","70","motor","","","","","","",""
"586","","235430","HierDyfdo116xx","6yb5i1u49f","msl000491","motor","img/motor_6.png","74","74","motor","6","189","1","0","0","",""
"null","","235541","HierDyfdo116xx","6yb5i1u49f","msl000491","iti","img/motor_blank.png","null","74","motor","","","","","","",""
"605","","236154","HierDyfdo116xx","6yb5i1u49f","msl000491","motor","img/motor_8.png","76","76","motor","8","190","1","0","0","",""
"null","","236265","HierDyfdo116xx","6yb5i1u49f","msl000491","iti","img/motor_blank.png","null","76","motor","","","","","","",""
"433","","236707","HierDyfdo116xx","6yb5i1u49f","msl000491","motor","img/motor_2.png","83","83","motor","2","191","1","0","0","",""
"null","","236817","HierDyfdo116xx","6yb5i1u49f","msl000491","iti","img/motor_blank.png","null","83","motor","","","","","","",""
"332","","237159","HierDyfdo116xx","6yb5i1u49f","msl000491","motor","img/motor_3.png","68","68","motor","3","192","1","0","0","",""
"null","","237269","HierDyfdo116xx","6yb5i1u49f","msl000491","iti","img/motor_blank.png","null","68","motor","","","","","","",""
"326","","237605","HierDyfdo116xx","6yb5i1u49f","msl000491","motor","img/motor_3.png","68","68","motor","3","193","1","0","0","",""
"null","","237715","HierDyfdo116xx","6yb5i1u49f","msl000491","iti","img/motor_blank.png","null","68","motor","","","","","","",""
"464","","238188","HierDyfdo116xx","6yb5i1u49f","msl000491","motor","img/motor_4.png","70","70","motor","4","194","1","0","0","",""
"null","","238298","HierDyfdo116xx","6yb5i1u49f","msl000491","iti","img/motor_blank.png","null","70","motor","","","","","","",""
"669","","238976","HierDyfdo116xx","6yb5i1u49f","msl000491","motor","img/motor_1.png","65","65","motor","1","195","1","0","0","",""
"null","","239087","HierDyfdo116xx","6yb5i1u49f","msl000491","iti","img/motor_blank.png","null","65","motor","","","","","","",""
"598","","239692","HierDyfdo116xx","6yb5i1u49f","msl000491","motor","img/motor_3.png","68","68","motor","3","196","1","0","0","",""
"null","","239802","HierDyfdo116xx","6yb5i1u49f","msl000491","iti","img/motor_blank.png","null","68","motor","","","","","","",""
"324","","240135","HierDyfdo116xx","6yb5i1u49f","msl000491","motor","img/motor_2.png","68","83","motor","2","197","0","1","0","",""
"403","","240547","HierDyfdo116xx","6yb5i1u49f","msl000491","motorRepeat","img/motor_2.png","68","83","motor","2","197","0","1","0","",""
"242","","240799","HierDyfdo116xx","6yb5i1u49f","msl000491","motorRepeat","img/motor_2.png","83","83","motor","2","197","1","0","0","",""
"null","","240909","HierDyfdo116xx","6yb5i1u49f","msl000491","iti","img/motor_blank.png","null","83","motor","","","","","","",""
"500","","241419","HierDyfdo116xx","6yb5i1u49f","msl000491","motor","img/motor_6.png","74","74","motor","6","198","1","0","0","",""
"null","","241530","HierDyfdo116xx","6yb5i1u49f","msl000491","iti","img/motor_blank.png","null","74","motor","","","","","","",""
"595","","242134","HierDyfdo116xx","6yb5i1u49f","msl000491","motor","img/motor_2.png","83","83","motor","2","199","1","0","0","",""
"null","","242245","HierDyfdo116xx","6yb5i1u49f","msl000491","iti","img/motor_blank.png","null","83","motor","","","","","","",""
"324","","242579","HierDyfdo116xx","6yb5i1u49f","msl000491","motor","img/motor_1.png","83","65","motor","1","200","0","1","0","",""
"91","","242678","HierDyfdo116xx","6yb5i1u49f","msl000491","motorRepeat","img/motor_1.png","65","65","motor","1","200","1","0","0","",""
"null","","242789","HierDyfdo116xx","6yb5i1u49f","msl000491","iti","img/motor_blank.png","null","65","motor","","","","","","",""
"579","","243376","HierDyfdo116xx","6yb5i1u49f","msl000491","motor","img/motor_6.png","75","74","motor","6","201","0","1","0","",""
"208","","243592","HierDyfdo116xx","6yb5i1u49f","msl000491","motorRepeat","img/motor_6.png","74","74","motor","6","201","1","0","0","",""
"null","","243703","HierDyfdo116xx","6yb5i1u49f","msl000491","iti","img/motor_blank.png","null","74","motor","","","","","","",""
"439","","244152","HierDyfdo116xx","6yb5i1u49f","msl000491","motor","img/motor_2.png","65","83","motor","2","202","0","1","0","",""
"365","","244527","HierDyfdo116xx","6yb5i1u49f","msl000491","motorRepeat","img/motor_2.png","83","83","motor","2","202","1","0","0","",""
"null","","244638","HierDyfdo116xx","6yb5i1u49f","msl000491","iti","img/motor_blank.png","null","83","motor","","","","","","",""
"476","","245124","HierDyfdo116xx","6yb5i1u49f","msl000491","motor","img/motor_8.png","76","76","motor","8","203","1","0","0","",""
"null","","245235","HierDyfdo116xx","6yb5i1u49f","msl000491","iti","img/motor_blank.png","null","76","motor","","","","","","",""
"578","","245822","HierDyfdo116xx","6yb5i1u49f","msl000491","motor","img/motor_7.png","74","75","motor","7","204","0","1","0","",""
"181","","246013","HierDyfdo116xx","6yb5i1u49f","msl000491","motorRepeat","img/motor_7.png","75","75","motor","7","204","1","0","0","",""
"null","","246122","HierDyfdo116xx","6yb5i1u49f","msl000491","iti","img/motor_blank.png","null","75","motor","","","","","","",""
"478","","246610","HierDyfdo116xx","6yb5i1u49f","msl000491","motor","img/motor_5.png","72","72","motor","5","205","1","0","0","",""
"null","","246721","HierDyfdo116xx","6yb5i1u49f","msl000491","iti","img/motor_blank.png","null","72","motor","","","","","","",""
"684","","247414","HierDyfdo116xx","6yb5i1u49f","msl000491","motor","img/motor_3.png","68","68","motor","3","206","1","0","0","",""
"null","","247524","HierDyfdo116xx","6yb5i1u49f","msl000491","iti","img/motor_blank.png","null","68","motor","","","","","","",""
"428","","247961","HierDyfdo116xx","6yb5i1u49f","msl000491","motor","img/motor_1.png","65","65","motor","1","207","1","0","0","",""
"null","","248070","HierDyfdo116xx","6yb5i1u49f","msl000491","iti","img/motor_blank.png","null","65","motor","","","","","","",""
"408","","248488","HierDyfdo116xx","6yb5i1u49f","msl000491","motor","img/motor_1.png","65","65","motor","1","208","1","0","0","",""
"null","","248598","HierDyfdo116xx","6yb5i1u49f","msl000491","iti","img/motor_blank.png","null","65","motor","","","","","","",""
"543","","249152","HierDyfdo116xx","6yb5i1u49f","msl000491","motor","img/motor_6.png","75","74","motor","6","209","0","1","0","",""
"261","","249421","HierDyfdo116xx","6yb5i1u49f","msl000491","motorRepeat","img/motor_6.png","74","74","motor","6","209","1","0","0","",""
"null","","249532","HierDyfdo116xx","6yb5i1u49f","msl000491","iti","img/motor_blank.png","null","74","motor","","","","","","",""
"718","","250260","HierDyfdo116xx","6yb5i1u49f","msl000491","motor","img/motor_3.png","68","68","motor","3","210","1","0","0","",""
"null","","250370","HierDyfdo116xx","6yb5i1u49f","msl000491","iti","img/motor_blank.png","null","68","motor","","","","","","",""
"889","","251269","HierDyfdo116xx","6yb5i1u49f","msl000491","motor","img/motor_6.png","75","74","motor","6","211","0","1","0","",""
"4","","251280","HierDyfdo116xx","6yb5i1u49f","msl000491","motorRepeat","img/motor_6.png","74","74","motor","6","211","1","0","0","",""
"null","","251389","HierDyfdo116xx","6yb5i1u49f","msl000491","iti","img/motor_blank.png","null","74","motor","","","","","","",""
"502","","251900","HierDyfdo116xx","6yb5i1u49f","msl000491","motor","img/motor_3.png","65","68","motor","3","212","0","1","0","",""
"26","","251933","HierDyfdo116xx","6yb5i1u49f","msl000491","motorRepeat","img/motor_3.png","70","68","motor","3","212","0","1","0","",""
"12","","251953","HierDyfdo116xx","6yb5i1u49f","msl000491","motorRepeat","img/motor_3.png","68","68","motor","3","212","1","0","0","",""
"null","","252064","HierDyfdo116xx","6yb5i1u49f","msl000491","iti","img/motor_blank.png","null","68","motor","","","","","","",""
"395","","252468","HierDyfdo116xx","6yb5i1u49f","msl000491","motor","img/motor_3.png","68","68","motor","3","213","1","0","0","",""
"null","","252578","HierDyfdo116xx","6yb5i1u49f","msl000491","iti","img/motor_blank.png","null","68","motor","","","","","","",""
"418","","253006","HierDyfdo116xx","6yb5i1u49f","msl000491","motor","img/motor_4.png","65","70","motor","4","214","0","1","0","",""
"19","","253033","HierDyfdo116xx","6yb5i1u49f","msl000491","motorRepeat","img/motor_4.png","74","70","motor","4","214","0","1","0","",""
"154","","253196","HierDyfdo116xx","6yb5i1u49f","msl000491","motorRepeat","img/motor_4.png","70","70","motor","4","214","1","0","0","",""
"null","","253307","HierDyfdo116xx","6yb5i1u49f","msl000491","iti","img/motor_blank.png","null","70","motor","","","","","","",""
"387","","253701","HierDyfdo116xx","6yb5i1u49f","msl000491","motor","img/motor_3.png","74","68","motor","3","215","0","1","0","",""
"245","","253952","HierDyfdo116xx","6yb5i1u49f","msl000491","motorRepeat","img/motor_3.png","65","68","motor","3","215","0","1","0","",""
"2","","253962","HierDyfdo116xx","6yb5i1u49f","msl000491","motorRepeat","img/motor_3.png","68","68","motor","3","215","1","0","0","",""
"null","","254073","HierDyfdo116xx","6yb5i1u49f","msl000491","iti","img/motor_blank.png","null","68","motor","","","","","","",""
"328","","254410","HierDyfdo116xx","6yb5i1u49f","msl000491","motor","img/motor_4.png","68","70","motor","4","216","0","1","0","",""
"281","","254701","HierDyfdo116xx","6yb5i1u49f","msl000491","motorRepeat","img/motor_4.png","70","70","motor","4","216","1","0","0","",""
"null","","254812","HierDyfdo116xx","6yb5i1u49f","msl000491","iti","img/motor_blank.png","null","70","motor","","","","","","",""
"578","","255399","HierDyfdo116xx","6yb5i1u49f","msl000491","motor","img/motor_8.png","74","76","motor","8","217","0","1","0","",""
"314","","255722","HierDyfdo116xx","6yb5i1u49f","msl000491","motorRepeat","img/motor_8.png","75","76","motor","8","217","0","1","0","",""
"266","","255998","HierDyfdo116xx","6yb5i1u49f","msl000491","motorRepeat","img/motor_8.png","76","76","motor","8","217","1","0","0","",""
"null","","256108","HierDyfdo116xx","6yb5i1u49f","msl000491","iti","img/motor_blank.png","null","76","motor","","","","","","",""
"592","","256710","HierDyfdo116xx","6yb5i1u49f","msl000491","motor","img/motor_2.png","65","83","motor","2","218","0","1","0","",""
"362","","257082","HierDyfdo116xx","6yb5i1u49f","msl000491","motorRepeat","img/motor_2.png","83","83","motor","2","218","1","0","0","",""
"null","","257193","HierDyfdo116xx","6yb5i1u49f","msl000491","iti","img/motor_blank.png","null","83","motor","","","","","","",""
"636","","257837","HierDyfdo116xx","6yb5i1u49f","msl000491","motor","img/motor_7.png","74","75","motor","7","219","0","1","0","",""
"318","","258164","HierDyfdo116xx","6yb5i1u49f","msl000491","motorRepeat","img/motor_7.png","75","75","motor","7","219","1","0","0","",""
"null","","258275","HierDyfdo116xx","6yb5i1u49f","msl000491","iti","img/motor_blank.png","null","75","motor","","","","","","",""
"1045","","259330","HierDyfdo116xx","6yb5i1u49f","msl000491","motor","img/motor_1.png","65","65","motor","1","220","1","0","0","",""
"null","","259440","HierDyfdo116xx","6yb5i1u49f","msl000491","iti","img/motor_blank.png","null","65","motor","","","","","","",""
"478","","259925","HierDyfdo116xx","6yb5i1u49f","msl000491","motor","img/motor_2.png","83","83","motor","2","221","1","0","0","",""
"null","","260033","HierDyfdo116xx","6yb5i1u49f","msl000491","iti","img/motor_blank.png","null","83","motor","","","","","","",""
"541","","260582","HierDyfdo116xx","6yb5i1u49f","msl000491","motor","img/motor_6.png","75","74","motor","6","222","0","1","0","",""
"222","","260813","HierDyfdo116xx","6yb5i1u49f","msl000491","motorRepeat","img/motor_6.png","74","74","motor","6","222","1","0","0","",""
"null","","260922","HierDyfdo116xx","6yb5i1u49f","msl000491","iti","img/motor_blank.png","null","74","motor","","","","","","",""
"518","","261448","HierDyfdo116xx","6yb5i1u49f","msl000491","motor","img/motor_8.png","76","76","motor","8","223","1","0","0","",""
"null","","261558","HierDyfdo116xx","6yb5i1u49f","msl000491","iti","img/motor_blank.png","null","76","motor","","","","","","",""
"458","","262024","HierDyfdo116xx","6yb5i1u49f","msl000491","motor","img/motor_2.png","83","83","motor","2","224","1","0","0","",""
"null","","262133","HierDyfdo116xx","6yb5i1u49f","msl000491","iti","img/motor_blank.png","null","83","motor","","","","","","",""
"445","","262588","HierDyfdo116xx","6yb5i1u49f","msl000491","motor","img/motor_4.png","70","70","motor","4","225","1","0","0","",""
"null","","262697","HierDyfdo116xx","6yb5i1u49f","msl000491","iti","img/motor_blank.png","null","70","motor","","","","","","",""
"473","","263179","HierDyfdo116xx","6yb5i1u49f","msl000491","motor","img/motor_2.png","83","83","motor","2","226","1","0","0","",""
"null","","263289","HierDyfdo116xx","6yb5i1u49f","msl000491","iti","img/motor_blank.png","null","83","motor","","","","","","",""
"514","","263814","HierDyfdo116xx","6yb5i1u49f","msl000491","motor","img/motor_6.png","74","74","motor","6","227","1","0","0","",""
"null","","263921","HierDyfdo116xx","6yb5i1u49f","msl000491","iti","img/motor_blank.png","null","74","motor","","","","","","",""
"646","","264578","HierDyfdo116xx","6yb5i1u49f","msl000491","motor","img/motor_3.png","68","68","motor","3","228","1","0","0","",""
"null","","264689","HierDyfdo116xx","6yb5i1u49f","msl000491","iti","img/motor_blank.png","null","68","motor","","","","","","",""
"644","","265346","HierDyfdo116xx","6yb5i1u49f","msl000491","motor","img/motor_7.png","75","75","motor","7","229","1","0","0","",""
"null","","265455","HierDyfdo116xx","6yb5i1u49f","msl000491","iti","img/motor_blank.png","null","75","motor","","","","","","",""
"450","","265915","HierDyfdo116xx","6yb5i1u49f","msl000491","motor","img/motor_2.png","83","83","motor","2","230","1","0","0","",""
"null","","266027","HierDyfdo116xx","6yb5i1u49f","msl000491","iti","img/motor_blank.png","null","83","motor","","","","","","",""
"581","","266617","HierDyfdo116xx","6yb5i1u49f","msl000491","motor","img/motor_5.png","72","72","motor","5","231","1","0","0","",""
"null","","266727","HierDyfdo116xx","6yb5i1u49f","msl000491","iti","img/motor_blank.png","null","72","motor","","","","","","",""
"361","","267096","HierDyfdo116xx","6yb5i1u49f","msl000491","motor","img/motor_5.png","72","72","motor","5","232","1","0","0","",""
"null","","267206","HierDyfdo116xx","6yb5i1u49f","msl000491","iti","img/motor_blank.png","null","72","motor","","","","","","",""
"443","","267660","HierDyfdo116xx","6yb5i1u49f","msl000491","motor","img/motor_7.png","75","75","motor","7","233","1","0","0","",""
"null","","267771","HierDyfdo116xx","6yb5i1u49f","msl000491","iti","img/motor_blank.png","null","75","motor","","","","","","",""
"402","","268181","HierDyfdo116xx","6yb5i1u49f","msl000491","motor","img/motor_7.png","75","75","motor","7","234","1","0","0","",""
"null","","268293","HierDyfdo116xx","6yb5i1u49f","msl000491","iti","img/motor_blank.png","null","75","motor","","","","","","",""
"506","","268811","HierDyfdo116xx","6yb5i1u49f","msl000491","motor","img/motor_6.png","74","74","motor","6","235","1","0","0","",""
"null","","268923","HierDyfdo116xx","6yb5i1u49f","msl000491","iti","img/motor_blank.png","null","74","motor","","","","","","",""
"432","","269365","HierDyfdo116xx","6yb5i1u49f","msl000491","motor","img/motor_5.png","74","72","motor","5","236","0","1","0","",""
"105","","269480","HierDyfdo116xx","6yb5i1u49f","msl000491","motorRepeat","img/motor_5.png","72","72","motor","5","236","1","0","0","",""
"null","","269590","HierDyfdo116xx","6yb5i1u49f","msl000491","iti","img/motor_blank.png","null","72","motor","","","","","","",""
"543","","270142","HierDyfdo116xx","6yb5i1u49f","msl000491","motor","img/motor_4.png","68","70","motor","4","237","0","1","0","",""
"189","","270342","HierDyfdo116xx","6yb5i1u49f","msl000491","motorRepeat","img/motor_4.png","70","70","motor","4","237","1","0","0","",""
"null","","270453","HierDyfdo116xx","6yb5i1u49f","msl000491","iti","img/motor_blank.png","null","70","motor","","","","","","",""
"367","","270829","HierDyfdo116xx","6yb5i1u49f","msl000491","motor","img/motor_4.png","70","70","motor","4","238","1","0","0","",""
"null","","270940","HierDyfdo116xx","6yb5i1u49f","msl000491","iti","img/motor_blank.png","null","70","motor","","","","","","",""
"419","","271368","HierDyfdo116xx","6yb5i1u49f","msl000491","motor","img/motor_5.png","74","72","motor","5","239","0","1","0","",""
"208","","271586","HierDyfdo116xx","6yb5i1u49f","msl000491","motorRepeat","img/motor_5.png","72","72","motor","5","239","1","0","0","",""
"null","","271695","HierDyfdo116xx","6yb5i1u49f","msl000491","iti","img/motor_blank.png","null","72","motor","","","","","","",""
"637","","272342","HierDyfdo116xx","6yb5i1u49f","msl000491","motor","img/motor_1.png","65","65","motor","1","240","1","0","0","",""
"null","","272451","HierDyfdo116xx","6yb5i1u49f","msl000491","iti","img/motor_blank.png","null","65","motor","","","","","","",""
"458","","272918","HierDyfdo116xx","6yb5i1u49f","msl000491","motor","img/motor_5.png","72","72","motor","5","241","1","0","0","",""
"null","","273029","HierDyfdo116xx","6yb5i1u49f","msl000491","iti","img/motor_blank.png","null","72","motor","","","","","","",""
"467","","273505","HierDyfdo116xx","6yb5i1u49f","msl000491","motor","img/motor_1.png","65","65","motor","1","242","1","0","0","",""
"null","","273616","HierDyfdo116xx","6yb5i1u49f","msl000491","iti","img/motor_blank.png","null","65","motor","","","","","","",""
"580","","274205","HierDyfdo116xx","6yb5i1u49f","msl000491","motor","img/motor_7.png","75","75","motor","7","243","1","0","0","",""
"null","","274315","HierDyfdo116xx","6yb5i1u49f","msl000491","iti","img/motor_blank.png","null","75","motor","","","","","","",""
"592","","274917","HierDyfdo116xx","6yb5i1u49f","msl000491","motor","img/motor_6.png","74","74","motor","6","244","1","0","0","",""
"null","","275026","HierDyfdo116xx","6yb5i1u49f","msl000491","iti","img/motor_blank.png","null","74","motor","","","","","","",""
"319","","275354","HierDyfdo116xx","6yb5i1u49f","msl000491","motor","img/motor_6.png","74","74","motor","6","245","1","0","0","",""
"null","","275464","HierDyfdo116xx","6yb5i1u49f","msl000491","iti","img/motor_blank.png","null","74","motor","","","","","","",""
"387","","275859","HierDyfdo116xx","6yb5i1u49f","msl000491","motor","img/motor_5.png","72","72","motor","5","246","1","0","0","",""
"null","","275971","HierDyfdo116xx","6yb5i1u49f","msl000491","iti","img/motor_blank.png","null","72","motor","","","","","","",""
"80","","276060","HierDyfdo116xx","6yb5i1u49f","msl000491","motor","img/motor_3.png","74","68","motor","3","247","0","1","0","",""
"383","","276453","HierDyfdo116xx","6yb5i1u49f","msl000491","motorRepeat","img/motor_3.png","68","68","motor","3","247","1","0","0","",""
"null","","276564","HierDyfdo116xx","6yb5i1u49f","msl000491","iti","img/motor_blank.png","null","68","motor","","","","","","",""
"91","","276664","HierDyfdo116xx","6yb5i1u49f","msl000491","motor","img/motor_5.png","70","72","motor","5","248","0","1","0","",""
"449","","277121","HierDyfdo116xx","6yb5i1u49f","msl000491","motorRepeat","img/motor_5.png","74","72","motor","5","248","0","1","0","",""
"50","","277177","HierDyfdo116xx","6yb5i1u49f","msl000491","motorRepeat","img/motor_5.png","72","72","motor","5","248","1","0","0","",""
"null","","277289","HierDyfdo116xx","6yb5i1u49f","msl000491","iti","img/motor_blank.png","null","72","motor","","","","","","",""
"411","","277708","HierDyfdo116xx","6yb5i1u49f","msl000491","motor","img/motor_1.png","65","65","motor","1","249","1","0","0","",""
"null","","277819","HierDyfdo116xx","6yb5i1u49f","msl000491","iti","img/motor_blank.png","null","65","motor","","","","","","",""
"1","","277826","HierDyfdo116xx","6yb5i1u49f","msl000491","motor","img/motor_4.png","70","70","motor","4","250","1","0","0","",""
"null","","277936","HierDyfdo116xx","6yb5i1u49f","msl000491","iti","img/motor_blank.png","null","70","motor","","","","","","",""
"382","","278326","HierDyfdo116xx","6yb5i1u49f","msl000491","motor","img/motor_1.png","65","65","motor","1","251","1","0","0","",""
"null","","278436","HierDyfdo116xx","6yb5i1u49f","msl000491","iti","img/motor_blank.png","null","65","motor","","","","","","",""
"118","","278561","HierDyfdo116xx","6yb5i1u49f","msl000491","motor","img/motor_5.png","70","72","motor","5","252","0","1","0","",""
"334","","278903","HierDyfdo116xx","6yb5i1u49f","msl000491","motorRepeat","img/motor_5.png","74","72","motor","5","252","0","1","0","",""
"58","","278968","HierDyfdo116xx","6yb5i1u49f","msl000491","motorRepeat","img/motor_5.png","72","72","motor","5","252","1","0","0","",""
"null","","279078","HierDyfdo116xx","6yb5i1u49f","msl000491","iti","img/motor_blank.png","null","72","motor","","","","","","",""
"357","","279443","HierDyfdo116xx","6yb5i1u49f","msl000491","motor","img/motor_2.png","68","83","motor","2","253","0","1","0","",""
"112","","279565","HierDyfdo116xx","6yb5i1u49f","msl000491","motorRepeat","img/motor_2.png","70","83","motor","2","253","0","1","0","",""
"198","","279773","HierDyfdo116xx","6yb5i1u49f","msl000491","motorRepeat","img/motor_2.png","65","83","motor","2","253","0","1","0","",""
"75","","279856","HierDyfdo116xx","6yb5i1u49f","msl000491","motorRepeat","img/motor_2.png","68","83","motor","2","253","0","1","0","",""
"342","","280208","HierDyfdo116xx","6yb5i1u49f","msl000491","motorRepeat","img/motor_2.png","83","83","motor","2","253","1","0","0","",""
"null","","280318","HierDyfdo116xx","6yb5i1u49f","msl000491","iti","img/motor_blank.png","null","83","motor","","","","","","",""
"392","","280718","HierDyfdo116xx","6yb5i1u49f","msl000491","motor","img/motor_3.png","68","68","motor","3","254","1","0","0","",""
"null","","280830","HierDyfdo116xx","6yb5i1u49f","msl000491","iti","img/motor_blank.png","null","68","motor","","","","","","",""
"61","","280899","HierDyfdo116xx","6yb5i1u49f","msl000491","motor","img/motor_7.png","70","75","motor","7","255","0","1","0","",""
"429","","281339","HierDyfdo116xx","6yb5i1u49f","msl000491","motorRepeat","img/motor_7.png","75","75","motor","7","255","1","0","0","",""
"0","","281450","HierDyfdo116xx","6yb5i1u49f","msl000491","iti","img/motor_blank.png","76","75","motor","","","","","","",""
"410","","281869","HierDyfdo116xx","6yb5i1u49f","msl000491","motor","img/motor_8.png","76","76","motor","8","256","1","0","0","",""
"null","","281980","HierDyfdo116xx","6yb5i1u49f","msl000491","iti","img/motor_blank.png","null","76","motor","","","","","","",""
"327","","282316","HierDyfdo116xx","6yb5i1u49f","msl000491","motor","img/motor_6.png","76","74","motor","6","257","0","1","0","",""
"82","","282406","HierDyfdo116xx","6yb5i1u49f","msl000491","motorRepeat","img/motor_6.png","74","74","motor","6","257","1","0","0","",""
"null","","282518","HierDyfdo116xx","6yb5i1u49f","msl000491","iti","img/motor_blank.png","null","74","motor","","","","","","",""
"14","","282539","HierDyfdo116xx","6yb5i1u49f","msl000491","motor","img/motor_4.png","72","70","motor","4","258","0","1","0","",""
"49","","282596","HierDyfdo116xx","6yb5i1u49f","msl000491","motorRepeat","img/motor_4.png","76","70","motor","4","258","0","1","0","",""
"218","","282826","HierDyfdo116xx","6yb5i1u49f","msl000491","motorRepeat","img/motor_4.png","65","70","motor","4","258","0","1","0","",""
"54","","282887","HierDyfdo116xx","6yb5i1u49f","msl000491","motorRepeat","img/motor_4.png","70","70","motor","4","258","1","0","0","",""
"94","","282995","HierDyfdo116xx","6yb5i1u49f","msl000491","iti","img/motor_blank.png","68","70","motor","","","","","","",""
"411","","283416","HierDyfdo116xx","6yb5i1u49f","msl000491","motor","img/motor_1.png","65","65","motor","1","259","1","0","0","",""
"78","","283525","HierDyfdo116xx","6yb5i1u49f","msl000491","iti","img/motor_blank.png","68","65","motor","","","","","","",""
"471","","284004","HierDyfdo116xx","6yb5i1u49f","msl000491","motor","img/motor_8.png","75","76","motor","8","260","0","1","0","",""
"317","","284329","HierDyfdo116xx","6yb5i1u49f","msl000491","motorRepeat","img/motor_8.png","75","76","motor","8","260","0","1","0","",""
"315","","284652","HierDyfdo116xx","6yb5i1u49f","msl000491","motorRepeat","img/motor_8.png","76","76","motor","8","260","1","0","0","",""
"null","","284763","HierDyfdo116xx","6yb5i1u49f","msl000491","iti","img/motor_blank.png","null","76","motor","","","","","","",""
"325","","285098","HierDyfdo116xx","6yb5i1u49f","msl000491","motor","img/motor_7.png","74","75","motor","7","261","0","1","0","",""
"258","","285365","HierDyfdo116xx","6yb5i1u49f","msl000491","motorRepeat","img/motor_7.png","72","75","motor","7","261","0","1","0","",""
"532","","285906","HierDyfdo116xx","6yb5i1u49f","msl000491","motorRepeat","img/motor_7.png","74","75","motor","7","261","0","1","0","",""
"400","","286313","HierDyfdo116xx","6yb5i1u49f","msl000491","motorRepeat","img/motor_7.png","74","75","motor","7","261","0","1","0","",""
"295","","286619","HierDyfdo116xx","6yb5i1u49f","msl000491","motorRepeat","img/motor_7.png","72","75","motor","7","261","0","1","0","",""
"332","","286959","HierDyfdo116xx","6yb5i1u49f","msl000491","motorRepeat","img/motor_7.png","75","75","motor","7","261","1","0","0","",""
"null","","287070","HierDyfdo116xx","6yb5i1u49f","msl000491","iti","img/motor_blank.png","null","75","motor","","","","","","",""
"518","","287599","HierDyfdo116xx","6yb5i1u49f","msl000491","motor","img/motor_6.png","74","74","motor","6","262","1","0","0","",""
"null","","287710","HierDyfdo116xx","6yb5i1u49f","msl000491","iti","img/motor_blank.png","null","74","motor","","","","","","",""
"283","","288003","HierDyfdo116xx","6yb5i1u49f","msl000491","motor","img/motor_8.png","72","76","motor","8","263","0","1","0","",""
"383","","288395","HierDyfdo116xx","6yb5i1u49f","msl000491","motorRepeat","img/motor_8.png","76","76","motor","8","263","1","0","0","",""
"9","","288506","HierDyfdo116xx","6yb5i1u49f","msl000491","iti","img/motor_blank.png","75","76","motor","","","","","","",""
"458","","288972","HierDyfdo116xx","6yb5i1u49f","msl000491","motor","img/motor_6.png","74","74","motor","6","264","1","0","0","",""
"null","","289084","HierDyfdo116xx","6yb5i1u49f","msl000491","iti","img/motor_blank.png","null","74","motor","","","","","","",""
"449","","289540","HierDyfdo116xx","6yb5i1u49f","msl000491","motor","img/motor_5.png","74","72","motor","5","265","0","1","0","",""
"97","","289646","HierDyfdo116xx","6yb5i1u49f","msl000491","motorRepeat","img/motor_5.png","72","72","motor","5","265","1","0","0","",""
"null","","289756","HierDyfdo116xx","6yb5i1u49f","msl000491","iti","img/motor_blank.png","null","72","motor","","","","","","",""
"352","","290118","HierDyfdo116xx","6yb5i1u49f","msl000491","motor","img/motor_5.png","72","72","motor","5","266","1","0","0","",""
"null","","290229","HierDyfdo116xx","6yb5i1u49f","msl000491","iti","img/motor_blank.png","null","72","motor","","","","","","",""
"465","","290702","HierDyfdo116xx","6yb5i1u49f","msl000491","motor","img/motor_3.png","68","68","motor","3","267","1","0","0","",""
"null","","290812","HierDyfdo116xx","6yb5i1u49f","msl000491","iti","img/motor_blank.png","null","68","motor","","","","","","",""
"5","","290826","HierDyfdo116xx","6yb5i1u49f","msl000491","motor","img/motor_5.png","83","72","motor","5","268","0","1","0","",""
"414","","291250","HierDyfdo116xx","6yb5i1u49f","msl000491","motorRepeat","img/motor_5.png","72","72","motor","5","268","1","0","0","",""
"99","","291358","HierDyfdo116xx","6yb5i1u49f","msl000491","iti","img/motor_blank.png","68","72","motor","","","","","","",""
"463","","291831","HierDyfdo116xx","6yb5i1u49f","msl000491","motor","img/motor_4.png","68","70","motor","4","269","0","1","0","",""
"261","","292100","HierDyfdo116xx","6yb5i1u49f","msl000491","motorRepeat","img/motor_4.png","70","70","motor","4","269","1","0","0","",""
"null","","292211","HierDyfdo116xx","6yb5i1u49f","msl000491","iti","img/motor_blank.png","null","70","motor","","","","","","",""
"429","","292649","HierDyfdo116xx","6yb5i1u49f","msl000491","motor","img/motor_6.png","76","74","motor","6","270","0","1","0","",""
"49","","292706","HierDyfdo116xx","6yb5i1u49f","msl000491","motorRepeat","img/motor_6.png","75","74","motor","6","270","0","1","0","",""
"212","","292925","HierDyfdo116xx","6yb5i1u49f","msl000491","motorRepeat","img/motor_6.png","74","74","motor","6","270","1","0","0","",""
"null","","293034","HierDyfdo116xx","6yb5i1u49f","msl000491","iti","img/motor_blank.png","null","74","motor","","","","","","",""
"339","","293382","HierDyfdo116xx","6yb5i1u49f","msl000491","motor","img/motor_2.png","68","83","motor","2","271","0","1","0","",""
"209","","293602","HierDyfdo116xx","6yb5i1u49f","msl000491","motorRepeat","img/motor_2.png","65","83","motor","2","271","0","1","0","",""
"37","","293645","HierDyfdo116xx","6yb5i1u49f","msl000491","motorRepeat","img/motor_2.png","83","83","motor","2","271","1","0","0","",""
"null","","293755","HierDyfdo116xx","6yb5i1u49f","msl000491","iti","img/motor_blank.png","null","83","motor","","","","","","",""
"8","","293771","HierDyfdo116xx","6yb5i1u49f","msl000491","motor","img/motor_7.png","68","75","motor","7","272","0","1","0","",""
"444","","294226","HierDyfdo116xx","6yb5i1u49f","msl000491","motorRepeat","img/motor_7.png","75","75","motor","7","272","1","0","0","",""
"97","","294333","HierDyfdo116xx","6yb5i1u49f","msl000491","iti","img/motor_blank.png","76","75","motor","","","","","","",""
"343","","294685","HierDyfdo116xx","6yb5i1u49f","msl000491","motor","img/motor_7.png","76","75","motor","7","273","0","1","0","",""
"334","","295029","HierDyfdo116xx","6yb5i1u49f","msl000491","motorRepeat","img/motor_7.png","74","75","motor","7","273","0","1","0","",""
"319","","295357","HierDyfdo116xx","6yb5i1u49f","msl000491","motorRepeat","img/motor_7.png","75","75","motor","7","273","1","0","0","",""
"null","","295466","HierDyfdo116xx","6yb5i1u49f","msl000491","iti","img/motor_blank.png","null","75","motor","","","","","","",""
"300","","295777","HierDyfdo116xx","6yb5i1u49f","msl000491","motor","img/motor_5.png","74","72","motor","5","274","0","1","0","",""
"173","","295958","HierDyfdo116xx","6yb5i1u49f","msl000491","motorRepeat","img/motor_5.png","72","72","motor","5","274","1","0","0","",""
"null","","296068","HierDyfdo116xx","6yb5i1u49f","msl000491","iti","img/motor_blank.png","null","72","motor","","","","","","",""
"126","","296203","HierDyfdo116xx","6yb5i1u49f","msl000491","motor","img/motor_2.png","74","83","motor","2","275","0","1","0","",""
"151","","296365","HierDyfdo116xx","6yb5i1u49f","msl000491","motorRepeat","img/motor_2.png","72","83","motor","2","275","0","1","0","",""
"187","","296561","HierDyfdo116xx","6yb5i1u49f","msl000491","motorRepeat","img/motor_2.png","65","83","motor","2","275","0","1","0","",""
"174","","296742","HierDyfdo116xx","6yb5i1u49f","msl000491","motorRepeat","img/motor_2.png","68","83","motor","2","275","0","1","0","",""
"198","","296951","HierDyfdo116xx","6yb5i1u49f","msl000491","motorRepeat","img/motor_2.png","83","83","motor","2","275","1","0","0","",""
"null","","297062","HierDyfdo116xx","6yb5i1u49f","msl000491","iti","img/motor_blank.png","null","83","motor","","","","","","",""
"346","","297418","HierDyfdo116xx","6yb5i1u49f","msl000491","motor","img/motor_1.png","83","65","motor","1","276","0","1","0","",""
"91","","297517","HierDyfdo116xx","6yb5i1u49f","msl000491","motorRepeat","img/motor_1.png","65","65","motor","1","276","1","0","0","",""
"null","","297628","HierDyfdo116xx","6yb5i1u49f","msl000491","iti","img/motor_blank.png","null","65","motor","","","","","","",""
"374","","298011","HierDyfdo116xx","6yb5i1u49f","msl000491","motor","img/motor_4.png","65","70","motor","4","277","0","1","0","",""
"70","","298090","HierDyfdo116xx","6yb5i1u49f","msl000491","motorRepeat","img/motor_4.png","70","70","motor","4","277","1","0","0","",""
"null","","298200","HierDyfdo116xx","6yb5i1u49f","msl000491","iti","img/motor_blank.png","null","70","motor","","","","","","",""
"262","","298472","HierDyfdo116xx","6yb5i1u49f","msl000491","motor","img/motor_1.png","68","65","motor","1","278","0","1","0","",""
"233","","298714","HierDyfdo116xx","6yb5i1u49f","msl000491","motorRepeat","img/motor_1.png","65","65","motor","1","278","1","0","0","",""
"null","","298824","HierDyfdo116xx","6yb5i1u49f","msl000491","iti","img/motor_blank.png","null","65","motor","","","","","","",""
"357","","299187","HierDyfdo116xx","6yb5i1u49f","msl000491","motor","img/motor_4.png","83","70","motor","4","279","0","1","0","",""
"47","","299243","HierDyfdo116xx","6yb5i1u49f","msl000491","motorRepeat","img/motor_4.png","70","70","motor","4","279","1","0","0","",""
"null","","299355","HierDyfdo116xx","6yb5i1u49f","msl000491","iti","img/motor_blank.png","null","70","motor","","","","","","",""
"55","","299419","HierDyfdo116xx","6yb5i1u49f","msl000491","motor","img/motor_4.png","68","70","motor","4","280","0","1","0","",""
"417","","299844","HierDyfdo116xx","6yb5i1u49f","msl000491","motorRepeat","img/motor_4.png","70","70","motor","4","280","1","0","0","",""
"null","","299954","HierDyfdo116xx","6yb5i1u49f","msl000491","iti","img/motor_blank.png","null","70","motor","","","","","","",""
"30","","299992","HierDyfdo116xx","6yb5i1u49f","msl000491","motor","img/motor_3.png","68","68","motor","3","281","1","0","0","",""
"null","","300100","HierDyfdo116xx","6yb5i1u49f","msl000491","iti","img/motor_blank.png","null","68","motor","","","","","","",""
"175","","300284","HierDyfdo116xx","6yb5i1u49f","msl000491","motor","img/motor_7.png","83","75","motor","7","282","0","1","0","",""
"284","","300579","HierDyfdo116xx","6yb5i1u49f","msl000491","motorRepeat","img/motor_7.png","68","75","motor","7","282","0","1","0","",""
"155","","300741","HierDyfdo116xx","6yb5i1u49f","msl000491","motorRepeat","img/motor_7.png","70","75","motor","7","282","0","1","0","",""
"36","","300784","HierDyfdo116xx","6yb5i1u49f","msl000491","motorRepeat","img/motor_7.png","76","75","motor","7","282","0","1","0","",""
"315","","301109","HierDyfdo116xx","6yb5i1u49f","msl000491","motorRepeat","img/motor_7.png","74","75","motor","7","282","0","1","0","",""
"410","","301530","HierDyfdo116xx","6yb5i1u49f","msl000491","motorRepeat","img/motor_7.png","74","75","motor","7","282","0","1","0","",""
"151","","301691","HierDyfdo116xx","6yb5i1u49f","msl000491","motorRepeat","img/motor_7.png","76","75","motor","7","282","0","1","0","",""
"542","","302242","HierDyfdo116xx","6yb5i1u49f","msl000491","motorRepeat","img/motor_7.png","72","75","motor","7","282","0","1","0","",""
"236","","302489","HierDyfdo116xx","6yb5i1u49f","msl000491","motorRepeat","img/motor_7.png","76","75","motor","7","282","0","1","0","",""
"166","","302666","HierDyfdo116xx","6yb5i1u49f","msl000491","motorRepeat","img/motor_7.png","74","75","motor","7","282","0","1","0","",""
"74","","302748","HierDyfdo116xx","6yb5i1u49f","msl000491","motorRepeat","img/motor_7.png","75","75","motor","7","282","1","0","0","",""
"11","","302859","HierDyfdo116xx","6yb5i1u49f","msl000491","iti","img/motor_blank.png","74","75","motor","","","","","","",""
"209","","303078","HierDyfdo116xx","6yb5i1u49f","msl000491","motor","img/motor_7.png","76","75","motor","7","283","0","1","0","",""
"320","","303409","HierDyfdo116xx","6yb5i1u49f","msl000491","motorRepeat","img/motor_7.png","75","75","motor","7","283","1","0","0","",""
"null","","303519","HierDyfdo116xx","6yb5i1u49f","msl000491","iti","img/motor_blank.png","null","75","motor","","","","","","",""
"362","","303891","HierDyfdo116xx","6yb5i1u49f","msl000491","motor","img/motor_6.png","75","74","motor","6","284","0","1","0","",""
"59","","303956","HierDyfdo116xx","6yb5i1u49f","msl000491","motorRepeat","img/motor_6.png","74","74","motor","6","284","1","0","0","",""
"null","","304067","HierDyfdo116xx","6yb5i1u49f","msl000491","iti","img/motor_blank.png","null","74","motor","","","","","","",""
"520","","304598","HierDyfdo116xx","6yb5i1u49f","msl000491","motor","img/motor_2.png","68","83","motor","2","285","0","1","0","",""
"130","","304737","HierDyfdo116xx","6yb5i1u49f","msl000491","motorRepeat","img/motor_2.png","83","83","motor","2","285","1","0","0","",""
"null","","304848","HierDyfdo116xx","6yb5i1u49f","msl000491","iti","img/motor_blank.png","null","83","motor","","","","","","",""
"520","","305377","HierDyfdo116xx","6yb5i1u49f","msl000491","motor","img/motor_8.png","74","76","motor","8","286","0","1","0","",""
"73","","305458","HierDyfdo116xx","6yb5i1u49f","msl000491","motorRepeat","img/motor_8.png","76","76","motor","8","286","1","0","0","",""
"null","","305568","HierDyfdo116xx","6yb5i1u49f","msl000491","iti","img/motor_blank.png","null","76","motor","","","","","","",""
"419","","305997","HierDyfdo116xx","6yb5i1u49f","msl000491","motor","img/motor_6.png","68","74","motor","6","287","0","1","0","",""
"317","","306324","HierDyfdo116xx","6yb5i1u49f","msl000491","motorRepeat","img/motor_6.png","83","74","motor","6","287","0","1","0","",""
"393","","306727","HierDyfdo116xx","6yb5i1u49f","msl000491","motorRepeat","img/motor_6.png","68","74","motor","6","287","0","1","0","",""
"207","","306943","HierDyfdo116xx","6yb5i1u49f","msl000491","motorRepeat","img/motor_6.png","70","74","motor","6","287","0","1","0","",""
"347","","307299","HierDyfdo116xx","6yb5i1u49f","msl000491","motorRepeat","img/motor_6.png","83","74","motor","6","287","0","1","0","",""
"10","","307315","HierDyfdo116xx","6yb5i1u49f","msl000491","motorRepeat","img/motor_6.png","65","74","motor","6","287","0","1","0","",""
"121","","307444","HierDyfdo116xx","6yb5i1u49f","msl000491","motorRepeat","img/motor_6.png","72","74","motor","6","287","0","1","0","",""
"171","","307624","HierDyfdo116xx","6yb5i1u49f","msl000491","motorRepeat","img/motor_6.png","76","74","motor","6","287","0","1","0","",""
"188","","307819","HierDyfdo116xx","6yb5i1u49f","msl000491","motorRepeat","img/motor_6.png","76","74","motor","6","287","0","1","0","",""
"51","","307878","HierDyfdo116xx","6yb5i1u49f","msl000491","motorRepeat","img/motor_6.png","74","74","motor","6","287","1","0","0","",""
"68","","307986","HierDyfdo116xx","6yb5i1u49f","msl000491","iti","img/motor_blank.png","72","74","motor","","","","","","",""
"131","","308127","HierDyfdo116xx","6yb5i1u49f","msl000491","motor","img/motor_1.png","74","65","motor","1","288","0","1","0","",""
"282","","308418","HierDyfdo116xx","6yb5i1u49f","msl000491","motorRepeat","img/motor_1.png","83","65","motor","1","288","0","1","0","",""
"187","","308613","HierDyfdo116xx","6yb5i1u49f","msl000491","motorRepeat","img/motor_1.png","65","65","motor","1","288","1","0","0","",""
"null","","308722","HierDyfdo116xx","6yb5i1u49f","msl000491","iti","img/motor_blank.png","null","65","motor","","","","","","",""
"44","","308773","HierDyfdo116xx","6yb5i1u49f","msl000491","motor","img/motor_4.png","70","70","motor","4","289","1","0","0","",""
"77","","308881","HierDyfdo116xx","6yb5i1u49f","msl000491","iti","img/motor_blank.png","68","70","motor","","","","","","",""
"561","","309452","HierDyfdo116xx","6yb5i1u49f","msl000491","motor","img/motor_6.png","76","74","motor","6","290","0","1","0","",""
"220","","309680","HierDyfdo116xx","6yb5i1u49f","msl000491","motorRepeat","img/motor_6.png","72","74","motor","6","290","0","1","0","",""
"122","","309811","HierDyfdo116xx","6yb5i1u49f","msl000491","motorRepeat","img/motor_6.png","74","74","motor","6","290","1","0","0","",""
"38","","309920","HierDyfdo116xx","6yb5i1u49f","msl000491","iti","img/motor_blank.png","76","74","motor","","","","","","",""
"152","","310079","HierDyfdo116xx","6yb5i1u49f","msl000491","motor","img/motor_3.png","72","68","motor","3","291","0","1","0","",""
"172","","310261","HierDyfdo116xx","6yb5i1u49f","msl000491","motorRepeat","img/motor_3.png","74","68","motor","3","291","0","1","0","",""
"96","","310364","HierDyfdo116xx","6yb5i1u49f","msl000491","motorRepeat","img/motor_3.png","72","68","motor","3","291","0","1","0","",""
"92","","310465","HierDyfdo116xx","6yb5i1u49f","msl000491","motorRepeat","img/motor_3.png","68","68","motor","3","291","1","0","0","",""
"10","","310576","HierDyfdo116xx","6yb5i1u49f","msl000491","iti","img/motor_blank.png","70","68","motor","","","","","","",""
"383","","310968","HierDyfdo116xx","6yb5i1u49f","msl000491","motor","img/motor_6.png","76","74","motor","6","292","0","1","0","",""
"232","","311209","HierDyfdo116xx","6yb5i1u49f","msl000491","motorRepeat","img/motor_6.png","74","74","motor","6","292","1","0","0","",""
"null","","311320","HierDyfdo116xx","6yb5i1u49f","msl000491","iti","img/motor_blank.png","null","74","motor","","","","","","",""
"25","","311352","HierDyfdo116xx","6yb5i1u49f","msl000491","motor","img/motor_5.png","72","72","motor","5","293","1","0","0","",""
"null","","311463","HierDyfdo116xx","6yb5i1u49f","msl000491","iti","img/motor_blank.png","null","72","motor","","","","","","",""
"360","","311831","HierDyfdo116xx","6yb5i1u49f","msl000491","motor","img/motor_1.png","65","65","motor","1","294","1","0","0","",""
"0","","311941","HierDyfdo116xx","6yb5i1u49f","msl000491","iti","img/motor_blank.png","83","65","motor","","","","","","",""
"5","","311955","HierDyfdo116xx","6yb5i1u49f","msl000491","motor","img/motor_3.png","70","68","motor","3","295","0","1","0","",""
"62","","312024","HierDyfdo116xx","6yb5i1u49f","msl000491","motorRepeat","img/motor_3.png","68","68","motor","3","295","1","0","0","",""
"null","","312134","HierDyfdo116xx","6yb5i1u49f","msl000491","iti","img/motor_blank.png","null","68","motor","","","","","","",""
"40","","312181","HierDyfdo116xx","6yb5i1u49f","msl000491","motor","img/motor_5.png","68","72","motor","5","296","0","1","0","",""
"382","","312572","HierDyfdo116xx","6yb5i1u49f","msl000491","motorRepeat","img/motor_5.png","76","72","motor","5","296","0","1","0","",""
"211","","312791","HierDyfdo116xx","6yb5i1u49f","msl000491","motorRepeat","img/motor_5.png","74","72","motor","5","296","0","1","0","",""
"54","","312853","HierDyfdo116xx","6yb5i1u49f","msl000491","motorRepeat","img/motor_5.png","72","72","motor","5","296","1","0","0","",""
"null","","312962","HierDyfdo116xx","6yb5i1u49f","msl000491","iti","img/motor_blank.png","null","72","motor","","","","","","",""
"64","","313035","HierDyfdo116xx","6yb5i1u49f","msl000491","motor","img/motor_3.png","76","68","motor","3","297","0","1","0","",""
"77","","313121","HierDyfdo116xx","6yb5i1u49f","msl000491","motorRepeat","img/motor_3.png","74","68","motor","3","297","0","1","0","",""
"277","","313408","HierDyfdo116xx","6yb5i1u49f","msl000491","motorRepeat","img/motor_3.png","74","68","motor","3","297","0","1","0","",""
"46","","313461","HierDyfdo116xx","6yb5i1u49f","msl000491","motorRepeat","img/motor_3.png","68","68","motor","3","297","1","0","0","",""
"2","","313572","HierDyfdo116xx","6yb5i1u49f","msl000491","iti","img/motor_blank.png","65","68","motor","","","","","","",""
"13","","313593","HierDyfdo116xx","6yb5i1u49f","msl000491","motor","img/motor_2.png","70","83","motor","2","298","0","1","0","",""
"324","","313925","HierDyfdo116xx","6yb5i1u49f","msl000491","motorRepeat","img/motor_2.png","65","83","motor","2","298","0","1","0","",""
"11","","313945","HierDyfdo116xx","6yb5i1u49f","msl000491","motorRepeat","img/motor_2.png","83","83","motor","2","298","1","0","0","",""
"45","","314056","HierDyfdo116xx","6yb5i1u49f","msl000491","iti","img/motor_blank.png","68","83","motor","","","","","","",""
"295","","314357","HierDyfdo116xx","6yb5i1u49f","msl000491","motor","img/motor_8.png","83","76","motor","8","299","0","1","0","",""
"163","","314529","HierDyfdo116xx","6yb5i1u49f","msl000491","motorRepeat","img/motor_8.png","75","76","motor","8","299","0","1","0","",""
"0","","314538","HierDyfdo116xx","6yb5i1u49f","msl000491","motorRepeat","img/motor_8.png","76","76","motor","8","299","1","0","0","",""
"null","","314648","HierDyfdo116xx","6yb5i1u49f","msl000491","iti","img/motor_blank.png","null","76","motor","","","","","","",""
"85","","314742","HierDyfdo116xx","6yb5i1u49f","msl000491","motor","img/motor_4.png","72","70","motor","4","300","0","1","0","",""
"364","","315115","HierDyfdo116xx","6yb5i1u49f","msl000491","motorRepeat","img/motor_4.png","74","70","motor","4","300","0","1","0","",""
"118","","315243","HierDyfdo116xx","6yb5i1u49f","msl000491","motorRepeat","img/motor_4.png","68","70","motor","4","300","0","1","0","",""
"30","","315280","HierDyfdo116xx","6yb5i1u49f","msl000491","motorRepeat","img/motor_4.png","83","70","motor","4","300","0","1","0","",""
"532","","315820","HierDyfdo116xx","6yb5i1u49f","msl000491","motorRepeat","img/motor_4.png","68","70","motor","4","300","0","1","0","",""
"23","","315852","HierDyfdo116xx","6yb5i1u49f","msl000491","motorRepeat","img/motor_4.png","70","70","motor","4","300","1","0","0","",""
"null","","315962","HierDyfdo116xx","6yb5i1u49f","msl000491","iti","img/motor_blank.png","null","70","motor","","","","","","",""
"344","","316315","HierDyfdo116xx","6yb5i1u49f","msl000491","motor","img/motor_3.png","68","68","motor","3","301","1","0","0","",""
"85","","316423","HierDyfdo116xx","6yb5i1u49f","msl000491","iti","img/motor_blank.png","83","68","motor","","","","","","",""
"416","","316848","HierDyfdo116xx","6yb5i1u49f","msl000491","motor","img/motor_6.png","76","74","motor","6","302","0","1","0","",""
"181","","317038","HierDyfdo116xx","6yb5i1u49f","msl000491","motorRepeat","img/motor_6.png","74","74","motor","6","302","1","0","0","",""
"null","","317149","HierDyfdo116xx","6yb5i1u49f","msl000491","iti","img/motor_blank.png","null","74","motor","","","","","","",""
"331","","317491","HierDyfdo116xx","6yb5i1u49f","msl000491","motor","img/motor_6.png","72","74","motor","6","303","0","1","0","",""
"182","","317679","HierDyfdo116xx","6yb5i1u49f","msl000491","motorRepeat","img/motor_6.png","74","74","motor","6","303","1","0","0","",""
"null","","317791","HierDyfdo116xx","6yb5i1u49f","msl000491","iti","img/motor_blank.png","null","74","motor","","","","","","",""
"378","","318176","HierDyfdo116xx","6yb5i1u49f","msl000491","motor","img/motor_2.png","68","83","motor","2","304","0","1","0","",""
"226","","318413","HierDyfdo116xx","6yb5i1u49f","msl000491","motorRepeat","img/motor_2.png","65","83","motor","2","304","0","1","0","",""
"855","","319277","HierDyfdo116xx","6yb5i1u49f","msl000491","motorRepeat","img/motor_2.png","68","83","motor","2","304","0","1","0","",""
"281","","319568","HierDyfdo116xx","6yb5i1u49f","msl000491","motorRepeat","img/motor_2.png","70","83","motor","2","304","0","1","0","",""
"521","","320096","HierDyfdo116xx","6yb5i1u49f","msl000491","motorRepeat","img/motor_2.png","65","83","motor","2","304","0","1","0","",""
"100","","320205","HierDyfdo116xx","6yb5i1u49f","msl000491","motorRepeat","img/motor_2.png","70","83","motor","2","304","0","1","0","",""
"51","","320263","HierDyfdo116xx","6yb5i1u49f","msl000491","motorRepeat","img/motor_2.png","68","83","motor","2","304","0","1","0","",""
"283","","320555","HierDyfdo116xx","6yb5i1u49f","msl000491","motorRepeat","img/motor_2.png","83","83","motor","2","304","1","0","0","",""
"null","","320667","HierDyfdo116xx","6yb5i1u49f","msl000491","iti","img/motor_blank.png","null","83","motor","","","","","","",""
"220","","320895","HierDyfdo116xx","6yb5i1u49f","msl000491","motor","img/motor_3.png","68","68","motor","3","305","1","0","0","",""
"11","","321006","HierDyfdo116xx","6yb5i1u49f","msl000491","iti","img/motor_blank.png","70","68","motor","","","","","","",""
