"rt","responses","time_elapsed","subject","prolificID","demoID","trialType","stimulus","key_press","corrresp","phase","stimNum","trialNum","corr","repeatTrial","motorSwitch","pracCounter","hierarchy"
"15355","{""Q0"":""msl000861""}","15384","HierDyhhbr7swu","fvd6wp0vg7","msl000861","","","","","","","","","","","",""
"2685","","18075","HierDyhhbr7swu","fvd6wp0vg7","msl000861","","","","","","","","","","","",""
"","","19878","HierDyhhbr7swu","fvd6wp0vg7","msl000861","fullscreen","","","","","","","","","","",""
"46912","","66796","HierDyhhbr7swu","fvd6wp0vg7","msl000861","","","","","","","","","","","",""
"627","","67433","HierDyhhbr7swu","fvd6wp0vg7","msl000861","motor","img/motor_5.png","72","72","motor","5","1","1","0","0","",""
"null","","67543","HierDyhhbr7swu","fvd6wp0vg7","msl000861","iti","img/motor_blank.png","null","72","motor","","","","","","",""
"485","","68035","HierDyhhbr7swu","fvd6wp0vg7","msl000861","motor","img/motor_6.png","74","74","motor","6","2","1","0","0","",""
"null","","68146","HierDyhhbr7swu","fvd6wp0vg7","msl000861","iti","img/motor_blank.png","null","74","motor","","","","","","",""
"479","","68634","HierDyhhbr7swu","fvd6wp0vg7","msl000861","motor","img/motor_4.png","70","70","motor","4","3","1","0","0","",""
"null","","68745","HierDyhhbr7swu","fvd6wp0vg7","msl000861","iti","img/motor_blank.png","null","70","motor","","","","","","",""
"434","","69188","HierDyhhbr7swu","fvd6wp0vg7","msl000861","motor","img/motor_3.png","68","68","motor","3","4","1","0","0","",""
"null","","69298","HierDyhhbr7swu","fvd6wp0vg7","msl000861","iti","img/motor_blank.png","null","68","motor","","","","","","",""
"483","","69787","HierDyhhbr7swu","fvd6wp0vg7","msl000861","motor","img/motor_6.png","74","74","motor","6","5","1","0","0","",""
"null","","69898","HierDyhhbr7swu","fvd6wp0vg7","msl000861","iti","img/motor_blank.png","null","74","motor","","","","","","",""
"443","","70350","HierDyhhbr7swu","fvd6wp0vg7","msl000861","motor","img/motor_4.png","72","70","motor","4","6","0","1","0","",""
"204","","70561","HierDyhhbr7swu","fvd6wp0vg7","msl000861","motorRepeat","img/motor_4.png","70","70","motor","4","6","1","0","0","",""
"null","","70670","HierDyhhbr7swu","fvd6wp0vg7","msl000861","iti","img/motor_blank.png","null","70","motor","","","","","","",""
"774","","71454","HierDyhhbr7swu","fvd6wp0vg7","msl000861","motor","img/motor_4.png","70","70","motor","4","7","1","0","0","",""
"null","","71563","HierDyhhbr7swu","fvd6wp0vg7","msl000861","iti","img/motor_blank.png","null","70","motor","","","","","","",""
"398","","71970","HierDyhhbr7swu","fvd6wp0vg7","msl000861","motor","img/motor_1.png","83","65","motor","1","8","0","1","0","",""
"388","","72366","HierDyhhbr7swu","fvd6wp0vg7","msl000861","motorRepeat","img/motor_1.png","65","65","motor","1","8","1","0","0","",""
"null","","72477","HierDyhhbr7swu","fvd6wp0vg7","msl000861","iti","img/motor_blank.png","null","65","motor","","","","","","",""
"387","","72874","HierDyhhbr7swu","fvd6wp0vg7","msl000861","motor","img/motor_4.png","65","70","motor","4","9","0","1","0","",""
"267","","73148","HierDyhhbr7swu","fvd6wp0vg7","msl000861","motorRepeat","img/motor_4.png","70","70","motor","4","9","1","0","0","",""
"null","","73259","HierDyhhbr7swu","fvd6wp0vg7","msl000861","iti","img/motor_blank.png","null","70","motor","","","","","","",""
"754","","74022","HierDyhhbr7swu","fvd6wp0vg7","msl000861","motor","img/motor_2.png","83","83","motor","2","10","1","0","0","",""
"null","","74132","HierDyhhbr7swu","fvd6wp0vg7","msl000861","iti","img/motor_blank.png","null","83","motor","","","","","","",""
"538","","74680","HierDyhhbr7swu","fvd6wp0vg7","msl000861","motor","img/motor_1.png","65","65","motor","1","11","1","0","0","",""
"null","","74790","HierDyhhbr7swu","fvd6wp0vg7","msl000861","iti","img/motor_blank.png","null","65","motor","","","","","","",""
"595","","75396","HierDyhhbr7swu","fvd6wp0vg7","msl000861","motor","img/motor_8.png","75","76","motor","8","12","0","1","0","",""
"449","","75855","HierDyhhbr7swu","fvd6wp0vg7","msl000861","motorRepeat","img/motor_8.png","76","76","motor","8","12","1","0","0","",""
"null","","75965","HierDyhhbr7swu","fvd6wp0vg7","msl000861","iti","img/motor_blank.png","null","76","motor","","","","","","",""
"571","","76546","HierDyhhbr7swu","fvd6wp0vg7","msl000861","motor","img/motor_2.png","65","83","motor","2","13","0","1","0","",""
"687","","77243","HierDyhhbr7swu","fvd6wp0vg7","msl000861","motorRepeat","img/motor_2.png","65","83","motor","2","13","0","1","0","",""
"676","","77929","HierDyhhbr7swu","fvd6wp0vg7","msl000861","motorRepeat","img/motor_2.png","83","83","motor","2","13","1","0","0","",""
"null","","78040","HierDyhhbr7swu","fvd6wp0vg7","msl000861","iti","img/motor_blank.png","null","83","motor","","","","","","",""
"505","","78553","HierDyhhbr7swu","fvd6wp0vg7","msl000861","motor","img/motor_5.png","72","72","motor","5","14","1","0","0","",""
"null","","78662","HierDyhhbr7swu","fvd6wp0vg7","msl000861","iti","img/motor_blank.png","null","72","motor","","","","","","",""
"549","","79220","HierDyhhbr7swu","fvd6wp0vg7","msl000861","motor","img/motor_2.png","83","83","motor","2","15","1","0","0","",""
"null","","79330","HierDyhhbr7swu","fvd6wp0vg7","msl000861","iti","img/motor_blank.png","null","83","motor","","","","","","",""
"510","","79849","HierDyhhbr7swu","fvd6wp0vg7","msl000861","motor","img/motor_4.png","70","70","motor","4","16","1","0","0","",""
"null","","79959","HierDyhhbr7swu","fvd6wp0vg7","msl000861","iti","img/motor_blank.png","null","70","motor","","","","","","",""
"481","","80449","HierDyhhbr7swu","fvd6wp0vg7","msl000861","motor","img/motor_8.png","76","76","motor","8","17","1","0","0","",""
"null","","80557","HierDyhhbr7swu","fvd6wp0vg7","msl000861","iti","img/motor_blank.png","null","76","motor","","","","","","",""
"1036","","81603","HierDyhhbr7swu","fvd6wp0vg7","msl000861","motor","img/motor_1.png","65","65","motor","1","18","1","0","0","",""
"null","","81712","HierDyhhbr7swu","fvd6wp0vg7","msl000861","iti","img/motor_blank.png","null","65","motor","","","","","","",""
"645","","82367","HierDyhhbr7swu","fvd6wp0vg7","msl000861","motor","img/motor_7.png","74","75","motor","7","19","0","1","0","",""
"281","","82659","HierDyhhbr7swu","fvd6wp0vg7","msl000861","motorRepeat","img/motor_7.png","75","75","motor","7","19","1","0","0","",""
"null","","82769","HierDyhhbr7swu","fvd6wp0vg7","msl000861","iti","img/motor_blank.png","null","75","motor","","","","","","",""
"516","","83293","HierDyhhbr7swu","fvd6wp0vg7","msl000861","motor","img/motor_4.png","70","70","motor","4","20","1","0","0","",""
"null","","83403","HierDyhhbr7swu","fvd6wp0vg7","msl000861","iti","img/motor_blank.png","null","70","motor","","","","","","",""
"524","","83936","HierDyhhbr7swu","fvd6wp0vg7","msl000861","motor","img/motor_5.png","72","72","motor","5","21","1","0","0","",""
"null","","84044","HierDyhhbr7swu","fvd6wp0vg7","msl000861","iti","img/motor_blank.png","null","72","motor","","","","","","",""
"484","","84537","HierDyhhbr7swu","fvd6wp0vg7","msl000861","motor","img/motor_3.png","83","68","motor","3","22","0","1","0","",""
"287","","84834","HierDyhhbr7swu","fvd6wp0vg7","msl000861","motorRepeat","img/motor_3.png","68","68","motor","3","22","1","0","0","",""
"null","","84944","HierDyhhbr7swu","fvd6wp0vg7","msl000861","iti","img/motor_blank.png","null","68","motor","","","","","","",""
"472","","85425","HierDyhhbr7swu","fvd6wp0vg7","msl000861","motor","img/motor_5.png","74","72","motor","5","23","0","1","0","",""
"303","","85737","HierDyhhbr7swu","fvd6wp0vg7","msl000861","motorRepeat","img/motor_5.png","72","72","motor","5","23","1","0","0","",""
"null","","85846","HierDyhhbr7swu","fvd6wp0vg7","msl000861","iti","img/motor_blank.png","null","72","motor","","","","","","",""
"429","","86285","HierDyhhbr7swu","fvd6wp0vg7","msl000861","motor","img/motor_3.png","70","68","motor","3","24","0","1","0","",""
"306","","86600","HierDyhhbr7swu","fvd6wp0vg7","msl000861","motorRepeat","img/motor_3.png","68","68","motor","3","24","1","0","0","",""
"null","","86711","HierDyhhbr7swu","fvd6wp0vg7","msl000861","iti","img/motor_blank.png","null","68","motor","","","","","","",""
"568","","87287","HierDyhhbr7swu","fvd6wp0vg7","msl000861","motor","img/motor_2.png","83","83","motor","2","25","1","0","0","",""
"null","","87396","HierDyhhbr7swu","fvd6wp0vg7","msl000861","iti","img/motor_blank.png","null","83","motor","","","","","","",""
"635","","88038","HierDyhhbr7swu","fvd6wp0vg7","msl000861","motor","img/motor_3.png","68","68","motor","3","26","1","0","0","",""
"null","","88147","HierDyhhbr7swu","fvd6wp0vg7","msl000861","iti","img/motor_blank.png","null","68","motor","","","","","","",""
"485","","88641","HierDyhhbr7swu","fvd6wp0vg7","msl000861","motor","img/motor_1.png","65","65","motor","1","27","1","0","0","",""
"null","","88751","HierDyhhbr7swu","fvd6wp0vg7","msl000861","iti","img/motor_blank.png","null","65","motor","","","","","","",""
"734","","89495","HierDyhhbr7swu","fvd6wp0vg7","msl000861","motor","img/motor_1.png","65","65","motor","1","28","1","0","0","",""
"null","","89605","HierDyhhbr7swu","fvd6wp0vg7","msl000861","iti","img/motor_blank.png","null","65","motor","","","","","","",""
"565","","90178","HierDyhhbr7swu","fvd6wp0vg7","msl000861","motor","img/motor_5.png","72","72","motor","5","29","1","0","0","",""
"null","","90285","HierDyhhbr7swu","fvd6wp0vg7","msl000861","iti","img/motor_blank.png","null","72","motor","","","","","","",""
"540","","90833","HierDyhhbr7swu","fvd6wp0vg7","msl000861","motor","img/motor_7.png","74","75","motor","7","30","0","1","0","",""
"313","","91155","HierDyhhbr7swu","fvd6wp0vg7","msl000861","motorRepeat","img/motor_7.png","75","75","motor","7","30","1","0","0","",""
"null","","91265","HierDyhhbr7swu","fvd6wp0vg7","msl000861","iti","img/motor_blank.png","null","75","motor","","","","","","",""
"590","","91864","HierDyhhbr7swu","fvd6wp0vg7","msl000861","motor","img/motor_2.png","83","83","motor","2","31","1","0","0","",""
"null","","91974","HierDyhhbr7swu","fvd6wp0vg7","msl000861","iti","img/motor_blank.png","null","83","motor","","","","","","",""
"468","","92449","HierDyhhbr7swu","fvd6wp0vg7","msl000861","motor","img/motor_7.png","75","75","motor","7","32","1","0","0","",""
"null","","92557","HierDyhhbr7swu","fvd6wp0vg7","msl000861","iti","img/motor_blank.png","null","75","motor","","","","","","",""
"549","","93117","HierDyhhbr7swu","fvd6wp0vg7","msl000861","motor","img/motor_4.png","70","70","motor","4","33","1","0","0","",""
"null","","93226","HierDyhhbr7swu","fvd6wp0vg7","msl000861","iti","img/motor_blank.png","null","70","motor","","","","","","",""
"675","","93909","HierDyhhbr7swu","fvd6wp0vg7","msl000861","motor","img/motor_6.png","74","74","motor","6","34","1","0","0","",""
"null","","94017","HierDyhhbr7swu","fvd6wp0vg7","msl000861","iti","img/motor_blank.png","null","74","motor","","","","","","",""
"537","","94561","HierDyhhbr7swu","fvd6wp0vg7","msl000861","motor","img/motor_5.png","72","72","motor","5","35","1","0","0","",""
"null","","94671","HierDyhhbr7swu","fvd6wp0vg7","msl000861","iti","img/motor_blank.png","null","72","motor","","","","","","",""
"501","","95179","HierDyhhbr7swu","fvd6wp0vg7","msl000861","motor","img/motor_7.png","75","75","motor","7","36","1","0","0","",""
"null","","95290","HierDyhhbr7swu","fvd6wp0vg7","msl000861","iti","img/motor_blank.png","null","75","motor","","","","","","",""
"602","","95901","HierDyhhbr7swu","fvd6wp0vg7","msl000861","motor","img/motor_2.png","83","83","motor","2","37","1","0","0","",""
"null","","96011","HierDyhhbr7swu","fvd6wp0vg7","msl000861","iti","img/motor_blank.png","null","83","motor","","","","","","",""
"601","","96620","HierDyhhbr7swu","fvd6wp0vg7","msl000861","motor","img/motor_4.png","70","70","motor","4","38","1","0","0","",""
"null","","96730","HierDyhhbr7swu","fvd6wp0vg7","msl000861","iti","img/motor_blank.png","null","70","motor","","","","","","",""
"656","","97394","HierDyhhbr7swu","fvd6wp0vg7","msl000861","motor","img/motor_7.png","75","75","motor","7","39","1","0","0","",""
"null","","97503","HierDyhhbr7swu","fvd6wp0vg7","msl000861","iti","img/motor_blank.png","null","75","motor","","","","","","",""
"523","","98035","HierDyhhbr7swu","fvd6wp0vg7","msl000861","motor","img/motor_6.png","74","74","motor","6","40","1","0","0","",""
"null","","98143","HierDyhhbr7swu","fvd6wp0vg7","msl000861","iti","img/motor_blank.png","null","74","motor","","","","","","",""
"605","","98756","HierDyhhbr7swu","fvd6wp0vg7","msl000861","motor","img/motor_4.png","70","70","motor","4","41","1","0","0","",""
"null","","98866","HierDyhhbr7swu","fvd6wp0vg7","msl000861","iti","img/motor_blank.png","null","70","motor","","","","","","",""
"563","","99437","HierDyhhbr7swu","fvd6wp0vg7","msl000861","motor","img/motor_3.png","68","68","motor","3","42","1","0","0","",""
"null","","99547","HierDyhhbr7swu","fvd6wp0vg7","msl000861","iti","img/motor_blank.png","null","68","motor","","","","","","",""
"669","","100225","HierDyhhbr7swu","fvd6wp0vg7","msl000861","motor","img/motor_7.png","75","75","motor","7","43","1","0","0","",""
"null","","100335","HierDyhhbr7swu","fvd6wp0vg7","msl000861","iti","img/motor_blank.png","null","75","motor","","","","","","",""
"573","","100918","HierDyhhbr7swu","fvd6wp0vg7","msl000861","motor","img/motor_6.png","74","74","motor","6","44","1","0","0","",""
"null","","101028","HierDyhhbr7swu","fvd6wp0vg7","msl000861","iti","img/motor_blank.png","null","74","motor","","","","","","",""
"700","","101736","HierDyhhbr7swu","fvd6wp0vg7","msl000861","motor","img/motor_2.png","83","83","motor","2","45","1","0","0","",""
"null","","101845","HierDyhhbr7swu","fvd6wp0vg7","msl000861","iti","img/motor_blank.png","null","83","motor","","","","","","",""
"484","","102339","HierDyhhbr7swu","fvd6wp0vg7","msl000861","motor","img/motor_6.png","74","74","motor","6","46","1","0","0","",""
"null","","102446","HierDyhhbr7swu","fvd6wp0vg7","msl000861","iti","img/motor_blank.png","null","74","motor","","","","","","",""
"534","","102990","HierDyhhbr7swu","fvd6wp0vg7","msl000861","motor","img/motor_4.png","70","70","motor","4","47","1","0","0","",""
"null","","103097","HierDyhhbr7swu","fvd6wp0vg7","msl000861","iti","img/motor_blank.png","null","70","motor","","","","","","",""
"415","","103522","HierDyhhbr7swu","fvd6wp0vg7","msl000861","motor","img/motor_5.png","72","72","motor","5","48","1","0","0","",""
"null","","103631","HierDyhhbr7swu","fvd6wp0vg7","msl000861","iti","img/motor_blank.png","null","72","motor","","","","","","",""
"368","","104008","HierDyhhbr7swu","fvd6wp0vg7","msl000861","motor","img/motor_4.png","70","70","motor","4","49","1","0","0","",""
"null","","104118","HierDyhhbr7swu","fvd6wp0vg7","msl000861","iti","img/motor_blank.png","null","70","motor","","","","","","",""
"463","","104591","HierDyhhbr7swu","fvd6wp0vg7","msl000861","motor","img/motor_6.png","75","74","motor","6","50","0","1","0","",""
"252","","104851","HierDyhhbr7swu","fvd6wp0vg7","msl000861","motorRepeat","img/motor_6.png","74","74","motor","6","50","1","0","0","",""
"null","","104961","HierDyhhbr7swu","fvd6wp0vg7","msl000861","iti","img/motor_blank.png","null","74","motor","","","","","","",""
"510","","105480","HierDyhhbr7swu","fvd6wp0vg7","msl000861","motor","img/motor_8.png","75","76","motor","8","51","0","1","0","",""
"216","","105704","HierDyhhbr7swu","fvd6wp0vg7","msl000861","motorRepeat","img/motor_8.png","76","76","motor","8","51","1","0","0","",""
"null","","105813","HierDyhhbr7swu","fvd6wp0vg7","msl000861","iti","img/motor_blank.png","null","76","motor","","","","","","",""
"484","","106305","HierDyhhbr7swu","fvd6wp0vg7","msl000861","motor","img/motor_4.png","70","70","motor","4","52","1","0","0","",""
"null","","106411","HierDyhhbr7swu","fvd6wp0vg7","msl000861","iti","img/motor_blank.png","null","70","motor","","","","","","",""
"442","","106863","HierDyhhbr7swu","fvd6wp0vg7","msl000861","motor","img/motor_2.png","83","83","motor","2","53","1","0","0","",""
"null","","106972","HierDyhhbr7swu","fvd6wp0vg7","msl000861","iti","img/motor_blank.png","null","83","motor","","","","","","",""
"387","","107369","HierDyhhbr7swu","fvd6wp0vg7","msl000861","motor","img/motor_1.png","70","65","motor","1","54","0","1","0","",""
"93","","107470","HierDyhhbr7swu","fvd6wp0vg7","msl000861","motorRepeat","img/motor_1.png","65","65","motor","1","54","1","0","0","",""
"null","","107581","HierDyhhbr7swu","fvd6wp0vg7","msl000861","iti","img/motor_blank.png","null","65","motor","","","","","","",""
"438","","108028","HierDyhhbr7swu","fvd6wp0vg7","msl000861","motor","img/motor_3.png","70","68","motor","3","55","0","1","0","",""
"326","","108363","HierDyhhbr7swu","fvd6wp0vg7","msl000861","motorRepeat","img/motor_3.png","68","68","motor","3","55","1","0","0","",""
"null","","108473","HierDyhhbr7swu","fvd6wp0vg7","msl000861","iti","img/motor_blank.png","null","68","motor","","","","","","",""
"484","","108967","HierDyhhbr7swu","fvd6wp0vg7","msl000861","motor","img/motor_2.png","83","83","motor","2","56","1","0","0","",""
"null","","109074","HierDyhhbr7swu","fvd6wp0vg7","msl000861","iti","img/motor_blank.png","null","83","motor","","","","","","",""
"400","","109480","HierDyhhbr7swu","fvd6wp0vg7","msl000861","motor","img/motor_4.png","70","70","motor","4","57","1","0","0","",""
"null","","109590","HierDyhhbr7swu","fvd6wp0vg7","msl000861","iti","img/motor_blank.png","null","70","motor","","","","","","",""
"497","","110093","HierDyhhbr7swu","fvd6wp0vg7","msl000861","motor","img/motor_7.png","75","75","motor","7","58","1","0","0","",""
"null","","110204","HierDyhhbr7swu","fvd6wp0vg7","msl000861","iti","img/motor_blank.png","null","75","motor","","","","","","",""
"649","","110862","HierDyhhbr7swu","fvd6wp0vg7","msl000861","motor","img/motor_3.png","68","68","motor","3","59","1","0","0","",""
"null","","110969","HierDyhhbr7swu","fvd6wp0vg7","msl000861","iti","img/motor_blank.png","null","68","motor","","","","","","",""
"637","","111613","HierDyhhbr7swu","fvd6wp0vg7","msl000861","motor","img/motor_5.png","72","72","motor","5","60","1","0","0","",""
"null","","111723","HierDyhhbr7swu","fvd6wp0vg7","msl000861","iti","img/motor_blank.png","null","72","motor","","","","","","",""
"464","","112196","HierDyhhbr7swu","fvd6wp0vg7","msl000861","motor","img/motor_8.png","76","76","motor","8","61","1","0","0","",""
"null","","112304","HierDyhhbr7swu","fvd6wp0vg7","msl000861","iti","img/motor_blank.png","null","76","motor","","","","","","",""
"290","","112604","HierDyhhbr7swu","fvd6wp0vg7","msl000861","motor","img/motor_1.png","65","65","motor","1","62","1","0","0","",""
"null","","112714","HierDyhhbr7swu","fvd6wp0vg7","msl000861","iti","img/motor_blank.png","null","65","motor","","","","","","",""
"427","","113149","HierDyhhbr7swu","fvd6wp0vg7","msl000861","motor","img/motor_1.png","65","65","motor","1","63","1","0","0","",""
"null","","113260","HierDyhhbr7swu","fvd6wp0vg7","msl000861","iti","img/motor_blank.png","null","65","motor","","","","","","",""
"528","","113796","HierDyhhbr7swu","fvd6wp0vg7","msl000861","motor","img/motor_8.png","76","76","motor","8","64","1","0","0","",""
"null","","113905","HierDyhhbr7swu","fvd6wp0vg7","msl000861","iti","img/motor_blank.png","null","76","motor","","","","","","",""
"428","","114343","HierDyhhbr7swu","fvd6wp0vg7","msl000861","motor","img/motor_8.png","76","76","motor","8","65","1","0","0","",""
"null","","114454","HierDyhhbr7swu","fvd6wp0vg7","msl000861","iti","img/motor_blank.png","null","76","motor","","","","","","",""
"344","","114804","HierDyhhbr7swu","fvd6wp0vg7","msl000861","motor","img/motor_3.png","65","68","motor","3","66","0","1","0","",""
"258","","115070","HierDyhhbr7swu","fvd6wp0vg7","msl000861","motorRepeat","img/motor_3.png","83","68","motor","3","66","0","1","0","",""
"249","","115326","HierDyhhbr7swu","fvd6wp0vg7","msl000861","motorRepeat","img/motor_3.png","70","68","motor","3","66","0","1","0","",""
"289","","115624","HierDyhhbr7swu","fvd6wp0vg7","msl000861","motorRepeat","img/motor_3.png","68","68","motor","3","66","1","0","0","",""
"null","","115734","HierDyhhbr7swu","fvd6wp0vg7","msl000861","iti","img/motor_blank.png","null","68","motor","","","","","","",""
"561","","116302","HierDyhhbr7swu","fvd6wp0vg7","msl000861","motor","img/motor_8.png","76","76","motor","8","67","1","0","0","",""
"null","","116410","HierDyhhbr7swu","fvd6wp0vg7","msl000861","iti","img/motor_blank.png","null","76","motor","","","","","","",""
"379","","116797","HierDyhhbr7swu","fvd6wp0vg7","msl000861","motor","img/motor_5.png","76","72","motor","5","68","0","1","0","",""
"141","","116945","HierDyhhbr7swu","fvd6wp0vg7","msl000861","motorRepeat","img/motor_5.png","72","72","motor","5","68","1","0","0","",""
"null","","117053","HierDyhhbr7swu","fvd6wp0vg7","msl000861","iti","img/motor_blank.png","null","72","motor","","","","","","",""
"51","","117112","HierDyhhbr7swu","fvd6wp0vg7","msl000861","motor","img/motor_8.png","72","76","motor","8","69","0","1","0","",""
"413","","117534","HierDyhhbr7swu","fvd6wp0vg7","msl000861","motorRepeat","img/motor_8.png","76","76","motor","8","69","1","0","0","",""
"null","","117644","HierDyhhbr7swu","fvd6wp0vg7","msl000861","iti","img/motor_blank.png","null","76","motor","","","","","","",""
"513","","118166","HierDyhhbr7swu","fvd6wp0vg7","msl000861","motor","img/motor_1.png","65","65","motor","1","70","1","0","0","",""
"null","","118276","HierDyhhbr7swu","fvd6wp0vg7","msl000861","iti","img/motor_blank.png","null","65","motor","","","","","","",""
"585","","118870","HierDyhhbr7swu","fvd6wp0vg7","msl000861","motor","img/motor_6.png","72","74","motor","6","71","0","1","0","",""
"495","","119374","HierDyhhbr7swu","fvd6wp0vg7","msl000861","motorRepeat","img/motor_6.png","72","74","motor","6","71","0","1","0","",""
"1243","","120626","HierDyhhbr7swu","fvd6wp0vg7","msl000861","motorRepeat","img/motor_6.png","74","74","motor","6","71","1","0","0","",""
"null","","120737","HierDyhhbr7swu","fvd6wp0vg7","msl000861","iti","img/motor_blank.png","null","74","motor","","","","","","",""
"465","","121210","HierDyhhbr7swu","fvd6wp0vg7","msl000861","motor","img/motor_1.png","65","65","motor","1","72","1","0","0","",""
"null","","121318","HierDyhhbr7swu","fvd6wp0vg7","msl000861","iti","img/motor_blank.png","null","65","motor","","","","","","",""
"641","","121970","HierDyhhbr7swu","fvd6wp0vg7","msl000861","motor","img/motor_6.png","74","74","motor","6","73","1","0","0","",""
"null","","122079","HierDyhhbr7swu","fvd6wp0vg7","msl000861","iti","img/motor_blank.png","null","74","motor","","","","","","",""
"404","","122493","HierDyhhbr7swu","fvd6wp0vg7","msl000861","motor","img/motor_1.png","65","65","motor","1","74","1","0","0","",""
"null","","122602","HierDyhhbr7swu","fvd6wp0vg7","msl000861","iti","img/motor_blank.png","null","65","motor","","","","","","",""
"614","","123225","HierDyhhbr7swu","fvd6wp0vg7","msl000861","motor","img/motor_2.png","83","83","motor","2","75","1","0","0","",""
"null","","123334","HierDyhhbr7swu","fvd6wp0vg7","msl000861","iti","img/motor_blank.png","null","83","motor","","","","","","",""
"612","","123955","HierDyhhbr7swu","fvd6wp0vg7","msl000861","motor","img/motor_1.png","65","65","motor","1","76","1","0","0","",""
"null","","124065","HierDyhhbr7swu","fvd6wp0vg7","msl000861","iti","img/motor_blank.png","null","65","motor","","","","","","",""
"614","","124685","HierDyhhbr7swu","fvd6wp0vg7","msl000861","motor","img/motor_7.png","75","75","motor","7","77","1","0","0","",""
"null","","124796","HierDyhhbr7swu","fvd6wp0vg7","msl000861","iti","img/motor_blank.png","null","75","motor","","","","","","",""
"615","","125417","HierDyhhbr7swu","fvd6wp0vg7","msl000861","motor","img/motor_3.png","83","68","motor","3","78","0","1","0","",""
"199","","125626","HierDyhhbr7swu","fvd6wp0vg7","msl000861","motorRepeat","img/motor_3.png","68","68","motor","3","78","1","0","0","",""
"null","","125735","HierDyhhbr7swu","fvd6wp0vg7","msl000861","iti","img/motor_blank.png","null","68","motor","","","","","","",""
"464","","126208","HierDyhhbr7swu","fvd6wp0vg7","msl000861","motor","img/motor_2.png","83","83","motor","2","79","1","0","0","",""
"null","","126317","HierDyhhbr7swu","fvd6wp0vg7","msl000861","iti","img/motor_blank.png","null","83","motor","","","","","","",""
"445","","126771","HierDyhhbr7swu","fvd6wp0vg7","msl000861","motor","img/motor_8.png","76","76","motor","8","80","1","0","0","",""
"null","","126880","HierDyhhbr7swu","fvd6wp0vg7","msl000861","iti","img/motor_blank.png","null","76","motor","","","","","","",""
"541","","127429","HierDyhhbr7swu","fvd6wp0vg7","msl000861","motor","img/motor_5.png","72","72","motor","5","81","1","0","0","",""
"null","","127537","HierDyhhbr7swu","fvd6wp0vg7","msl000861","iti","img/motor_blank.png","null","72","motor","","","","","","",""
"398","","127943","HierDyhhbr7swu","fvd6wp0vg7","msl000861","motor","img/motor_4.png","70","70","motor","4","82","1","0","0","",""
"null","","128051","HierDyhhbr7swu","fvd6wp0vg7","msl000861","iti","img/motor_blank.png","null","70","motor","","","","","","",""
"431","","128491","HierDyhhbr7swu","fvd6wp0vg7","msl000861","motor","img/motor_5.png","72","72","motor","5","83","1","0","0","",""
"null","","128601","HierDyhhbr7swu","fvd6wp0vg7","msl000861","iti","img/motor_blank.png","null","72","motor","","","","","","",""
"507","","129118","HierDyhhbr7swu","fvd6wp0vg7","msl000861","motor","img/motor_7.png","74","75","motor","7","84","0","1","0","",""
"480","","129606","HierDyhhbr7swu","fvd6wp0vg7","msl000861","motorRepeat","img/motor_7.png","75","75","motor","7","84","1","0","0","",""
"null","","129717","HierDyhhbr7swu","fvd6wp0vg7","msl000861","iti","img/motor_blank.png","null","75","motor","","","","","","",""
"477","","130203","HierDyhhbr7swu","fvd6wp0vg7","msl000861","motor","img/motor_3.png","83","68","motor","3","85","0","1","0","",""
"242","","130453","HierDyhhbr7swu","fvd6wp0vg7","msl000861","motorRepeat","img/motor_3.png","68","68","motor","3","85","1","0","0","",""
"null","","130561","HierDyhhbr7swu","fvd6wp0vg7","msl000861","iti","img/motor_blank.png","null","68","motor","","","","","","",""
"606","","131178","HierDyhhbr7swu","fvd6wp0vg7","msl000861","motor","img/motor_3.png","68","68","motor","3","86","1","0","0","",""
"null","","131289","HierDyhhbr7swu","fvd6wp0vg7","msl000861","iti","img/motor_blank.png","null","68","motor","","","","","","",""
"465","","131764","HierDyhhbr7swu","fvd6wp0vg7","msl000861","motor","img/motor_2.png","83","83","motor","2","87","1","0","0","",""
"null","","131875","HierDyhhbr7swu","fvd6wp0vg7","msl000861","iti","img/motor_blank.png","null","83","motor","","","","","","",""
"596","","132479","HierDyhhbr7swu","fvd6wp0vg7","msl000861","motor","img/motor_3.png","68","68","motor","3","88","1","0","0","",""
"null","","132590","HierDyhhbr7swu","fvd6wp0vg7","msl000861","iti","img/motor_blank.png","null","68","motor","","","","","","",""
"530","","133127","HierDyhhbr7swu","fvd6wp0vg7","msl000861","motor","img/motor_8.png","76","76","motor","8","89","1","0","0","",""
"null","","133238","HierDyhhbr7swu","fvd6wp0vg7","msl000861","iti","img/motor_blank.png","null","76","motor","","","","","","",""
"533","","133781","HierDyhhbr7swu","fvd6wp0vg7","msl000861","motor","img/motor_7.png","75","75","motor","7","90","1","0","0","",""
"null","","133891","HierDyhhbr7swu","fvd6wp0vg7","msl000861","iti","img/motor_blank.png","null","75","motor","","","","","","",""
"466","","134366","HierDyhhbr7swu","fvd6wp0vg7","msl000861","motor","img/motor_4.png","70","70","motor","4","91","1","0","0","",""
"null","","134476","HierDyhhbr7swu","fvd6wp0vg7","msl000861","iti","img/motor_blank.png","null","70","motor","","","","","","",""
"512","","134998","HierDyhhbr7swu","fvd6wp0vg7","msl000861","motor","img/motor_2.png","83","83","motor","2","92","1","0","0","",""
"null","","135108","HierDyhhbr7swu","fvd6wp0vg7","msl000861","iti","img/motor_blank.png","null","83","motor","","","","","","",""
"462","","135580","HierDyhhbr7swu","fvd6wp0vg7","msl000861","motor","img/motor_4.png","70","70","motor","4","93","1","0","0","",""
"null","","135692","HierDyhhbr7swu","fvd6wp0vg7","msl000861","iti","img/motor_blank.png","null","70","motor","","","","","","",""
"465","","136168","HierDyhhbr7swu","fvd6wp0vg7","msl000861","motor","img/motor_4.png","70","70","motor","4","94","1","0","0","",""
"null","","136279","HierDyhhbr7swu","fvd6wp0vg7","msl000861","iti","img/motor_blank.png","null","70","motor","","","","","","",""
"485","","136774","HierDyhhbr7swu","fvd6wp0vg7","msl000861","motor","img/motor_2.png","83","83","motor","2","95","1","0","0","",""
"null","","136883","HierDyhhbr7swu","fvd6wp0vg7","msl000861","iti","img/motor_blank.png","null","83","motor","","","","","","",""
"199","","137090","HierDyhhbr7swu","fvd6wp0vg7","msl000861","motor","img/motor_1.png","68","65","motor","1","96","0","1","0","",""
"391","","137492","HierDyhhbr7swu","fvd6wp0vg7","msl000861","motorRepeat","img/motor_1.png","65","65","motor","1","96","1","0","0","",""
"null","","137602","HierDyhhbr7swu","fvd6wp0vg7","msl000861","iti","img/motor_blank.png","null","65","motor","","","","","","",""
"524","","138133","HierDyhhbr7swu","fvd6wp0vg7","msl000861","motor","img/motor_7.png","75","75","motor","7","97","1","0","0","",""
"null","","138241","HierDyhhbr7swu","fvd6wp0vg7","msl000861","iti","img/motor_blank.png","null","75","motor","","","","","","",""
"450","","138700","HierDyhhbr7swu","fvd6wp0vg7","msl000861","motor","img/motor_8.png","76","76","motor","8","98","1","0","0","",""
"null","","138810","HierDyhhbr7swu","fvd6wp0vg7","msl000861","iti","img/motor_blank.png","null","76","motor","","","","","","",""
"494","","139309","HierDyhhbr7swu","fvd6wp0vg7","msl000861","motor","img/motor_6.png","74","74","motor","6","99","1","0","0","",""
"null","","139419","HierDyhhbr7swu","fvd6wp0vg7","msl000861","iti","img/motor_blank.png","null","74","motor","","","","","","",""
"708","","140138","HierDyhhbr7swu","fvd6wp0vg7","msl000861","motor","img/motor_7.png","75","75","motor","7","100","1","0","0","",""
"null","","140249","HierDyhhbr7swu","fvd6wp0vg7","msl000861","iti","img/motor_blank.png","null","75","motor","","","","","","",""
"462","","140722","HierDyhhbr7swu","fvd6wp0vg7","msl000861","motor","img/motor_3.png","83","68","motor","3","101","0","1","0","",""
"290","","141023","HierDyhhbr7swu","fvd6wp0vg7","msl000861","motorRepeat","img/motor_3.png","68","68","motor","3","101","1","0","0","",""
"null","","141134","HierDyhhbr7swu","fvd6wp0vg7","msl000861","iti","img/motor_blank.png","null","68","motor","","","","","","",""
"523","","141668","HierDyhhbr7swu","fvd6wp0vg7","msl000861","motor","img/motor_2.png","83","83","motor","2","102","1","0","0","",""
"null","","141778","HierDyhhbr7swu","fvd6wp0vg7","msl000861","iti","img/motor_blank.png","null","83","motor","","","","","","",""
"404","","142191","HierDyhhbr7swu","fvd6wp0vg7","msl000861","motor","img/motor_8.png","76","76","motor","8","103","1","0","0","",""
"null","","142301","HierDyhhbr7swu","fvd6wp0vg7","msl000861","iti","img/motor_blank.png","null","76","motor","","","","","","",""
"494","","142803","HierDyhhbr7swu","fvd6wp0vg7","msl000861","motor","img/motor_3.png","70","68","motor","3","104","0","1","0","",""
"247","","143057","HierDyhhbr7swu","fvd6wp0vg7","msl000861","motorRepeat","img/motor_3.png","68","68","motor","3","104","1","0","0","",""
"null","","143169","HierDyhhbr7swu","fvd6wp0vg7","msl000861","iti","img/motor_blank.png","null","68","motor","","","","","","",""
"435","","143613","HierDyhhbr7swu","fvd6wp0vg7","msl000861","motor","img/motor_4.png","70","70","motor","4","105","1","0","0","",""
"null","","143723","HierDyhhbr7swu","fvd6wp0vg7","msl000861","iti","img/motor_blank.png","null","70","motor","","","","","","",""
"477","","144210","HierDyhhbr7swu","fvd6wp0vg7","msl000861","motor","img/motor_4.png","70","70","motor","4","106","1","0","0","",""
"null","","144318","HierDyhhbr7swu","fvd6wp0vg7","msl000861","iti","img/motor_blank.png","null","70","motor","","","","","","",""
"398","","144724","HierDyhhbr7swu","fvd6wp0vg7","msl000861","motor","img/motor_1.png","65","65","motor","1","107","1","0","0","",""
"null","","144834","HierDyhhbr7swu","fvd6wp0vg7","msl000861","iti","img/motor_blank.png","null","65","motor","","","","","","",""
"549","","145393","HierDyhhbr7swu","fvd6wp0vg7","msl000861","motor","img/motor_5.png","72","72","motor","5","108","1","0","0","",""
"null","","145502","HierDyhhbr7swu","fvd6wp0vg7","msl000861","iti","img/motor_blank.png","null","72","motor","","","","","","",""
"410","","145920","HierDyhhbr7swu","fvd6wp0vg7","msl000861","motor","img/motor_4.png","70","70","motor","4","109","1","0","0","",""
"null","","146028","HierDyhhbr7swu","fvd6wp0vg7","msl000861","iti","img/motor_blank.png","null","70","motor","","","","","","",""
"596","","146633","HierDyhhbr7swu","fvd6wp0vg7","msl000861","motor","img/motor_8.png","76","76","motor","8","110","1","0","0","",""
"null","","146744","HierDyhhbr7swu","fvd6wp0vg7","msl000861","iti","img/motor_blank.png","null","76","motor","","","","","","",""
"414","","147169","HierDyhhbr7swu","fvd6wp0vg7","msl000861","motor","img/motor_5.png","72","72","motor","5","111","1","0","0","",""
"null","","147279","HierDyhhbr7swu","fvd6wp0vg7","msl000861","iti","img/motor_blank.png","null","72","motor","","","","","","",""
"442","","147731","HierDyhhbr7swu","fvd6wp0vg7","msl000861","motor","img/motor_4.png","70","70","motor","4","112","1","0","0","",""
"null","","147840","HierDyhhbr7swu","fvd6wp0vg7","msl000861","iti","img/motor_blank.png","null","70","motor","","","","","","",""
"558","","148406","HierDyhhbr7swu","fvd6wp0vg7","msl000861","motor","img/motor_5.png","72","72","motor","5","113","1","0","0","",""
"null","","148517","HierDyhhbr7swu","fvd6wp0vg7","msl000861","iti","img/motor_blank.png","null","72","motor","","","","","","",""
"358","","148884","HierDyhhbr7swu","fvd6wp0vg7","msl000861","motor","img/motor_2.png","65","83","motor","2","114","0","1","0","",""
"262","","149154","HierDyhhbr7swu","fvd6wp0vg7","msl000861","motorRepeat","img/motor_2.png","83","83","motor","2","114","1","0","0","",""
"null","","149266","HierDyhhbr7swu","fvd6wp0vg7","msl000861","iti","img/motor_blank.png","null","83","motor","","","","","","",""
"400","","149673","HierDyhhbr7swu","fvd6wp0vg7","msl000861","motor","img/motor_6.png","76","74","motor","6","115","0","1","0","",""
"309","","149992","HierDyhhbr7swu","fvd6wp0vg7","msl000861","motorRepeat","img/motor_6.png","75","74","motor","6","115","0","1","0","",""
"528","","150529","HierDyhhbr7swu","fvd6wp0vg7","msl000861","motorRepeat","img/motor_6.png","74","74","motor","6","115","1","0","0","",""
"null","","150640","HierDyhhbr7swu","fvd6wp0vg7","msl000861","iti","img/motor_blank.png","null","74","motor","","","","","","",""
"713","","151362","HierDyhhbr7swu","fvd6wp0vg7","msl000861","motor","img/motor_1.png","65","65","motor","1","116","1","0","0","",""
"null","","151471","HierDyhhbr7swu","fvd6wp0vg7","msl000861","iti","img/motor_blank.png","null","65","motor","","","","","","",""
"671","","152151","HierDyhhbr7swu","fvd6wp0vg7","msl000861","motor","img/motor_2.png","83","83","motor","2","117","1","0","0","",""
"null","","152262","HierDyhhbr7swu","fvd6wp0vg7","msl000861","iti","img/motor_blank.png","null","83","motor","","","","","","",""
"431","","152701","HierDyhhbr7swu","fvd6wp0vg7","msl000861","motor","img/motor_6.png","68","74","motor","6","118","0","1","0","",""
"253","","152964","HierDyhhbr7swu","fvd6wp0vg7","msl000861","motorRepeat","img/motor_6.png","74","74","motor","6","118","1","0","0","",""
"null","","153073","HierDyhhbr7swu","fvd6wp0vg7","msl000861","iti","img/motor_blank.png","null","74","motor","","","","","","",""
"568","","153649","HierDyhhbr7swu","fvd6wp0vg7","msl000861","motor","img/motor_3.png","68","68","motor","3","119","1","0","0","",""
"null","","153759","HierDyhhbr7swu","fvd6wp0vg7","msl000861","iti","img/motor_blank.png","null","68","motor","","","","","","",""
"478","","154247","HierDyhhbr7swu","fvd6wp0vg7","msl000861","motor","img/motor_8.png","76","76","motor","8","120","1","0","0","",""
"null","","154358","HierDyhhbr7swu","fvd6wp0vg7","msl000861","iti","img/motor_blank.png","null","76","motor","","","","","","",""
"367","","154734","HierDyhhbr7swu","fvd6wp0vg7","msl000861","motor","img/motor_8.png","76","76","motor","8","121","1","0","0","",""
"null","","154845","HierDyhhbr7swu","fvd6wp0vg7","msl000861","iti","img/motor_blank.png","null","76","motor","","","","","","",""
"593","","155446","HierDyhhbr7swu","fvd6wp0vg7","msl000861","motor","img/motor_3.png","68","68","motor","3","122","1","0","0","",""
"null","","155556","HierDyhhbr7swu","fvd6wp0vg7","msl000861","iti","img/motor_blank.png","null","68","motor","","","","","","",""
"643","","156209","HierDyhhbr7swu","fvd6wp0vg7","msl000861","motor","img/motor_5.png","74","72","motor","5","123","0","1","0","",""
"227","","156444","HierDyhhbr7swu","fvd6wp0vg7","msl000861","motorRepeat","img/motor_5.png","72","72","motor","5","123","1","0","0","",""
"null","","156554","HierDyhhbr7swu","fvd6wp0vg7","msl000861","iti","img/motor_blank.png","null","72","motor","","","","","","",""
"588","","157151","HierDyhhbr7swu","fvd6wp0vg7","msl000861","motor","img/motor_4.png","68","70","motor","4","124","0","1","0","",""
"779","","157939","HierDyhhbr7swu","fvd6wp0vg7","msl000861","motorRepeat","img/motor_4.png","72","70","motor","4","124","0","1","0","",""
"186","","158134","HierDyhhbr7swu","fvd6wp0vg7","msl000861","motorRepeat","img/motor_4.png","70","70","motor","4","124","1","0","0","",""
"null","","158245","HierDyhhbr7swu","fvd6wp0vg7","msl000861","iti","img/motor_blank.png","null","70","motor","","","","","","",""
"579","","158834","HierDyhhbr7swu","fvd6wp0vg7","msl000861","motor","img/motor_1.png","65","65","motor","1","125","1","0","0","",""
"null","","158944","HierDyhhbr7swu","fvd6wp0vg7","msl000861","iti","img/motor_blank.png","null","65","motor","","","","","","",""
"465","","159419","HierDyhhbr7swu","fvd6wp0vg7","msl000861","motor","img/motor_5.png","72","72","motor","5","126","1","0","0","",""
"null","","159527","HierDyhhbr7swu","fvd6wp0vg7","msl000861","iti","img/motor_blank.png","null","72","motor","","","","","","",""
"449","","159985","HierDyhhbr7swu","fvd6wp0vg7","msl000861","motor","img/motor_6.png","74","74","motor","6","127","1","0","0","",""
"null","","160093","HierDyhhbr7swu","fvd6wp0vg7","msl000861","iti","img/motor_blank.png","null","74","motor","","","","","","",""
"530","","160633","HierDyhhbr7swu","fvd6wp0vg7","msl000861","motor","img/motor_6.png","74","74","motor","6","128","1","0","0","",""
"null","","160741","HierDyhhbr7swu","fvd6wp0vg7","msl000861","iti","img/motor_blank.png","null","74","motor","","","","","","",""
"651","","161400","HierDyhhbr7swu","fvd6wp0vg7","msl000861","motor","img/motor_3.png","68","68","motor","3","129","1","0","0","",""
"null","","161510","HierDyhhbr7swu","fvd6wp0vg7","msl000861","iti","img/motor_blank.png","null","68","motor","","","","","","",""
"608","","162125","HierDyhhbr7swu","fvd6wp0vg7","msl000861","motor","img/motor_7.png","75","75","motor","7","130","1","0","0","",""
"null","","162232","HierDyhhbr7swu","fvd6wp0vg7","msl000861","iti","img/motor_blank.png","null","75","motor","","","","","","",""
"539","","162779","HierDyhhbr7swu","fvd6wp0vg7","msl000861","motor","img/motor_1.png","65","65","motor","1","131","1","0","0","",""
"null","","162890","HierDyhhbr7swu","fvd6wp0vg7","msl000861","iti","img/motor_blank.png","null","65","motor","","","","","","",""
"487","","163385","HierDyhhbr7swu","fvd6wp0vg7","msl000861","motor","img/motor_5.png","74","72","motor","5","132","0","1","0","",""
"284","","163676","HierDyhhbr7swu","fvd6wp0vg7","msl000861","motorRepeat","img/motor_5.png","72","72","motor","5","132","1","0","0","",""
"null","","163785","HierDyhhbr7swu","fvd6wp0vg7","msl000861","iti","img/motor_blank.png","null","72","motor","","","","","","",""
"369","","164162","HierDyhhbr7swu","fvd6wp0vg7","msl000861","motor","img/motor_8.png","76","76","motor","8","133","1","0","0","",""
"null","","164268","HierDyhhbr7swu","fvd6wp0vg7","msl000861","iti","img/motor_blank.png","null","76","motor","","","","","","",""
"644","","164919","HierDyhhbr7swu","fvd6wp0vg7","msl000861","motor","img/motor_6.png","72","74","motor","6","134","0","1","0","",""
"294","","165220","HierDyhhbr7swu","fvd6wp0vg7","msl000861","motorRepeat","img/motor_6.png","74","74","motor","6","134","1","0","0","",""
"null","","165327","HierDyhhbr7swu","fvd6wp0vg7","msl000861","iti","img/motor_blank.png","null","74","motor","","","","","","",""
"576","","165909","HierDyhhbr7swu","fvd6wp0vg7","msl000861","motor","img/motor_7.png","75","75","motor","7","135","1","0","0","",""
"null","","166017","HierDyhhbr7swu","fvd6wp0vg7","msl000861","iti","img/motor_blank.png","null","75","motor","","","","","","",""
"600","","166625","HierDyhhbr7swu","fvd6wp0vg7","msl000861","motor","img/motor_4.png","70","70","motor","4","136","1","0","0","",""
"null","","166736","HierDyhhbr7swu","fvd6wp0vg7","msl000861","iti","img/motor_blank.png","null","70","motor","","","","","","",""
"445","","167187","HierDyhhbr7swu","fvd6wp0vg7","msl000861","motor","img/motor_8.png","76","76","motor","8","137","1","0","0","",""
"null","","167294","HierDyhhbr7swu","fvd6wp0vg7","msl000861","iti","img/motor_blank.png","null","76","motor","","","","","","",""
"496","","167797","HierDyhhbr7swu","fvd6wp0vg7","msl000861","motor","img/motor_5.png","72","72","motor","5","138","1","0","0","",""
"null","","167905","HierDyhhbr7swu","fvd6wp0vg7","msl000861","iti","img/motor_blank.png","null","72","motor","","","","","","",""
"509","","168421","HierDyhhbr7swu","fvd6wp0vg7","msl000861","motor","img/motor_6.png","74","74","motor","6","139","1","0","0","",""
"null","","168529","HierDyhhbr7swu","fvd6wp0vg7","msl000861","iti","img/motor_blank.png","null","74","motor","","","","","","",""
"528","","169064","HierDyhhbr7swu","fvd6wp0vg7","msl000861","motor","img/motor_4.png","70","70","motor","4","140","1","0","0","",""
"null","","169171","HierDyhhbr7swu","fvd6wp0vg7","msl000861","iti","img/motor_blank.png","null","70","motor","","","","","","",""
"468","","169645","HierDyhhbr7swu","fvd6wp0vg7","msl000861","motor","img/motor_7.png","75","75","motor","7","141","1","0","0","",""
"null","","169752","HierDyhhbr7swu","fvd6wp0vg7","msl000861","iti","img/motor_blank.png","null","75","motor","","","","","","",""
"584","","170344","HierDyhhbr7swu","fvd6wp0vg7","msl000861","motor","img/motor_2.png","83","83","motor","2","142","1","0","0","",""
"null","","170452","HierDyhhbr7swu","fvd6wp0vg7","msl000861","iti","img/motor_blank.png","null","83","motor","","","","","","",""
"376","","170834","HierDyhhbr7swu","fvd6wp0vg7","msl000861","motor","img/motor_7.png","72","75","motor","7","143","0","1","0","",""
"309","","171150","HierDyhhbr7swu","fvd6wp0vg7","msl000861","motorRepeat","img/motor_7.png","75","75","motor","7","143","1","0","0","",""
"null","","171257","HierDyhhbr7swu","fvd6wp0vg7","msl000861","iti","img/motor_blank.png","null","75","motor","","","","","","",""
"563","","171828","HierDyhhbr7swu","fvd6wp0vg7","msl000861","motor","img/motor_4.png","72","70","motor","4","144","0","1","0","",""
"319","","172153","HierDyhhbr7swu","fvd6wp0vg7","msl000861","motorRepeat","img/motor_4.png","70","70","motor","4","144","1","0","0","",""
"null","","172260","HierDyhhbr7swu","fvd6wp0vg7","msl000861","iti","img/motor_blank.png","null","70","motor","","","","","","",""
"534","","172801","HierDyhhbr7swu","fvd6wp0vg7","msl000861","motor","img/motor_6.png","74","74","motor","6","145","1","0","0","",""
"null","","172908","HierDyhhbr7swu","fvd6wp0vg7","msl000861","iti","img/motor_blank.png","null","74","motor","","","","","","",""
"399","","173314","HierDyhhbr7swu","fvd6wp0vg7","msl000861","motor","img/motor_4.png","70","70","motor","4","146","1","0","0","",""
"null","","173422","HierDyhhbr7swu","fvd6wp0vg7","msl000861","iti","img/motor_blank.png","null","70","motor","","","","","","",""
"547","","173975","HierDyhhbr7swu","fvd6wp0vg7","msl000861","motor","img/motor_7.png","75","75","motor","7","147","1","0","0","",""
"null","","174082","HierDyhhbr7swu","fvd6wp0vg7","msl000861","iti","img/motor_blank.png","null","75","motor","","","","","","",""
"508","","174599","HierDyhhbr7swu","fvd6wp0vg7","msl000861","motor","img/motor_3.png","70","68","motor","3","148","0","1","0","",""
"465","","175070","HierDyhhbr7swu","fvd6wp0vg7","msl000861","motorRepeat","img/motor_3.png","68","68","motor","3","148","1","0","0","",""
"null","","175178","HierDyhhbr7swu","fvd6wp0vg7","msl000861","iti","img/motor_blank.png","null","68","motor","","","","","","",""
"536","","175720","HierDyhhbr7swu","fvd6wp0vg7","msl000861","motor","img/motor_6.png","74","74","motor","6","149","1","0","0","",""
"null","","175829","HierDyhhbr7swu","fvd6wp0vg7","msl000861","iti","img/motor_blank.png","null","74","motor","","","","","","",""
"850","","176684","HierDyhhbr7swu","fvd6wp0vg7","msl000861","motor","img/motor_7.png","75","75","motor","7","150","1","0","0","",""
"null","","176792","HierDyhhbr7swu","fvd6wp0vg7","msl000861","iti","img/motor_blank.png","null","75","motor","","","","","","",""
"562","","177362","HierDyhhbr7swu","fvd6wp0vg7","msl000861","motor","img/motor_5.png","70","72","motor","5","151","0","1","0","",""
"635","","178004","HierDyhhbr7swu","fvd6wp0vg7","msl000861","motorRepeat","img/motor_5.png","72","72","motor","5","151","1","0","0","",""
"null","","178111","HierDyhhbr7swu","fvd6wp0vg7","msl000861","iti","img/motor_blank.png","null","72","motor","","","","","","",""
"596","","178713","HierDyhhbr7swu","fvd6wp0vg7","msl000861","motor","img/motor_6.png","74","74","motor","6","152","1","0","0","",""
"null","","178821","HierDyhhbr7swu","fvd6wp0vg7","msl000861","iti","img/motor_blank.png","null","74","motor","","","","","","",""
"385","","179213","HierDyhhbr7swu","fvd6wp0vg7","msl000861","motor","img/motor_5.png","68","72","motor","5","153","0","1","0","",""
"337","","179558","HierDyhhbr7swu","fvd6wp0vg7","msl000861","motorRepeat","img/motor_5.png","72","72","motor","5","153","1","0","0","",""
"null","","179666","HierDyhhbr7swu","fvd6wp0vg7","msl000861","iti","img/motor_blank.png","null","72","motor","","","","","","",""
"531","","180204","HierDyhhbr7swu","fvd6wp0vg7","msl000861","motor","img/motor_2.png","83","83","motor","2","154","1","0","0","",""
"null","","180313","HierDyhhbr7swu","fvd6wp0vg7","msl000861","iti","img/motor_blank.png","null","83","motor","","","","","","",""
"373","","180692","HierDyhhbr7swu","fvd6wp0vg7","msl000861","motor","img/motor_2.png","83","83","motor","2","155","1","0","0","",""
"null","","180801","HierDyhhbr7swu","fvd6wp0vg7","msl000861","iti","img/motor_blank.png","null","83","motor","","","","","","",""
"458","","181265","HierDyhhbr7swu","fvd6wp0vg7","msl000861","motor","img/motor_5.png","72","72","motor","5","156","1","0","0","",""
"null","","181372","HierDyhhbr7swu","fvd6wp0vg7","msl000861","iti","img/motor_blank.png","null","72","motor","","","","","","",""
"418","","181796","HierDyhhbr7swu","fvd6wp0vg7","msl000861","motor","img/motor_8.png","76","76","motor","8","157","1","0","0","",""
"null","","181904","HierDyhhbr7swu","fvd6wp0vg7","msl000861","iti","img/motor_blank.png","null","76","motor","","","","","","",""
"498","","182410","HierDyhhbr7swu","fvd6wp0vg7","msl000861","motor","img/motor_3.png","68","68","motor","3","158","1","0","0","",""
"null","","182517","HierDyhhbr7swu","fvd6wp0vg7","msl000861","iti","img/motor_blank.png","null","68","motor","","","","","","",""
"788","","183313","HierDyhhbr7swu","fvd6wp0vg7","msl000861","motor","img/motor_3.png","68","68","motor","3","159","1","0","0","",""
"null","","183420","HierDyhhbr7swu","fvd6wp0vg7","msl000861","iti","img/motor_blank.png","null","68","motor","","","","","","",""
"526","","183954","HierDyhhbr7swu","fvd6wp0vg7","msl000861","motor","img/motor_8.png","76","76","motor","8","160","1","0","0","",""
"null","","184062","HierDyhhbr7swu","fvd6wp0vg7","msl000861","iti","img/motor_blank.png","null","76","motor","","","","","","",""
"513","","184581","HierDyhhbr7swu","fvd6wp0vg7","msl000861","motor","img/motor_3.png","68","68","motor","3","161","1","0","0","",""
"null","","184689","HierDyhhbr7swu","fvd6wp0vg7","msl000861","iti","img/motor_blank.png","null","68","motor","","","","","","",""
"451","","185148","HierDyhhbr7swu","fvd6wp0vg7","msl000861","motor","img/motor_1.png","65","65","motor","1","162","1","0","0","",""
"null","","185257","HierDyhhbr7swu","fvd6wp0vg7","msl000861","iti","img/motor_blank.png","null","65","motor","","","","","","",""
"823","","186087","HierDyhhbr7swu","fvd6wp0vg7","msl000861","motor","img/motor_3.png","68","68","motor","3","163","1","0","0","",""
"null","","186193","HierDyhhbr7swu","fvd6wp0vg7","msl000861","iti","img/motor_blank.png","null","68","motor","","","","","","",""
"327","","186529","HierDyhhbr7swu","fvd6wp0vg7","msl000861","motor","img/motor_4.png","68","70","motor","4","164","0","1","0","",""
"247","","186784","HierDyhhbr7swu","fvd6wp0vg7","msl000861","motorRepeat","img/motor_4.png","70","70","motor","4","164","1","0","0","",""
"null","","186891","HierDyhhbr7swu","fvd6wp0vg7","msl000861","iti","img/motor_blank.png","null","70","motor","","","","","","",""
"429","","187327","HierDyhhbr7swu","fvd6wp0vg7","msl000861","motor","img/motor_2.png","65","83","motor","2","165","0","1","0","",""
"297","","187633","HierDyhhbr7swu","fvd6wp0vg7","msl000861","motorRepeat","img/motor_2.png","68","83","motor","2","165","0","1","0","",""
"377","","188019","HierDyhhbr7swu","fvd6wp0vg7","msl000861","motorRepeat","img/motor_2.png","83","83","motor","2","165","1","0","0","",""
"null","","188126","HierDyhhbr7swu","fvd6wp0vg7","msl000861","iti","img/motor_blank.png","null","83","motor","","","","","","",""
"533","","188665","HierDyhhbr7swu","fvd6wp0vg7","msl000861","motor","img/motor_5.png","72","72","motor","5","166","1","0","0","",""
"null","","188773","HierDyhhbr7swu","fvd6wp0vg7","msl000861","iti","img/motor_blank.png","null","72","motor","","","","","","",""
"344","","189123","HierDyhhbr7swu","fvd6wp0vg7","msl000861","motor","img/motor_5.png","72","72","motor","5","167","1","0","0","",""
"null","","189232","HierDyhhbr7swu","fvd6wp0vg7","msl000861","iti","img/motor_blank.png","null","72","motor","","","","","","",""
"727","","189966","HierDyhhbr7swu","fvd6wp0vg7","msl000861","motor","img/motor_6.png","74","74","motor","6","168","1","0","0","",""
"null","","190074","HierDyhhbr7swu","fvd6wp0vg7","msl000861","iti","img/motor_blank.png","null","74","motor","","","","","","",""
"310","","190391","HierDyhhbr7swu","fvd6wp0vg7","msl000861","motor","img/motor_7.png","74","75","motor","7","169","0","1","0","",""
"408","","190805","HierDyhhbr7swu","fvd6wp0vg7","msl000861","motorRepeat","img/motor_7.png","75","75","motor","7","169","1","0","0","",""
"null","","190912","HierDyhhbr7swu","fvd6wp0vg7","msl000861","iti","img/motor_blank.png","null","75","motor","","","","","","",""
"577","","191497","HierDyhhbr7swu","fvd6wp0vg7","msl000861","motor","img/motor_3.png","68","68","motor","3","170","1","0","0","",""
"null","","191603","HierDyhhbr7swu","fvd6wp0vg7","msl000861","iti","img/motor_blank.png","null","68","motor","","","","","","",""
"456","","192067","HierDyhhbr7swu","fvd6wp0vg7","msl000861","motor","img/motor_1.png","65","65","motor","1","171","1","0","0","",""
"null","","192175","HierDyhhbr7swu","fvd6wp0vg7","msl000861","iti","img/motor_blank.png","null","65","motor","","","","","","",""
"553","","192735","HierDyhhbr7swu","fvd6wp0vg7","msl000861","motor","img/motor_7.png","75","75","motor","7","172","1","0","0","",""
"null","","192842","HierDyhhbr7swu","fvd6wp0vg7","msl000861","iti","img/motor_blank.png","null","75","motor","","","","","","",""
"537","","193388","HierDyhhbr7swu","fvd6wp0vg7","msl000861","motor","img/motor_8.png","76","76","motor","8","173","1","0","0","",""
"null","","193494","HierDyhhbr7swu","fvd6wp0vg7","msl000861","iti","img/motor_blank.png","null","76","motor","","","","","","",""
"471","","193972","HierDyhhbr7swu","fvd6wp0vg7","msl000861","motor","img/motor_2.png","70","83","motor","2","174","0","1","0","",""
"279","","194258","HierDyhhbr7swu","fvd6wp0vg7","msl000861","motorRepeat","img/motor_2.png","83","83","motor","2","174","1","0","0","",""
"null","","194365","HierDyhhbr7swu","fvd6wp0vg7","msl000861","iti","img/motor_blank.png","null","83","motor","","","","","","",""
"489","","194862","HierDyhhbr7swu","fvd6wp0vg7","msl000861","motor","img/motor_6.png","72","74","motor","6","175","0","1","0","",""
"249","","195119","HierDyhhbr7swu","fvd6wp0vg7","msl000861","motorRepeat","img/motor_6.png","74","74","motor","6","175","1","0","0","",""
"null","","195226","HierDyhhbr7swu","fvd6wp0vg7","msl000861","iti","img/motor_blank.png","null","74","motor","","","","","","",""
"677","","195912","HierDyhhbr7swu","fvd6wp0vg7","msl000861","motor","img/motor_3.png","68","68","motor","3","176","1","0","0","",""
"null","","196019","HierDyhhbr7swu","fvd6wp0vg7","msl000861","iti","img/motor_blank.png","null","68","motor","","","","","","",""
"426","","196452","HierDyhhbr7swu","fvd6wp0vg7","msl000861","motor","img/motor_4.png","72","70","motor","4","177","0","1","0","",""
"277","","196736","HierDyhhbr7swu","fvd6wp0vg7","msl000861","motorRepeat","img/motor_4.png","70","70","motor","4","177","1","0","0","",""
"null","","196847","HierDyhhbr7swu","fvd6wp0vg7","msl000861","iti","img/motor_blank.png","null","70","motor","","","","","","",""
"851","","197705","HierDyhhbr7swu","fvd6wp0vg7","msl000861","motor","img/motor_7.png","75","75","motor","7","178","1","0","0","",""
"null","","197812","HierDyhhbr7swu","fvd6wp0vg7","msl000861","iti","img/motor_blank.png","null","75","motor","","","","","","",""
"734","","198553","HierDyhhbr7swu","fvd6wp0vg7","msl000861","motor","img/motor_1.png","65","65","motor","1","179","1","0","0","",""
"null","","198663","HierDyhhbr7swu","fvd6wp0vg7","msl000861","iti","img/motor_blank.png","null","65","motor","","","","","","",""
"426","","199098","HierDyhhbr7swu","fvd6wp0vg7","msl000861","motor","img/motor_1.png","65","65","motor","1","180","1","0","0","",""
"null","","199208","HierDyhhbr7swu","fvd6wp0vg7","msl000861","iti","img/motor_blank.png","null","65","motor","","","","","","",""
"514","","199732","HierDyhhbr7swu","fvd6wp0vg7","msl000861","motor","img/motor_5.png","74","72","motor","5","181","0","1","0","",""
"350","","200093","HierDyhhbr7swu","fvd6wp0vg7","msl000861","motorRepeat","img/motor_5.png","72","72","motor","5","181","1","0","0","",""
"null","","200204","HierDyhhbr7swu","fvd6wp0vg7","msl000861","iti","img/motor_blank.png","null","72","motor","","","","","","",""
"377","","200590","HierDyhhbr7swu","fvd6wp0vg7","msl000861","motor","img/motor_5.png","72","72","motor","5","182","1","0","0","",""
"null","","200699","HierDyhhbr7swu","fvd6wp0vg7","msl000861","iti","img/motor_blank.png","null","72","motor","","","","","","",""
"422","","201131","HierDyhhbr7swu","fvd6wp0vg7","msl000861","motor","img/motor_8.png","76","76","motor","8","183","1","0","0","",""
"null","","201243","HierDyhhbr7swu","fvd6wp0vg7","msl000861","iti","img/motor_blank.png","null","76","motor","","","","","","",""
"430","","201681","HierDyhhbr7swu","fvd6wp0vg7","msl000861","motor","img/motor_8.png","76","76","motor","8","184","1","0","0","",""
"null","","201787","HierDyhhbr7swu","fvd6wp0vg7","msl000861","iti","img/motor_blank.png","null","76","motor","","","","","","",""
"484","","202278","HierDyhhbr7swu","fvd6wp0vg7","msl000861","motor","img/motor_6.png","74","74","motor","6","185","1","0","0","",""
"null","","202384","HierDyhhbr7swu","fvd6wp0vg7","msl000861","iti","img/motor_blank.png","null","74","motor","","","","","","",""
"385","","202776","HierDyhhbr7swu","fvd6wp0vg7","msl000861","motor","img/motor_6.png","76","74","motor","6","186","0","1","0","",""
"113","","202895","HierDyhhbr7swu","fvd6wp0vg7","msl000861","motorRepeat","img/motor_6.png","74","74","motor","6","186","1","0","0","",""
"null","","203002","HierDyhhbr7swu","fvd6wp0vg7","msl000861","iti","img/motor_blank.png","null","74","motor","","","","","","",""
"477","","203488","HierDyhhbr7swu","fvd6wp0vg7","msl000861","motor","img/motor_1.png","65","65","motor","1","187","1","0","0","",""
"null","","203595","HierDyhhbr7swu","fvd6wp0vg7","msl000861","iti","img/motor_blank.png","null","65","motor","","","","","","",""
"519","","204125","HierDyhhbr7swu","fvd6wp0vg7","msl000861","motor","img/motor_4.png","70","70","motor","4","188","1","0","0","",""
"null","","204237","HierDyhhbr7swu","fvd6wp0vg7","msl000861","iti","img/motor_blank.png","null","70","motor","","","","","","",""
"390","","204636","HierDyhhbr7swu","fvd6wp0vg7","msl000861","motor","img/motor_6.png","74","74","motor","6","189","1","0","0","",""
"null","","204747","HierDyhhbr7swu","fvd6wp0vg7","msl000861","iti","img/motor_blank.png","null","74","motor","","","","","","",""
"452","","205209","HierDyhhbr7swu","fvd6wp0vg7","msl000861","motor","img/motor_8.png","76","76","motor","8","190","1","0","0","",""
"null","","205319","HierDyhhbr7swu","fvd6wp0vg7","msl000861","iti","img/motor_blank.png","null","76","motor","","","","","","",""
"916","","206243","HierDyhhbr7swu","fvd6wp0vg7","msl000861","motor","img/motor_2.png","83","83","motor","2","191","1","0","0","",""
"null","","206355","HierDyhhbr7swu","fvd6wp0vg7","msl000861","iti","img/motor_blank.png","null","83","motor","","","","","","",""
"567","","206932","HierDyhhbr7swu","fvd6wp0vg7","msl000861","motor","img/motor_3.png","68","68","motor","3","192","1","0","0","",""
"null","","207042","HierDyhhbr7swu","fvd6wp0vg7","msl000861","iti","img/motor_blank.png","null","68","motor","","","","","","",""
"388","","207439","HierDyhhbr7swu","fvd6wp0vg7","msl000861","motor","img/motor_3.png","68","68","motor","3","193","1","0","0","",""
"null","","207550","HierDyhhbr7swu","fvd6wp0vg7","msl000861","iti","img/motor_blank.png","null","68","motor","","","","","","",""
"496","","208054","HierDyhhbr7swu","fvd6wp0vg7","msl000861","motor","img/motor_4.png","72","70","motor","4","194","0","1","0","",""
"267","","208330","HierDyhhbr7swu","fvd6wp0vg7","msl000861","motorRepeat","img/motor_4.png","70","70","motor","4","194","1","0","0","",""
"null","","208442","HierDyhhbr7swu","fvd6wp0vg7","msl000861","iti","img/motor_blank.png","null","70","motor","","","","","","",""
"388","","208838","HierDyhhbr7swu","fvd6wp0vg7","msl000861","motor","img/motor_1.png","70","65","motor","1","195","0","1","0","",""
"266","","209113","HierDyhhbr7swu","fvd6wp0vg7","msl000861","motorRepeat","img/motor_1.png","65","65","motor","1","195","1","0","0","",""
"null","","209224","HierDyhhbr7swu","fvd6wp0vg7","msl000861","iti","img/motor_blank.png","null","65","motor","","","","","","",""
"561","","209795","HierDyhhbr7swu","fvd6wp0vg7","msl000861","motor","img/motor_3.png","68","68","motor","3","196","1","0","0","",""
"null","","209906","HierDyhhbr7swu","fvd6wp0vg7","msl000861","iti","img/motor_blank.png","null","68","motor","","","","","","",""
"568","","210484","HierDyhhbr7swu","fvd6wp0vg7","msl000861","motor","img/motor_2.png","83","83","motor","2","197","1","0","0","",""
"null","","210594","HierDyhhbr7swu","fvd6wp0vg7","msl000861","iti","img/motor_blank.png","null","83","motor","","","","","","",""
"551","","211152","HierDyhhbr7swu","fvd6wp0vg7","msl000861","motor","img/motor_6.png","74","74","motor","6","198","1","0","0","",""
"null","","211260","HierDyhhbr7swu","fvd6wp0vg7","msl000861","iti","img/motor_blank.png","null","74","motor","","","","","","",""
"765","","212033","HierDyhhbr7swu","fvd6wp0vg7","msl000861","motor","img/motor_2.png","83","83","motor","2","199","1","0","0","",""
"null","","212142","HierDyhhbr7swu","fvd6wp0vg7","msl000861","iti","img/motor_blank.png","null","83","motor","","","","","","",""
"519","","212670","HierDyhhbr7swu","fvd6wp0vg7","msl000861","motor","img/motor_1.png","65","65","motor","1","200","1","0","0","",""
"null","","212781","HierDyhhbr7swu","fvd6wp0vg7","msl000861","iti","img/motor_blank.png","null","65","motor","","","","","","",""
"648","","213438","HierDyhhbr7swu","fvd6wp0vg7","msl000861","motor","img/motor_6.png","74","74","motor","6","201","1","0","0","",""
"null","","213549","HierDyhhbr7swu","fvd6wp0vg7","msl000861","iti","img/motor_blank.png","null","74","motor","","","","","","",""
"552","","214109","HierDyhhbr7swu","fvd6wp0vg7","msl000861","motor","img/motor_2.png","83","83","motor","2","202","1","0","0","",""
"null","","214220","HierDyhhbr7swu","fvd6wp0vg7","msl000861","iti","img/motor_blank.png","null","83","motor","","","","","","",""
"479","","214707","HierDyhhbr7swu","fvd6wp0vg7","msl000861","motor","img/motor_8.png","76","76","motor","8","203","1","0","0","",""
"null","","214817","HierDyhhbr7swu","fvd6wp0vg7","msl000861","iti","img/motor_blank.png","null","76","motor","","","","","","",""
"474","","215300","HierDyhhbr7swu","fvd6wp0vg7","msl000861","motor","img/motor_7.png","75","75","motor","7","204","1","0","0","",""
"null","","215409","HierDyhhbr7swu","fvd6wp0vg7","msl000861","iti","img/motor_blank.png","null","75","motor","","","","","","",""
"456","","215874","HierDyhhbr7swu","fvd6wp0vg7","msl000861","motor","img/motor_5.png","72","72","motor","5","205","1","0","0","",""
"null","","215984","HierDyhhbr7swu","fvd6wp0vg7","msl000861","iti","img/motor_blank.png","null","72","motor","","","","","","",""
"505","","216497","HierDyhhbr7swu","fvd6wp0vg7","msl000861","motor","img/motor_3.png","68","68","motor","3","206","1","0","0","",""
"null","","216607","HierDyhhbr7swu","fvd6wp0vg7","msl000861","iti","img/motor_blank.png","null","68","motor","","","","","","",""
"358","","216974","HierDyhhbr7swu","fvd6wp0vg7","msl000861","motor","img/motor_1.png","65","65","motor","1","207","1","0","0","",""
"null","","217083","HierDyhhbr7swu","fvd6wp0vg7","msl000861","iti","img/motor_blank.png","null","65","motor","","","","","","",""
"490","","217581","HierDyhhbr7swu","fvd6wp0vg7","msl000861","motor","img/motor_1.png","65","65","motor","1","208","1","0","0","",""
"null","","217691","HierDyhhbr7swu","fvd6wp0vg7","msl000861","iti","img/motor_blank.png","null","65","motor","","","","","","",""
"433","","218134","HierDyhhbr7swu","fvd6wp0vg7","msl000861","motor","img/motor_6.png","74","74","motor","6","209","1","0","0","",""
"null","","218243","HierDyhhbr7swu","fvd6wp0vg7","msl000861","iti","img/motor_blank.png","null","74","motor","","","","","","",""
"608","","218861","HierDyhhbr7swu","fvd6wp0vg7","msl000861","motor","img/motor_3.png","68","68","motor","3","210","1","0","0","",""
"null","","218972","HierDyhhbr7swu","fvd6wp0vg7","msl000861","iti","img/motor_blank.png","null","68","motor","","","","","","",""
"558","","219540","HierDyhhbr7swu","fvd6wp0vg7","msl000861","motor","img/motor_6.png","74","74","motor","6","211","1","0","0","",""
"null","","219650","HierDyhhbr7swu","fvd6wp0vg7","msl000861","iti","img/motor_blank.png","null","74","motor","","","","","","",""
"456","","220115","HierDyhhbr7swu","fvd6wp0vg7","msl000861","motor","img/motor_3.png","68","68","motor","3","212","1","0","0","",""
"null","","220224","HierDyhhbr7swu","fvd6wp0vg7","msl000861","iti","img/motor_blank.png","null","68","motor","","","","","","",""
"440","","220673","HierDyhhbr7swu","fvd6wp0vg7","msl000861","motor","img/motor_3.png","68","68","motor","3","213","1","0","0","",""
"null","","220783","HierDyhhbr7swu","fvd6wp0vg7","msl000861","iti","img/motor_blank.png","null","68","motor","","","","","","",""
"393","","221186","HierDyhhbr7swu","fvd6wp0vg7","msl000861","motor","img/motor_4.png","74","70","motor","4","214","0","1","0","",""
"280","","221474","HierDyhhbr7swu","fvd6wp0vg7","msl000861","motorRepeat","img/motor_4.png","70","70","motor","4","214","1","0","0","",""
"null","","221584","HierDyhhbr7swu","fvd6wp0vg7","msl000861","iti","img/motor_blank.png","null","70","motor","","","","","","",""
"414","","222008","HierDyhhbr7swu","fvd6wp0vg7","msl000861","motor","img/motor_3.png","68","68","motor","3","215","1","0","0","",""
"null","","222119","HierDyhhbr7swu","fvd6wp0vg7","msl000861","iti","img/motor_blank.png","null","68","motor","","","","","","",""
"324","","222453","HierDyhhbr7swu","fvd6wp0vg7","msl000861","motor","img/motor_4.png","72","70","motor","4","216","0","1","0","",""
"288","","222751","HierDyhhbr7swu","fvd6wp0vg7","msl000861","motorRepeat","img/motor_4.png","70","70","motor","4","216","1","0","0","",""
"null","","222861","HierDyhhbr7swu","fvd6wp0vg7","msl000861","iti","img/motor_blank.png","null","70","motor","","","","","","",""
"480","","223350","HierDyhhbr7swu","fvd6wp0vg7","msl000861","motor","img/motor_8.png","76","76","motor","8","217","1","0","0","",""
"null","","223461","HierDyhhbr7swu","fvd6wp0vg7","msl000861","iti","img/motor_blank.png","null","76","motor","","","","","","",""
"467","","223938","HierDyhhbr7swu","fvd6wp0vg7","msl000861","motor","img/motor_2.png","68","83","motor","2","218","0","1","0","",""
"232","","224179","HierDyhhbr7swu","fvd6wp0vg7","msl000861","motorRepeat","img/motor_2.png","83","83","motor","2","218","1","0","0","",""
"null","","224289","HierDyhhbr7swu","fvd6wp0vg7","msl000861","iti","img/motor_blank.png","null","83","motor","","","","","","",""
"663","","224962","HierDyhhbr7swu","fvd6wp0vg7","msl000861","motor","img/motor_7.png","75","75","motor","7","219","1","0","0","",""
"null","","225070","HierDyhhbr7swu","fvd6wp0vg7","msl000861","iti","img/motor_blank.png","null","75","motor","","","","","","",""
"434","","225514","HierDyhhbr7swu","fvd6wp0vg7","msl000861","motor","img/motor_1.png","65","65","motor","1","220","1","0","0","",""
"null","","225623","HierDyhhbr7swu","fvd6wp0vg7","msl000861","iti","img/motor_blank.png","null","65","motor","","","","","","",""
"532","","226165","HierDyhhbr7swu","fvd6wp0vg7","msl000861","motor","img/motor_2.png","83","83","motor","2","221","1","0","0","",""
"null","","226276","HierDyhhbr7swu","fvd6wp0vg7","msl000861","iti","img/motor_blank.png","null","83","motor","","","","","","",""
"396","","226682","HierDyhhbr7swu","fvd6wp0vg7","msl000861","motor","img/motor_6.png","75","74","motor","6","222","0","1","0","",""
"473","","227164","HierDyhhbr7swu","fvd6wp0vg7","msl000861","motorRepeat","img/motor_6.png","68","74","motor","6","222","0","1","0","",""
"376","","227550","HierDyhhbr7swu","fvd6wp0vg7","msl000861","motorRepeat","img/motor_6.png","74","74","motor","6","222","1","0","0","",""
"null","","227659","HierDyhhbr7swu","fvd6wp0vg7","msl000861","iti","img/motor_blank.png","null","74","motor","","","","","","",""
"468","","228137","HierDyhhbr7swu","fvd6wp0vg7","msl000861","motor","img/motor_8.png","76","76","motor","8","223","1","0","0","",""
"null","","228246","HierDyhhbr7swu","fvd6wp0vg7","msl000861","iti","img/motor_blank.png","null","76","motor","","","","","","",""
"558","","228812","HierDyhhbr7swu","fvd6wp0vg7","msl000861","motor","img/motor_2.png","83","83","motor","2","224","1","0","0","",""
"null","","228922","HierDyhhbr7swu","fvd6wp0vg7","msl000861","iti","img/motor_blank.png","null","83","motor","","","","","","",""
"455","","229385","HierDyhhbr7swu","fvd6wp0vg7","msl000861","motor","img/motor_4.png","70","70","motor","4","225","1","0","0","",""
"null","","229496","HierDyhhbr7swu","fvd6wp0vg7","msl000861","iti","img/motor_blank.png","null","70","motor","","","","","","",""
"447","","229953","HierDyhhbr7swu","fvd6wp0vg7","msl000861","motor","img/motor_2.png","83","83","motor","2","226","1","0","0","",""
"null","","230063","HierDyhhbr7swu","fvd6wp0vg7","msl000861","iti","img/motor_blank.png","null","83","motor","","","","","","",""
"545","","230616","HierDyhhbr7swu","fvd6wp0vg7","msl000861","motor","img/motor_6.png","74","74","motor","6","227","1","0","0","",""
"null","","230728","HierDyhhbr7swu","fvd6wp0vg7","msl000861","iti","img/motor_blank.png","null","74","motor","","","","","","",""
"445","","231182","HierDyhhbr7swu","fvd6wp0vg7","msl000861","motor","img/motor_3.png","68","68","motor","3","228","1","0","0","",""
"null","","231293","HierDyhhbr7swu","fvd6wp0vg7","msl000861","iti","img/motor_blank.png","null","68","motor","","","","","","",""
"428","","231730","HierDyhhbr7swu","fvd6wp0vg7","msl000861","motor","img/motor_7.png","74","75","motor","7","229","0","1","0","",""
"275","","232016","HierDyhhbr7swu","fvd6wp0vg7","msl000861","motorRepeat","img/motor_7.png","75","75","motor","7","229","1","0","0","",""
"null","","232127","HierDyhhbr7swu","fvd6wp0vg7","msl000861","iti","img/motor_blank.png","null","75","motor","","","","","","",""
"141","","232276","HierDyhhbr7swu","fvd6wp0vg7","msl000861","motor","img/motor_2.png","75","83","motor","2","230","0","1","0","",""
"251","","232536","HierDyhhbr7swu","fvd6wp0vg7","msl000861","motorRepeat","img/motor_2.png","83","83","motor","2","230","1","0","0","",""
"null","","232646","HierDyhhbr7swu","fvd6wp0vg7","msl000861","iti","img/motor_blank.png","null","83","motor","","","","","","",""
"609","","233265","HierDyhhbr7swu","fvd6wp0vg7","msl000861","motor","img/motor_5.png","74","72","motor","5","231","0","1","0","",""
"256","","233531","HierDyhhbr7swu","fvd6wp0vg7","msl000861","motorRepeat","img/motor_5.png","72","72","motor","5","231","1","0","0","",""
"null","","233641","HierDyhhbr7swu","fvd6wp0vg7","msl000861","iti","img/motor_blank.png","null","72","motor","","","","","","",""
"492","","234142","HierDyhhbr7swu","fvd6wp0vg7","msl000861","motor","img/motor_5.png","72","72","motor","5","232","1","0","0","",""
"null","","234252","HierDyhhbr7swu","fvd6wp0vg7","msl000861","iti","img/motor_blank.png","null","72","motor","","","","","","",""
"387","","234647","HierDyhhbr7swu","fvd6wp0vg7","msl000861","motor","img/motor_7.png","72","75","motor","7","233","0","1","0","",""
"274","","234931","HierDyhhbr7swu","fvd6wp0vg7","msl000861","motorRepeat","img/motor_7.png","75","75","motor","7","233","1","0","0","",""
"65","","235041","HierDyhhbr7swu","fvd6wp0vg7","msl000861","iti","img/motor_blank.png","74","75","motor","","","","","","",""
"761","","235811","HierDyhhbr7swu","fvd6wp0vg7","msl000861","motor","img/motor_7.png","75","75","motor","7","234","1","0","0","",""
"null","","235922","HierDyhhbr7swu","fvd6wp0vg7","msl000861","iti","img/motor_blank.png","null","75","motor","","","","","","",""
"582","","236512","HierDyhhbr7swu","fvd6wp0vg7","msl000861","motor","img/motor_6.png","74","74","motor","6","235","1","0","0","",""
"null","","236622","HierDyhhbr7swu","fvd6wp0vg7","msl000861","iti","img/motor_blank.png","null","74","motor","","","","","","",""
"570","","237199","HierDyhhbr7swu","fvd6wp0vg7","msl000861","motor","img/motor_5.png","72","72","motor","5","236","1","0","0","",""
"null","","237307","HierDyhhbr7swu","fvd6wp0vg7","msl000861","iti","img/motor_blank.png","null","72","motor","","","","","","",""
"466","","237780","HierDyhhbr7swu","fvd6wp0vg7","msl000861","motor","img/motor_4.png","72","70","motor","4","237","0","1","0","",""
"255","","238042","HierDyhhbr7swu","fvd6wp0vg7","msl000861","motorRepeat","img/motor_4.png","70","70","motor","4","237","1","0","0","",""
"null","","238151","HierDyhhbr7swu","fvd6wp0vg7","msl000861","iti","img/motor_blank.png","null","70","motor","","","","","","",""
"466","","238623","HierDyhhbr7swu","fvd6wp0vg7","msl000861","motor","img/motor_4.png","70","70","motor","4","238","1","0","0","",""
"null","","238731","HierDyhhbr7swu","fvd6wp0vg7","msl000861","iti","img/motor_blank.png","null","70","motor","","","","","","",""
"471","","239207","HierDyhhbr7swu","fvd6wp0vg7","msl000861","motor","img/motor_5.png","72","72","motor","5","239","1","0","0","",""
"null","","239314","HierDyhhbr7swu","fvd6wp0vg7","msl000861","iti","img/motor_blank.png","null","72","motor","","","","","","",""
"493","","239813","HierDyhhbr7swu","fvd6wp0vg7","msl000861","motor","img/motor_1.png","65","65","motor","1","240","1","0","0","",""
"null","","239924","HierDyhhbr7swu","fvd6wp0vg7","msl000861","iti","img/motor_blank.png","null","65","motor","","","","","","",""
"355","","240288","HierDyhhbr7swu","fvd6wp0vg7","msl000861","motor","img/motor_5.png","72","72","motor","5","241","1","0","0","",""
"null","","240398","HierDyhhbr7swu","fvd6wp0vg7","msl000861","iti","img/motor_blank.png","null","72","motor","","","","","","",""
"381","","240788","HierDyhhbr7swu","fvd6wp0vg7","msl000861","motor","img/motor_1.png","65","65","motor","1","242","1","0","0","",""
"null","","240898","HierDyhhbr7swu","fvd6wp0vg7","msl000861","iti","img/motor_blank.png","null","65","motor","","","","","","",""
"480","","241387","HierDyhhbr7swu","fvd6wp0vg7","msl000861","motor","img/motor_7.png","75","75","motor","7","243","1","0","0","",""
"null","","241498","HierDyhhbr7swu","fvd6wp0vg7","msl000861","iti","img/motor_blank.png","null","75","motor","","","","","","",""
"467","","241975","HierDyhhbr7swu","fvd6wp0vg7","msl000861","motor","img/motor_6.png","74","74","motor","6","244","1","0","0","",""
"null","","242085","HierDyhhbr7swu","fvd6wp0vg7","msl000861","iti","img/motor_blank.png","null","74","motor","","","","","","",""
"511","","242607","HierDyhhbr7swu","fvd6wp0vg7","msl000861","motor","img/motor_6.png","74","74","motor","6","245","1","0","0","",""
"null","","242715","HierDyhhbr7swu","fvd6wp0vg7","msl000861","iti","img/motor_blank.png","null","74","motor","","","","","","",""
"377","","243100","HierDyhhbr7swu","fvd6wp0vg7","msl000861","motor","img/motor_5.png","72","72","motor","5","246","1","0","0","",""
"null","","243210","HierDyhhbr7swu","fvd6wp0vg7","msl000861","iti","img/motor_blank.png","null","72","motor","","","","","","",""
"556","","243775","HierDyhhbr7swu","fvd6wp0vg7","msl000861","motor","img/motor_3.png","68","68","motor","3","247","1","0","0","",""
"null","","243884","HierDyhhbr7swu","fvd6wp0vg7","msl000861","iti","img/motor_blank.png","null","68","motor","","","","","","",""
"448","","244342","HierDyhhbr7swu","fvd6wp0vg7","msl000861","motor","img/motor_5.png","72","72","motor","5","248","1","0","0","",""
"null","","244452","HierDyhhbr7swu","fvd6wp0vg7","msl000861","iti","img/motor_blank.png","null","72","motor","","","","","","",""
"505","","244967","HierDyhhbr7swu","fvd6wp0vg7","msl000861","motor","img/motor_1.png","65","65","motor","1","249","1","0","0","",""
"null","","245077","HierDyhhbr7swu","fvd6wp0vg7","msl000861","iti","img/motor_blank.png","null","65","motor","","","","","","",""
"469","","245554","HierDyhhbr7swu","fvd6wp0vg7","msl000861","motor","img/motor_4.png","68","70","motor","4","250","0","1","0","",""
"237","","245798","HierDyhhbr7swu","fvd6wp0vg7","msl000861","motorRepeat","img/motor_4.png","70","70","motor","4","250","1","0","0","",""
"null","","245909","HierDyhhbr7swu","fvd6wp0vg7","msl000861","iti","img/motor_blank.png","null","70","motor","","","","","","",""
"490","","246408","HierDyhhbr7swu","fvd6wp0vg7","msl000861","motor","img/motor_1.png","65","65","motor","1","251","1","0","0","",""
"null","","246519","HierDyhhbr7swu","fvd6wp0vg7","msl000861","iti","img/motor_blank.png","null","65","motor","","","","","","",""
"359","","246888","HierDyhhbr7swu","fvd6wp0vg7","msl000861","motor","img/motor_5.png","72","72","motor","5","252","1","0","0","",""
"null","","246999","HierDyhhbr7swu","fvd6wp0vg7","msl000861","iti","img/motor_blank.png","null","72","motor","","","","","","",""
"637","","247644","HierDyhhbr7swu","fvd6wp0vg7","msl000861","motor","img/motor_2.png","83","83","motor","2","253","1","0","0","",""
"null","","247756","HierDyhhbr7swu","fvd6wp0vg7","msl000861","iti","img/motor_blank.png","null","83","motor","","","","","","",""
"673","","248437","HierDyhhbr7swu","fvd6wp0vg7","msl000861","motor","img/motor_3.png","68","68","motor","3","254","1","0","0","",""
"null","","248545","HierDyhhbr7swu","fvd6wp0vg7","msl000861","iti","img/motor_blank.png","null","68","motor","","","","","","",""
"478","","249031","HierDyhhbr7swu","fvd6wp0vg7","msl000861","motor","img/motor_7.png","75","75","motor","7","255","1","0","0","",""
"null","","249138","HierDyhhbr7swu","fvd6wp0vg7","msl000861","iti","img/motor_blank.png","null","75","motor","","","","","","",""
"678","","249825","HierDyhhbr7swu","fvd6wp0vg7","msl000861","motor","img/motor_8.png","75","76","motor","8","256","0","1","0","",""
"2","","249833","HierDyhhbr7swu","fvd6wp0vg7","msl000861","motorRepeat","img/motor_8.png","76","76","motor","8","256","1","0","0","",""
"null","","249944","HierDyhhbr7swu","fvd6wp0vg7","msl000861","iti","img/motor_blank.png","null","76","motor","","","","","","",""
"608","","250557","HierDyhhbr7swu","fvd6wp0vg7","msl000861","motor","img/motor_6.png","74","74","motor","6","257","1","0","0","",""
"null","","250669","HierDyhhbr7swu","fvd6wp0vg7","msl000861","iti","img/motor_blank.png","null","74","motor","","","","","","",""
"532","","251209","HierDyhhbr7swu","fvd6wp0vg7","msl000861","motor","img/motor_4.png","70","70","motor","4","258","1","0","0","",""
"null","","251315","HierDyhhbr7swu","fvd6wp0vg7","msl000861","iti","img/motor_blank.png","null","70","motor","","","","","","",""
"390","","251712","HierDyhhbr7swu","fvd6wp0vg7","msl000861","motor","img/motor_1.png","65","65","motor","1","259","1","0","0","",""
"null","","251820","HierDyhhbr7swu","fvd6wp0vg7","msl000861","iti","img/motor_blank.png","null","65","motor","","","","","","",""
"457","","252286","HierDyhhbr7swu","fvd6wp0vg7","msl000861","motor","img/motor_8.png","76","76","motor","8","260","1","0","0","",""
"null","","252397","HierDyhhbr7swu","fvd6wp0vg7","msl000861","iti","img/motor_blank.png","null","76","motor","","","","","","",""
"391","","252798","HierDyhhbr7swu","fvd6wp0vg7","msl000861","motor","img/motor_7.png","74","75","motor","7","261","0","1","0","",""
"266","","253072","HierDyhhbr7swu","fvd6wp0vg7","msl000861","motorRepeat","img/motor_7.png","75","75","motor","7","261","1","0","0","",""
"null","","253183","HierDyhhbr7swu","fvd6wp0vg7","msl000861","iti","img/motor_blank.png","null","75","motor","","","","","","",""
"432","","253625","HierDyhhbr7swu","fvd6wp0vg7","msl000861","motor","img/motor_6.png","74","74","motor","6","262","1","0","0","",""
"null","","253735","HierDyhhbr7swu","fvd6wp0vg7","msl000861","iti","img/motor_blank.png","null","74","motor","","","","","","",""
"482","","254227","HierDyhhbr7swu","fvd6wp0vg7","msl000861","motor","img/motor_8.png","76","76","motor","8","263","1","0","0","",""
"null","","254338","HierDyhhbr7swu","fvd6wp0vg7","msl000861","iti","img/motor_blank.png","null","76","motor","","","","","","",""
"446","","254794","HierDyhhbr7swu","fvd6wp0vg7","msl000861","motor","img/motor_6.png","72","74","motor","6","264","0","1","0","",""
"307","","255111","HierDyhhbr7swu","fvd6wp0vg7","msl000861","motorRepeat","img/motor_6.png","74","74","motor","6","264","1","0","0","",""
"null","","255220","HierDyhhbr7swu","fvd6wp0vg7","msl000861","iti","img/motor_blank.png","null","74","motor","","","","","","",""
"416","","255647","HierDyhhbr7swu","fvd6wp0vg7","msl000861","motor","img/motor_5.png","72","72","motor","5","265","1","0","0","",""
"null","","255759","HierDyhhbr7swu","fvd6wp0vg7","msl000861","iti","img/motor_blank.png","null","72","motor","","","","","","",""
"500","","256269","HierDyhhbr7swu","fvd6wp0vg7","msl000861","motor","img/motor_5.png","72","72","motor","5","266","1","0","0","",""
"null","","256381","HierDyhhbr7swu","fvd6wp0vg7","msl000861","iti","img/motor_blank.png","null","72","motor","","","","","","",""
"536","","256927","HierDyhhbr7swu","fvd6wp0vg7","msl000861","motor","img/motor_3.png","70","68","motor","3","267","0","1","0","",""
"257","","257194","HierDyhhbr7swu","fvd6wp0vg7","msl000861","motorRepeat","img/motor_3.png","68","68","motor","3","267","1","0","0","",""
"null","","257304","HierDyhhbr7swu","fvd6wp0vg7","msl000861","iti","img/motor_blank.png","null","68","motor","","","","","","",""
"375","","257688","HierDyhhbr7swu","fvd6wp0vg7","msl000861","motor","img/motor_5.png","68","72","motor","5","268","0","1","0","",""
"302","","258001","HierDyhhbr7swu","fvd6wp0vg7","msl000861","motorRepeat","img/motor_5.png","72","72","motor","5","268","1","0","0","",""
"null","","258110","HierDyhhbr7swu","fvd6wp0vg7","msl000861","iti","img/motor_blank.png","null","72","motor","","","","","","",""
"573","","258688","HierDyhhbr7swu","fvd6wp0vg7","msl000861","motor","img/motor_4.png","68","70","motor","4","269","0","1","0","",""
"261","","258956","HierDyhhbr7swu","fvd6wp0vg7","msl000861","motorRepeat","img/motor_4.png","70","70","motor","4","269","1","0","0","",""
"null","","259064","HierDyhhbr7swu","fvd6wp0vg7","msl000861","iti","img/motor_blank.png","null","70","motor","","","","","","",""
"558","","259628","HierDyhhbr7swu","fvd6wp0vg7","msl000861","motor","img/motor_6.png","74","74","motor","6","270","1","0","0","",""
"null","","259736","HierDyhhbr7swu","fvd6wp0vg7","msl000861","iti","img/motor_blank.png","null","74","motor","","","","","","",""
"527","","260271","HierDyhhbr7swu","fvd6wp0vg7","msl000861","motor","img/motor_2.png","83","83","motor","2","271","1","0","0","",""
"null","","260378","HierDyhhbr7swu","fvd6wp0vg7","msl000861","iti","img/motor_blank.png","null","83","motor","","","","","","",""
"531","","260917","HierDyhhbr7swu","fvd6wp0vg7","msl000861","motor","img/motor_7.png","74","75","motor","7","272","0","1","0","",""
"257","","261181","HierDyhhbr7swu","fvd6wp0vg7","msl000861","motorRepeat","img/motor_7.png","75","75","motor","7","272","1","0","0","",""
"null","","261289","HierDyhhbr7swu","fvd6wp0vg7","msl000861","iti","img/motor_blank.png","null","75","motor","","","","","","",""
"579","","261876","HierDyhhbr7swu","fvd6wp0vg7","msl000861","motor","img/motor_7.png","75","75","motor","7","273","1","0","0","",""
"null","","261985","HierDyhhbr7swu","fvd6wp0vg7","msl000861","iti","img/motor_blank.png","null","75","motor","","","","","","",""
"582","","262575","HierDyhhbr7swu","fvd6wp0vg7","msl000861","motor","img/motor_5.png","72","72","motor","5","274","1","0","0","",""
"null","","262682","HierDyhhbr7swu","fvd6wp0vg7","msl000861","iti","img/motor_blank.png","null","72","motor","","","","","","",""
"600","","263290","HierDyhhbr7swu","fvd6wp0vg7","msl000861","motor","img/motor_2.png","83","83","motor","2","275","1","0","0","",""
"null","","263399","HierDyhhbr7swu","fvd6wp0vg7","msl000861","iti","img/motor_blank.png","null","83","motor","","","","","","",""
"398","","263804","HierDyhhbr7swu","fvd6wp0vg7","msl000861","motor","img/motor_1.png","72","65","motor","1","276","0","1","0","",""
"268","","264083","HierDyhhbr7swu","fvd6wp0vg7","msl000861","motorRepeat","img/motor_1.png","65","65","motor","1","276","1","0","0","",""
"null","","264192","HierDyhhbr7swu","fvd6wp0vg7","msl000861","iti","img/motor_blank.png","null","65","motor","","","","","","",""
"670","","264872","HierDyhhbr7swu","fvd6wp0vg7","msl000861","motor","img/motor_4.png","70","70","motor","4","277","1","0","0","",""
"null","","264979","HierDyhhbr7swu","fvd6wp0vg7","msl000861","iti","img/motor_blank.png","null","70","motor","","","","","","",""
"865","","265851","HierDyhhbr7swu","fvd6wp0vg7","msl000861","motor","img/motor_1.png","65","65","motor","1","278","1","0","0","",""
"null","","265960","HierDyhhbr7swu","fvd6wp0vg7","msl000861","iti","img/motor_blank.png","null","65","motor","","","","","","",""
"434","","266402","HierDyhhbr7swu","fvd6wp0vg7","msl000861","motor","img/motor_4.png","70","70","motor","4","279","1","0","0","",""
"null","","266510","HierDyhhbr7swu","fvd6wp0vg7","msl000861","iti","img/motor_blank.png","null","70","motor","","","","","","",""
"436","","266957","HierDyhhbr7swu","fvd6wp0vg7","msl000861","motor","img/motor_4.png","70","70","motor","4","280","1","0","0","",""
"null","","267067","HierDyhhbr7swu","fvd6wp0vg7","msl000861","iti","img/motor_blank.png","null","70","motor","","","","","","",""
"412","","267489","HierDyhhbr7swu","fvd6wp0vg7","msl000861","motor","img/motor_3.png","70","68","motor","3","281","0","1","0","",""
"226","","267725","HierDyhhbr7swu","fvd6wp0vg7","msl000861","motorRepeat","img/motor_3.png","68","68","motor","3","281","1","0","0","",""
"null","","267836","HierDyhhbr7swu","fvd6wp0vg7","msl000861","iti","img/motor_blank.png","null","68","motor","","","","","","",""
"646","","268494","HierDyhhbr7swu","fvd6wp0vg7","msl000861","motor","img/motor_7.png","75","75","motor","7","282","1","0","0","",""
"null","","268606","HierDyhhbr7swu","fvd6wp0vg7","msl000861","iti","img/motor_blank.png","null","75","motor","","","","","","",""
"351","","268970","HierDyhhbr7swu","fvd6wp0vg7","msl000861","motor","img/motor_7.png","75","75","motor","7","283","1","0","0","",""
"null","","269082","HierDyhhbr7swu","fvd6wp0vg7","msl000861","iti","img/motor_blank.png","null","75","motor","","","","","","",""
"159","","269250","HierDyhhbr7swu","fvd6wp0vg7","msl000861","motor","img/motor_6.png","75","74","motor","6","284","0","1","0","",""
"290","","269552","HierDyhhbr7swu","fvd6wp0vg7","msl000861","motorRepeat","img/motor_6.png","68","74","motor","6","284","0","1","0","",""
"93","","269656","HierDyhhbr7swu","fvd6wp0vg7","msl000861","motorRepeat","img/motor_6.png","74","74","motor","6","284","1","0","0","",""
"null","","269766","HierDyhhbr7swu","fvd6wp0vg7","msl000861","iti","img/motor_blank.png","null","74","motor","","","","","","",""
"467","","270241","HierDyhhbr7swu","fvd6wp0vg7","msl000861","motor","img/motor_2.png","83","83","motor","2","285","1","0","0","",""
"null","","270351","HierDyhhbr7swu","fvd6wp0vg7","msl000861","iti","img/motor_blank.png","null","83","motor","","","","","","",""
"529","","270890","HierDyhhbr7swu","fvd6wp0vg7","msl000861","motor","img/motor_8.png","76","76","motor","8","286","1","0","0","",""
"null","","271002","HierDyhhbr7swu","fvd6wp0vg7","msl000861","iti","img/motor_blank.png","null","76","motor","","","","","","",""
"485","","271497","HierDyhhbr7swu","fvd6wp0vg7","msl000861","motor","img/motor_6.png","74","74","motor","6","287","1","0","0","",""
"null","","271608","HierDyhhbr7swu","fvd6wp0vg7","msl000861","iti","img/motor_blank.png","null","74","motor","","","","","","",""
"437","","272051","HierDyhhbr7swu","fvd6wp0vg7","msl000861","motor","img/motor_1.png","65","65","motor","1","288","1","0","0","",""
"null","","272161","HierDyhhbr7swu","fvd6wp0vg7","msl000861","iti","img/motor_blank.png","null","65","motor","","","","","","",""
"365","","272535","HierDyhhbr7swu","fvd6wp0vg7","msl000861","motor","img/motor_4.png","72","70","motor","4","289","0","1","0","",""
"91","","272636","HierDyhhbr7swu","fvd6wp0vg7","msl000861","motorRepeat","img/motor_4.png","70","70","motor","4","289","1","0","0","",""
"null","","272746","HierDyhhbr7swu","fvd6wp0vg7","msl000861","iti","img/motor_blank.png","null","70","motor","","","","","","",""
"382","","273137","HierDyhhbr7swu","fvd6wp0vg7","msl000861","motor","img/motor_6.png","74","74","motor","6","290","1","0","0","",""
"null","","273248","HierDyhhbr7swu","fvd6wp0vg7","msl000861","iti","img/motor_blank.png","null","74","motor","","","","","","",""
"571","","273830","HierDyhhbr7swu","fvd6wp0vg7","msl000861","motor","img/motor_3.png","68","68","motor","3","291","1","0","0","",""
"null","","273939","HierDyhhbr7swu","fvd6wp0vg7","msl000861","iti","img/motor_blank.png","null","68","motor","","","","","","",""
"423","","274372","HierDyhhbr7swu","fvd6wp0vg7","msl000861","motor","img/motor_6.png","74","74","motor","6","292","1","0","0","",""
"null","","274483","HierDyhhbr7swu","fvd6wp0vg7","msl000861","iti","img/motor_blank.png","null","74","motor","","","","","","",""
"932","","275425","HierDyhhbr7swu","fvd6wp0vg7","msl000861","motor","img/motor_5.png","72","72","motor","5","293","1","0","0","",""
"null","","275534","HierDyhhbr7swu","fvd6wp0vg7","msl000861","iti","img/motor_blank.png","null","72","motor","","","","","","",""
"365","","275909","HierDyhhbr7swu","fvd6wp0vg7","msl000861","motor","img/motor_1.png","65","65","motor","1","294","1","0","0","",""
"null","","276018","HierDyhhbr7swu","fvd6wp0vg7","msl000861","iti","img/motor_blank.png","null","65","motor","","","","","","",""
"487","","276514","HierDyhhbr7swu","fvd6wp0vg7","msl000861","motor","img/motor_3.png","68","68","motor","3","295","1","0","0","",""
"null","","276624","HierDyhhbr7swu","fvd6wp0vg7","msl000861","iti","img/motor_blank.png","null","68","motor","","","","","","",""
"375","","277009","HierDyhhbr7swu","fvd6wp0vg7","msl000861","motor","img/motor_5.png","72","72","motor","5","296","1","0","0","",""
"null","","277119","HierDyhhbr7swu","fvd6wp0vg7","msl000861","iti","img/motor_blank.png","null","72","motor","","","","","","",""
"392","","277520","HierDyhhbr7swu","fvd6wp0vg7","msl000861","motor","img/motor_3.png","68","68","motor","3","297","1","0","0","",""
"null","","277630","HierDyhhbr7swu","fvd6wp0vg7","msl000861","iti","img/motor_blank.png","null","68","motor","","","","","","",""
"504","","278143","HierDyhhbr7swu","fvd6wp0vg7","msl000861","motor","img/motor_2.png","83","83","motor","2","298","1","0","0","",""
"null","","278253","HierDyhhbr7swu","fvd6wp0vg7","msl000861","iti","img/motor_blank.png","null","83","motor","","","","","","",""
"463","","278726","HierDyhhbr7swu","fvd6wp0vg7","msl000861","motor","img/motor_8.png","76","76","motor","8","299","1","0","0","",""
"null","","278835","HierDyhhbr7swu","fvd6wp0vg7","msl000861","iti","img/motor_blank.png","null","76","motor","","","","","","",""
"468","","279310","HierDyhhbr7swu","fvd6wp0vg7","msl000861","motor","img/motor_4.png","68","70","motor","4","300","0","1","0","",""
"232","","279553","HierDyhhbr7swu","fvd6wp0vg7","msl000861","motorRepeat","img/motor_4.png","70","70","motor","4","300","1","0","0","",""
"null","","279664","HierDyhhbr7swu","fvd6wp0vg7","msl000861","iti","img/motor_blank.png","null","70","motor","","","","","","",""
"418","","280091","HierDyhhbr7swu","fvd6wp0vg7","msl000861","motor","img/motor_3.png","68","68","motor","3","301","1","0","0","",""
"null","","280201","HierDyhhbr7swu","fvd6wp0vg7","msl000861","iti","img/motor_blank.png","null","68","motor","","","","","","",""
"514","","280726","HierDyhhbr7swu","fvd6wp0vg7","msl000861","motor","img/motor_6.png","74","74","motor","6","302","1","0","0","",""
"null","","280836","HierDyhhbr7swu","fvd6wp0vg7","msl000861","iti","img/motor_blank.png","null","74","motor","","","","","","",""
"493","","281336","HierDyhhbr7swu","fvd6wp0vg7","msl000861","motor","img/motor_6.png","74","74","motor","6","303","1","0","0","",""
"null","","281446","HierDyhhbr7swu","fvd6wp0vg7","msl000861","iti","img/motor_blank.png","null","74","motor","","","","","","",""
"485","","281942","HierDyhhbr7swu","fvd6wp0vg7","msl000861","motor","img/motor_2.png","68","83","motor","2","304","0","1","0","",""
"346","","282297","HierDyhhbr7swu","fvd6wp0vg7","msl000861","motorRepeat","img/motor_2.png","83","83","motor","2","304","1","0","0","",""
"null","","282409","HierDyhhbr7swu","fvd6wp0vg7","msl000861","iti","img/motor_blank.png","null","83","motor","","","","","","",""
"496","","282914","HierDyhhbr7swu","fvd6wp0vg7","msl000861","motor","img/motor_3.png","68","68","motor","3","305","1","0","0","",""
"null","","283026","HierDyhhbr7swu","fvd6wp0vg7","msl000861","iti","img/motor_blank.png","null","68","motor","","","","","","",""
"522","","283557","HierDyhhbr7swu","fvd6wp0vg7","msl000861","motor","img/motor_3.png","68","68","motor","3","306","1","0","0","",""
"null","","283667","HierDyhhbr7swu","fvd6wp0vg7","msl000861","iti","img/motor_blank.png","null","68","motor","","","","","","",""
"581","","284258","HierDyhhbr7swu","fvd6wp0vg7","msl000861","motor","img/motor_8.png","76","76","motor","8","307","1","0","0","",""
"null","","284366","HierDyhhbr7swu","fvd6wp0vg7","msl000861","iti","img/motor_blank.png","null","76","motor","","","","","","",""
"451","","284825","HierDyhhbr7swu","fvd6wp0vg7","msl000861","motor","img/motor_4.png","70","70","motor","4","308","1","0","0","",""
"null","","284937","HierDyhhbr7swu","fvd6wp0vg7","msl000861","iti","img/motor_blank.png","null","70","motor","","","","","","",""
"452","","285398","HierDyhhbr7swu","fvd6wp0vg7","msl000861","motor","img/motor_5.png","72","72","motor","5","309","1","0","0","",""
"null","","285509","HierDyhhbr7swu","fvd6wp0vg7","msl000861","iti","img/motor_blank.png","null","72","motor","","","","","","",""
"696","","286215","HierDyhhbr7swu","fvd6wp0vg7","msl000861","motor","img/motor_7.png","75","75","motor","7","310","1","0","0","",""
"null","","286324","HierDyhhbr7swu","fvd6wp0vg7","msl000861","iti","img/motor_blank.png","null","75","motor","","","","","","",""
"333","","286666","HierDyhhbr7swu","fvd6wp0vg7","msl000861","motor","img/motor_5.png","72","72","motor","5","311","1","0","0","",""
"null","","286776","HierDyhhbr7swu","fvd6wp0vg7","msl000861","iti","img/motor_blank.png","null","72","motor","","","","","","",""
"1380","","288167","HierDyhhbr7swu","fvd6wp0vg7","msl000861","motor","img/motor_8.png","76","76","motor","8","312","1","0","0","",""
"null","","288274","HierDyhhbr7swu","fvd6wp0vg7","msl000861","iti","img/motor_blank.png","null","76","motor","","","","","","",""
"565","","288846","HierDyhhbr7swu","fvd6wp0vg7","msl000861","motor","img/motor_6.png","74","74","motor","6","313","1","0","0","",""
"null","","288955","HierDyhhbr7swu","fvd6wp0vg7","msl000861","iti","img/motor_blank.png","null","74","motor","","","","","","",""
"491","","289456","HierDyhhbr7swu","fvd6wp0vg7","msl000861","motor","img/motor_8.png","76","76","motor","8","314","1","0","0","",""
"null","","289564","HierDyhhbr7swu","fvd6wp0vg7","msl000861","iti","img/motor_blank.png","null","76","motor","","","","","","",""
"530","","290103","HierDyhhbr7swu","fvd6wp0vg7","msl000861","motor","img/motor_7.png","75","75","motor","7","315","1","0","0","",""
"null","","290212","HierDyhhbr7swu","fvd6wp0vg7","msl000861","iti","img/motor_blank.png","null","75","motor","","","","","","",""
"484","","290706","HierDyhhbr7swu","fvd6wp0vg7","msl000861","motor","img/motor_1.png","65","65","motor","1","316","1","0","0","",""
"null","","290814","HierDyhhbr7swu","fvd6wp0vg7","msl000861","iti","img/motor_blank.png","null","65","motor","","","","","","",""
"379","","291202","HierDyhhbr7swu","fvd6wp0vg7","msl000861","motor","img/motor_8.png","76","76","motor","8","317","1","0","0","",""
"null","","291310","HierDyhhbr7swu","fvd6wp0vg7","msl000861","iti","img/motor_blank.png","null","76","motor","","","","","","",""
"410","","291728","HierDyhhbr7swu","fvd6wp0vg7","msl000861","motor","img/motor_1.png","65","65","motor","1","318","1","0","0","",""
"null","","291839","HierDyhhbr7swu","fvd6wp0vg7","msl000861","iti","img/motor_blank.png","null","65","motor","","","","","","",""
"317","","292166","HierDyhhbr7swu","fvd6wp0vg7","msl000861","motor","img/motor_8.png","76","76","motor","8","319","1","0","0","",""
"null","","292276","HierDyhhbr7swu","fvd6wp0vg7","msl000861","iti","img/motor_blank.png","null","76","motor","","","","","","",""
"471","","292756","HierDyhhbr7swu","fvd6wp0vg7","msl000861","motor","img/motor_5.png","72","72","motor","5","320","1","0","0","",""
"null","","292868","HierDyhhbr7swu","fvd6wp0vg7","msl000861","iti","img/motor_blank.png","null","72","motor","","","","","","",""
"467","","293343","HierDyhhbr7swu","fvd6wp0vg7","msl000861","motor","img/motor_2.png","68","83","motor","2","321","0","1","0","",""
"247","","293600","HierDyhhbr7swu","fvd6wp0vg7","msl000861","motorRepeat","img/motor_2.png","83","83","motor","2","321","1","0","0","",""
"null","","293712","HierDyhhbr7swu","fvd6wp0vg7","msl000861","iti","img/motor_blank.png","null","83","motor","","","","","","",""
"747","","294469","HierDyhhbr7swu","fvd6wp0vg7","msl000861","motor","img/motor_4.png","70","70","motor","4","322","1","0","0","",""
"null","","294579","HierDyhhbr7swu","fvd6wp0vg7","msl000861","iti","img/motor_blank.png","null","70","motor","","","","","","",""
"528","","295117","HierDyhhbr7swu","fvd6wp0vg7","msl000861","motor","img/motor_7.png","75","75","motor","7","323","1","0","0","",""
"null","","295228","HierDyhhbr7swu","fvd6wp0vg7","msl000861","iti","img/motor_blank.png","null","75","motor","","","","","","",""
"757","","295994","HierDyhhbr7swu","fvd6wp0vg7","msl000861","motor","img/motor_5.png","72","72","motor","5","324","1","0","0","",""
"null","","296104","HierDyhhbr7swu","fvd6wp0vg7","msl000861","iti","img/motor_blank.png","null","72","motor","","","","","","",""
"583","","296697","HierDyhhbr7swu","fvd6wp0vg7","msl000861","motor","img/motor_7.png","75","75","motor","7","325","1","0","0","",""
"null","","296806","HierDyhhbr7swu","fvd6wp0vg7","msl000861","iti","img/motor_blank.png","null","75","motor","","","","","","",""
"402","","297217","HierDyhhbr7swu","fvd6wp0vg7","msl000861","motor","img/motor_5.png","72","72","motor","5","326","1","0","0","",""
"null","","297326","HierDyhhbr7swu","fvd6wp0vg7","msl000861","iti","img/motor_blank.png","null","72","motor","","","","","","",""
"325","","297662","HierDyhhbr7swu","fvd6wp0vg7","msl000861","motor","img/motor_6.png","75","74","motor","6","327","0","1","0","",""
"280","","297951","HierDyhhbr7swu","fvd6wp0vg7","msl000861","motorRepeat","img/motor_6.png","74","74","motor","6","327","1","0","0","",""
"null","","298061","HierDyhhbr7swu","fvd6wp0vg7","msl000861","iti","img/motor_blank.png","null","74","motor","","","","","","",""
"450","","298521","HierDyhhbr7swu","fvd6wp0vg7","msl000861","motor","img/motor_1.png","65","65","motor","1","328","1","0","0","",""
"null","","298632","HierDyhhbr7swu","fvd6wp0vg7","msl000861","iti","img/motor_blank.png","null","65","motor","","","","","","",""
"491","","299132","HierDyhhbr7swu","fvd6wp0vg7","msl000861","motor","img/motor_7.png","75","75","motor","7","329","1","0","0","",""
"null","","299243","HierDyhhbr7swu","fvd6wp0vg7","msl000861","iti","img/motor_blank.png","null","75","motor","","","","","","",""
"567","","299818","HierDyhhbr7swu","fvd6wp0vg7","msl000861","motor","img/motor_8.png","76","76","motor","8","330","1","0","0","",""
"null","","299929","HierDyhhbr7swu","fvd6wp0vg7","msl000861","iti","img/motor_blank.png","null","76","motor","","","","","","",""
"441","","300380","HierDyhhbr7swu","fvd6wp0vg7","msl000861","motor","img/motor_5.png","72","72","motor","5","331","1","0","0","",""
"null","","300490","HierDyhhbr7swu","fvd6wp0vg7","msl000861","iti","img/motor_blank.png","null","72","motor","","","","","","",""
"479","","300978","HierDyhhbr7swu","fvd6wp0vg7","msl000861","motor","img/motor_7.png","75","75","motor","7","332","1","0","0","",""
"null","","301089","HierDyhhbr7swu","fvd6wp0vg7","msl000861","iti","img/motor_blank.png","null","75","motor","","","","","","",""
"430","","301529","HierDyhhbr7swu","fvd6wp0vg7","msl000861","motor","img/motor_7.png","75","75","motor","7","333","1","0","0","",""
"null","","301640","HierDyhhbr7swu","fvd6wp0vg7","msl000861","iti","img/motor_blank.png","null","75","motor","","","","","","",""
"433","","302081","HierDyhhbr7swu","fvd6wp0vg7","msl000861","motor","img/motor_8.png","76","76","motor","8","334","1","0","0","",""
"null","","302192","HierDyhhbr7swu","fvd6wp0vg7","msl000861","iti","img/motor_blank.png","null","76","motor","","","","","","",""
"526","","302726","HierDyhhbr7swu","fvd6wp0vg7","msl000861","motor","img/motor_3.png","70","68","motor","3","335","0","1","0","",""
"299","","303036","HierDyhhbr7swu","fvd6wp0vg7","msl000861","motorRepeat","img/motor_3.png","68","68","motor","3","335","1","0","0","",""
