"rt","responses","time_elapsed","subject","prolificID","demoID","trialType","stimulus","key_press","corrresp","phase","stimNum","trialNum","corr","repeatTrial","motorSwitch","pracCounter","hierarchy"
"4826","{""Q0"":""msl000987""}","4849","HierDyhunujzhu","6kehsl3jmr","msl000987","","","","","","","","","","","",""
"869","","5726","HierDyhunujzhu","6kehsl3jmr","msl000987","","","","","","","","","","","",""
"","","7665","HierDyhunujzhu","6kehsl3jmr","msl000987","fullscreen","","","","","","","","","","",""
"67005","","74679","HierDyhunujzhu","6kehsl3jmr","msl000987","","","","","","","","","","","",""
"2058","","76751","HierDyhunujzhu","6kehsl3jmr","msl000987","motor","img/motor_5.png","72","72","motor","5","1","1","0","0","",""
"null","","76860","HierDyhunujzhu","6kehsl3jmr","msl000987","iti","img/motor_blank.png","null","72","motor","","","","","","",""
"566","","77434","HierDyhunujzhu","6kehsl3jmr","msl000987","motor","img/motor_6.png","74","74","motor","6","2","1","0","0","",""
"null","","77544","HierDyhunujzhu","6kehsl3jmr","msl000987","iti","img/motor_blank.png","null","74","motor","","","","","","",""
"766","","78319","HierDyhunujzhu","6kehsl3jmr","msl000987","motor","img/motor_4.png","70","70","motor","4","3","1","0","0","",""
"null","","78427","HierDyhunujzhu","6kehsl3jmr","msl000987","iti","img/motor_blank.png","null","70","motor","","","","","","",""
"540","","78976","HierDyhunujzhu","6kehsl3jmr","msl000987","motor","img/motor_8.png","76","76","motor","8","4","1","0","0","",""
"null","","79086","HierDyhunujzhu","6kehsl3jmr","msl000987","iti","img/motor_blank.png","null","76","motor","","","","","","",""
"792","","79886","HierDyhunujzhu","6kehsl3jmr","msl000987","motor","img/motor_2.png","83","83","motor","2","5","1","0","0","",""
"null","","79996","HierDyhunujzhu","6kehsl3jmr","msl000987","iti","img/motor_blank.png","null","83","motor","","","","","","",""
"1228","","81234","HierDyhunujzhu","6kehsl3jmr","msl000987","motor","img/motor_2.png","83","83","motor","2","6","1","0","0","",""
"null","","81344","HierDyhunujzhu","6kehsl3jmr","msl000987","iti","img/motor_blank.png","null","83","motor","","","","","","",""
"664","","82016","HierDyhunujzhu","6kehsl3jmr","msl000987","motor","img/motor_7.png","75","75","motor","7","7","1","0","0","",""
"null","","82124","HierDyhunujzhu","6kehsl3jmr","msl000987","iti","img/motor_blank.png","null","75","motor","","","","","","",""
"663","","82798","HierDyhunujzhu","6kehsl3jmr","msl000987","motor","img/motor_4.png","70","70","motor","4","8","1","0","0","",""
"null","","82906","HierDyhunujzhu","6kehsl3jmr","msl000987","iti","img/motor_blank.png","null","70","motor","","","","","","",""
"786","","83700","HierDyhunujzhu","6kehsl3jmr","msl000987","motor","img/motor_3.png","68","68","motor","3","9","1","0","0","",""
"null","","83809","HierDyhunujzhu","6kehsl3jmr","msl000987","iti","img/motor_blank.png","null","68","motor","","","","","","",""
"673","","84490","HierDyhunujzhu","6kehsl3jmr","msl000987","motor","img/motor_6.png","74","74","motor","6","10","1","0","0","",""
"null","","84601","HierDyhunujzhu","6kehsl3jmr","msl000987","iti","img/motor_blank.png","null","74","motor","","","","","","",""
"543","","85154","HierDyhunujzhu","6kehsl3jmr","msl000987","motor","img/motor_3.png","68","68","motor","3","11","1","0","0","",""
"null","","85264","HierDyhunujzhu","6kehsl3jmr","msl000987","iti","img/motor_blank.png","null","68","motor","","","","","","",""
"344","","85615","HierDyhunujzhu","6kehsl3jmr","msl000987","motor","img/motor_6.png","74","74","motor","6","12","1","0","0","",""
"null","","85725","HierDyhunujzhu","6kehsl3jmr","msl000987","iti","img/motor_blank.png","null","74","motor","","","","","","",""
"428","","86160","HierDyhunujzhu","6kehsl3jmr","msl000987","motor","img/motor_3.png","68","68","motor","3","13","1","0","0","",""
"null","","86269","HierDyhunujzhu","6kehsl3jmr","msl000987","iti","img/motor_blank.png","null","68","motor","","","","","","",""
"311","","86589","HierDyhunujzhu","6kehsl3jmr","msl000987","motor","img/motor_6.png","74","74","motor","6","14","1","0","0","",""
"null","","86699","HierDyhunujzhu","6kehsl3jmr","msl000987","iti","img/motor_blank.png","null","74","motor","","","","","","",""
"465","","87171","HierDyhunujzhu","6kehsl3jmr","msl000987","motor","img/motor_5.png","72","72","motor","5","15","1","0","0","",""
"null","","87279","HierDyhunujzhu","6kehsl3jmr","msl000987","iti","img/motor_blank.png","null","72","motor","","","","","","",""
"344","","87631","HierDyhunujzhu","6kehsl3jmr","msl000987","motor","img/motor_6.png","74","74","motor","6","16","1","0","0","",""
"null","","87739","HierDyhunujzhu","6kehsl3jmr","msl000987","iti","img/motor_blank.png","null","74","motor","","","","","","",""
"661","","88409","HierDyhunujzhu","6kehsl3jmr","msl000987","motor","img/motor_1.png","65","65","motor","1","17","1","0","0","",""
"null","","88519","HierDyhunujzhu","6kehsl3jmr","msl000987","iti","img/motor_blank.png","null","65","motor","","","","","","",""
"373","","88900","HierDyhunujzhu","6kehsl3jmr","msl000987","motor","img/motor_1.png","65","65","motor","1","18","1","0","0","",""
"null","","89010","HierDyhunujzhu","6kehsl3jmr","msl000987","iti","img/motor_blank.png","null","65","motor","","","","","","",""
"461","","89480","HierDyhunujzhu","6kehsl3jmr","msl000987","motor","img/motor_6.png","74","74","motor","6","19","1","0","0","",""
"null","","89589","HierDyhunujzhu","6kehsl3jmr","msl000987","iti","img/motor_blank.png","null","74","motor","","","","","","",""
"414","","90012","HierDyhunujzhu","6kehsl3jmr","msl000987","motor","img/motor_2.png","68","83","motor","2","20","0","1","0","",""
"504","","90524","HierDyhunujzhu","6kehsl3jmr","msl000987","motorRepeat","img/motor_2.png","65","83","motor","2","20","0","1","0","",""
"319","","90853","HierDyhunujzhu","6kehsl3jmr","msl000987","motorRepeat","img/motor_2.png","83","83","motor","2","20","1","0","0","",""
"null","","90962","HierDyhunujzhu","6kehsl3jmr","msl000987","iti","img/motor_blank.png","null","83","motor","","","","","","",""
"560","","91532","HierDyhunujzhu","6kehsl3jmr","msl000987","motor","img/motor_4.png","70","70","motor","4","21","1","0","0","",""
"null","","91642","HierDyhunujzhu","6kehsl3jmr","msl000987","iti","img/motor_blank.png","null","70","motor","","","","","","",""
"640","","92291","HierDyhunujzhu","6kehsl3jmr","msl000987","motor","img/motor_5.png","72","72","motor","5","22","1","0","0","",""
"null","","92400","HierDyhunujzhu","6kehsl3jmr","msl000987","iti","img/motor_blank.png","null","72","motor","","","","","","",""
"341","","92750","HierDyhunujzhu","6kehsl3jmr","msl000987","motor","img/motor_8.png","76","76","motor","8","23","1","0","0","",""
"null","","92859","HierDyhunujzhu","6kehsl3jmr","msl000987","iti","img/motor_blank.png","null","76","motor","","","","","","",""
"553","","93419","HierDyhunujzhu","6kehsl3jmr","msl000987","motor","img/motor_2.png","83","83","motor","2","24","1","0","0","",""
"null","","93529","HierDyhunujzhu","6kehsl3jmr","msl000987","iti","img/motor_blank.png","null","83","motor","","","","","","",""
"384","","93921","HierDyhunujzhu","6kehsl3jmr","msl000987","motor","img/motor_2.png","83","83","motor","2","25","1","0","0","",""
"null","","94032","HierDyhunujzhu","6kehsl3jmr","msl000987","iti","img/motor_blank.png","null","83","motor","","","","","","",""
"520","","94561","HierDyhunujzhu","6kehsl3jmr","msl000987","motor","img/motor_4.png","83","70","motor","4","26","0","1","0","",""
"143","","94714","HierDyhunujzhu","6kehsl3jmr","msl000987","motorRepeat","img/motor_4.png","70","70","motor","4","26","1","0","0","",""
"null","","94825","HierDyhunujzhu","6kehsl3jmr","msl000987","iti","img/motor_blank.png","null","70","motor","","","","","","",""
"357","","95191","HierDyhunujzhu","6kehsl3jmr","msl000987","motor","img/motor_4.png","70","70","motor","4","27","1","0","0","",""
"null","","95299","HierDyhunujzhu","6kehsl3jmr","msl000987","iti","img/motor_blank.png","null","70","motor","","","","","","",""
"518","","95826","HierDyhunujzhu","6kehsl3jmr","msl000987","motor","img/motor_5.png","70","72","motor","5","28","0","1","0","",""
"161","","95997","HierDyhunujzhu","6kehsl3jmr","msl000987","motorRepeat","img/motor_5.png","72","72","motor","5","28","1","0","0","",""
"null","","96107","HierDyhunujzhu","6kehsl3jmr","msl000987","iti","img/motor_blank.png","null","72","motor","","","","","","",""
"465","","96580","HierDyhunujzhu","6kehsl3jmr","msl000987","motor","img/motor_7.png","76","75","motor","7","29","0","1","0","",""
"283","","96871","HierDyhunujzhu","6kehsl3jmr","msl000987","motorRepeat","img/motor_7.png","74","75","motor","7","29","0","1","0","",""
"233","","97112","HierDyhunujzhu","6kehsl3jmr","msl000987","motorRepeat","img/motor_7.png","75","75","motor","7","29","1","0","0","",""
"null","","97220","HierDyhunujzhu","6kehsl3jmr","msl000987","iti","img/motor_blank.png","null","75","motor","","","","","","",""
"519","","97749","HierDyhunujzhu","6kehsl3jmr","msl000987","motor","img/motor_2.png","83","83","motor","2","30","1","0","0","",""
"null","","97856","HierDyhunujzhu","6kehsl3jmr","msl000987","iti","img/motor_blank.png","null","83","motor","","","","","","",""
"461","","98326","HierDyhunujzhu","6kehsl3jmr","msl000987","motor","img/motor_8.png","76","76","motor","8","31","1","0","0","",""
"null","","98435","HierDyhunujzhu","6kehsl3jmr","msl000987","iti","img/motor_blank.png","null","76","motor","","","","","","",""
"585","","99028","HierDyhunujzhu","6kehsl3jmr","msl000987","motor","img/motor_4.png","70","70","motor","4","32","1","0","0","",""
"null","","99135","HierDyhunujzhu","6kehsl3jmr","msl000987","iti","img/motor_blank.png","null","70","motor","","","","","","",""
"307","","99452","HierDyhunujzhu","6kehsl3jmr","msl000987","motor","img/motor_4.png","70","70","motor","4","33","1","0","0","",""
"null","","99562","HierDyhunujzhu","6kehsl3jmr","msl000987","iti","img/motor_blank.png","null","70","motor","","","","","","",""
"475","","100047","HierDyhunujzhu","6kehsl3jmr","msl000987","motor","img/motor_2.png","83","83","motor","2","34","1","0","0","",""
"null","","100158","HierDyhunujzhu","6kehsl3jmr","msl000987","iti","img/motor_blank.png","null","83","motor","","","","","","",""
"635","","100800","HierDyhunujzhu","6kehsl3jmr","msl000987","motor","img/motor_7.png","75","75","motor","7","35","1","0","0","",""
"null","","100908","HierDyhunujzhu","6kehsl3jmr","msl000987","iti","img/motor_blank.png","null","75","motor","","","","","","",""
"464","","101379","HierDyhunujzhu","6kehsl3jmr","msl000987","motor","img/motor_2.png","83","83","motor","2","36","1","0","0","",""
"null","","101487","HierDyhunujzhu","6kehsl3jmr","msl000987","iti","img/motor_blank.png","null","83","motor","","","","","","",""
"309","","101805","HierDyhunujzhu","6kehsl3jmr","msl000987","motor","img/motor_7.png","75","75","motor","7","37","1","0","0","",""
"null","","101913","HierDyhunujzhu","6kehsl3jmr","msl000987","iti","img/motor_blank.png","null","75","motor","","","","","","",""
"410","","102331","HierDyhunujzhu","6kehsl3jmr","msl000987","motor","img/motor_6.png","74","74","motor","6","38","1","0","0","",""
"null","","102441","HierDyhunujzhu","6kehsl3jmr","msl000987","iti","img/motor_blank.png","null","74","motor","","","","","","",""
"447","","102897","HierDyhunujzhu","6kehsl3jmr","msl000987","motor","img/motor_7.png","75","75","motor","7","39","1","0","0","",""
"null","","103007","HierDyhunujzhu","6kehsl3jmr","msl000987","iti","img/motor_blank.png","null","75","motor","","","","","","",""
"340","","103355","HierDyhunujzhu","6kehsl3jmr","msl000987","motor","img/motor_6.png","74","74","motor","6","40","1","0","0","",""
"null","","103463","HierDyhunujzhu","6kehsl3jmr","msl000987","iti","img/motor_blank.png","null","74","motor","","","","","","",""
"501","","103971","HierDyhunujzhu","6kehsl3jmr","msl000987","motor","img/motor_4.png","70","70","motor","4","41","1","0","0","",""
"null","","104080","HierDyhunujzhu","6kehsl3jmr","msl000987","iti","img/motor_blank.png","null","70","motor","","","","","","",""
"580","","104669","HierDyhunujzhu","6kehsl3jmr","msl000987","motor","img/motor_3.png","68","68","motor","3","42","1","0","0","",""
"null","","104779","HierDyhunujzhu","6kehsl3jmr","msl000987","iti","img/motor_blank.png","null","68","motor","","","","","","",""
"663","","105450","HierDyhunujzhu","6kehsl3jmr","msl000987","motor","img/motor_6.png","74","74","motor","6","43","1","0","0","",""
"null","","105561","HierDyhunujzhu","6kehsl3jmr","msl000987","iti","img/motor_blank.png","null","74","motor","","","","","","",""
"606","","106175","HierDyhunujzhu","6kehsl3jmr","msl000987","motor","img/motor_5.png","72","72","motor","5","44","1","0","0","",""
"null","","106285","HierDyhunujzhu","6kehsl3jmr","msl000987","iti","img/motor_blank.png","null","72","motor","","","","","","",""
"569","","106861","HierDyhunujzhu","6kehsl3jmr","msl000987","motor","img/motor_4.png","70","70","motor","4","45","1","0","0","",""
"null","","106972","HierDyhunujzhu","6kehsl3jmr","msl000987","iti","img/motor_blank.png","null","70","motor","","","","","","",""
"441","","107423","HierDyhunujzhu","6kehsl3jmr","msl000987","motor","img/motor_7.png","74","75","motor","7","46","0","1","0","",""
"216","","107649","HierDyhunujzhu","6kehsl3jmr","msl000987","motorRepeat","img/motor_7.png","75","75","motor","7","46","1","0","0","",""
"null","","107758","HierDyhunujzhu","6kehsl3jmr","msl000987","iti","img/motor_blank.png","null","75","motor","","","","","","",""
"553","","108320","HierDyhunujzhu","6kehsl3jmr","msl000987","motor","img/motor_4.png","70","70","motor","4","47","1","0","0","",""
"null","","108429","HierDyhunujzhu","6kehsl3jmr","msl000987","iti","img/motor_blank.png","null","70","motor","","","","","","",""
"512","","108950","HierDyhunujzhu","6kehsl3jmr","msl000987","motor","img/motor_1.png","65","65","motor","1","48","1","0","0","",""
"null","","109059","HierDyhunujzhu","6kehsl3jmr","msl000987","iti","img/motor_blank.png","null","65","motor","","","","","","",""
"485","","109552","HierDyhunujzhu","6kehsl3jmr","msl000987","motor","img/motor_7.png","75","75","motor","7","49","1","0","0","",""
"null","","109663","HierDyhunujzhu","6kehsl3jmr","msl000987","iti","img/motor_blank.png","null","75","motor","","","","","","",""
"436","","110108","HierDyhunujzhu","6kehsl3jmr","msl000987","motor","img/motor_1.png","65","65","motor","1","50","1","0","0","",""
"null","","110219","HierDyhunujzhu","6kehsl3jmr","msl000987","iti","img/motor_blank.png","null","65","motor","","","","","","",""
"449","","110674","HierDyhunujzhu","6kehsl3jmr","msl000987","motor","img/motor_8.png","76","76","motor","8","51","1","0","0","",""
"null","","110781","HierDyhunujzhu","6kehsl3jmr","msl000987","iti","img/motor_blank.png","null","76","motor","","","","","","",""
"544","","111333","HierDyhunujzhu","6kehsl3jmr","msl000987","motor","img/motor_6.png","74","74","motor","6","52","1","0","0","",""
"null","","111444","HierDyhunujzhu","6kehsl3jmr","msl000987","iti","img/motor_blank.png","null","74","motor","","","","","","",""
"392","","111844","HierDyhunujzhu","6kehsl3jmr","msl000987","motor","img/motor_5.png","72","72","motor","5","53","1","0","0","",""
"null","","111954","HierDyhunujzhu","6kehsl3jmr","msl000987","iti","img/motor_blank.png","null","72","motor","","","","","","",""
"694","","112658","HierDyhunujzhu","6kehsl3jmr","msl000987","motor","img/motor_3.png","70","68","motor","3","54","0","1","0","",""
"371","","113039","HierDyhunujzhu","6kehsl3jmr","msl000987","motorRepeat","img/motor_3.png","68","68","motor","3","54","1","0","0","",""
"null","","113149","HierDyhunujzhu","6kehsl3jmr","msl000987","iti","img/motor_blank.png","null","68","motor","","","","","","",""
"524","","113680","HierDyhunujzhu","6kehsl3jmr","msl000987","motor","img/motor_7.png","75","75","motor","7","55","1","0","0","",""
"null","","113790","HierDyhunujzhu","6kehsl3jmr","msl000987","iti","img/motor_blank.png","null","75","motor","","","","","","",""
"465","","114263","HierDyhunujzhu","6kehsl3jmr","msl000987","motor","img/motor_7.png","75","75","motor","7","56","1","0","0","",""
"null","","114371","HierDyhunujzhu","6kehsl3jmr","msl000987","iti","img/motor_blank.png","null","75","motor","","","","","","",""
"472","","114854","HierDyhunujzhu","6kehsl3jmr","msl000987","motor","img/motor_4.png","70","70","motor","4","57","1","0","0","",""
"null","","114963","HierDyhunujzhu","6kehsl3jmr","msl000987","iti","img/motor_blank.png","null","70","motor","","","","","","",""
"658","","115628","HierDyhunujzhu","6kehsl3jmr","msl000987","motor","img/motor_2.png","83","83","motor","2","58","1","0","0","",""
"null","","115738","HierDyhunujzhu","6kehsl3jmr","msl000987","iti","img/motor_blank.png","null","83","motor","","","","","","",""
"413","","116159","HierDyhunujzhu","6kehsl3jmr","msl000987","motor","img/motor_4.png","70","70","motor","4","59","1","0","0","",""
"null","","116270","HierDyhunujzhu","6kehsl3jmr","msl000987","iti","img/motor_blank.png","null","70","motor","","","","","","",""
"554","","116834","HierDyhunujzhu","6kehsl3jmr","msl000987","motor","img/motor_2.png","83","83","motor","2","60","1","0","0","",""
"null","","116943","HierDyhunujzhu","6kehsl3jmr","msl000987","iti","img/motor_blank.png","null","83","motor","","","","","","",""
"433","","117384","HierDyhunujzhu","6kehsl3jmr","msl000987","motor","img/motor_8.png","76","76","motor","8","61","1","0","0","",""
"null","","117492","HierDyhunujzhu","6kehsl3jmr","msl000987","iti","img/motor_blank.png","null","76","motor","","","","","","",""
"466","","117968","HierDyhunujzhu","6kehsl3jmr","msl000987","motor","img/motor_7.png","75","75","motor","7","62","1","0","0","",""
"null","","118077","HierDyhunujzhu","6kehsl3jmr","msl000987","iti","img/motor_blank.png","null","75","motor","","","","","","",""
"383","","118470","HierDyhunujzhu","6kehsl3jmr","msl000987","motor","img/motor_5.png","72","72","motor","5","63","1","0","0","",""
"null","","118580","HierDyhunujzhu","6kehsl3jmr","msl000987","iti","img/motor_blank.png","null","72","motor","","","","","","",""
"361","","118949","HierDyhunujzhu","6kehsl3jmr","msl000987","motor","img/motor_7.png","75","75","motor","7","64","1","0","0","",""
"null","","119059","HierDyhunujzhu","6kehsl3jmr","msl000987","iti","img/motor_blank.png","null","75","motor","","","","","","",""
"405","","119473","HierDyhunujzhu","6kehsl3jmr","msl000987","motor","img/motor_8.png","76","76","motor","8","65","1","0","0","",""
"null","","119583","HierDyhunujzhu","6kehsl3jmr","msl000987","iti","img/motor_blank.png","null","76","motor","","","","","","",""
"480","","120071","HierDyhunujzhu","6kehsl3jmr","msl000987","motor","img/motor_6.png","74","74","motor","6","66","1","0","0","",""
"null","","120182","HierDyhunujzhu","6kehsl3jmr","msl000987","iti","img/motor_blank.png","null","74","motor","","","","","","",""
"446","","120636","HierDyhunujzhu","6kehsl3jmr","msl000987","motor","img/motor_4.png","70","70","motor","4","67","1","0","0","",""
"null","","120747","HierDyhunujzhu","6kehsl3jmr","msl000987","iti","img/motor_blank.png","null","70","motor","","","","","","",""
"463","","121219","HierDyhunujzhu","6kehsl3jmr","msl000987","motor","img/motor_6.png","74","74","motor","6","68","1","0","0","",""
"null","","121330","HierDyhunujzhu","6kehsl3jmr","msl000987","iti","img/motor_blank.png","null","74","motor","","","","","","",""
"848","","122187","HierDyhunujzhu","6kehsl3jmr","msl000987","motor","img/motor_3.png","68","68","motor","3","69","1","0","0","",""
"null","","122297","HierDyhunujzhu","6kehsl3jmr","msl000987","iti","img/motor_blank.png","null","68","motor","","","","","","",""
"353","","122659","HierDyhunujzhu","6kehsl3jmr","msl000987","motor","img/motor_2.png","83","83","motor","2","70","1","0","0","",""
"null","","122768","HierDyhunujzhu","6kehsl3jmr","msl000987","iti","img/motor_blank.png","null","83","motor","","","","","","",""
"545","","123323","HierDyhunujzhu","6kehsl3jmr","msl000987","motor","img/motor_5.png","72","72","motor","5","71","1","0","0","",""
"null","","123432","HierDyhunujzhu","6kehsl3jmr","msl000987","iti","img/motor_blank.png","null","72","motor","","","","","","",""
"331","","123772","HierDyhunujzhu","6kehsl3jmr","msl000987","motor","img/motor_8.png","76","76","motor","8","72","1","0","0","",""
"null","","123882","HierDyhunujzhu","6kehsl3jmr","msl000987","iti","img/motor_blank.png","null","76","motor","","","","","","",""
"507","","124396","HierDyhunujzhu","6kehsl3jmr","msl000987","motor","img/motor_6.png","74","74","motor","6","73","1","0","0","",""
"null","","124504","HierDyhunujzhu","6kehsl3jmr","msl000987","iti","img/motor_blank.png","null","74","motor","","","","","","",""
"552","","125063","HierDyhunujzhu","6kehsl3jmr","msl000987","motor","img/motor_7.png","76","75","motor","7","74","0","1","0","",""
"208","","125277","HierDyhunujzhu","6kehsl3jmr","msl000987","motorRepeat","img/motor_7.png","75","75","motor","7","74","1","0","0","",""
"null","","125386","HierDyhunujzhu","6kehsl3jmr","msl000987","iti","img/motor_blank.png","null","75","motor","","","","","","",""
"1073","","126467","HierDyhunujzhu","6kehsl3jmr","msl000987","motor","img/motor_5.png","72","72","motor","5","75","1","0","0","",""
"null","","126575","HierDyhunujzhu","6kehsl3jmr","msl000987","iti","img/motor_blank.png","null","72","motor","","","","","","",""
"335","","126918","HierDyhunujzhu","6kehsl3jmr","msl000987","motor","img/motor_5.png","72","72","motor","5","76","1","0","0","",""
"null","","127024","HierDyhunujzhu","6kehsl3jmr","msl000987","iti","img/motor_blank.png","null","72","motor","","","","","","",""
"793","","127824","HierDyhunujzhu","6kehsl3jmr","msl000987","motor","img/motor_2.png","83","83","motor","2","77","1","0","0","",""
"null","","127931","HierDyhunujzhu","6kehsl3jmr","msl000987","iti","img/motor_blank.png","null","83","motor","","","","","","",""
"376","","128315","HierDyhunujzhu","6kehsl3jmr","msl000987","motor","img/motor_1.png","65","65","motor","1","78","1","0","0","",""
"null","","128422","HierDyhunujzhu","6kehsl3jmr","msl000987","iti","img/motor_blank.png","null","65","motor","","","","","","",""
"573","","129002","HierDyhunujzhu","6kehsl3jmr","msl000987","motor","img/motor_3.png","68","68","motor","3","79","1","0","0","",""
"null","","129110","HierDyhunujzhu","6kehsl3jmr","msl000987","iti","img/motor_blank.png","null","68","motor","","","","","","",""
"434","","129553","HierDyhunujzhu","6kehsl3jmr","msl000987","motor","img/motor_8.png","76","76","motor","8","80","1","0","0","",""
"null","","129662","HierDyhunujzhu","6kehsl3jmr","msl000987","iti","img/motor_blank.png","null","76","motor","","","","","","",""
"530","","130200","HierDyhunujzhu","6kehsl3jmr","msl000987","motor","img/motor_4.png","70","70","motor","4","81","1","0","0","",""
"null","","130310","HierDyhunujzhu","6kehsl3jmr","msl000987","iti","img/motor_blank.png","null","70","motor","","","","","","",""
"373","","130692","HierDyhunujzhu","6kehsl3jmr","msl000987","motor","img/motor_1.png","65","65","motor","1","82","1","0","0","",""
"null","","130803","HierDyhunujzhu","6kehsl3jmr","msl000987","iti","img/motor_blank.png","null","65","motor","","","","","","",""
"351","","131161","HierDyhunujzhu","6kehsl3jmr","msl000987","motor","img/motor_8.png","76","76","motor","8","83","1","0","0","",""
"null","","131271","HierDyhunujzhu","6kehsl3jmr","msl000987","iti","img/motor_blank.png","null","76","motor","","","","","","",""
"476","","131755","HierDyhunujzhu","6kehsl3jmr","msl000987","motor","img/motor_4.png","70","70","motor","4","84","1","0","0","",""
"null","","131865","HierDyhunujzhu","6kehsl3jmr","msl000987","iti","img/motor_blank.png","null","70","motor","","","","","","",""
"428","","132301","HierDyhunujzhu","6kehsl3jmr","msl000987","motor","img/motor_6.png","75","74","motor","6","85","0","1","0","",""
"184","","132491","HierDyhunujzhu","6kehsl3jmr","msl000987","motorRepeat","img/motor_6.png","74","74","motor","6","85","1","0","0","",""
"null","","132598","HierDyhunujzhu","6kehsl3jmr","msl000987","iti","img/motor_blank.png","null","74","motor","","","","","","",""
"305","","132911","HierDyhunujzhu","6kehsl3jmr","msl000987","motor","img/motor_6.png","74","74","motor","6","86","1","0","0","",""
"null","","133020","HierDyhunujzhu","6kehsl3jmr","msl000987","iti","img/motor_blank.png","null","74","motor","","","","","","",""
"643","","133671","HierDyhunujzhu","6kehsl3jmr","msl000987","motor","img/motor_1.png","65","65","motor","1","87","1","0","0","",""
"null","","133780","HierDyhunujzhu","6kehsl3jmr","msl000987","iti","img/motor_blank.png","null","65","motor","","","","","","",""
"546","","134334","HierDyhunujzhu","6kehsl3jmr","msl000987","motor","img/motor_7.png","75","75","motor","7","88","1","0","0","",""
"null","","134443","HierDyhunujzhu","6kehsl3jmr","msl000987","iti","img/motor_blank.png","null","75","motor","","","","","","",""
"319","","134771","HierDyhunujzhu","6kehsl3jmr","msl000987","motor","img/motor_8.png","76","76","motor","8","89","1","0","0","",""
"null","","134878","HierDyhunujzhu","6kehsl3jmr","msl000987","iti","img/motor_blank.png","null","76","motor","","","","","","",""
"430","","135317","HierDyhunujzhu","6kehsl3jmr","msl000987","motor","img/motor_1.png","65","65","motor","1","90","1","0","0","",""
"null","","135426","HierDyhunujzhu","6kehsl3jmr","msl000987","iti","img/motor_blank.png","null","65","motor","","","","","","",""
"508","","135945","HierDyhunujzhu","6kehsl3jmr","msl000987","motor","img/motor_3.png","68","68","motor","3","91","1","0","0","",""
"null","","136056","HierDyhunujzhu","6kehsl3jmr","msl000987","iti","img/motor_blank.png","null","68","motor","","","","","","",""
"515","","136582","HierDyhunujzhu","6kehsl3jmr","msl000987","motor","img/motor_7.png","75","75","motor","7","92","1","0","0","",""
"null","","136693","HierDyhunujzhu","6kehsl3jmr","msl000987","iti","img/motor_blank.png","null","75","motor","","","","","","",""
"395","","137098","HierDyhunujzhu","6kehsl3jmr","msl000987","motor","img/motor_3.png","70","68","motor","3","93","0","1","0","",""
"242","","137350","HierDyhunujzhu","6kehsl3jmr","msl000987","motorRepeat","img/motor_3.png","68","68","motor","3","93","1","0","0","",""
"null","","137461","HierDyhunujzhu","6kehsl3jmr","msl000987","iti","img/motor_blank.png","null","68","motor","","","","","","",""
"461","","137930","HierDyhunujzhu","6kehsl3jmr","msl000987","motor","img/motor_7.png","75","75","motor","7","94","1","0","0","",""
"null","","138039","HierDyhunujzhu","6kehsl3jmr","msl000987","iti","img/motor_blank.png","null","75","motor","","","","","","",""
"531","","138579","HierDyhunujzhu","6kehsl3jmr","msl000987","motor","img/motor_3.png","68","68","motor","3","95","1","0","0","",""
"null","","138689","HierDyhunujzhu","6kehsl3jmr","msl000987","iti","img/motor_blank.png","null","68","motor","","","","","","",""
"396","","139095","HierDyhunujzhu","6kehsl3jmr","msl000987","motor","img/motor_3.png","68","68","motor","3","96","1","0","0","",""
"null","","139205","HierDyhunujzhu","6kehsl3jmr","msl000987","iti","img/motor_blank.png","null","68","motor","","","","","","",""
"422","","139636","HierDyhunujzhu","6kehsl3jmr","msl000987","motor","img/motor_4.png","70","70","motor","4","97","1","0","0","",""
"null","","139745","HierDyhunujzhu","6kehsl3jmr","msl000987","iti","img/motor_blank.png","null","70","motor","","","","","","",""
"302","","140058","HierDyhunujzhu","6kehsl3jmr","msl000987","motor","img/motor_4.png","70","70","motor","4","98","1","0","0","",""
"null","","140170","HierDyhunujzhu","6kehsl3jmr","msl000987","iti","img/motor_blank.png","null","70","motor","","","","","","",""
"564","","140746","HierDyhunujzhu","6kehsl3jmr","msl000987","motor","img/motor_1.png","65","65","motor","1","99","1","0","0","",""
"null","","140857","HierDyhunujzhu","6kehsl3jmr","msl000987","iti","img/motor_blank.png","null","65","motor","","","","","","",""
"457","","141322","HierDyhunujzhu","6kehsl3jmr","msl000987","motor","img/motor_5.png","72","72","motor","5","100","1","0","0","",""
"null","","141431","HierDyhunujzhu","6kehsl3jmr","msl000987","iti","img/motor_blank.png","null","72","motor","","","","","","",""
"336","","141777","HierDyhunujzhu","6kehsl3jmr","msl000987","motor","img/motor_8.png","76","76","motor","8","101","1","0","0","",""
"null","","141887","HierDyhunujzhu","6kehsl3jmr","msl000987","iti","img/motor_blank.png","null","76","motor","","","","","","",""
"395","","142292","HierDyhunujzhu","6kehsl3jmr","msl000987","motor","img/motor_4.png","70","70","motor","4","102","1","0","0","",""
"null","","142402","HierDyhunujzhu","6kehsl3jmr","msl000987","iti","img/motor_blank.png","null","70","motor","","","","","","",""
"340","","142753","HierDyhunujzhu","6kehsl3jmr","msl000987","motor","img/motor_3.png","68","68","motor","3","103","1","0","0","",""
"null","","142863","HierDyhunujzhu","6kehsl3jmr","msl000987","iti","img/motor_blank.png","null","68","motor","","","","","","",""
"395","","143265","HierDyhunujzhu","6kehsl3jmr","msl000987","motor","img/motor_8.png","76","76","motor","8","104","1","0","0","",""
"null","","143375","HierDyhunujzhu","6kehsl3jmr","msl000987","iti","img/motor_blank.png","null","76","motor","","","","","","",""
"455","","143838","HierDyhunujzhu","6kehsl3jmr","msl000987","motor","img/motor_3.png","68","68","motor","3","105","1","0","0","",""
"null","","143949","HierDyhunujzhu","6kehsl3jmr","msl000987","iti","img/motor_blank.png","null","68","motor","","","","","","",""
"276","","144234","HierDyhunujzhu","6kehsl3jmr","msl000987","motor","img/motor_8.png","76","76","motor","8","106","1","0","0","",""
"null","","144345","HierDyhunujzhu","6kehsl3jmr","msl000987","iti","img/motor_blank.png","null","76","motor","","","","","","",""
"472","","144826","HierDyhunujzhu","6kehsl3jmr","msl000987","motor","img/motor_1.png","65","65","motor","1","107","1","0","0","",""
"null","","144935","HierDyhunujzhu","6kehsl3jmr","msl000987","iti","img/motor_blank.png","null","65","motor","","","","","","",""
"359","","145301","HierDyhunujzhu","6kehsl3jmr","msl000987","motor","img/motor_5.png","72","72","motor","5","108","1","0","0","",""
"null","","145412","HierDyhunujzhu","6kehsl3jmr","msl000987","iti","img/motor_blank.png","null","72","motor","","","","","","",""
"548","","145969","HierDyhunujzhu","6kehsl3jmr","msl000987","motor","img/motor_7.png","75","75","motor","7","109","1","0","0","",""
"null","","146079","HierDyhunujzhu","6kehsl3jmr","msl000987","iti","img/motor_blank.png","null","75","motor","","","","","","",""
"603","","146693","HierDyhunujzhu","6kehsl3jmr","msl000987","motor","img/motor_4.png","70","70","motor","4","110","1","0","0","",""
"null","","146803","HierDyhunujzhu","6kehsl3jmr","msl000987","iti","img/motor_blank.png","null","70","motor","","","","","","",""
"355","","147168","HierDyhunujzhu","6kehsl3jmr","msl000987","motor","img/motor_7.png","75","75","motor","7","111","1","0","0","",""
"null","","147278","HierDyhunujzhu","6kehsl3jmr","msl000987","iti","img/motor_blank.png","null","75","motor","","","","","","",""
"348","","147634","HierDyhunujzhu","6kehsl3jmr","msl000987","motor","img/motor_5.png","72","72","motor","5","112","1","0","0","",""
"null","","147742","HierDyhunujzhu","6kehsl3jmr","msl000987","iti","img/motor_blank.png","null","72","motor","","","","","","",""
"328","","148081","HierDyhunujzhu","6kehsl3jmr","msl000987","motor","img/motor_8.png","76","76","motor","8","113","1","0","0","",""
"null","","148191","HierDyhunujzhu","6kehsl3jmr","msl000987","iti","img/motor_blank.png","null","76","motor","","","","","","",""
"504","","148704","HierDyhunujzhu","6kehsl3jmr","msl000987","motor","img/motor_3.png","68","68","motor","3","114","1","0","0","",""
"null","","148814","HierDyhunujzhu","6kehsl3jmr","msl000987","iti","img/motor_blank.png","null","68","motor","","","","","","",""
"391","","149214","HierDyhunujzhu","6kehsl3jmr","msl000987","motor","img/motor_8.png","76","76","motor","8","115","1","0","0","",""
"null","","149324","HierDyhunujzhu","6kehsl3jmr","msl000987","iti","img/motor_blank.png","null","76","motor","","","","","","",""
"580","","149912","HierDyhunujzhu","6kehsl3jmr","msl000987","motor","img/motor_2.png","83","83","motor","2","116","1","0","0","",""
"null","","150022","HierDyhunujzhu","6kehsl3jmr","msl000987","iti","img/motor_blank.png","null","83","motor","","","","","","",""
"504","","150534","HierDyhunujzhu","6kehsl3jmr","msl000987","motor","img/motor_5.png","72","72","motor","5","117","1","0","0","",""
"null","","150645","HierDyhunujzhu","6kehsl3jmr","msl000987","iti","img/motor_blank.png","null","72","motor","","","","","","",""
"714","","151366","HierDyhunujzhu","6kehsl3jmr","msl000987","motor","img/motor_2.png","68","83","motor","2","118","0","1","0","",""
"273","","151649","HierDyhunujzhu","6kehsl3jmr","msl000987","motorRepeat","img/motor_2.png","83","83","motor","2","118","1","0","0","",""
"null","","151757","HierDyhunujzhu","6kehsl3jmr","msl000987","iti","img/motor_blank.png","null","83","motor","","","","","","",""
"421","","152187","HierDyhunujzhu","6kehsl3jmr","msl000987","motor","img/motor_1.png","65","65","motor","1","119","1","0","0","",""
"null","","152295","HierDyhunujzhu","6kehsl3jmr","msl000987","iti","img/motor_blank.png","null","65","motor","","","","","","",""
"479","","152781","HierDyhunujzhu","6kehsl3jmr","msl000987","motor","img/motor_5.png","72","72","motor","5","120","1","0","0","",""
"null","","152890","HierDyhunujzhu","6kehsl3jmr","msl000987","iti","img/motor_blank.png","null","72","motor","","","","","","",""
"301","","153199","HierDyhunujzhu","6kehsl3jmr","msl000987","motor","img/motor_5.png","72","72","motor","5","121","1","0","0","",""
"null","","153309","HierDyhunujzhu","6kehsl3jmr","msl000987","iti","img/motor_blank.png","null","72","motor","","","","","","",""
"312","","153628","HierDyhunujzhu","6kehsl3jmr","msl000987","motor","img/motor_1.png","65","65","motor","1","122","1","0","0","",""
"null","","153738","HierDyhunujzhu","6kehsl3jmr","msl000987","iti","img/motor_blank.png","null","65","motor","","","","","","",""
"511","","154259","HierDyhunujzhu","6kehsl3jmr","msl000987","motor","img/motor_2.png","83","83","motor","2","123","1","0","0","",""
"null","","154367","HierDyhunujzhu","6kehsl3jmr","msl000987","iti","img/motor_blank.png","null","83","motor","","","","","","",""
"735","","155111","HierDyhunujzhu","6kehsl3jmr","msl000987","motor","img/motor_6.png","74","74","motor","6","124","1","0","0","",""
"null","","155220","HierDyhunujzhu","6kehsl3jmr","msl000987","iti","img/motor_blank.png","null","74","motor","","","","","","",""
"665","","155892","HierDyhunujzhu","6kehsl3jmr","msl000987","motor","img/motor_1.png","65","65","motor","1","125","1","0","0","",""
"null","","156001","HierDyhunujzhu","6kehsl3jmr","msl000987","iti","img/motor_blank.png","null","65","motor","","","","","","",""
"505","","156514","HierDyhunujzhu","6kehsl3jmr","msl000987","motor","img/motor_3.png","68","68","motor","3","126","1","0","0","",""
"null","","156624","HierDyhunujzhu","6kehsl3jmr","msl000987","iti","img/motor_blank.png","null","68","motor","","","","","","",""
"586","","157217","HierDyhunujzhu","6kehsl3jmr","msl000987","motor","img/motor_6.png","74","74","motor","6","127","1","0","0","",""
"null","","157326","HierDyhunujzhu","6kehsl3jmr","msl000987","iti","img/motor_blank.png","null","74","motor","","","","","","",""
"709","","158045","HierDyhunujzhu","6kehsl3jmr","msl000987","motor","img/motor_3.png","68","68","motor","3","128","1","0","0","",""
"null","","158156","HierDyhunujzhu","6kehsl3jmr","msl000987","iti","img/motor_blank.png","null","68","motor","","","","","","",""
"459","","158622","HierDyhunujzhu","6kehsl3jmr","msl000987","motor","img/motor_4.png","70","70","motor","4","129","1","0","0","",""
"null","","158733","HierDyhunujzhu","6kehsl3jmr","msl000987","iti","img/motor_blank.png","null","70","motor","","","","","","",""
"448","","159190","HierDyhunujzhu","6kehsl3jmr","msl000987","motor","img/motor_7.png","74","75","motor","7","130","0","1","0","",""
"80","","159279","HierDyhunujzhu","6kehsl3jmr","msl000987","motorRepeat","img/motor_7.png","75","75","motor","7","130","1","0","0","",""
"null","","159389","HierDyhunujzhu","6kehsl3jmr","msl000987","iti","img/motor_blank.png","null","75","motor","","","","","","",""
"483","","159881","HierDyhunujzhu","6kehsl3jmr","msl000987","motor","img/motor_3.png","68","68","motor","3","131","1","0","0","",""
"null","","159991","HierDyhunujzhu","6kehsl3jmr","msl000987","iti","img/motor_blank.png","null","68","motor","","","","","","",""
"513","","160512","HierDyhunujzhu","6kehsl3jmr","msl000987","motor","img/motor_8.png","76","76","motor","8","132","1","0","0","",""
"null","","160621","HierDyhunujzhu","6kehsl3jmr","msl000987","iti","img/motor_blank.png","null","76","motor","","","","","","",""
"743","","161372","HierDyhunujzhu","6kehsl3jmr","msl000987","motor","img/motor_2.png","83","83","motor","2","133","1","0","0","",""
"null","","161483","HierDyhunujzhu","6kehsl3jmr","msl000987","iti","img/motor_blank.png","null","83","motor","","","","","","",""
"32","","161522","HierDyhunujzhu","6kehsl3jmr","msl000987","motor","img/motor_3.png","83","68","motor","3","134","0","1","0","",""
"536","","162066","HierDyhunujzhu","6kehsl3jmr","msl000987","motorRepeat","img/motor_3.png","68","68","motor","3","134","1","0","0","",""
"null","","162176","HierDyhunujzhu","6kehsl3jmr","msl000987","iti","img/motor_blank.png","null","68","motor","","","","","","",""
"472","","162655","HierDyhunujzhu","6kehsl3jmr","msl000987","motor","img/motor_8.png","76","76","motor","8","135","1","0","0","",""
"null","","162763","HierDyhunujzhu","6kehsl3jmr","msl000987","iti","img/motor_blank.png","null","76","motor","","","","","","",""
"649","","163418","HierDyhunujzhu","6kehsl3jmr","msl000987","motor","img/motor_3.png","68","68","motor","3","136","1","0","0","",""
"null","","163525","HierDyhunujzhu","6kehsl3jmr","msl000987","iti","img/motor_blank.png","null","68","motor","","","","","","",""
"386","","163917","HierDyhunujzhu","6kehsl3jmr","msl000987","motor","img/motor_4.png","70","70","motor","4","137","1","0","0","",""
"null","","164026","HierDyhunujzhu","6kehsl3jmr","msl000987","iti","img/motor_blank.png","null","70","motor","","","","","","",""
"442","","164476","HierDyhunujzhu","6kehsl3jmr","msl000987","motor","img/motor_2.png","65","83","motor","2","138","0","1","0","",""
"418","","164902","HierDyhunujzhu","6kehsl3jmr","msl000987","motorRepeat","img/motor_2.png","83","83","motor","2","138","1","0","0","",""
"null","","165012","HierDyhunujzhu","6kehsl3jmr","msl000987","iti","img/motor_blank.png","null","83","motor","","","","","","",""
"630","","165651","HierDyhunujzhu","6kehsl3jmr","msl000987","motor","img/motor_3.png","68","68","motor","3","139","1","0","0","",""
"null","","165762","HierDyhunujzhu","6kehsl3jmr","msl000987","iti","img/motor_blank.png","null","68","motor","","","","","","",""
"503","","166275","HierDyhunujzhu","6kehsl3jmr","msl000987","motor","img/motor_2.png","83","83","motor","2","140","1","0","0","",""
"null","","166384","HierDyhunujzhu","6kehsl3jmr","msl000987","iti","img/motor_blank.png","null","83","motor","","","","","","",""
"419","","166812","HierDyhunujzhu","6kehsl3jmr","msl000987","motor","img/motor_1.png","65","65","motor","1","141","1","0","0","",""
"null","","166922","HierDyhunujzhu","6kehsl3jmr","msl000987","iti","img/motor_blank.png","null","65","motor","","","","","","",""
"270","","167199","HierDyhunujzhu","6kehsl3jmr","msl000987","motor","img/motor_1.png","65","65","motor","1","142","1","0","0","",""
"null","","167306","HierDyhunujzhu","6kehsl3jmr","msl000987","iti","img/motor_blank.png","null","65","motor","","","","","","",""
"529","","167842","HierDyhunujzhu","6kehsl3jmr","msl000987","motor","img/motor_6.png","74","74","motor","6","143","1","0","0","",""
"null","","167950","HierDyhunujzhu","6kehsl3jmr","msl000987","iti","img/motor_blank.png","null","74","motor","","","","","","",""
"351","","168310","HierDyhunujzhu","6kehsl3jmr","msl000987","motor","img/motor_8.png","76","76","motor","8","144","1","0","0","",""
"null","","168421","HierDyhunujzhu","6kehsl3jmr","msl000987","iti","img/motor_blank.png","null","76","motor","","","","","","",""
"302","","168731","HierDyhunujzhu","6kehsl3jmr","msl000987","motor","img/motor_8.png","76","76","motor","8","145","1","0","0","",""
"null","","168840","HierDyhunujzhu","6kehsl3jmr","msl000987","iti","img/motor_blank.png","null","76","motor","","","","","","",""
"535","","169384","HierDyhunujzhu","6kehsl3jmr","msl000987","motor","img/motor_7.png","75","75","motor","7","146","1","0","0","",""
"null","","169494","HierDyhunujzhu","6kehsl3jmr","msl000987","iti","img/motor_blank.png","null","75","motor","","","","","","",""
"706","","170209","HierDyhunujzhu","6kehsl3jmr","msl000987","motor","img/motor_3.png","68","68","motor","3","147","1","0","0","",""
"null","","170319","HierDyhunujzhu","6kehsl3jmr","msl000987","iti","img/motor_blank.png","null","68","motor","","","","","","",""
"537","","170863","HierDyhunujzhu","6kehsl3jmr","msl000987","motor","img/motor_5.png","72","72","motor","5","148","1","0","0","",""
"null","","170972","HierDyhunujzhu","6kehsl3jmr","msl000987","iti","img/motor_blank.png","null","72","motor","","","","","","",""
"462","","171443","HierDyhunujzhu","6kehsl3jmr","msl000987","motor","img/motor_1.png","65","65","motor","1","149","1","0","0","",""
"null","","171553","HierDyhunujzhu","6kehsl3jmr","msl000987","iti","img/motor_blank.png","null","65","motor","","","","","","",""
"392","","171953","HierDyhunujzhu","6kehsl3jmr","msl000987","motor","img/motor_4.png","70","70","motor","4","150","1","0","0","",""
"null","","172064","HierDyhunujzhu","6kehsl3jmr","msl000987","iti","img/motor_blank.png","null","70","motor","","","","","","",""
"378","","172451","HierDyhunujzhu","6kehsl3jmr","msl000987","motor","img/motor_8.png","76","76","motor","8","151","1","0","0","",""
"null","","172562","HierDyhunujzhu","6kehsl3jmr","msl000987","iti","img/motor_blank.png","null","76","motor","","","","","","",""
"703","","173272","HierDyhunujzhu","6kehsl3jmr","msl000987","motor","img/motor_2.png","83","83","motor","2","152","1","0","0","",""
"null","","173381","HierDyhunujzhu","6kehsl3jmr","msl000987","iti","img/motor_blank.png","null","83","motor","","","","","","",""
"390","","173780","HierDyhunujzhu","6kehsl3jmr","msl000987","motor","img/motor_3.png","68","68","motor","3","153","1","0","0","",""
"null","","173891","HierDyhunujzhu","6kehsl3jmr","msl000987","iti","img/motor_blank.png","null","68","motor","","","","","","",""
"466","","174364","HierDyhunujzhu","6kehsl3jmr","msl000987","motor","img/motor_5.png","72","72","motor","5","154","1","0","0","",""
"null","","174475","HierDyhunujzhu","6kehsl3jmr","msl000987","iti","img/motor_blank.png","null","72","motor","","","","","","",""
"359","","174843","HierDyhunujzhu","6kehsl3jmr","msl000987","motor","img/motor_8.png","76","76","motor","8","155","1","0","0","",""
"null","","174952","HierDyhunujzhu","6kehsl3jmr","msl000987","iti","img/motor_blank.png","null","76","motor","","","","","","",""
"359","","175321","HierDyhunujzhu","6kehsl3jmr","msl000987","motor","img/motor_3.png","68","68","motor","3","156","1","0","0","",""
"null","","175431","HierDyhunujzhu","6kehsl3jmr","msl000987","iti","img/motor_blank.png","null","68","motor","","","","","","",""
"372","","175813","HierDyhunujzhu","6kehsl3jmr","msl000987","motor","img/motor_2.png","83","83","motor","2","157","1","0","0","",""
"null","","175921","HierDyhunujzhu","6kehsl3jmr","msl000987","iti","img/motor_blank.png","null","83","motor","","","","","","",""
"318","","176249","HierDyhunujzhu","6kehsl3jmr","msl000987","motor","img/motor_4.png","70","70","motor","4","158","1","0","0","",""
"null","","176360","HierDyhunujzhu","6kehsl3jmr","msl000987","iti","img/motor_blank.png","null","70","motor","","","","","","",""
"320","","176690","HierDyhunujzhu","6kehsl3jmr","msl000987","motor","img/motor_1.png","65","65","motor","1","159","1","0","0","",""
"null","","176799","HierDyhunujzhu","6kehsl3jmr","msl000987","iti","img/motor_blank.png","null","65","motor","","","","","","",""
"430","","177238","HierDyhunujzhu","6kehsl3jmr","msl000987","motor","img/motor_5.png","72","72","motor","5","160","1","0","0","",""
"null","","177348","HierDyhunujzhu","6kehsl3jmr","msl000987","iti","img/motor_blank.png","null","72","motor","","","","","","",""
"433","","177791","HierDyhunujzhu","6kehsl3jmr","msl000987","motor","img/motor_3.png","68","68","motor","3","161","1","0","0","",""
"null","","177900","HierDyhunujzhu","6kehsl3jmr","msl000987","iti","img/motor_blank.png","null","68","motor","","","","","","",""
"426","","178336","HierDyhunujzhu","6kehsl3jmr","msl000987","motor","img/motor_1.png","65","65","motor","1","162","1","0","0","",""
"null","","178445","HierDyhunujzhu","6kehsl3jmr","msl000987","iti","img/motor_blank.png","null","65","motor","","","","","","",""
"332","","178786","HierDyhunujzhu","6kehsl3jmr","msl000987","motor","img/motor_5.png","70","72","motor","5","163","0","1","0","",""
"299","","179094","HierDyhunujzhu","6kehsl3jmr","msl000987","motorRepeat","img/motor_5.png","72","72","motor","5","163","1","0","0","",""
"null","","179205","HierDyhunujzhu","6kehsl3jmr","msl000987","iti","img/motor_blank.png","null","72","motor","","","","","","",""
"427","","179640","HierDyhunujzhu","6kehsl3jmr","msl000987","motor","img/motor_2.png","68","83","motor","2","164","0","1","0","",""
"194","","179842","HierDyhunujzhu","6kehsl3jmr","msl000987","motorRepeat","img/motor_2.png","83","83","motor","2","164","1","0","0","",""
"null","","179952","HierDyhunujzhu","6kehsl3jmr","msl000987","iti","img/motor_blank.png","null","83","motor","","","","","","",""
"460","","180420","HierDyhunujzhu","6kehsl3jmr","msl000987","motor","img/motor_5.png","72","72","motor","5","165","1","0","0","",""
"null","","180530","HierDyhunujzhu","6kehsl3jmr","msl000987","iti","img/motor_blank.png","null","72","motor","","","","","","",""
"448","","180987","HierDyhunujzhu","6kehsl3jmr","msl000987","motor","img/motor_1.png","65","65","motor","1","166","1","0","0","",""
"null","","181098","HierDyhunujzhu","6kehsl3jmr","msl000987","iti","img/motor_blank.png","null","65","motor","","","","","","",""
"693","","181799","HierDyhunujzhu","6kehsl3jmr","msl000987","motor","img/motor_2.png","83","83","motor","2","167","1","0","0","",""
"null","","181909","HierDyhunujzhu","6kehsl3jmr","msl000987","iti","img/motor_blank.png","null","83","motor","","","","","","",""
"396","","182314","HierDyhunujzhu","6kehsl3jmr","msl000987","motor","img/motor_7.png","76","75","motor","7","168","0","1","0","",""
"216","","182538","HierDyhunujzhu","6kehsl3jmr","msl000987","motorRepeat","img/motor_7.png","75","75","motor","7","168","1","0","0","",""
"null","","182649","HierDyhunujzhu","6kehsl3jmr","msl000987","iti","img/motor_blank.png","null","75","motor","","","","","","",""
"394","","183051","HierDyhunujzhu","6kehsl3jmr","msl000987","motor","img/motor_8.png","76","76","motor","8","169","1","0","0","",""
"null","","183160","HierDyhunujzhu","6kehsl3jmr","msl000987","iti","img/motor_blank.png","null","76","motor","","","","","","",""
"631","","183800","HierDyhunujzhu","6kehsl3jmr","msl000987","motor","img/motor_1.png","65","65","motor","1","170","1","0","0","",""
"null","","183910","HierDyhunujzhu","6kehsl3jmr","msl000987","iti","img/motor_blank.png","null","65","motor","","","","","","",""
"352","","184272","HierDyhunujzhu","6kehsl3jmr","msl000987","motor","img/motor_4.png","70","70","motor","4","171","1","0","0","",""
"null","","184382","HierDyhunujzhu","6kehsl3jmr","msl000987","iti","img/motor_blank.png","null","70","motor","","","","","","",""
"342","","184735","HierDyhunujzhu","6kehsl3jmr","msl000987","motor","img/motor_8.png","76","76","motor","8","172","1","0","0","",""
"null","","184845","HierDyhunujzhu","6kehsl3jmr","msl000987","iti","img/motor_blank.png","null","76","motor","","","","","","",""
"360","","185215","HierDyhunujzhu","6kehsl3jmr","msl000987","motor","img/motor_5.png","72","72","motor","5","173","1","0","0","",""
"null","","185323","HierDyhunujzhu","6kehsl3jmr","msl000987","iti","img/motor_blank.png","null","72","motor","","","","","","",""
"584","","185918","HierDyhunujzhu","6kehsl3jmr","msl000987","motor","img/motor_3.png","68","68","motor","3","174","1","0","0","",""
"null","","186026","HierDyhunujzhu","6kehsl3jmr","msl000987","iti","img/motor_blank.png","null","68","motor","","","","","","",""
"410","","186446","HierDyhunujzhu","6kehsl3jmr","msl000987","motor","img/motor_1.png","65","65","motor","1","175","1","0","0","",""
"null","","186556","HierDyhunujzhu","6kehsl3jmr","msl000987","iti","img/motor_blank.png","null","65","motor","","","","","","",""
"647","","187212","HierDyhunujzhu","6kehsl3jmr","msl000987","motor","img/motor_6.png","74","74","motor","6","176","1","0","0","",""
"null","","187322","HierDyhunujzhu","6kehsl3jmr","msl000987","iti","img/motor_blank.png","null","74","motor","","","","","","",""
"340","","187671","HierDyhunujzhu","6kehsl3jmr","msl000987","motor","img/motor_8.png","76","76","motor","8","177","1","0","0","",""
"null","","187782","HierDyhunujzhu","6kehsl3jmr","msl000987","iti","img/motor_blank.png","null","76","motor","","","","","","",""
"379","","188169","HierDyhunujzhu","6kehsl3jmr","msl000987","motor","img/motor_1.png","65","65","motor","1","178","1","0","0","",""
"null","","188278","HierDyhunujzhu","6kehsl3jmr","msl000987","iti","img/motor_blank.png","null","65","motor","","","","","","",""
"499","","188787","HierDyhunujzhu","6kehsl3jmr","msl000987","motor","img/motor_7.png","74","75","motor","7","179","0","1","0","",""
"102","","188896","HierDyhunujzhu","6kehsl3jmr","msl000987","motorRepeat","img/motor_7.png","75","75","motor","7","179","1","0","0","",""
"null","","189006","HierDyhunujzhu","6kehsl3jmr","msl000987","iti","img/motor_blank.png","null","75","motor","","","","","","",""
"439","","189454","HierDyhunujzhu","6kehsl3jmr","msl000987","motor","img/motor_6.png","74","74","motor","6","180","1","0","0","",""
"null","","189564","HierDyhunujzhu","6kehsl3jmr","msl000987","iti","img/motor_blank.png","null","74","motor","","","","","","",""
"322","","189895","HierDyhunujzhu","6kehsl3jmr","msl000987","motor","img/motor_6.png","74","74","motor","6","181","1","0","0","",""
"null","","190006","HierDyhunujzhu","6kehsl3jmr","msl000987","iti","img/motor_blank.png","null","74","motor","","","","","","",""
"349","","190362","HierDyhunujzhu","6kehsl3jmr","msl000987","motor","img/motor_8.png","76","76","motor","8","182","1","0","0","",""
"null","","190472","HierDyhunujzhu","6kehsl3jmr","msl000987","iti","img/motor_blank.png","null","76","motor","","","","","","",""
"533","","191015","HierDyhunujzhu","6kehsl3jmr","msl000987","motor","img/motor_7.png","75","75","motor","7","183","1","0","0","",""
"null","","191124","HierDyhunujzhu","6kehsl3jmr","msl000987","iti","img/motor_blank.png","null","75","motor","","","","","","",""
"494","","191627","HierDyhunujzhu","6kehsl3jmr","msl000987","motor","img/motor_1.png","65","65","motor","1","184","1","0","0","",""
"null","","191737","HierDyhunujzhu","6kehsl3jmr","msl000987","iti","img/motor_blank.png","null","65","motor","","","","","","",""
"473","","192219","HierDyhunujzhu","6kehsl3jmr","msl000987","motor","img/motor_8.png","76","76","motor","8","185","1","0","0","",""
"null","","192330","HierDyhunujzhu","6kehsl3jmr","msl000987","iti","img/motor_blank.png","null","76","motor","","","","","","",""
"457","","192796","HierDyhunujzhu","6kehsl3jmr","msl000987","motor","img/motor_2.png","83","83","motor","2","186","1","0","0","",""
"null","","192906","HierDyhunujzhu","6kehsl3jmr","msl000987","iti","img/motor_blank.png","null","83","motor","","","","","","",""
"460","","193375","HierDyhunujzhu","6kehsl3jmr","msl000987","motor","img/motor_7.png","75","75","motor","7","187","1","0","0","",""
"null","","193485","HierDyhunujzhu","6kehsl3jmr","msl000987","iti","img/motor_blank.png","null","75","motor","","","","","","",""
"503","","193998","HierDyhunujzhu","6kehsl3jmr","msl000987","motor","img/motor_3.png","68","68","motor","3","188","1","0","0","",""
"null","","194107","HierDyhunujzhu","6kehsl3jmr","msl000987","iti","img/motor_blank.png","null","68","motor","","","","","","",""
"355","","194473","HierDyhunujzhu","6kehsl3jmr","msl000987","motor","img/motor_7.png","76","75","motor","7","189","0","1","0","",""
"337","","194819","HierDyhunujzhu","6kehsl3jmr","msl000987","motorRepeat","img/motor_7.png","75","75","motor","7","189","1","0","0","",""
"null","","194929","HierDyhunujzhu","6kehsl3jmr","msl000987","iti","img/motor_blank.png","null","75","motor","","","","","","",""
"596","","195535","HierDyhunujzhu","6kehsl3jmr","msl000987","motor","img/motor_4.png","65","70","motor","4","190","0","1","0","",""
"258","","195802","HierDyhunujzhu","6kehsl3jmr","msl000987","motorRepeat","img/motor_4.png","70","70","motor","4","190","1","0","0","",""
"null","","195910","HierDyhunujzhu","6kehsl3jmr","msl000987","iti","img/motor_blank.png","null","70","motor","","","","","","",""
"645","","196565","HierDyhunujzhu","6kehsl3jmr","msl000987","motor","img/motor_2.png","83","83","motor","2","191","1","0","0","",""
"null","","196676","HierDyhunujzhu","6kehsl3jmr","msl000987","iti","img/motor_blank.png","null","83","motor","","","","","","",""
"325","","197011","HierDyhunujzhu","6kehsl3jmr","msl000987","motor","img/motor_2.png","83","83","motor","2","192","1","0","0","",""
"null","","197122","HierDyhunujzhu","6kehsl3jmr","msl000987","iti","img/motor_blank.png","null","83","motor","","","","","","",""
"539","","197667","HierDyhunujzhu","6kehsl3jmr","msl000987","motor","img/motor_6.png","75","74","motor","6","193","0","1","0","",""
"148","","197825","HierDyhunujzhu","6kehsl3jmr","msl000987","motorRepeat","img/motor_6.png","74","74","motor","6","193","1","0","0","",""
"null","","197935","HierDyhunujzhu","6kehsl3jmr","msl000987","iti","img/motor_blank.png","null","74","motor","","","","","","",""
"542","","198486","HierDyhunujzhu","6kehsl3jmr","msl000987","motor","img/motor_4.png","70","70","motor","4","194","1","0","0","",""
"null","","198595","HierDyhunujzhu","6kehsl3jmr","msl000987","iti","img/motor_blank.png","null","70","motor","","","","","","",""
"421","","199026","HierDyhunujzhu","6kehsl3jmr","msl000987","motor","img/motor_8.png","76","76","motor","8","195","1","0","0","",""
"null","","199134","HierDyhunujzhu","6kehsl3jmr","msl000987","iti","img/motor_blank.png","null","76","motor","","","","","","",""
"473","","199614","HierDyhunujzhu","6kehsl3jmr","msl000987","motor","img/motor_4.png","70","70","motor","4","196","1","0","0","",""
"null","","199724","HierDyhunujzhu","6kehsl3jmr","msl000987","iti","img/motor_blank.png","null","70","motor","","","","","","",""
"293","","200027","HierDyhunujzhu","6kehsl3jmr","msl000987","motor","img/motor_8.png","76","76","motor","8","197","1","0","0","",""
"null","","200139","HierDyhunujzhu","6kehsl3jmr","msl000987","iti","img/motor_blank.png","null","76","motor","","","","","","",""
"339","","200489","HierDyhunujzhu","6kehsl3jmr","msl000987","motor","img/motor_8.png","76","76","motor","8","198","1","0","0","",""
"null","","200600","HierDyhunujzhu","6kehsl3jmr","msl000987","iti","img/motor_blank.png","null","76","motor","","","","","","",""
"301","","200910","HierDyhunujzhu","6kehsl3jmr","msl000987","motor","img/motor_4.png","70","70","motor","4","199","1","0","0","",""
"null","","201021","HierDyhunujzhu","6kehsl3jmr","msl000987","iti","img/motor_blank.png","null","70","motor","","","","","","",""
"521","","201552","HierDyhunujzhu","6kehsl3jmr","msl000987","motor","img/motor_3.png","68","68","motor","3","200","1","0","0","",""
"null","","201662","HierDyhunujzhu","6kehsl3jmr","msl000987","iti","img/motor_blank.png","null","68","motor","","","","","","",""
"365","","202035","HierDyhunujzhu","6kehsl3jmr","msl000987","motor","img/motor_3.png","68","68","motor","3","201","1","0","0","",""
"null","","202145","HierDyhunujzhu","6kehsl3jmr","msl000987","iti","img/motor_blank.png","null","68","motor","","","","","","",""
"412","","202565","HierDyhunujzhu","6kehsl3jmr","msl000987","motor","img/motor_4.png","70","70","motor","4","202","1","0","0","",""
"null","","202678","HierDyhunujzhu","6kehsl3jmr","msl000987","iti","img/motor_blank.png","null","70","motor","","","","","","",""
"445","","203130","HierDyhunujzhu","6kehsl3jmr","msl000987","motor","img/motor_6.png","74","74","motor","6","203","1","0","0","",""
"null","","203240","HierDyhunujzhu","6kehsl3jmr","msl000987","iti","img/motor_blank.png","null","74","motor","","","","","","",""
"274","","203526","HierDyhunujzhu","6kehsl3jmr","msl000987","motor","img/motor_4.png","68","70","motor","4","204","0","1","0","",""
"234","","203769","HierDyhunujzhu","6kehsl3jmr","msl000987","motorRepeat","img/motor_4.png","70","70","motor","4","204","1","0","0","",""
"null","","203879","HierDyhunujzhu","6kehsl3jmr","msl000987","iti","img/motor_blank.png","null","70","motor","","","","","","",""
"348","","204238","HierDyhunujzhu","6kehsl3jmr","msl000987","motor","img/motor_5.png","74","72","motor","5","205","0","1","0","",""
"328","","204578","HierDyhunujzhu","6kehsl3jmr","msl000987","motorRepeat","img/motor_5.png","74","72","motor","5","205","0","1","0","",""
"59","","204646","HierDyhunujzhu","6kehsl3jmr","msl000987","motorRepeat","img/motor_5.png","70","72","motor","5","205","0","1","0","",""
"303","","204957","HierDyhunujzhu","6kehsl3jmr","msl000987","motorRepeat","img/motor_5.png","72","72","motor","5","205","1","0","0","",""
"null","","205069","HierDyhunujzhu","6kehsl3jmr","msl000987","iti","img/motor_blank.png","null","72","motor","","","","","","",""
"612","","205692","HierDyhunujzhu","6kehsl3jmr","msl000987","motor","img/motor_3.png","68","68","motor","3","206","1","0","0","",""
"null","","205803","HierDyhunujzhu","6kehsl3jmr","msl000987","iti","img/motor_blank.png","null","68","motor","","","","","","",""
"571","","206384","HierDyhunujzhu","6kehsl3jmr","msl000987","motor","img/motor_7.png","75","75","motor","7","207","1","0","0","",""
"null","","206494","HierDyhunujzhu","6kehsl3jmr","msl000987","iti","img/motor_blank.png","null","75","motor","","","","","","",""
"668","","207169","HierDyhunujzhu","6kehsl3jmr","msl000987","motor","img/motor_4.png","70","70","motor","4","208","1","0","0","",""
"null","","207277","HierDyhunujzhu","6kehsl3jmr","msl000987","iti","img/motor_blank.png","null","70","motor","","","","","","",""
"320","","207605","HierDyhunujzhu","6kehsl3jmr","msl000987","motor","img/motor_6.png","72","74","motor","6","209","0","1","0","",""
"173","","207783","HierDyhunujzhu","6kehsl3jmr","msl000987","motorRepeat","img/motor_6.png","74","74","motor","6","209","1","0","0","",""
"null","","207892","HierDyhunujzhu","6kehsl3jmr","msl000987","iti","img/motor_blank.png","null","74","motor","","","","","","",""
"634","","208533","HierDyhunujzhu","6kehsl3jmr","msl000987","motor","img/motor_5.png","72","72","motor","5","210","1","0","0","",""
"null","","208641","HierDyhunujzhu","6kehsl3jmr","msl000987","iti","img/motor_blank.png","null","72","motor","","","","","","",""
"487","","209133","HierDyhunujzhu","6kehsl3jmr","msl000987","motor","img/motor_2.png","68","83","motor","2","211","0","1","0","",""
"151","","209289","HierDyhunujzhu","6kehsl3jmr","msl000987","motorRepeat","img/motor_2.png","83","83","motor","2","211","1","0","0","",""
"null","","209398","HierDyhunujzhu","6kehsl3jmr","msl000987","iti","img/motor_blank.png","null","83","motor","","","","","","",""
"311","","209717","HierDyhunujzhu","6kehsl3jmr","msl000987","motor","img/motor_3.png","70","68","motor","3","212","0","1","0","",""
"190","","209914","HierDyhunujzhu","6kehsl3jmr","msl000987","motorRepeat","img/motor_3.png","68","68","motor","3","212","1","0","0","",""
"null","","210022","HierDyhunujzhu","6kehsl3jmr","msl000987","iti","img/motor_blank.png","null","68","motor","","","","","","",""
"495","","210525","HierDyhunujzhu","6kehsl3jmr","msl000987","motor","img/motor_5.png","72","72","motor","5","213","1","0","0","",""
"null","","210634","HierDyhunujzhu","6kehsl3jmr","msl000987","iti","img/motor_blank.png","null","72","motor","","","","","","",""
"286","","210927","HierDyhunujzhu","6kehsl3jmr","msl000987","motor","img/motor_5.png","72","72","motor","5","214","1","0","0","",""
"null","","211035","HierDyhunujzhu","6kehsl3jmr","msl000987","iti","img/motor_blank.png","null","72","motor","","","","","","",""
"296","","211338","HierDyhunujzhu","6kehsl3jmr","msl000987","motor","img/motor_6.png","74","74","motor","6","215","1","0","0","",""
"null","","211448","HierDyhunujzhu","6kehsl3jmr","msl000987","iti","img/motor_blank.png","null","74","motor","","","","","","",""
"329","","211784","HierDyhunujzhu","6kehsl3jmr","msl000987","motor","img/motor_8.png","76","76","motor","8","216","1","0","0","",""
"null","","211892","HierDyhunujzhu","6kehsl3jmr","msl000987","iti","img/motor_blank.png","null","76","motor","","","","","","",""
"507","","212407","HierDyhunujzhu","6kehsl3jmr","msl000987","motor","img/motor_6.png","74","74","motor","6","217","1","0","0","",""
"null","","212515","HierDyhunujzhu","6kehsl3jmr","msl000987","iti","img/motor_blank.png","null","74","motor","","","","","","",""
"513","","213034","HierDyhunujzhu","6kehsl3jmr","msl000987","motor","img/motor_2.png","83","83","motor","2","218","1","0","0","",""
"null","","213144","HierDyhunujzhu","6kehsl3jmr","msl000987","iti","img/motor_blank.png","null","83","motor","","","","","","",""
"336","","213487","HierDyhunujzhu","6kehsl3jmr","msl000987","motor","img/motor_5.png","72","72","motor","5","219","1","0","0","",""
"null","","213596","HierDyhunujzhu","6kehsl3jmr","msl000987","iti","img/motor_blank.png","null","72","motor","","","","","","",""
"540","","214143","HierDyhunujzhu","6kehsl3jmr","msl000987","motor","img/motor_1.png","65","65","motor","1","220","1","0","0","",""
"null","","214251","HierDyhunujzhu","6kehsl3jmr","msl000987","iti","img/motor_blank.png","null","65","motor","","","","","","",""
"613","","214871","HierDyhunujzhu","6kehsl3jmr","msl000987","motor","img/motor_6.png","74","74","motor","6","221","1","0","0","",""
"null","","214979","HierDyhunujzhu","6kehsl3jmr","msl000987","iti","img/motor_blank.png","null","74","motor","","","","","","",""
"405","","215391","HierDyhunujzhu","6kehsl3jmr","msl000987","motor","img/motor_5.png","72","72","motor","5","222","1","0","0","",""
"null","","215499","HierDyhunujzhu","6kehsl3jmr","msl000987","iti","img/motor_blank.png","null","72","motor","","","","","","",""
"488","","215993","HierDyhunujzhu","6kehsl3jmr","msl000987","motor","img/motor_2.png","68","83","motor","2","223","0","1","0","",""
"451","","216451","HierDyhunujzhu","6kehsl3jmr","msl000987","motorRepeat","img/motor_2.png","83","83","motor","2","223","1","0","0","",""
"null","","216560","HierDyhunujzhu","6kehsl3jmr","msl000987","iti","img/motor_blank.png","null","83","motor","","","","","","",""
"355","","216923","HierDyhunujzhu","6kehsl3jmr","msl000987","motor","img/motor_1.png","65","65","motor","1","224","1","0","0","",""
"null","","217031","HierDyhunujzhu","6kehsl3jmr","msl000987","iti","img/motor_blank.png","null","65","motor","","","","","","",""
"511","","217548","HierDyhunujzhu","6kehsl3jmr","msl000987","motor","img/motor_8.png","76","76","motor","8","225","1","0","0","",""
"null","","217655","HierDyhunujzhu","6kehsl3jmr","msl000987","iti","img/motor_blank.png","null","76","motor","","","","","","",""
"494","","218157","HierDyhunujzhu","6kehsl3jmr","msl000987","motor","img/motor_5.png","72","72","motor","5","226","1","0","0","",""
"null","","218264","HierDyhunujzhu","6kehsl3jmr","msl000987","iti","img/motor_blank.png","null","72","motor","","","","","","",""
"281","","218553","HierDyhunujzhu","6kehsl3jmr","msl000987","motor","img/motor_5.png","72","72","motor","5","227","1","0","0","",""
"null","","218661","HierDyhunujzhu","6kehsl3jmr","msl000987","iti","img/motor_blank.png","null","72","motor","","","","","","",""
"407","","219075","HierDyhunujzhu","6kehsl3jmr","msl000987","motor","img/motor_1.png","65","65","motor","1","228","1","0","0","",""
"null","","219183","HierDyhunujzhu","6kehsl3jmr","msl000987","iti","img/motor_blank.png","null","65","motor","","","","","","",""
"456","","219644","HierDyhunujzhu","6kehsl3jmr","msl000987","motor","img/motor_2.png","68","83","motor","2","229","0","1","0","",""
"111","","219762","HierDyhunujzhu","6kehsl3jmr","msl000987","motorRepeat","img/motor_2.png","83","83","motor","2","229","1","0","0","",""
"null","","219870","HierDyhunujzhu","6kehsl3jmr","msl000987","iti","img/motor_blank.png","null","83","motor","","","","","","",""
"427","","220306","HierDyhunujzhu","6kehsl3jmr","msl000987","motor","img/motor_4.png","72","70","motor","4","230","0","1","0","",""
"167","","220479","HierDyhunujzhu","6kehsl3jmr","msl000987","motorRepeat","img/motor_4.png","70","70","motor","4","230","1","0","0","",""
"null","","220587","HierDyhunujzhu","6kehsl3jmr","msl000987","iti","img/motor_blank.png","null","70","motor","","","","","","",""
"337","","220931","HierDyhunujzhu","6kehsl3jmr","msl000987","motor","img/motor_4.png","70","70","motor","4","231","1","0","0","",""
"null","","221038","HierDyhunujzhu","6kehsl3jmr","msl000987","iti","img/motor_blank.png","null","70","motor","","","","","","",""
"322","","221367","HierDyhunujzhu","6kehsl3jmr","msl000987","motor","img/motor_5.png","72","72","motor","5","232","1","0","0","",""
"null","","221476","HierDyhunujzhu","6kehsl3jmr","msl000987","iti","img/motor_blank.png","null","72","motor","","","","","","",""
"328","","221811","HierDyhunujzhu","6kehsl3jmr","msl000987","motor","img/motor_8.png","76","76","motor","8","233","1","0","0","",""
"null","","221918","HierDyhunujzhu","6kehsl3jmr","msl000987","iti","img/motor_blank.png","null","76","motor","","","","","","",""
"338","","222261","HierDyhunujzhu","6kehsl3jmr","msl000987","motor","img/motor_8.png","76","76","motor","8","234","1","0","0","",""
"null","","222369","HierDyhunujzhu","6kehsl3jmr","msl000987","iti","img/motor_blank.png","null","76","motor","","","","","","",""
"497","","222874","HierDyhunujzhu","6kehsl3jmr","msl000987","motor","img/motor_3.png","68","68","motor","3","235","1","0","0","",""
"null","","222985","HierDyhunujzhu","6kehsl3jmr","msl000987","iti","img/motor_blank.png","null","68","motor","","","","","","",""
"307","","223299","HierDyhunujzhu","6kehsl3jmr","msl000987","motor","img/motor_4.png","68","70","motor","4","236","0","1","0","",""
"142","","223449","HierDyhunujzhu","6kehsl3jmr","msl000987","motorRepeat","img/motor_4.png","70","70","motor","4","236","1","0","0","",""
"null","","223558","HierDyhunujzhu","6kehsl3jmr","msl000987","iti","img/motor_blank.png","null","70","motor","","","","","","",""
"395","","223962","HierDyhunujzhu","6kehsl3jmr","msl000987","motor","img/motor_1.png","65","65","motor","1","237","1","0","0","",""
"null","","224070","HierDyhunujzhu","6kehsl3jmr","msl000987","iti","img/motor_blank.png","null","65","motor","","","","","","",""
"453","","224531","HierDyhunujzhu","6kehsl3jmr","msl000987","motor","img/motor_4.png","70","70","motor","4","238","1","0","0","",""
"null","","224638","HierDyhunujzhu","6kehsl3jmr","msl000987","iti","img/motor_blank.png","null","70","motor","","","","","","",""
"519","","225166","HierDyhunujzhu","6kehsl3jmr","msl000987","motor","img/motor_7.png","75","75","motor","7","239","1","0","0","",""
"null","","225274","HierDyhunujzhu","6kehsl3jmr","msl000987","iti","img/motor_blank.png","null","75","motor","","","","","","",""
"296","","225576","HierDyhunujzhu","6kehsl3jmr","msl000987","motor","img/motor_7.png","75","75","motor","7","240","1","0","0","",""
"null","","225685","HierDyhunujzhu","6kehsl3jmr","msl000987","iti","img/motor_blank.png","null","75","motor","","","","","","",""
"364","","226055","HierDyhunujzhu","6kehsl3jmr","msl000987","motor","img/motor_6.png","74","74","motor","6","241","1","0","0","",""
"null","","226163","HierDyhunujzhu","6kehsl3jmr","msl000987","iti","img/motor_blank.png","null","74","motor","","","","","","",""
"678","","226849","HierDyhunujzhu","6kehsl3jmr","msl000987","motor","img/motor_3.png","68","68","motor","3","242","1","0","0","",""
"null","","226957","HierDyhunujzhu","6kehsl3jmr","msl000987","iti","img/motor_blank.png","null","68","motor","","","","","","",""
"293","","227257","HierDyhunujzhu","6kehsl3jmr","msl000987","motor","img/motor_3.png","68","68","motor","3","243","1","0","0","",""
"null","","227366","HierDyhunujzhu","6kehsl3jmr","msl000987","iti","img/motor_blank.png","null","68","motor","","","","","","",""
"417","","227790","HierDyhunujzhu","6kehsl3jmr","msl000987","motor","img/motor_4.png","70","70","motor","4","244","1","0","0","",""
"null","","227898","HierDyhunujzhu","6kehsl3jmr","msl000987","iti","img/motor_blank.png","null","70","motor","","","","","","",""
"288","","228192","HierDyhunujzhu","6kehsl3jmr","msl000987","motor","img/motor_3.png","70","68","motor","3","245","0","1","0","",""
"182","","228381","HierDyhunujzhu","6kehsl3jmr","msl000987","motorRepeat","img/motor_3.png","68","68","motor","3","245","1","0","0","",""
"null","","228489","HierDyhunujzhu","6kehsl3jmr","msl000987","iti","img/motor_blank.png","null","68","motor","","","","","","",""
"402","","228898","HierDyhunujzhu","6kehsl3jmr","msl000987","motor","img/motor_5.png","72","72","motor","5","246","1","0","0","",""
"null","","229007","HierDyhunujzhu","6kehsl3jmr","msl000987","iti","img/motor_blank.png","null","72","motor","","","","","","",""
"296","","229311","HierDyhunujzhu","6kehsl3jmr","msl000987","motor","img/motor_4.png","68","70","motor","4","247","0","1","0","",""
"228","","229546","HierDyhunujzhu","6kehsl3jmr","msl000987","motorRepeat","img/motor_4.png","70","70","motor","4","247","1","0","0","",""
"null","","229654","HierDyhunujzhu","6kehsl3jmr","msl000987","iti","img/motor_blank.png","null","70","motor","","","","","","",""
"439","","230099","HierDyhunujzhu","6kehsl3jmr","msl000987","motor","img/motor_5.png","72","72","motor","5","248","1","0","0","",""
"null","","230208","HierDyhunujzhu","6kehsl3jmr","msl000987","iti","img/motor_blank.png","null","72","motor","","","","","","",""
"405","","230621","HierDyhunujzhu","6kehsl3jmr","msl000987","motor","img/motor_8.png","76","76","motor","8","249","1","0","0","",""
"null","","230728","HierDyhunujzhu","6kehsl3jmr","msl000987","iti","img/motor_blank.png","null","76","motor","","","","","","",""
"290","","231026","HierDyhunujzhu","6kehsl3jmr","msl000987","motor","img/motor_5.png","72","72","motor","5","250","1","0","0","",""
"null","","231134","HierDyhunujzhu","6kehsl3jmr","msl000987","iti","img/motor_blank.png","null","72","motor","","","","","","",""
"484","","231625","HierDyhunujzhu","6kehsl3jmr","msl000987","motor","img/motor_1.png","65","65","motor","1","251","1","0","0","",""
"null","","231733","HierDyhunujzhu","6kehsl3jmr","msl000987","iti","img/motor_blank.png","null","65","motor","","","","","","",""
"339","","232080","HierDyhunujzhu","6kehsl3jmr","msl000987","motor","img/motor_8.png","76","76","motor","8","252","1","0","0","",""
"null","","232187","HierDyhunujzhu","6kehsl3jmr","msl000987","iti","img/motor_blank.png","null","76","motor","","","","","","",""
"338","","232532","HierDyhunujzhu","6kehsl3jmr","msl000987","motor","img/motor_5.png","72","72","motor","5","253","1","0","0","",""
"null","","232641","HierDyhunujzhu","6kehsl3jmr","msl000987","iti","img/motor_blank.png","null","72","motor","","","","","","",""
"415","","233063","HierDyhunujzhu","6kehsl3jmr","msl000987","motor","img/motor_4.png","70","70","motor","4","254","1","0","0","",""
"null","","233170","HierDyhunujzhu","6kehsl3jmr","msl000987","iti","img/motor_blank.png","null","70","motor","","","","","","",""
"357","","233534","HierDyhunujzhu","6kehsl3jmr","msl000987","motor","img/motor_1.png","65","65","motor","1","255","1","0","0","",""
"null","","233642","HierDyhunujzhu","6kehsl3jmr","msl000987","iti","img/motor_blank.png","null","65","motor","","","","","","",""
"487","","234137","HierDyhunujzhu","6kehsl3jmr","msl000987","motor","img/motor_3.png","68","68","motor","3","256","1","0","0","",""
"null","","234246","HierDyhunujzhu","6kehsl3jmr","msl000987","iti","img/motor_blank.png","null","68","motor","","","","","","",""
"356","","234609","HierDyhunujzhu","6kehsl3jmr","msl000987","motor","img/motor_8.png","76","76","motor","8","257","1","0","0","",""
"null","","234718","HierDyhunujzhu","6kehsl3jmr","msl000987","iti","img/motor_blank.png","null","76","motor","","","","","","",""
"348","","235074","HierDyhunujzhu","6kehsl3jmr","msl000987","motor","img/motor_4.png","70","70","motor","4","258","1","0","0","",""
"null","","235182","HierDyhunujzhu","6kehsl3jmr","msl000987","iti","img/motor_blank.png","null","70","motor","","","","","","",""
"328","","235518","HierDyhunujzhu","6kehsl3jmr","msl000987","motor","img/motor_8.png","76","76","motor","8","259","1","0","0","",""
"null","","235626","HierDyhunujzhu","6kehsl3jmr","msl000987","iti","img/motor_blank.png","null","76","motor","","","","","","",""
"270","","235904","HierDyhunujzhu","6kehsl3jmr","msl000987","motor","img/motor_3.png","70","68","motor","3","260","0","1","0","",""
"267","","236180","HierDyhunujzhu","6kehsl3jmr","msl000987","motorRepeat","img/motor_3.png","68","68","motor","3","260","1","0","0","",""
"null","","236287","HierDyhunujzhu","6kehsl3jmr","msl000987","iti","img/motor_blank.png","null","68","motor","","","","","","",""
"662","","236957","HierDyhunujzhu","6kehsl3jmr","msl000987","motor","img/motor_7.png","75","75","motor","7","261","1","0","0","",""
"null","","237065","HierDyhunujzhu","6kehsl3jmr","msl000987","iti","img/motor_blank.png","null","75","motor","","","","","","",""
"71","","237143","HierDyhunujzhu","6kehsl3jmr","msl000987","motor","img/motor_1.png","74","65","motor","1","262","0","1","0","",""
"354","","237505","HierDyhunujzhu","6kehsl3jmr","msl000987","motorRepeat","img/motor_1.png","68","65","motor","1","262","0","1","0","",""
"169","","237681","HierDyhunujzhu","6kehsl3jmr","msl000987","motorRepeat","img/motor_1.png","68","65","motor","1","262","0","1","0","",""
"103","","237792","HierDyhunujzhu","6kehsl3jmr","msl000987","motorRepeat","img/motor_1.png","70","65","motor","1","262","0","1","0","",""
"362","","238162","HierDyhunujzhu","6kehsl3jmr","msl000987","motorRepeat","img/motor_1.png","65","65","motor","1","262","1","0","0","",""
"null","","238270","HierDyhunujzhu","6kehsl3jmr","msl000987","iti","img/motor_blank.png","null","65","motor","","","","","","",""
"578","","238855","HierDyhunujzhu","6kehsl3jmr","msl000987","motor","img/motor_2.png","68","83","motor","2","263","0","1","0","",""
"268","","239130","HierDyhunujzhu","6kehsl3jmr","msl000987","motorRepeat","img/motor_2.png","83","83","motor","2","263","1","0","0","",""
"null","","239239","HierDyhunujzhu","6kehsl3jmr","msl000987","iti","img/motor_blank.png","null","83","motor","","","","","","",""
"481","","239726","HierDyhunujzhu","6kehsl3jmr","msl000987","motor","img/motor_3.png","70","68","motor","3","264","0","1","0","",""
"169","","239902","HierDyhunujzhu","6kehsl3jmr","msl000987","motorRepeat","img/motor_3.png","68","68","motor","3","264","1","0","0","",""
"null","","240010","HierDyhunujzhu","6kehsl3jmr","msl000987","iti","img/motor_blank.png","null","68","motor","","","","","","",""
"266","","240284","HierDyhunujzhu","6kehsl3jmr","msl000987","motor","img/motor_3.png","68","68","motor","3","265","1","0","0","",""
"null","","240392","HierDyhunujzhu","6kehsl3jmr","msl000987","iti","img/motor_blank.png","null","68","motor","","","","","","",""
"89","","240490","HierDyhunujzhu","6kehsl3jmr","msl000987","motor","img/motor_1.png","68","65","motor","1","266","0","1","0","",""
"336","","240832","HierDyhunujzhu","6kehsl3jmr","msl000987","motorRepeat","img/motor_1.png","65","65","motor","1","266","1","0","0","",""
"null","","240941","HierDyhunujzhu","6kehsl3jmr","msl000987","iti","img/motor_blank.png","null","65","motor","","","","","","",""
"520","","241469","HierDyhunujzhu","6kehsl3jmr","msl000987","motor","img/motor_6.png","74","74","motor","6","267","1","0","0","",""
"null","","241578","HierDyhunujzhu","6kehsl3jmr","msl000987","iti","img/motor_blank.png","null","74","motor","","","","","","",""
"425","","242012","HierDyhunujzhu","6kehsl3jmr","msl000987","motor","img/motor_7.png","75","75","motor","7","268","1","0","0","",""
"null","","242119","HierDyhunujzhu","6kehsl3jmr","msl000987","iti","img/motor_blank.png","null","75","motor","","","","","","",""
"345","","242472","HierDyhunujzhu","6kehsl3jmr","msl000987","motor","img/motor_6.png","74","74","motor","6","269","1","0","0","",""
"null","","242580","HierDyhunujzhu","6kehsl3jmr","msl000987","iti","img/motor_blank.png","null","74","motor","","","","","","",""
"492","","243080","HierDyhunujzhu","6kehsl3jmr","msl000987","motor","img/motor_3.png","70","68","motor","3","270","0","1","0","",""
"141","","243229","HierDyhunujzhu","6kehsl3jmr","msl000987","motorRepeat","img/motor_3.png","68","68","motor","3","270","1","0","0","",""
"null","","243337","HierDyhunujzhu","6kehsl3jmr","msl000987","iti","img/motor_blank.png","null","68","motor","","","","","","",""
"427","","243771","HierDyhunujzhu","6kehsl3jmr","msl000987","motor","img/motor_6.png","74","74","motor","6","271","1","0","0","",""
"null","","243880","HierDyhunujzhu","6kehsl3jmr","msl000987","iti","img/motor_blank.png","null","74","motor","","","","","","",""
"318","","244205","HierDyhunujzhu","6kehsl3jmr","msl000987","motor","img/motor_7.png","75","75","motor","7","272","1","0","0","",""
"null","","244313","HierDyhunujzhu","6kehsl3jmr","msl000987","iti","img/motor_blank.png","null","75","motor","","","","","","",""
"324","","244645","HierDyhunujzhu","6kehsl3jmr","msl000987","motor","img/motor_5.png","74","72","motor","5","273","0","1","0","",""
"233","","244885","HierDyhunujzhu","6kehsl3jmr","msl000987","motorRepeat","img/motor_5.png","72","72","motor","5","273","1","0","0","",""
"null","","244995","HierDyhunujzhu","6kehsl3jmr","msl000987","iti","img/motor_blank.png","null","72","motor","","","","","","",""
"425","","245427","HierDyhunujzhu","6kehsl3jmr","msl000987","motor","img/motor_4.png","70","70","motor","4","274","1","0","0","",""
"null","","245537","HierDyhunujzhu","6kehsl3jmr","msl000987","iti","img/motor_blank.png","null","70","motor","","","","","","",""
"397","","245941","HierDyhunujzhu","6kehsl3jmr","msl000987","motor","img/motor_3.png","68","68","motor","3","275","1","0","0","",""
"null","","246049","HierDyhunujzhu","6kehsl3jmr","msl000987","iti","img/motor_blank.png","null","68","motor","","","","","","",""
"593","","246648","HierDyhunujzhu","6kehsl3jmr","msl000987","motor","img/motor_2.png","83","83","motor","2","276","1","0","0","",""
"null","","246757","HierDyhunujzhu","6kehsl3jmr","msl000987","iti","img/motor_blank.png","null","83","motor","","","","","","",""
"520","","247285","HierDyhunujzhu","6kehsl3jmr","msl000987","motor","img/motor_6.png","74","74","motor","6","277","1","0","0","",""
"null","","247394","HierDyhunujzhu","6kehsl3jmr","msl000987","iti","img/motor_blank.png","null","74","motor","","","","","","",""
"435","","247836","HierDyhunujzhu","6kehsl3jmr","msl000987","motor","img/motor_1.png","65","65","motor","1","278","1","0","0","",""
"null","","247944","HierDyhunujzhu","6kehsl3jmr","msl000987","iti","img/motor_blank.png","null","65","motor","","","","","","",""
"320","","248272","HierDyhunujzhu","6kehsl3jmr","msl000987","motor","img/motor_1.png","65","65","motor","1","279","1","0","0","",""
"null","","248379","HierDyhunujzhu","6kehsl3jmr","msl000987","iti","img/motor_blank.png","null","65","motor","","","","","","",""
"469","","248856","HierDyhunujzhu","6kehsl3jmr","msl000987","motor","img/motor_6.png","74","74","motor","6","280","1","0","0","",""
"null","","248964","HierDyhunujzhu","6kehsl3jmr","msl000987","iti","img/motor_blank.png","null","74","motor","","","","","","",""
"385","","249357","HierDyhunujzhu","6kehsl3jmr","msl000987","motor","img/motor_7.png","75","75","motor","7","281","1","0","0","",""
"null","","249465","HierDyhunujzhu","6kehsl3jmr","msl000987","iti","img/motor_blank.png","null","75","motor","","","","","","",""
"420","","249893","HierDyhunujzhu","6kehsl3jmr","msl000987","motor","img/motor_1.png","65","65","motor","1","282","1","0","0","",""
"null","","250003","HierDyhunujzhu","6kehsl3jmr","msl000987","iti","img/motor_blank.png","null","65","motor","","","","","","",""
"626","","250637","HierDyhunujzhu","6kehsl3jmr","msl000987","motor","img/motor_7.png","74","75","motor","7","283","0","1","0","",""
"333","","250975","HierDyhunujzhu","6kehsl3jmr","msl000987","motorRepeat","img/motor_7.png","75","75","motor","7","283","1","0","0","",""
"null","","251084","HierDyhunujzhu","6kehsl3jmr","msl000987","iti","img/motor_blank.png","null","75","motor","","","","","","",""
"682","","251773","HierDyhunujzhu","6kehsl3jmr","msl000987","motor","img/motor_2.png","68","83","motor","2","284","0","1","0","",""
"305","","252086","HierDyhunujzhu","6kehsl3jmr","msl000987","motorRepeat","img/motor_2.png","68","83","motor","2","284","0","1","0","",""
"70","","252163","HierDyhunujzhu","6kehsl3jmr","msl000987","motorRepeat","img/motor_2.png","68","83","motor","2","284","0","1","0","",""
"1","","252172","HierDyhunujzhu","6kehsl3jmr","msl000987","motorRepeat","img/motor_2.png","83","83","motor","2","284","1","0","0","",""
"null","","252280","HierDyhunujzhu","6kehsl3jmr","msl000987","iti","img/motor_blank.png","null","83","motor","","","","","","",""
"517","","252804","HierDyhunujzhu","6kehsl3jmr","msl000987","motor","img/motor_4.png","70","70","motor","4","285","1","0","0","",""
"null","","252912","HierDyhunujzhu","6kehsl3jmr","msl000987","iti","img/motor_blank.png","null","70","motor","","","","","","",""
"250","","253169","HierDyhunujzhu","6kehsl3jmr","msl000987","motor","img/motor_4.png","70","70","motor","4","286","1","0","0","",""
"null","","253278","HierDyhunujzhu","6kehsl3jmr","msl000987","iti","img/motor_blank.png","null","70","motor","","","","","","",""
"411","","253697","HierDyhunujzhu","6kehsl3jmr","msl000987","motor","img/motor_8.png","76","76","motor","8","287","1","0","0","",""
"null","","253805","HierDyhunujzhu","6kehsl3jmr","msl000987","iti","img/motor_blank.png","null","76","motor","","","","","","",""
"325","","254139","HierDyhunujzhu","6kehsl3jmr","msl000987","motor","img/motor_6.png","74","74","motor","6","288","1","0","0","",""
"null","","254247","HierDyhunujzhu","6kehsl3jmr","msl000987","iti","img/motor_blank.png","null","74","motor","","","","","","",""
"261","","254516","HierDyhunujzhu","6kehsl3jmr","msl000987","motor","img/motor_6.png","74","74","motor","6","289","1","0","0","",""
"null","","254623","HierDyhunujzhu","6kehsl3jmr","msl000987","iti","img/motor_blank.png","null","74","motor","","","","","","",""
"551","","255182","HierDyhunujzhu","6kehsl3jmr","msl000987","motor","img/motor_2.png","83","83","motor","2","290","1","0","0","",""
"null","","255289","HierDyhunujzhu","6kehsl3jmr","msl000987","iti","img/motor_blank.png","null","83","motor","","","","","","",""
"387","","255685","HierDyhunujzhu","6kehsl3jmr","msl000987","motor","img/motor_1.png","65","65","motor","1","291","1","0","0","",""
"null","","255792","HierDyhunujzhu","6kehsl3jmr","msl000987","iti","img/motor_blank.png","null","65","motor","","","","","","",""
"391","","256191","HierDyhunujzhu","6kehsl3jmr","msl000987","motor","img/motor_8.png","76","76","motor","8","292","1","0","0","",""
"null","","256298","HierDyhunujzhu","6kehsl3jmr","msl000987","iti","img/motor_blank.png","null","76","motor","","","","","","",""
"478","","256785","HierDyhunujzhu","6kehsl3jmr","msl000987","motor","img/motor_7.png","75","75","motor","7","293","1","0","0","",""
"null","","256893","HierDyhunujzhu","6kehsl3jmr","msl000987","iti","img/motor_blank.png","null","75","motor","","","","","","",""
"345","","257246","HierDyhunujzhu","6kehsl3jmr","msl000987","motor","img/motor_8.png","76","76","motor","8","294","1","0","0","",""
"null","","257353","HierDyhunujzhu","6kehsl3jmr","msl000987","iti","img/motor_blank.png","null","76","motor","","","","","","",""
"413","","257773","HierDyhunujzhu","6kehsl3jmr","msl000987","motor","img/motor_3.png","65","68","motor","3","295","0","1","0","",""
"255","","258034","HierDyhunujzhu","6kehsl3jmr","msl000987","motorRepeat","img/motor_3.png","68","68","motor","3","295","1","0","0","",""
"13","","258142","HierDyhunujzhu","6kehsl3jmr","msl000987","iti","img/motor_blank.png","83","68","motor","","","","","","",""
"450","","258600","HierDyhunujzhu","6kehsl3jmr","msl000987","motor","img/motor_6.png","74","74","motor","6","296","1","0","0","",""
"null","","258708","HierDyhunujzhu","6kehsl3jmr","msl000987","iti","img/motor_blank.png","null","74","motor","","","","","","",""
"419","","259134","HierDyhunujzhu","6kehsl3jmr","msl000987","motor","img/motor_5.png","72","72","motor","5","297","1","0","0","",""
"null","","259242","HierDyhunujzhu","6kehsl3jmr","msl000987","iti","img/motor_blank.png","null","72","motor","","","","","","",""
"325","","259574","HierDyhunujzhu","6kehsl3jmr","msl000987","motor","img/motor_5.png","72","72","motor","5","298","1","0","0","",""
"null","","259682","HierDyhunujzhu","6kehsl3jmr","msl000987","iti","img/motor_blank.png","null","72","motor","","","","","","",""
"405","","260094","HierDyhunujzhu","6kehsl3jmr","msl000987","motor","img/motor_3.png","68","68","motor","3","299","1","0","0","",""
"null","","260202","HierDyhunujzhu","6kehsl3jmr","msl000987","iti","img/motor_blank.png","null","68","motor","","","","","","",""
"564","","260774","HierDyhunujzhu","6kehsl3jmr","msl000987","motor","img/motor_7.png","75","75","motor","7","300","1","0","0","",""
"null","","260881","HierDyhunujzhu","6kehsl3jmr","msl000987","iti","img/motor_blank.png","null","75","motor","","","","","","",""
"424","","261313","HierDyhunujzhu","6kehsl3jmr","msl000987","motor","img/motor_6.png","74","74","motor","6","301","1","0","0","",""
"null","","261422","HierDyhunujzhu","6kehsl3jmr","msl000987","iti","img/motor_blank.png","null","74","motor","","","","","","",""
"444","","261872","HierDyhunujzhu","6kehsl3jmr","msl000987","motor","img/motor_2.png","68","83","motor","2","302","0","1","0","",""
"243","","262121","HierDyhunujzhu","6kehsl3jmr","msl000987","motorRepeat","img/motor_2.png","83","83","motor","2","302","1","0","0","",""
"null","","262229","HierDyhunujzhu","6kehsl3jmr","msl000987","iti","img/motor_blank.png","null","83","motor","","","","","","",""
"511","","262747","HierDyhunujzhu","6kehsl3jmr","msl000987","motor","img/motor_5.png","74","72","motor","5","303","0","1","0","",""
"311","","263066","HierDyhunujzhu","6kehsl3jmr","msl000987","motorRepeat","img/motor_5.png","72","72","motor","5","303","1","0","0","",""
"null","","263174","HierDyhunujzhu","6kehsl3jmr","msl000987","iti","img/motor_blank.png","null","72","motor","","","","","","",""
"380","","263563","HierDyhunujzhu","6kehsl3jmr","msl000987","motor","img/motor_7.png","75","75","motor","7","304","1","0","0","",""
"null","","263671","HierDyhunujzhu","6kehsl3jmr","msl000987","iti","img/motor_blank.png","null","75","motor","","","","","","",""
"446","","264123","HierDyhunujzhu","6kehsl3jmr","msl000987","motor","img/motor_6.png","74","74","motor","6","305","1","0","0","",""
"null","","264230","HierDyhunujzhu","6kehsl3jmr","msl000987","iti","img/motor_blank.png","null","74","motor","","","","","","",""
"515","","264756","HierDyhunujzhu","6kehsl3jmr","msl000987","motor","img/motor_7.png","74","75","motor","7","306","0","1","0","",""
"85","","264852","HierDyhunujzhu","6kehsl3jmr","msl000987","motorRepeat","img/motor_7.png","75","75","motor","7","306","1","0","0","",""
"null","","264960","HierDyhunujzhu","6kehsl3jmr","msl000987","iti","img/motor_blank.png","null","75","motor","","","","","","",""
"489","","265455","HierDyhunujzhu","6kehsl3jmr","msl000987","motor","img/motor_4.png","70","70","motor","4","307","1","0","0","",""
"null","","265563","HierDyhunujzhu","6kehsl3jmr","msl000987","iti","img/motor_blank.png","null","70","motor","","","","","","",""
"360","","265933","HierDyhunujzhu","6kehsl3jmr","msl000987","motor","img/motor_6.png","75","74","motor","6","308","0","1","0","",""
"205","","266146","HierDyhunujzhu","6kehsl3jmr","msl000987","motorRepeat","img/motor_6.png","74","74","motor","6","308","1","0","0","",""
"null","","266252","HierDyhunujzhu","6kehsl3jmr","msl000987","iti","img/motor_blank.png","null","74","motor","","","","","","",""
"460","","266719","HierDyhunujzhu","6kehsl3jmr","msl000987","motor","img/motor_8.png","76","76","motor","8","309","1","0","0","",""
"null","","266826","HierDyhunujzhu","6kehsl3jmr","msl000987","iti","img/motor_blank.png","null","76","motor","","","","","","",""
"479","","267314","HierDyhunujzhu","6kehsl3jmr","msl000987","motor","img/motor_7.png","75","75","motor","7","310","1","0","0","",""
"null","","267422","HierDyhunujzhu","6kehsl3jmr","msl000987","iti","img/motor_blank.png","null","75","motor","","","","","","",""
"402","","267833","HierDyhunujzhu","6kehsl3jmr","msl000987","motor","img/motor_2.png","65","83","motor","2","311","0","1","0","",""
"227","","268066","HierDyhunujzhu","6kehsl3jmr","msl000987","motorRepeat","img/motor_2.png","83","83","motor","2","311","1","0","0","",""
"null","","268175","HierDyhunujzhu","6kehsl3jmr","msl000987","iti","img/motor_blank.png","null","83","motor","","","","","","",""
"559","","268743","HierDyhunujzhu","6kehsl3jmr","msl000987","motor","img/motor_3.png","68","68","motor","3","312","1","0","0","",""
"null","","268853","HierDyhunujzhu","6kehsl3jmr","msl000987","iti","img/motor_blank.png","null","68","motor","","","","","","",""
"421","","269282","HierDyhunujzhu","6kehsl3jmr","msl000987","motor","img/motor_5.png","72","72","motor","5","313","1","0","0","",""
"null","","269391","HierDyhunujzhu","6kehsl3jmr","msl000987","iti","img/motor_blank.png","null","72","motor","","","","","","",""
"515","","269914","HierDyhunujzhu","6kehsl3jmr","msl000987","motor","img/motor_6.png","74","74","motor","6","314","1","0","0","",""
"null","","270024","HierDyhunujzhu","6kehsl3jmr","msl000987","iti","img/motor_blank.png","null","74","motor","","","","","","",""
"435","","270467","HierDyhunujzhu","6kehsl3jmr","msl000987","motor","img/motor_4.png","70","70","motor","4","315","1","0","0","",""
"null","","270577","HierDyhunujzhu","6kehsl3jmr","msl000987","iti","img/motor_blank.png","null","70","motor","","","","","","",""
"581","","271165","HierDyhunujzhu","6kehsl3jmr","msl000987","motor","img/motor_6.png","74","74","motor","6","316","1","0","0","",""
"null","","271273","HierDyhunujzhu","6kehsl3jmr","msl000987","iti","img/motor_blank.png","null","74","motor","","","","","","",""
"324","","271606","HierDyhunujzhu","6kehsl3jmr","msl000987","motor","img/motor_6.png","74","74","motor","6","317","1","0","0","",""
"null","","271714","HierDyhunujzhu","6kehsl3jmr","msl000987","iti","img/motor_blank.png","null","74","motor","","","","","","",""
"310","","272033","HierDyhunujzhu","6kehsl3jmr","msl000987","motor","img/motor_1.png","70","65","motor","1","318","0","1","0","",""
"178","","272219","HierDyhunujzhu","6kehsl3jmr","msl000987","motorRepeat","img/motor_1.png","65","65","motor","1","318","1","0","0","",""
"null","","272329","HierDyhunujzhu","6kehsl3jmr","msl000987","iti","img/motor_blank.png","null","65","motor","","","","","","",""
"348","","272686","HierDyhunujzhu","6kehsl3jmr","msl000987","motor","img/motor_1.png","65","65","motor","1","319","1","0","0","",""
"null","","272794","HierDyhunujzhu","6kehsl3jmr","msl000987","iti","img/motor_blank.png","null","65","motor","","","","","","",""
"923","","273724","HierDyhunujzhu","6kehsl3jmr","msl000987","motor","img/motor_3.png","68","68","motor","3","320","1","0","0","",""
"null","","273832","HierDyhunujzhu","6kehsl3jmr","msl000987","iti","img/motor_blank.png","null","68","motor","","","","","","",""
"205","","274044","HierDyhunujzhu","6kehsl3jmr","msl000987","motor","img/motor_4.png","68","70","motor","4","321","0","1","0","",""
"249","","274301","HierDyhunujzhu","6kehsl3jmr","msl000987","motorRepeat","img/motor_4.png","70","70","motor","4","321","1","0","0","",""
"null","","274409","HierDyhunujzhu","6kehsl3jmr","msl000987","iti","img/motor_blank.png","null","70","motor","","","","","","",""
"621","","275038","HierDyhunujzhu","6kehsl3jmr","msl000987","motor","img/motor_7.png","75","75","motor","7","322","1","0","0","",""
"null","","275145","HierDyhunujzhu","6kehsl3jmr","msl000987","iti","img/motor_blank.png","null","75","motor","","","","","","",""
"302","","275455","HierDyhunujzhu","6kehsl3jmr","msl000987","motor","img/motor_7.png","75","75","motor","7","323","1","0","0","",""
"null","","275564","HierDyhunujzhu","6kehsl3jmr","msl000987","iti","img/motor_blank.png","null","75","motor","","","","","","",""
"344","","275917","HierDyhunujzhu","6kehsl3jmr","msl000987","motor","img/motor_5.png","65","72","motor","5","324","0","1","0","",""
"334","","276259","HierDyhunujzhu","6kehsl3jmr","msl000987","motorRepeat","img/motor_5.png","72","72","motor","5","324","1","0","0","",""
"null","","276366","HierDyhunujzhu","6kehsl3jmr","msl000987","iti","img/motor_blank.png","null","72","motor","","","","","","",""
"473","","276847","HierDyhunujzhu","6kehsl3jmr","msl000987","motor","img/motor_4.png","70","70","motor","4","325","1","0","0","",""
"null","","276956","HierDyhunujzhu","6kehsl3jmr","msl000987","iti","img/motor_blank.png","null","70","motor","","","","","","",""
"403","","277366","HierDyhunujzhu","6kehsl3jmr","msl000987","motor","img/motor_1.png","65","65","motor","1","326","1","0","0","",""
"null","","277475","HierDyhunujzhu","6kehsl3jmr","msl000987","iti","img/motor_blank.png","null","65","motor","","","","","","",""
"628","","278111","HierDyhunujzhu","6kehsl3jmr","msl000987","motor","img/motor_7.png","75","75","motor","7","327","1","0","0","",""
"null","","278217","HierDyhunujzhu","6kehsl3jmr","msl000987","iti","img/motor_blank.png","null","75","motor","","","","","","",""
"722","","278947","HierDyhunujzhu","6kehsl3jmr","msl000987","motor","img/motor_2.png","83","83","motor","2","328","1","0","0","",""
"null","","279053","HierDyhunujzhu","6kehsl3jmr","msl000987","iti","img/motor_blank.png","null","83","motor","","","","","","",""
"604","","279663","HierDyhunujzhu","6kehsl3jmr","msl000987","motor","img/motor_6.png","74","74","motor","6","329","1","0","0","",""
"null","","279771","HierDyhunujzhu","6kehsl3jmr","msl000987","iti","img/motor_blank.png","null","74","motor","","","","","","",""
"300","","280077","HierDyhunujzhu","6kehsl3jmr","msl000987","motor","img/motor_6.png","74","74","motor","6","330","1","0","0","",""
"null","","280184","HierDyhunujzhu","6kehsl3jmr","msl000987","iti","img/motor_blank.png","null","74","motor","","","","","","",""
"431","","280622","HierDyhunujzhu","6kehsl3jmr","msl000987","motor","img/motor_7.png","75","75","motor","7","331","1","0","0","",""
"null","","280728","HierDyhunujzhu","6kehsl3jmr","msl000987","iti","img/motor_blank.png","null","75","motor","","","","","","",""
"506","","281240","HierDyhunujzhu","6kehsl3jmr","msl000987","motor","img/motor_8.png","76","76","motor","8","332","1","0","0","",""
"null","","281346","HierDyhunujzhu","6kehsl3jmr","msl000987","iti","img/motor_blank.png","null","76","motor","","","","","","",""
"301","","281655","HierDyhunujzhu","6kehsl3jmr","msl000987","motor","img/motor_8.png","76","76","motor","8","333","1","0","0","",""
"null","","281762","HierDyhunujzhu","6kehsl3jmr","msl000987","iti","img/motor_blank.png","null","76","motor","","","","","","",""
"446","","282214","HierDyhunujzhu","6kehsl3jmr","msl000987","motor","img/motor_1.png","65","65","motor","1","334","1","0","0","",""
"null","","282321","HierDyhunujzhu","6kehsl3jmr","msl000987","iti","img/motor_blank.png","null","65","motor","","","","","","",""
"382","","282711","HierDyhunujzhu","6kehsl3jmr","msl000987","motor","img/motor_7.png","76","75","motor","7","335","0","1","0","",""
"197","","282916","HierDyhunujzhu","6kehsl3jmr","msl000987","motorRepeat","img/motor_7.png","75","75","motor","7","335","1","0","0","",""
"null","","283025","HierDyhunujzhu","6kehsl3jmr","msl000987","iti","img/motor_blank.png","null","75","motor","","","","","","",""
"624","","283656","HierDyhunujzhu","6kehsl3jmr","msl000987","motor","img/motor_3.png","83","68","motor","3","336","0","1","0","",""
"603","","284267","HierDyhunujzhu","6kehsl3jmr","msl000987","motorRepeat","img/motor_3.png","83","68","motor","3","336","0","1","0","",""
"250","","284524","HierDyhunujzhu","6kehsl3jmr","msl000987","motorRepeat","img/motor_3.png","68","68","motor","3","336","1","0","0","",""
"null","","284631","HierDyhunujzhu","6kehsl3jmr","msl000987","iti","img/motor_blank.png","null","68","motor","","","","","","",""
"405","","285045","HierDyhunujzhu","6kehsl3jmr","msl000987","motor","img/motor_1.png","65","65","motor","1","337","1","0","0","",""
"null","","285154","HierDyhunujzhu","6kehsl3jmr","msl000987","iti","img/motor_blank.png","null","65","motor","","","","","","",""
"424","","285587","HierDyhunujzhu","6kehsl3jmr","msl000987","motor","img/motor_4.png","70","70","motor","4","338","1","0","0","",""
"null","","285695","HierDyhunujzhu","6kehsl3jmr","msl000987","iti","img/motor_blank.png","null","70","motor","","","","","","",""
"435","","286138","HierDyhunujzhu","6kehsl3jmr","msl000987","motor","img/motor_7.png","75","75","motor","7","339","1","0","0","",""
"null","","286246","HierDyhunujzhu","6kehsl3jmr","msl000987","iti","img/motor_blank.png","null","75","motor","","","","","","",""
"426","","286680","HierDyhunujzhu","6kehsl3jmr","msl000987","motor","img/motor_8.png","76","76","motor","8","340","1","0","0","",""
"null","","286789","HierDyhunujzhu","6kehsl3jmr","msl000987","iti","img/motor_blank.png","null","76","motor","","","","","","",""
"421","","287218","HierDyhunujzhu","6kehsl3jmr","msl000987","motor","img/motor_5.png","72","72","motor","5","341","1","0","0","",""
"null","","287326","HierDyhunujzhu","6kehsl3jmr","msl000987","iti","img/motor_blank.png","null","72","motor","","","","","","",""
"419","","287754","HierDyhunujzhu","6kehsl3jmr","msl000987","motor","img/motor_7.png","76","75","motor","7","342","0","1","0","",""
"267","","288030","HierDyhunujzhu","6kehsl3jmr","msl000987","motorRepeat","img/motor_7.png","75","75","motor","7","342","1","0","0","",""
"null","","288138","HierDyhunujzhu","6kehsl3jmr","msl000987","iti","img/motor_blank.png","null","75","motor","","","","","","",""
"767","","288914","HierDyhunujzhu","6kehsl3jmr","msl000987","motor","img/motor_1.png","65","65","motor","1","343","1","0","0","",""
"null","","289022","HierDyhunujzhu","6kehsl3jmr","msl000987","iti","img/motor_blank.png","null","65","motor","","","","","","",""
"446","","289475","HierDyhunujzhu","6kehsl3jmr","msl000987","motor","img/motor_5.png","72","72","motor","5","344","1","0","0","",""
"null","","289584","HierDyhunujzhu","6kehsl3jmr","msl000987","iti","img/motor_blank.png","null","72","motor","","","","","","",""
"453","","290044","HierDyhunujzhu","6kehsl3jmr","msl000987","motor","img/motor_4.png","68","70","motor","4","345","0","1","0","",""
