"rt","responses","time_elapsed","subject","prolificID","demoID","trialType","stimulus","key_press","corrresp","phase","stimNum","trialNum","corr","repeatTrial","motorSwitch","pracCounter","hierarchy"
"21683","{""Q0"":""msl000550""}","21731","HierDym76pjp2l","dq69ozpkqw","msl000550","","","","","","","","","","","",""
"1169","","22908","HierDym76pjp2l","dq69ozpkqw","msl000550","","","","","","","","","","","",""
"","","24783","HierDym76pjp2l","dq69ozpkqw","msl000550","fullscreen","","","","","","","","","","",""
"76004","","100796","HierDym76pjp2l","dq69ozpkqw","msl000550","","","","","","","","","","","",""
"918","","101724","HierDym76pjp2l","dq69ozpkqw","msl000550","motor","img/motor_5.png","72","72","motor","5","1","1","0","0","",""
"null","","101834","HierDym76pjp2l","dq69ozpkqw","msl000550","iti","img/motor_blank.png","null","72","motor","","","","","","",""
"1032","","102874","HierDym76pjp2l","dq69ozpkqw","msl000550","motor","img/motor_3.png","68","68","motor","3","2","1","0","0","",""
"null","","102986","HierDym76pjp2l","dq69ozpkqw","msl000550","iti","img/motor_blank.png","null","68","motor","","","","","","",""
"865","","103860","HierDym76pjp2l","dq69ozpkqw","msl000550","motor","img/motor_8.png","76","76","motor","8","3","1","0","0","",""
"null","","103971","HierDym76pjp2l","dq69ozpkqw","msl000550","iti","img/motor_blank.png","null","76","motor","","","","","","",""
"696","","104675","HierDym76pjp2l","dq69ozpkqw","msl000550","motor","img/motor_7.png","75","75","motor","7","4","1","0","0","",""
"null","","104783","HierDym76pjp2l","dq69ozpkqw","msl000550","iti","img/motor_blank.png","null","75","motor","","","","","","",""
"928","","105719","HierDym76pjp2l","dq69ozpkqw","msl000550","motor","img/motor_2.png","83","83","motor","2","5","1","0","0","",""
"null","","105830","HierDym76pjp2l","dq69ozpkqw","msl000550","iti","img/motor_blank.png","null","83","motor","","","","","","",""
"965","","106803","HierDym76pjp2l","dq69ozpkqw","msl000550","motor","img/motor_2.png","83","83","motor","2","6","1","0","0","",""
"null","","106912","HierDym76pjp2l","dq69ozpkqw","msl000550","iti","img/motor_blank.png","null","83","motor","","","","","","",""
"1961","","108883","HierDym76pjp2l","dq69ozpkqw","msl000550","motor","img/motor_6.png","75","74","motor","6","7","0","1","0","",""
"1231","","110123","HierDym76pjp2l","dq69ozpkqw","msl000550","motorRepeat","img/motor_6.png","74","74","motor","6","7","1","0","0","",""
"null","","110234","HierDym76pjp2l","dq69ozpkqw","msl000550","iti","img/motor_blank.png","null","74","motor","","","","","","",""
"1160","","111403","HierDym76pjp2l","dq69ozpkqw","msl000550","motor","img/motor_5.png","72","72","motor","5","8","1","0","0","",""
"null","","111511","HierDym76pjp2l","dq69ozpkqw","msl000550","iti","img/motor_blank.png","null","72","motor","","","","","","",""
"1134","","112652","HierDym76pjp2l","dq69ozpkqw","msl000550","motor","img/motor_7.png","75","75","motor","7","9","1","0","0","",""
"null","","112759","HierDym76pjp2l","dq69ozpkqw","msl000550","iti","img/motor_blank.png","null","75","motor","","","","","","",""
"649","","113416","HierDym76pjp2l","dq69ozpkqw","msl000550","motor","img/motor_2.png","83","83","motor","2","10","1","0","0","",""
"null","","113524","HierDym76pjp2l","dq69ozpkqw","msl000550","iti","img/motor_blank.png","null","83","motor","","","","","","",""
"878","","114411","HierDym76pjp2l","dq69ozpkqw","msl000550","motor","img/motor_6.png","74","74","motor","6","11","1","0","0","",""
"null","","114522","HierDym76pjp2l","dq69ozpkqw","msl000550","iti","img/motor_blank.png","null","74","motor","","","","","","",""
"779","","115309","HierDym76pjp2l","dq69ozpkqw","msl000550","motor","img/motor_3.png","68","68","motor","3","12","1","0","0","",""
"null","","115420","HierDym76pjp2l","dq69ozpkqw","msl000550","iti","img/motor_blank.png","null","68","motor","","","","","","",""
"758","","116188","HierDym76pjp2l","dq69ozpkqw","msl000550","motor","img/motor_7.png","75","75","motor","7","13","1","0","0","",""
"null","","116298","HierDym76pjp2l","dq69ozpkqw","msl000550","iti","img/motor_blank.png","null","75","motor","","","","","","",""
"879","","117186","HierDym76pjp2l","dq69ozpkqw","msl000550","motor","img/motor_4.png","70","70","motor","4","14","1","0","0","",""
"null","","117296","HierDym76pjp2l","dq69ozpkqw","msl000550","iti","img/motor_blank.png","null","70","motor","","","","","","",""
"611","","117914","HierDym76pjp2l","dq69ozpkqw","msl000550","motor","img/motor_1.png","65","65","motor","1","15","1","0","0","",""
"null","","118023","HierDym76pjp2l","dq69ozpkqw","msl000550","iti","img/motor_blank.png","null","65","motor","","","","","","",""
"595","","118627","HierDym76pjp2l","dq69ozpkqw","msl000550","motor","img/motor_2.png","83","83","motor","2","16","1","0","0","",""
"null","","118734","HierDym76pjp2l","dq69ozpkqw","msl000550","iti","img/motor_blank.png","null","83","motor","","","","","","",""
"682","","119425","HierDym76pjp2l","dq69ozpkqw","msl000550","motor","img/motor_7.png","75","75","motor","7","17","1","0","0","",""
"null","","119535","HierDym76pjp2l","dq69ozpkqw","msl000550","iti","img/motor_blank.png","null","75","motor","","","","","","",""
"589","","120133","HierDym76pjp2l","dq69ozpkqw","msl000550","motor","img/motor_1.png","65","65","motor","1","18","1","0","0","",""
"null","","120242","HierDym76pjp2l","dq69ozpkqw","msl000550","iti","img/motor_blank.png","null","65","motor","","","","","","",""
"596","","120847","HierDym76pjp2l","dq69ozpkqw","msl000550","motor","img/motor_2.png","83","83","motor","2","19","1","0","0","",""
"null","","120957","HierDym76pjp2l","dq69ozpkqw","msl000550","iti","img/motor_blank.png","null","83","motor","","","","","","",""
"669","","121634","HierDym76pjp2l","dq69ozpkqw","msl000550","motor","img/motor_7.png","75","75","motor","7","20","1","0","0","",""
"null","","121743","HierDym76pjp2l","dq69ozpkqw","msl000550","iti","img/motor_blank.png","null","75","motor","","","","","","",""
"675","","122427","HierDym76pjp2l","dq69ozpkqw","msl000550","motor","img/motor_7.png","75","75","motor","7","21","1","0","0","",""
"null","","122536","HierDym76pjp2l","dq69ozpkqw","msl000550","iti","img/motor_blank.png","null","75","motor","","","","","","",""
"775","","123318","HierDym76pjp2l","dq69ozpkqw","msl000550","motor","img/motor_5.png","72","72","motor","5","22","1","0","0","",""
"null","","123428","HierDym76pjp2l","dq69ozpkqw","msl000550","iti","img/motor_blank.png","null","72","motor","","","","","","",""
"959","","124396","HierDym76pjp2l","dq69ozpkqw","msl000550","motor","img/motor_2.png","83","83","motor","2","23","1","0","0","",""
"null","","124503","HierDym76pjp2l","dq69ozpkqw","msl000550","iti","img/motor_blank.png","null","83","motor","","","","","","",""
"1019","","125532","HierDym76pjp2l","dq69ozpkqw","msl000550","motor","img/motor_4.png","70","70","motor","4","24","1","0","0","",""
"null","","125642","HierDym76pjp2l","dq69ozpkqw","msl000550","iti","img/motor_blank.png","null","70","motor","","","","","","",""
"558","","126210","HierDym76pjp2l","dq69ozpkqw","msl000550","motor","img/motor_1.png","65","65","motor","1","25","1","0","0","",""
"null","","126318","HierDym76pjp2l","dq69ozpkqw","msl000550","iti","img/motor_blank.png","null","65","motor","","","","","","",""
"1103","","127428","HierDym76pjp2l","dq69ozpkqw","msl000550","motor","img/motor_1.png","65","65","motor","1","26","1","0","0","",""
"null","","127538","HierDym76pjp2l","dq69ozpkqw","msl000550","iti","img/motor_blank.png","null","65","motor","","","","","","",""
"702","","128249","HierDym76pjp2l","dq69ozpkqw","msl000550","motor","img/motor_7.png","75","75","motor","7","27","1","0","0","",""
"null","","128360","HierDym76pjp2l","dq69ozpkqw","msl000550","iti","img/motor_blank.png","null","75","motor","","","","","","",""
"781","","129149","HierDym76pjp2l","dq69ozpkqw","msl000550","motor","img/motor_3.png","68","68","motor","3","28","1","0","0","",""
"null","","129258","HierDym76pjp2l","dq69ozpkqw","msl000550","iti","img/motor_blank.png","null","68","motor","","","","","","",""
"566","","129834","HierDym76pjp2l","dq69ozpkqw","msl000550","motor","img/motor_3.png","68","68","motor","3","29","1","0","0","",""
"null","","129945","HierDym76pjp2l","dq69ozpkqw","msl000550","iti","img/motor_blank.png","null","68","motor","","","","","","",""
"825","","130777","HierDym76pjp2l","dq69ozpkqw","msl000550","motor","img/motor_6.png","74","74","motor","6","30","1","0","0","",""
"null","","130887","HierDym76pjp2l","dq69ozpkqw","msl000550","iti","img/motor_blank.png","null","74","motor","","","","","","",""
"809","","131704","HierDym76pjp2l","dq69ozpkqw","msl000550","motor","img/motor_1.png","65","65","motor","1","31","1","0","0","",""
"null","","131816","HierDym76pjp2l","dq69ozpkqw","msl000550","iti","img/motor_blank.png","null","65","motor","","","","","","",""
"820","","132644","HierDym76pjp2l","dq69ozpkqw","msl000550","motor","img/motor_7.png","75","75","motor","7","32","1","0","0","",""
"null","","132753","HierDym76pjp2l","dq69ozpkqw","msl000550","iti","img/motor_blank.png","null","75","motor","","","","","","",""
"796","","133558","HierDym76pjp2l","dq69ozpkqw","msl000550","motor","img/motor_7.png","75","75","motor","7","33","1","0","0","",""
"null","","133668","HierDym76pjp2l","dq69ozpkqw","msl000550","iti","img/motor_blank.png","null","75","motor","","","","","","",""
"643","","134320","HierDym76pjp2l","dq69ozpkqw","msl000550","motor","img/motor_1.png","65","65","motor","1","34","1","0","0","",""
"null","","134430","HierDym76pjp2l","dq69ozpkqw","msl000550","iti","img/motor_blank.png","null","65","motor","","","","","","",""
"496","","134931","HierDym76pjp2l","dq69ozpkqw","msl000550","motor","img/motor_2.png","83","83","motor","2","35","1","0","0","",""
"null","","135043","HierDym76pjp2l","dq69ozpkqw","msl000550","iti","img/motor_blank.png","null","83","motor","","","","","","",""
"622","","135679","HierDym76pjp2l","dq69ozpkqw","msl000550","motor","img/motor_8.png","76","76","motor","8","36","1","0","0","",""
"null","","135790","HierDym76pjp2l","dq69ozpkqw","msl000550","iti","img/motor_blank.png","null","76","motor","","","","","","",""
"640","","136441","HierDym76pjp2l","dq69ozpkqw","msl000550","motor","img/motor_2.png","83","83","motor","2","37","1","0","0","",""
"null","","136551","HierDym76pjp2l","dq69ozpkqw","msl000550","iti","img/motor_blank.png","null","83","motor","","","","","","",""
"1085","","137645","HierDym76pjp2l","dq69ozpkqw","msl000550","motor","img/motor_6.png","75","74","motor","6","38","0","1","0","",""
"676","","138329","HierDym76pjp2l","dq69ozpkqw","msl000550","motorRepeat","img/motor_6.png","74","74","motor","6","38","1","0","0","",""
"null","","138441","HierDym76pjp2l","dq69ozpkqw","msl000550","iti","img/motor_blank.png","null","74","motor","","","","","","",""
"1052","","139503","HierDym76pjp2l","dq69ozpkqw","msl000550","motor","img/motor_2.png","83","83","motor","2","39","1","0","0","",""
"null","","139614","HierDym76pjp2l","dq69ozpkqw","msl000550","iti","img/motor_blank.png","null","83","motor","","","","","","",""
"667","","140290","HierDym76pjp2l","dq69ozpkqw","msl000550","motor","img/motor_7.png","75","75","motor","7","40","1","0","0","",""
"null","","140398","HierDym76pjp2l","dq69ozpkqw","msl000550","iti","img/motor_blank.png","null","75","motor","","","","","","",""
"1124","","141529","HierDym76pjp2l","dq69ozpkqw","msl000550","motor","img/motor_6.png","74","74","motor","6","41","1","0","0","",""
"null","","141641","HierDym76pjp2l","dq69ozpkqw","msl000550","iti","img/motor_blank.png","null","74","motor","","","","","","",""
"716","","142367","HierDym76pjp2l","dq69ozpkqw","msl000550","motor","img/motor_2.png","83","83","motor","2","42","1","0","0","",""
"null","","142476","HierDym76pjp2l","dq69ozpkqw","msl000550","iti","img/motor_blank.png","null","83","motor","","","","","","",""
"738","","143223","HierDym76pjp2l","dq69ozpkqw","msl000550","motor","img/motor_7.png","75","75","motor","7","43","1","0","0","",""
"null","","143332","HierDym76pjp2l","dq69ozpkqw","msl000550","iti","img/motor_blank.png","null","75","motor","","","","","","",""
"654","","143993","HierDym76pjp2l","dq69ozpkqw","msl000550","motor","img/motor_4.png","70","70","motor","4","44","1","0","0","",""
"null","","144102","HierDym76pjp2l","dq69ozpkqw","msl000550","iti","img/motor_blank.png","null","70","motor","","","","","","",""
"583","","144693","HierDym76pjp2l","dq69ozpkqw","msl000550","motor","img/motor_1.png","65","65","motor","1","45","1","0","0","",""
"null","","144804","HierDym76pjp2l","dq69ozpkqw","msl000550","iti","img/motor_blank.png","null","65","motor","","","","","","",""
"814","","145625","HierDym76pjp2l","dq69ozpkqw","msl000550","motor","img/motor_6.png","74","74","motor","6","46","1","0","0","",""
"null","","145735","HierDym76pjp2l","dq69ozpkqw","msl000550","iti","img/motor_blank.png","null","74","motor","","","","","","",""
"685","","146429","HierDym76pjp2l","dq69ozpkqw","msl000550","motor","img/motor_7.png","75","75","motor","7","47","1","0","0","",""
"null","","146537","HierDym76pjp2l","dq69ozpkqw","msl000550","iti","img/motor_blank.png","null","75","motor","","","","","","",""
"602","","147146","HierDym76pjp2l","dq69ozpkqw","msl000550","motor","img/motor_7.png","75","75","motor","7","48","1","0","0","",""
"null","","147253","HierDym76pjp2l","dq69ozpkqw","msl000550","iti","img/motor_blank.png","null","75","motor","","","","","","",""
"859","","148122","HierDym76pjp2l","dq69ozpkqw","msl000550","motor","img/motor_3.png","68","68","motor","3","49","1","0","0","",""
"null","","148231","HierDym76pjp2l","dq69ozpkqw","msl000550","iti","img/motor_blank.png","null","68","motor","","","","","","",""
"650","","148888","HierDym76pjp2l","dq69ozpkqw","msl000550","motor","img/motor_4.png","70","70","motor","4","50","1","0","0","",""
"null","","148995","HierDym76pjp2l","dq69ozpkqw","msl000550","iti","img/motor_blank.png","null","70","motor","","","","","","",""
"638","","149642","HierDym76pjp2l","dq69ozpkqw","msl000550","motor","img/motor_2.png","83","83","motor","2","51","1","0","0","",""
"null","","149752","HierDym76pjp2l","dq69ozpkqw","msl000550","iti","img/motor_blank.png","null","83","motor","","","","","","",""
"666","","150428","HierDym76pjp2l","dq69ozpkqw","msl000550","motor","img/motor_7.png","75","75","motor","7","52","1","0","0","",""
"null","","150536","HierDym76pjp2l","dq69ozpkqw","msl000550","iti","img/motor_blank.png","null","75","motor","","","","","","",""
"605","","151150","HierDym76pjp2l","dq69ozpkqw","msl000550","motor","img/motor_2.png","83","83","motor","2","53","1","0","0","",""
"null","","151258","HierDym76pjp2l","dq69ozpkqw","msl000550","iti","img/motor_blank.png","null","83","motor","","","","","","",""
"535","","151802","HierDym76pjp2l","dq69ozpkqw","msl000550","motor","img/motor_4.png","70","70","motor","4","54","1","0","0","",""
"null","","151911","HierDym76pjp2l","dq69ozpkqw","msl000550","iti","img/motor_blank.png","null","70","motor","","","","","","",""
"725","","152646","HierDym76pjp2l","dq69ozpkqw","msl000550","motor","img/motor_6.png","74","74","motor","6","55","1","0","0","",""
"null","","152753","HierDym76pjp2l","dq69ozpkqw","msl000550","iti","img/motor_blank.png","null","74","motor","","","","","","",""
"582","","153344","HierDym76pjp2l","dq69ozpkqw","msl000550","motor","img/motor_6.png","74","74","motor","6","56","1","0","0","",""
"null","","153452","HierDym76pjp2l","dq69ozpkqw","msl000550","iti","img/motor_blank.png","null","74","motor","","","","","","",""
"489","","153951","HierDym76pjp2l","dq69ozpkqw","msl000550","motor","img/motor_1.png","83","65","motor","1","57","0","1","0","",""
"373","","154332","HierDym76pjp2l","dq69ozpkqw","msl000550","motorRepeat","img/motor_1.png","65","65","motor","1","57","1","0","0","",""
"null","","154443","HierDym76pjp2l","dq69ozpkqw","msl000550","iti","img/motor_blank.png","null","65","motor","","","","","","",""
"657","","155109","HierDym76pjp2l","dq69ozpkqw","msl000550","motor","img/motor_2.png","83","83","motor","2","58","1","0","0","",""
"null","","155220","HierDym76pjp2l","dq69ozpkqw","msl000550","iti","img/motor_blank.png","null","83","motor","","","","","","",""
"740","","155967","HierDym76pjp2l","dq69ozpkqw","msl000550","motor","img/motor_8.png","76","76","motor","8","59","1","0","0","",""
"null","","156078","HierDym76pjp2l","dq69ozpkqw","msl000550","iti","img/motor_blank.png","null","76","motor","","","","","","",""
"570","","156657","HierDym76pjp2l","dq69ozpkqw","msl000550","motor","img/motor_7.png","75","75","motor","7","60","1","0","0","",""
"null","","156766","HierDym76pjp2l","dq69ozpkqw","msl000550","iti","img/motor_blank.png","null","75","motor","","","","","","",""
"514","","157290","HierDym76pjp2l","dq69ozpkqw","msl000550","motor","img/motor_1.png","65","65","motor","1","61","1","0","0","",""
"null","","157396","HierDym76pjp2l","dq69ozpkqw","msl000550","iti","img/motor_blank.png","null","65","motor","","","","","","",""
"646","","158052","HierDym76pjp2l","dq69ozpkqw","msl000550","motor","img/motor_6.png","74","74","motor","6","62","1","0","0","",""
"null","","158161","HierDym76pjp2l","dq69ozpkqw","msl000550","iti","img/motor_blank.png","null","74","motor","","","","","","",""
"526","","158696","HierDym76pjp2l","dq69ozpkqw","msl000550","motor","img/motor_8.png","76","76","motor","8","63","1","0","0","",""
"null","","158806","HierDym76pjp2l","dq69ozpkqw","msl000550","iti","img/motor_blank.png","null","76","motor","","","","","","",""
"526","","159341","HierDym76pjp2l","dq69ozpkqw","msl000550","motor","img/motor_2.png","83","83","motor","2","64","1","0","0","",""
"null","","159449","HierDym76pjp2l","dq69ozpkqw","msl000550","iti","img/motor_blank.png","null","83","motor","","","","","","",""
"832","","160290","HierDym76pjp2l","dq69ozpkqw","msl000550","motor","img/motor_5.png","72","72","motor","5","65","1","0","0","",""
"null","","160399","HierDym76pjp2l","dq69ozpkqw","msl000550","iti","img/motor_blank.png","null","72","motor","","","","","","",""
"605","","161013","HierDym76pjp2l","dq69ozpkqw","msl000550","motor","img/motor_6.png","74","74","motor","6","66","1","0","0","",""
"null","","161124","HierDym76pjp2l","dq69ozpkqw","msl000550","iti","img/motor_blank.png","null","74","motor","","","","","","",""
"612","","161746","HierDym76pjp2l","dq69ozpkqw","msl000550","motor","img/motor_5.png","72","72","motor","5","67","1","0","0","",""
"40","","161856","HierDym76pjp2l","dq69ozpkqw","msl000550","iti","img/motor_blank.png","72","72","motor","","","","","","",""
"463","","162328","HierDym76pjp2l","dq69ozpkqw","msl000550","motor","img/motor_6.png","74","74","motor","6","68","1","0","0","",""
"null","","162437","HierDym76pjp2l","dq69ozpkqw","msl000550","iti","img/motor_blank.png","null","74","motor","","","","","","",""
"894","","163337","HierDym76pjp2l","dq69ozpkqw","msl000550","motor","img/motor_2.png","83","83","motor","2","69","1","0","0","",""
"null","","163445","HierDym76pjp2l","dq69ozpkqw","msl000550","iti","img/motor_blank.png","null","83","motor","","","","","","",""
"587","","164041","HierDym76pjp2l","dq69ozpkqw","msl000550","motor","img/motor_8.png","76","76","motor","8","70","1","0","0","",""
"null","","164151","HierDym76pjp2l","dq69ozpkqw","msl000550","iti","img/motor_blank.png","null","76","motor","","","","","","",""
"367","","164527","HierDym76pjp2l","dq69ozpkqw","msl000550","motor","img/motor_1.png","65","65","motor","1","71","1","0","0","",""
"null","","164637","HierDym76pjp2l","dq69ozpkqw","msl000550","iti","img/motor_blank.png","null","65","motor","","","","","","",""
"635","","165279","HierDym76pjp2l","dq69ozpkqw","msl000550","motor","img/motor_8.png","76","76","motor","8","72","1","0","0","",""
"null","","165389","HierDym76pjp2l","dq69ozpkqw","msl000550","iti","img/motor_blank.png","null","76","motor","","","","","","",""
"763","","166159","HierDym76pjp2l","dq69ozpkqw","msl000550","motor","img/motor_4.png","70","70","motor","4","73","1","0","0","",""
"null","","166269","HierDym76pjp2l","dq69ozpkqw","msl000550","iti","img/motor_blank.png","null","70","motor","","","","","","",""
"777","","167055","HierDym76pjp2l","dq69ozpkqw","msl000550","motor","img/motor_5.png","72","72","motor","5","74","1","0","0","",""
"null","","167165","HierDym76pjp2l","dq69ozpkqw","msl000550","iti","img/motor_blank.png","null","72","motor","","","","","","",""
"751","","167926","HierDym76pjp2l","dq69ozpkqw","msl000550","motor","img/motor_4.png","70","70","motor","4","75","1","0","0","",""
"null","","168036","HierDym76pjp2l","dq69ozpkqw","msl000550","iti","img/motor_blank.png","null","70","motor","","","","","","",""
"680","","168725","HierDym76pjp2l","dq69ozpkqw","msl000550","motor","img/motor_2.png","83","83","motor","2","76","1","0","0","",""
"null","","168834","HierDym76pjp2l","dq69ozpkqw","msl000550","iti","img/motor_blank.png","null","83","motor","","","","","","",""
"454","","169297","HierDym76pjp2l","dq69ozpkqw","msl000550","motor","img/motor_2.png","65","83","motor","2","77","0","1","0","",""
"389","","169692","HierDym76pjp2l","dq69ozpkqw","msl000550","motorRepeat","img/motor_2.png","83","83","motor","2","77","1","0","0","",""
"null","","169803","HierDym76pjp2l","dq69ozpkqw","msl000550","iti","img/motor_blank.png","null","83","motor","","","","","","",""
"782","","170593","HierDym76pjp2l","dq69ozpkqw","msl000550","motor","img/motor_4.png","70","70","motor","4","78","1","0","0","",""
"null","","170702","HierDym76pjp2l","dq69ozpkqw","msl000550","iti","img/motor_blank.png","null","70","motor","","","","","","",""
"707","","171417","HierDym76pjp2l","dq69ozpkqw","msl000550","motor","img/motor_7.png","75","75","motor","7","79","1","0","0","",""
"null","","171526","HierDym76pjp2l","dq69ozpkqw","msl000550","iti","img/motor_blank.png","null","75","motor","","","","","","",""
"1044","","172580","HierDym76pjp2l","dq69ozpkqw","msl000550","motor","img/motor_3.png","68","68","motor","3","80","1","0","0","",""
"null","","172688","HierDym76pjp2l","dq69ozpkqw","msl000550","iti","img/motor_blank.png","null","68","motor","","","","","","",""
"551","","173247","HierDym76pjp2l","dq69ozpkqw","msl000550","motor","img/motor_7.png","75","75","motor","7","81","1","0","0","",""
"null","","173355","HierDym76pjp2l","dq69ozpkqw","msl000550","iti","img/motor_blank.png","null","75","motor","","","","","","",""
"521","","173885","HierDym76pjp2l","dq69ozpkqw","msl000550","motor","img/motor_4.png","70","70","motor","4","82","1","0","0","",""
"null","","173994","HierDym76pjp2l","dq69ozpkqw","msl000550","iti","img/motor_blank.png","null","70","motor","","","","","","",""
"600","","174604","HierDym76pjp2l","dq69ozpkqw","msl000550","motor","img/motor_2.png","83","83","motor","2","83","1","0","0","",""
"null","","174714","HierDym76pjp2l","dq69ozpkqw","msl000550","iti","img/motor_blank.png","null","83","motor","","","","","","",""
"728","","175452","HierDym76pjp2l","dq69ozpkqw","msl000550","motor","img/motor_1.png","65","65","motor","1","84","1","0","0","",""
"null","","175563","HierDym76pjp2l","dq69ozpkqw","msl000550","iti","img/motor_blank.png","null","65","motor","","","","","","",""
"784","","176354","HierDym76pjp2l","dq69ozpkqw","msl000550","motor","img/motor_5.png","72","72","motor","5","85","1","0","0","",""
"null","","176464","HierDym76pjp2l","dq69ozpkqw","msl000550","iti","img/motor_blank.png","null","72","motor","","","","","","",""
"686","","177159","HierDym76pjp2l","dq69ozpkqw","msl000550","motor","img/motor_3.png","68","68","motor","3","86","1","0","0","",""
"null","","177267","HierDym76pjp2l","dq69ozpkqw","msl000550","iti","img/motor_blank.png","null","68","motor","","","","","","",""
"525","","177801","HierDym76pjp2l","dq69ozpkqw","msl000550","motor","img/motor_1.png","65","65","motor","1","87","1","0","0","",""
"null","","177912","HierDym76pjp2l","dq69ozpkqw","msl000550","iti","img/motor_blank.png","null","65","motor","","","","","","",""
"609","","178529","HierDym76pjp2l","dq69ozpkqw","msl000550","motor","img/motor_4.png","70","70","motor","4","88","1","0","0","",""
"null","","178639","HierDym76pjp2l","dq69ozpkqw","msl000550","iti","img/motor_blank.png","null","70","motor","","","","","","",""
"514","","179163","HierDym76pjp2l","dq69ozpkqw","msl000550","motor","img/motor_8.png","76","76","motor","8","89","1","0","0","",""
"null","","179272","HierDym76pjp2l","dq69ozpkqw","msl000550","iti","img/motor_blank.png","null","76","motor","","","","","","",""
"597","","179876","HierDym76pjp2l","dq69ozpkqw","msl000550","motor","img/motor_1.png","65","65","motor","1","90","1","0","0","",""
"null","","179985","HierDym76pjp2l","dq69ozpkqw","msl000550","iti","img/motor_blank.png","null","65","motor","","","","","","",""
"504","","180497","HierDym76pjp2l","dq69ozpkqw","msl000550","motor","img/motor_8.png","76","76","motor","8","91","1","0","0","",""
"null","","180607","HierDym76pjp2l","dq69ozpkqw","msl000550","iti","img/motor_blank.png","null","76","motor","","","","","","",""
"418","","181034","HierDym76pjp2l","dq69ozpkqw","msl000550","motor","img/motor_8.png","76","76","motor","8","92","1","0","0","",""
"null","","181144","HierDym76pjp2l","dq69ozpkqw","msl000550","iti","img/motor_blank.png","null","76","motor","","","","","","",""
"652","","181804","HierDym76pjp2l","dq69ozpkqw","msl000550","motor","img/motor_2.png","83","83","motor","2","93","1","0","0","",""
"null","","181914","HierDym76pjp2l","dq69ozpkqw","msl000550","iti","img/motor_blank.png","null","83","motor","","","","","","",""
"613","","182534","HierDym76pjp2l","dq69ozpkqw","msl000550","motor","img/motor_5.png","72","72","motor","5","94","1","0","0","",""
"null","","182643","HierDym76pjp2l","dq69ozpkqw","msl000550","iti","img/motor_blank.png","null","72","motor","","","","","","",""
"1083","","183735","HierDym76pjp2l","dq69ozpkqw","msl000550","motor","img/motor_3.png","70","68","motor","3","95","0","1","0","",""
"338","","184083","HierDym76pjp2l","dq69ozpkqw","msl000550","motorRepeat","img/motor_3.png","68","68","motor","3","95","1","0","0","",""
"null","","184193","HierDym76pjp2l","dq69ozpkqw","msl000550","iti","img/motor_blank.png","null","68","motor","","","","","","",""
"578","","184780","HierDym76pjp2l","dq69ozpkqw","msl000550","motor","img/motor_7.png","75","75","motor","7","96","1","0","0","",""
"null","","184889","HierDym76pjp2l","dq69ozpkqw","msl000550","iti","img/motor_blank.png","null","75","motor","","","","","","",""
"339","","185238","HierDym76pjp2l","dq69ozpkqw","msl000550","motor","img/motor_8.png","75","76","motor","8","97","0","1","0","",""
"397","","185643","HierDym76pjp2l","dq69ozpkqw","msl000550","motorRepeat","img/motor_8.png","76","76","motor","8","97","1","0","0","",""
"null","","185752","HierDym76pjp2l","dq69ozpkqw","msl000550","iti","img/motor_blank.png","null","76","motor","","","","","","",""
"742","","186500","HierDym76pjp2l","dq69ozpkqw","msl000550","motor","img/motor_3.png","68","68","motor","3","98","1","0","0","",""
"null","","186611","HierDym76pjp2l","dq69ozpkqw","msl000550","iti","img/motor_blank.png","null","68","motor","","","","","","",""
"636","","187254","HierDym76pjp2l","dq69ozpkqw","msl000550","motor","img/motor_4.png","70","70","motor","4","99","1","0","0","",""
"null","","187361","HierDym76pjp2l","dq69ozpkqw","msl000550","iti","img/motor_blank.png","null","70","motor","","","","","","",""
"1208","","188580","HierDym76pjp2l","dq69ozpkqw","msl000550","motor","img/motor_3.png","68","68","motor","3","100","1","0","0","",""
"null","","188690","HierDym76pjp2l","dq69ozpkqw","msl000550","iti","img/motor_blank.png","null","68","motor","","","","","","",""
"590","","189289","HierDym76pjp2l","dq69ozpkqw","msl000550","motor","img/motor_7.png","75","75","motor","7","101","1","0","0","",""
"null","","189398","HierDym76pjp2l","dq69ozpkqw","msl000550","iti","img/motor_blank.png","null","75","motor","","","","","","",""
"574","","189980","HierDym76pjp2l","dq69ozpkqw","msl000550","motor","img/motor_1.png","65","65","motor","1","102","1","0","0","",""
"null","","190090","HierDym76pjp2l","dq69ozpkqw","msl000550","iti","img/motor_blank.png","null","65","motor","","","","","","",""
"784","","190883","HierDym76pjp2l","dq69ozpkqw","msl000550","motor","img/motor_3.png","68","68","motor","3","103","1","0","0","",""
"null","","190992","HierDym76pjp2l","dq69ozpkqw","msl000550","iti","img/motor_blank.png","null","68","motor","","","","","","",""
"696","","191697","HierDym76pjp2l","dq69ozpkqw","msl000550","motor","img/motor_5.png","72","72","motor","5","104","1","0","0","",""
"null","","191807","HierDym76pjp2l","dq69ozpkqw","msl000550","iti","img/motor_blank.png","null","72","motor","","","","","","",""
"1147","","192962","HierDym76pjp2l","dq69ozpkqw","msl000550","motor","img/motor_2.png","83","83","motor","2","105","1","0","0","",""
"null","","193071","HierDym76pjp2l","dq69ozpkqw","msl000550","iti","img/motor_blank.png","null","83","motor","","","","","","",""
"506","","193585","HierDym76pjp2l","dq69ozpkqw","msl000550","motor","img/motor_1.png","65","65","motor","1","106","1","0","0","",""
"null","","193697","HierDym76pjp2l","dq69ozpkqw","msl000550","iti","img/motor_blank.png","null","65","motor","","","","","","",""
"848","","194554","HierDym76pjp2l","dq69ozpkqw","msl000550","motor","img/motor_5.png","72","72","motor","5","107","1","0","0","",""
"null","","194663","HierDym76pjp2l","dq69ozpkqw","msl000550","iti","img/motor_blank.png","null","72","motor","","","","","","",""
"520","","195192","HierDym76pjp2l","dq69ozpkqw","msl000550","motor","img/motor_8.png","76","76","motor","8","108","1","0","0","",""
"null","","195302","HierDym76pjp2l","dq69ozpkqw","msl000550","iti","img/motor_blank.png","null","76","motor","","","","","","",""
"986","","196296","HierDym76pjp2l","dq69ozpkqw","msl000550","motor","img/motor_5.png","72","72","motor","5","109","1","0","0","",""
"null","","196406","HierDym76pjp2l","dq69ozpkqw","msl000550","iti","img/motor_blank.png","null","72","motor","","","","","","",""
"503","","196917","HierDym76pjp2l","dq69ozpkqw","msl000550","motor","img/motor_8.png","76","76","motor","8","110","1","0","0","",""
"null","","197027","HierDym76pjp2l","dq69ozpkqw","msl000550","iti","img/motor_blank.png","null","76","motor","","","","","","",""
"795","","197831","HierDym76pjp2l","dq69ozpkqw","msl000550","motor","img/motor_6.png","75","74","motor","6","111","0","1","0","",""
"348","","198189","HierDym76pjp2l","dq69ozpkqw","msl000550","motorRepeat","img/motor_6.png","74","74","motor","6","111","1","0","0","",""
"null","","198295","HierDym76pjp2l","dq69ozpkqw","msl000550","iti","img/motor_blank.png","null","74","motor","","","","","","",""
"554","","198857","HierDym76pjp2l","dq69ozpkqw","msl000550","motor","img/motor_4.png","70","70","motor","4","112","1","0","0","",""
"null","","198966","HierDym76pjp2l","dq69ozpkqw","msl000550","iti","img/motor_blank.png","null","70","motor","","","","","","",""
"428","","199405","HierDym76pjp2l","dq69ozpkqw","msl000550","motor","img/motor_3.png","68","68","motor","3","113","1","0","0","",""
"null","","199513","HierDym76pjp2l","dq69ozpkqw","msl000550","iti","img/motor_blank.png","null","68","motor","","","","","","",""
"649","","200175","HierDym76pjp2l","dq69ozpkqw","msl000550","motor","img/motor_4.png","70","70","motor","4","114","1","0","0","",""
"null","","200286","HierDym76pjp2l","dq69ozpkqw","msl000550","iti","img/motor_blank.png","null","70","motor","","","","","","",""
"695","","200989","HierDym76pjp2l","dq69ozpkqw","msl000550","motor","img/motor_3.png","68","68","motor","3","115","1","0","0","",""
"null","","201101","HierDym76pjp2l","dq69ozpkqw","msl000550","iti","img/motor_blank.png","null","68","motor","","","","","","",""
"971","","202081","HierDym76pjp2l","dq69ozpkqw","msl000550","motor","img/motor_6.png","74","74","motor","6","116","1","0","0","",""
"null","","202192","HierDym76pjp2l","dq69ozpkqw","msl000550","iti","img/motor_blank.png","null","74","motor","","","","","","",""
"476","","202678","HierDym76pjp2l","dq69ozpkqw","msl000550","motor","img/motor_8.png","76","76","motor","8","117","1","0","0","",""
"null","","202789","HierDym76pjp2l","dq69ozpkqw","msl000550","iti","img/motor_blank.png","null","76","motor","","","","","","",""
"864","","203662","HierDym76pjp2l","dq69ozpkqw","msl000550","motor","img/motor_3.png","68","68","motor","3","118","1","0","0","",""
"null","","203773","HierDym76pjp2l","dq69ozpkqw","msl000550","iti","img/motor_blank.png","null","68","motor","","","","","","",""
"671","","204456","HierDym76pjp2l","dq69ozpkqw","msl000550","motor","img/motor_8.png","76","76","motor","8","119","1","0","0","",""
"null","","204568","HierDym76pjp2l","dq69ozpkqw","msl000550","iti","img/motor_blank.png","null","76","motor","","","","","","",""
"650","","205228","HierDym76pjp2l","dq69ozpkqw","msl000550","motor","img/motor_7.png","75","75","motor","7","120","1","0","0","",""
"null","","205337","HierDym76pjp2l","dq69ozpkqw","msl000550","iti","img/motor_blank.png","null","75","motor","","","","","","",""
"570","","205916","HierDym76pjp2l","dq69ozpkqw","msl000550","motor","img/motor_5.png","72","72","motor","5","121","1","0","0","",""
"null","","206028","HierDym76pjp2l","dq69ozpkqw","msl000550","iti","img/motor_blank.png","null","72","motor","","","","","","",""
"536","","206574","HierDym76pjp2l","dq69ozpkqw","msl000550","motor","img/motor_5.png","72","72","motor","5","122","1","0","0","",""
"null","","206684","HierDym76pjp2l","dq69ozpkqw","msl000550","iti","img/motor_blank.png","null","72","motor","","","","","","",""
"558","","207249","HierDym76pjp2l","dq69ozpkqw","msl000550","motor","img/motor_4.png","70","70","motor","4","123","1","0","0","",""
"null","","207357","HierDym76pjp2l","dq69ozpkqw","msl000550","iti","img/motor_blank.png","null","70","motor","","","","","","",""
"488","","207854","HierDym76pjp2l","dq69ozpkqw","msl000550","motor","img/motor_4.png","70","70","motor","4","124","1","0","0","",""
"null","","207964","HierDym76pjp2l","dq69ozpkqw","msl000550","iti","img/motor_blank.png","null","70","motor","","","","","","",""
"763","","208736","HierDym76pjp2l","dq69ozpkqw","msl000550","motor","img/motor_6.png","74","74","motor","6","125","1","0","0","",""
"null","","208847","HierDym76pjp2l","dq69ozpkqw","msl000550","iti","img/motor_blank.png","null","74","motor","","","","","","",""
"826","","209683","HierDym76pjp2l","dq69ozpkqw","msl000550","motor","img/motor_2.png","83","83","motor","2","126","1","0","0","",""
"null","","209794","HierDym76pjp2l","dq69ozpkqw","msl000550","iti","img/motor_blank.png","null","83","motor","","","","","","",""
"572","","210374","HierDym76pjp2l","dq69ozpkqw","msl000550","motor","img/motor_1.png","65","65","motor","1","127","1","0","0","",""
"null","","210483","HierDym76pjp2l","dq69ozpkqw","msl000550","iti","img/motor_blank.png","null","65","motor","","","","","","",""
"691","","211181","HierDym76pjp2l","dq69ozpkqw","msl000550","motor","img/motor_3.png","70","68","motor","3","128","0","1","0","",""
"307","","211495","HierDym76pjp2l","dq69ozpkqw","msl000550","motorRepeat","img/motor_3.png","68","68","motor","3","128","1","0","0","",""
"null","","211606","HierDym76pjp2l","dq69ozpkqw","msl000550","iti","img/motor_blank.png","null","68","motor","","","","","","",""
"630","","212245","HierDym76pjp2l","dq69ozpkqw","msl000550","motor","img/motor_4.png","70","70","motor","4","129","1","0","0","",""
"null","","212355","HierDym76pjp2l","dq69ozpkqw","msl000550","iti","img/motor_blank.png","null","70","motor","","","","","","",""
"652","","213014","HierDym76pjp2l","dq69ozpkqw","msl000550","motor","img/motor_4.png","70","70","motor","4","130","1","0","0","",""
"null","","213122","HierDym76pjp2l","dq69ozpkqw","msl000550","iti","img/motor_blank.png","null","70","motor","","","","","","",""
"644","","213777","HierDym76pjp2l","dq69ozpkqw","msl000550","motor","img/motor_7.png","75","75","motor","7","131","1","0","0","",""
"null","","213886","HierDym76pjp2l","dq69ozpkqw","msl000550","iti","img/motor_blank.png","null","75","motor","","","","","","",""
"986","","214881","HierDym76pjp2l","dq69ozpkqw","msl000550","motor","img/motor_2.png","83","83","motor","2","132","1","0","0","",""
"null","","214991","HierDym76pjp2l","dq69ozpkqw","msl000550","iti","img/motor_blank.png","null","83","motor","","","","","","",""
"840","","215840","HierDym76pjp2l","dq69ozpkqw","msl000550","motor","img/motor_4.png","70","70","motor","4","133","1","0","0","",""
"null","","215949","HierDym76pjp2l","dq69ozpkqw","msl000550","iti","img/motor_blank.png","null","70","motor","","","","","","",""
"571","","216527","HierDym76pjp2l","dq69ozpkqw","msl000550","motor","img/motor_3.png","68","68","motor","3","134","1","0","0","",""
"null","","216638","HierDym76pjp2l","dq69ozpkqw","msl000550","iti","img/motor_blank.png","null","68","motor","","","","","","",""
"614","","217260","HierDym76pjp2l","dq69ozpkqw","msl000550","motor","img/motor_5.png","72","72","motor","5","135","1","0","0","",""
"null","","217369","HierDym76pjp2l","dq69ozpkqw","msl000550","iti","img/motor_blank.png","null","72","motor","","","","","","",""
"645","","218024","HierDym76pjp2l","dq69ozpkqw","msl000550","motor","img/motor_7.png","75","75","motor","7","136","1","0","0","",""
"null","","218132","HierDym76pjp2l","dq69ozpkqw","msl000550","iti","img/motor_blank.png","null","75","motor","","","","","","",""
"402","","218544","HierDym76pjp2l","dq69ozpkqw","msl000550","motor","img/motor_7.png","75","75","motor","7","137","1","0","0","",""
"null","","218652","HierDym76pjp2l","dq69ozpkqw","msl000550","iti","img/motor_blank.png","null","75","motor","","","","","","",""
"679","","219340","HierDym76pjp2l","dq69ozpkqw","msl000550","motor","img/motor_2.png","83","83","motor","2","138","1","0","0","",""
"null","","219450","HierDym76pjp2l","dq69ozpkqw","msl000550","iti","img/motor_blank.png","null","83","motor","","","","","","",""
"698","","220158","HierDym76pjp2l","dq69ozpkqw","msl000550","motor","img/motor_7.png","75","75","motor","7","139","1","0","0","",""
"null","","220266","HierDym76pjp2l","dq69ozpkqw","msl000550","iti","img/motor_blank.png","null","75","motor","","","","","","",""
"610","","220885","HierDym76pjp2l","dq69ozpkqw","msl000550","motor","img/motor_1.png","65","65","motor","1","140","1","0","0","",""
"null","","220993","HierDym76pjp2l","dq69ozpkqw","msl000550","iti","img/motor_blank.png","null","65","motor","","","","","","",""
"492","","221494","HierDym76pjp2l","dq69ozpkqw","msl000550","motor","img/motor_8.png","76","76","motor","8","141","1","0","0","",""
"null","","221603","HierDym76pjp2l","dq69ozpkqw","msl000550","iti","img/motor_blank.png","null","76","motor","","","","","","",""
"699","","222311","HierDym76pjp2l","dq69ozpkqw","msl000550","motor","img/motor_2.png","83","83","motor","2","142","1","0","0","",""
"null","","222421","HierDym76pjp2l","dq69ozpkqw","msl000550","iti","img/motor_blank.png","null","83","motor","","","","","","",""
"588","","223017","HierDym76pjp2l","dq69ozpkqw","msl000550","motor","img/motor_8.png","76","76","motor","8","143","1","0","0","",""
"null","","223127","HierDym76pjp2l","dq69ozpkqw","msl000550","iti","img/motor_blank.png","null","76","motor","","","","","","",""
"551","","223688","HierDym76pjp2l","dq69ozpkqw","msl000550","motor","img/motor_2.png","83","83","motor","2","144","1","0","0","",""
"null","","223799","HierDym76pjp2l","dq69ozpkqw","msl000550","iti","img/motor_blank.png","null","83","motor","","","","","","",""
"853","","224660","HierDym76pjp2l","dq69ozpkqw","msl000550","motor","img/motor_6.png","74","74","motor","6","145","1","0","0","",""
"null","","224769","HierDym76pjp2l","dq69ozpkqw","msl000550","iti","img/motor_blank.png","null","74","motor","","","","","","",""
"530","","225305","HierDym76pjp2l","dq69ozpkqw","msl000550","motor","img/motor_5.png","72","72","motor","5","146","1","0","0","",""
"null","","225413","HierDym76pjp2l","dq69ozpkqw","msl000550","iti","img/motor_blank.png","null","72","motor","","","","","","",""
"498","","225918","HierDym76pjp2l","dq69ozpkqw","msl000550","motor","img/motor_8.png","76","76","motor","8","147","1","0","0","",""
"null","","226026","HierDym76pjp2l","dq69ozpkqw","msl000550","iti","img/motor_blank.png","null","76","motor","","","","","","",""
"565","","226601","HierDym76pjp2l","dq69ozpkqw","msl000550","motor","img/motor_7.png","75","75","motor","7","148","1","0","0","",""
"null","","226710","HierDym76pjp2l","dq69ozpkqw","msl000550","iti","img/motor_blank.png","null","75","motor","","","","","","",""
"531","","227250","HierDym76pjp2l","dq69ozpkqw","msl000550","motor","img/motor_8.png","76","76","motor","8","149","1","0","0","",""
"null","","227360","HierDym76pjp2l","dq69ozpkqw","msl000550","iti","img/motor_blank.png","null","76","motor","","","","","","",""
"570","","227937","HierDym76pjp2l","dq69ozpkqw","msl000550","motor","img/motor_5.png","72","72","motor","5","150","1","0","0","",""
"null","","228047","HierDym76pjp2l","dq69ozpkqw","msl000550","iti","img/motor_blank.png","null","72","motor","","","","","","",""
"575","","228631","HierDym76pjp2l","dq69ozpkqw","msl000550","motor","img/motor_4.png","70","70","motor","4","151","1","0","0","",""
"null","","228741","HierDym76pjp2l","dq69ozpkqw","msl000550","iti","img/motor_blank.png","null","70","motor","","","","","","",""
"524","","229273","HierDym76pjp2l","dq69ozpkqw","msl000550","motor","img/motor_8.png","76","76","motor","8","152","1","0","0","",""
"null","","229384","HierDym76pjp2l","dq69ozpkqw","msl000550","iti","img/motor_blank.png","null","76","motor","","","","","","",""
"470","","229862","HierDym76pjp2l","dq69ozpkqw","msl000550","motor","img/motor_4.png","70","70","motor","4","153","1","0","0","",""
"null","","229972","HierDym76pjp2l","dq69ozpkqw","msl000550","iti","img/motor_blank.png","null","70","motor","","","","","","",""
"358","","230336","HierDym76pjp2l","dq69ozpkqw","msl000550","motor","img/motor_4.png","70","70","motor","4","154","1","0","0","",""
"null","","230446","HierDym76pjp2l","dq69ozpkqw","msl000550","iti","img/motor_blank.png","null","70","motor","","","","","","",""
"691","","231147","HierDym76pjp2l","dq69ozpkqw","msl000550","motor","img/motor_5.png","72","72","motor","5","155","1","0","0","",""
"null","","231255","HierDym76pjp2l","dq69ozpkqw","msl000550","iti","img/motor_blank.png","null","72","motor","","","","","","",""
"517","","231779","HierDym76pjp2l","dq69ozpkqw","msl000550","motor","img/motor_7.png","75","75","motor","7","156","1","0","0","",""
"null","","231890","HierDym76pjp2l","dq69ozpkqw","msl000550","iti","img/motor_blank.png","null","75","motor","","","","","","",""
"418","","232316","HierDym76pjp2l","dq69ozpkqw","msl000550","motor","img/motor_8.png","76","76","motor","8","157","1","0","0","",""
"null","","232427","HierDym76pjp2l","dq69ozpkqw","msl000550","iti","img/motor_blank.png","null","76","motor","","","","","","",""
"578","","233012","HierDym76pjp2l","dq69ozpkqw","msl000550","motor","img/motor_6.png","75","74","motor","6","158","0","1","0","",""
"420","","233440","HierDym76pjp2l","dq69ozpkqw","msl000550","motorRepeat","img/motor_6.png","74","74","motor","6","158","1","0","0","",""
"null","","233551","HierDym76pjp2l","dq69ozpkqw","msl000550","iti","img/motor_blank.png","null","74","motor","","","","","","",""
"729","","234289","HierDym76pjp2l","dq69ozpkqw","msl000550","motor","img/motor_3.png","68","68","motor","3","159","1","0","0","",""
"null","","234399","HierDym76pjp2l","dq69ozpkqw","msl000550","iti","img/motor_blank.png","null","68","motor","","","","","","",""
"680","","235089","HierDym76pjp2l","dq69ozpkqw","msl000550","motor","img/motor_6.png","74","74","motor","6","160","1","0","0","",""
"null","","235199","HierDym76pjp2l","dq69ozpkqw","msl000550","iti","img/motor_blank.png","null","74","motor","","","","","","",""
"523","","235730","HierDym76pjp2l","dq69ozpkqw","msl000550","motor","img/motor_3.png","68","68","motor","3","161","1","0","0","",""
"null","","235841","HierDym76pjp2l","dq69ozpkqw","msl000550","iti","img/motor_blank.png","null","68","motor","","","","","","",""
"607","","236458","HierDym76pjp2l","dq69ozpkqw","msl000550","motor","img/motor_5.png","72","72","motor","5","162","1","0","0","",""
"null","","236568","HierDym76pjp2l","dq69ozpkqw","msl000550","iti","img/motor_blank.png","null","72","motor","","","","","","",""
"589","","237165","HierDym76pjp2l","dq69ozpkqw","msl000550","motor","img/motor_7.png","75","75","motor","7","163","1","0","0","",""
"null","","237273","HierDym76pjp2l","dq69ozpkqw","msl000550","iti","img/motor_blank.png","null","75","motor","","","","","","",""
"752","","238031","HierDym76pjp2l","dq69ozpkqw","msl000550","motor","img/motor_4.png","70","70","motor","4","164","1","0","0","",""
"null","","238141","HierDym76pjp2l","dq69ozpkqw","msl000550","iti","img/motor_blank.png","null","70","motor","","","","","","",""
"451","","238602","HierDym76pjp2l","dq69ozpkqw","msl000550","motor","img/motor_8.png","76","76","motor","8","165","1","0","0","",""
"null","","238713","HierDym76pjp2l","dq69ozpkqw","msl000550","iti","img/motor_blank.png","null","76","motor","","","","","","",""
"532","","239254","HierDym76pjp2l","dq69ozpkqw","msl000550","motor","img/motor_2.png","83","83","motor","2","166","1","0","0","",""
"null","","239364","HierDym76pjp2l","dq69ozpkqw","msl000550","iti","img/motor_blank.png","null","83","motor","","","","","","",""
"365","","239737","HierDym76pjp2l","dq69ozpkqw","msl000550","motor","img/motor_2.png","83","83","motor","2","167","1","0","0","",""
"null","","239845","HierDym76pjp2l","dq69ozpkqw","msl000550","iti","img/motor_blank.png","null","83","motor","","","","","","",""
"578","","240433","HierDym76pjp2l","dq69ozpkqw","msl000550","motor","img/motor_3.png","68","68","motor","3","168","1","0","0","",""
"null","","240543","HierDym76pjp2l","dq69ozpkqw","msl000550","iti","img/motor_blank.png","null","68","motor","","","","","","",""
"600","","241152","HierDym76pjp2l","dq69ozpkqw","msl000550","motor","img/motor_4.png","70","70","motor","4","169","1","0","0","",""
"null","","241261","HierDym76pjp2l","dq69ozpkqw","msl000550","iti","img/motor_blank.png","null","70","motor","","","","","","",""
"554","","241824","HierDym76pjp2l","dq69ozpkqw","msl000550","motor","img/motor_4.png","70","70","motor","4","170","1","0","0","",""
"null","","241933","HierDym76pjp2l","dq69ozpkqw","msl000550","iti","img/motor_blank.png","null","70","motor","","","","","","",""
"458","","242401","HierDym76pjp2l","dq69ozpkqw","msl000550","motor","img/motor_7.png","75","75","motor","7","171","1","0","0","",""
"null","","242510","HierDym76pjp2l","dq69ozpkqw","msl000550","iti","img/motor_blank.png","null","75","motor","","","","","","",""
"591","","243111","HierDym76pjp2l","dq69ozpkqw","msl000550","motor","img/motor_6.png","74","74","motor","6","172","1","0","0","",""
"null","","243221","HierDym76pjp2l","dq69ozpkqw","msl000550","iti","img/motor_blank.png","null","74","motor","","","","","","",""
"522","","243752","HierDym76pjp2l","dq69ozpkqw","msl000550","motor","img/motor_4.png","70","70","motor","4","173","1","0","0","",""
"null","","243860","HierDym76pjp2l","dq69ozpkqw","msl000550","iti","img/motor_blank.png","null","70","motor","","","","","","",""
"561","","244429","HierDym76pjp2l","dq69ozpkqw","msl000550","motor","img/motor_6.png","74","74","motor","6","174","1","0","0","",""
"null","","244541","HierDym76pjp2l","dq69ozpkqw","msl000550","iti","img/motor_blank.png","null","74","motor","","","","","","",""
"594","","245143","HierDym76pjp2l","dq69ozpkqw","msl000550","motor","img/motor_7.png","75","75","motor","7","175","1","0","0","",""
"null","","245251","HierDym76pjp2l","dq69ozpkqw","msl000550","iti","img/motor_blank.png","null","75","motor","","","","","","",""
"706","","245967","HierDym76pjp2l","dq69ozpkqw","msl000550","motor","img/motor_1.png","65","65","motor","1","176","1","0","0","",""
"null","","246077","HierDym76pjp2l","dq69ozpkqw","msl000550","iti","img/motor_blank.png","null","65","motor","","","","","","",""
"432","","246518","HierDym76pjp2l","dq69ozpkqw","msl000550","motor","img/motor_8.png","76","76","motor","8","177","1","0","0","",""
"null","","246629","HierDym76pjp2l","dq69ozpkqw","msl000550","iti","img/motor_blank.png","null","76","motor","","","","","","",""
"563","","247201","HierDym76pjp2l","dq69ozpkqw","msl000550","motor","img/motor_2.png","83","83","motor","2","178","1","0","0","",""
"null","","247311","HierDym76pjp2l","dq69ozpkqw","msl000550","iti","img/motor_blank.png","null","83","motor","","","","","","",""
"764","","248084","HierDym76pjp2l","dq69ozpkqw","msl000550","motor","img/motor_5.png","70","72","motor","5","179","0","1","0","",""
"357","","248452","HierDym76pjp2l","dq69ozpkqw","msl000550","motorRepeat","img/motor_5.png","72","72","motor","5","179","1","0","0","",""
"null","","248560","HierDym76pjp2l","dq69ozpkqw","msl000550","iti","img/motor_blank.png","null","72","motor","","","","","","",""
"397","","248966","HierDym76pjp2l","dq69ozpkqw","msl000550","motor","img/motor_7.png","74","75","motor","7","180","0","1","0","",""
"692","","249667","HierDym76pjp2l","dq69ozpkqw","msl000550","motorRepeat","img/motor_7.png","75","75","motor","7","180","1","0","0","",""
"null","","249778","HierDym76pjp2l","dq69ozpkqw","msl000550","iti","img/motor_blank.png","null","75","motor","","","","","","",""
"618","","250403","HierDym76pjp2l","dq69ozpkqw","msl000550","motor","img/motor_4.png","70","70","motor","4","181","1","0","0","",""
"null","","250513","HierDym76pjp2l","dq69ozpkqw","msl000550","iti","img/motor_blank.png","null","70","motor","","","","","","",""
"765","","251287","HierDym76pjp2l","dq69ozpkqw","msl000550","motor","img/motor_5.png","74","72","motor","5","182","0","1","0","",""
"428","","251723","HierDym76pjp2l","dq69ozpkqw","msl000550","motorRepeat","img/motor_5.png","72","72","motor","5","182","1","0","0","",""
"null","","251834","HierDym76pjp2l","dq69ozpkqw","msl000550","iti","img/motor_blank.png","null","72","motor","","","","","","",""
"901","","252744","HierDym76pjp2l","dq69ozpkqw","msl000550","motor","img/motor_6.png","74","74","motor","6","183","1","0","0","",""
"null","","252853","HierDym76pjp2l","dq69ozpkqw","msl000550","iti","img/motor_blank.png","null","74","motor","","","","","","",""
"644","","253505","HierDym76pjp2l","dq69ozpkqw","msl000550","motor","img/motor_4.png","70","70","motor","4","184","1","0","0","",""
"null","","253616","HierDym76pjp2l","dq69ozpkqw","msl000550","iti","img/motor_blank.png","null","70","motor","","","","","","",""
"580","","254205","HierDym76pjp2l","dq69ozpkqw","msl000550","motor","img/motor_1.png","65","65","motor","1","185","1","0","0","",""
"null","","254313","HierDym76pjp2l","dq69ozpkqw","msl000550","iti","img/motor_blank.png","null","65","motor","","","","","","",""
"817","","255139","HierDym76pjp2l","dq69ozpkqw","msl000550","motor","img/motor_6.png","74","74","motor","6","186","1","0","0","",""
"null","","255248","HierDym76pjp2l","dq69ozpkqw","msl000550","iti","img/motor_blank.png","null","74","motor","","","","","","",""
"470","","255727","HierDym76pjp2l","dq69ozpkqw","msl000550","motor","img/motor_8.png","76","76","motor","8","187","1","0","0","",""
"null","","255836","HierDym76pjp2l","dq69ozpkqw","msl000550","iti","img/motor_blank.png","null","76","motor","","","","","","",""
"699","","256545","HierDym76pjp2l","dq69ozpkqw","msl000550","motor","img/motor_4.png","70","70","motor","4","188","1","0","0","",""
"null","","256656","HierDym76pjp2l","dq69ozpkqw","msl000550","iti","img/motor_blank.png","null","70","motor","","","","","","",""
"456","","257121","HierDym76pjp2l","dq69ozpkqw","msl000550","motor","img/motor_2.png","68","83","motor","2","189","0","1","0","",""
"328","","257458","HierDym76pjp2l","dq69ozpkqw","msl000550","motorRepeat","img/motor_2.png","83","83","motor","2","189","1","0","0","",""
"null","","257568","HierDym76pjp2l","dq69ozpkqw","msl000550","iti","img/motor_blank.png","null","83","motor","","","","","","",""
"608","","258187","HierDym76pjp2l","dq69ozpkqw","msl000550","motor","img/motor_5.png","72","72","motor","5","190","1","0","0","",""
"null","","258297","HierDym76pjp2l","dq69ozpkqw","msl000550","iti","img/motor_blank.png","null","72","motor","","","","","","",""
"472","","258776","HierDym76pjp2l","dq69ozpkqw","msl000550","motor","img/motor_8.png","76","76","motor","8","191","1","0","0","",""
"null","","258887","HierDym76pjp2l","dq69ozpkqw","msl000550","iti","img/motor_blank.png","null","76","motor","","","","","","",""
"751","","259644","HierDym76pjp2l","dq69ozpkqw","msl000550","motor","img/motor_3.png","68","68","motor","3","192","1","0","0","",""
"null","","259752","HierDym76pjp2l","dq69ozpkqw","msl000550","iti","img/motor_blank.png","null","68","motor","","","","","","",""
"414","","260175","HierDym76pjp2l","dq69ozpkqw","msl000550","motor","img/motor_8.png","76","76","motor","8","193","1","0","0","",""
"null","","260283","HierDym76pjp2l","dq69ozpkqw","msl000550","iti","img/motor_blank.png","null","76","motor","","","","","","",""
"674","","260967","HierDym76pjp2l","dq69ozpkqw","msl000550","motor","img/motor_5.png","72","72","motor","5","194","1","0","0","",""
"null","","261078","HierDym76pjp2l","dq69ozpkqw","msl000550","iti","img/motor_blank.png","null","72","motor","","","","","","",""
"629","","261715","HierDym76pjp2l","dq69ozpkqw","msl000550","motor","img/motor_5.png","72","72","motor","5","195","1","0","0","",""
"null","","261826","HierDym76pjp2l","dq69ozpkqw","msl000550","iti","img/motor_blank.png","null","72","motor","","","","","","",""
"543","","262376","HierDym76pjp2l","dq69ozpkqw","msl000550","motor","img/motor_3.png","68","68","motor","3","196","1","0","0","",""
"null","","262485","HierDym76pjp2l","dq69ozpkqw","msl000550","iti","img/motor_blank.png","null","68","motor","","","","","","",""
"336","","262830","HierDym76pjp2l","dq69ozpkqw","msl000550","motor","img/motor_2.png","83","83","motor","2","197","1","0","0","",""
"null","","262938","HierDym76pjp2l","dq69ozpkqw","msl000550","iti","img/motor_blank.png","null","83","motor","","","","","","",""
"690","","263635","HierDym76pjp2l","dq69ozpkqw","msl000550","motor","img/motor_3.png","68","68","motor","3","198","1","0","0","",""
"null","","263745","HierDym76pjp2l","dq69ozpkqw","msl000550","iti","img/motor_blank.png","null","68","motor","","","","","","",""
"617","","264373","HierDym76pjp2l","dq69ozpkqw","msl000550","motor","img/motor_5.png","72","72","motor","5","199","1","0","0","",""
"null","","264484","HierDym76pjp2l","dq69ozpkqw","msl000550","iti","img/motor_blank.png","null","72","motor","","","","","","",""
"868","","265363","HierDym76pjp2l","dq69ozpkqw","msl000550","motor","img/motor_1.png","65","65","motor","1","200","1","0","0","",""
"null","","265474","HierDym76pjp2l","dq69ozpkqw","msl000550","iti","img/motor_blank.png","null","65","motor","","","","","","",""
"526","","266007","HierDym76pjp2l","dq69ozpkqw","msl000550","motor","img/motor_4.png","70","70","motor","4","201","1","0","0","",""
"null","","266120","HierDym76pjp2l","dq69ozpkqw","msl000550","iti","img/motor_blank.png","null","70","motor","","","","","","",""
"777","","266907","HierDym76pjp2l","dq69ozpkqw","msl000550","motor","img/motor_5.png","72","72","motor","5","202","1","0","0","",""
"null","","267017","HierDym76pjp2l","dq69ozpkqw","msl000550","iti","img/motor_blank.png","null","72","motor","","","","","","",""
"403","","267428","HierDym76pjp2l","dq69ozpkqw","msl000550","motor","img/motor_6.png","74","74","motor","6","203","1","0","0","",""
"null","","267539","HierDym76pjp2l","dq69ozpkqw","msl000550","iti","img/motor_blank.png","null","74","motor","","","","","","",""
"737","","268286","HierDym76pjp2l","dq69ozpkqw","msl000550","motor","img/motor_6.png","74","74","motor","6","204","1","0","0","",""
"null","","268397","HierDym76pjp2l","dq69ozpkqw","msl000550","iti","img/motor_blank.png","null","74","motor","","","","","","",""
"536","","268946","HierDym76pjp2l","dq69ozpkqw","msl000550","motor","img/motor_7.png","75","75","motor","7","205","1","0","0","",""
"null","","269056","HierDym76pjp2l","dq69ozpkqw","msl000550","iti","img/motor_blank.png","null","75","motor","","","","","","",""
"535","","269602","HierDym76pjp2l","dq69ozpkqw","msl000550","motor","img/motor_6.png","74","74","motor","6","206","1","0","0","",""
"null","","269713","HierDym76pjp2l","dq69ozpkqw","msl000550","iti","img/motor_blank.png","null","74","motor","","","","","","",""
"566","","270289","HierDym76pjp2l","dq69ozpkqw","msl000550","motor","img/motor_7.png","75","75","motor","7","207","1","0","0","",""
"null","","270399","HierDym76pjp2l","dq69ozpkqw","msl000550","iti","img/motor_blank.png","null","75","motor","","","","","","",""
"765","","271174","HierDym76pjp2l","dq69ozpkqw","msl000550","motor","img/motor_4.png","70","70","motor","4","208","1","0","0","",""
"null","","271284","HierDym76pjp2l","dq69ozpkqw","msl000550","iti","img/motor_blank.png","null","70","motor","","","","","","",""
"475","","271767","HierDym76pjp2l","dq69ozpkqw","msl000550","motor","img/motor_7.png","74","75","motor","7","209","0","1","0","",""
"14","","271788","HierDym76pjp2l","dq69ozpkqw","msl000550","motorRepeat","img/motor_7.png","75","75","motor","7","209","1","0","0","",""
"null","","271899","HierDym76pjp2l","dq69ozpkqw","msl000550","iti","img/motor_blank.png","null","75","motor","","","","","","",""
"561","","272468","HierDym76pjp2l","dq69ozpkqw","msl000550","motor","img/motor_8.png","76","76","motor","8","210","1","0","0","",""
"null","","272579","HierDym76pjp2l","dq69ozpkqw","msl000550","iti","img/motor_blank.png","null","76","motor","","","","","","",""
"754","","273341","HierDym76pjp2l","dq69ozpkqw","msl000550","motor","img/motor_7.png","75","75","motor","7","211","1","0","0","",""
"null","","273453","HierDym76pjp2l","dq69ozpkqw","msl000550","iti","img/motor_blank.png","null","75","motor","","","","","","",""
"1346","","274809","HierDym76pjp2l","dq69ozpkqw","msl000550","motor","img/motor_5.png","72","72","motor","5","212","1","0","0","",""
"null","","274921","HierDym76pjp2l","dq69ozpkqw","msl000550","iti","img/motor_blank.png","null","72","motor","","","","","","",""
"731","","275661","HierDym76pjp2l","dq69ozpkqw","msl000550","motor","img/motor_3.png","68","68","motor","3","213","1","0","0","",""
"null","","275773","HierDym76pjp2l","dq69ozpkqw","msl000550","iti","img/motor_blank.png","null","68","motor","","","","","","",""
"607","","276390","HierDym76pjp2l","dq69ozpkqw","msl000550","motor","img/motor_5.png","74","72","motor","5","214","0","1","0","",""
"329","","276728","HierDym76pjp2l","dq69ozpkqw","msl000550","motorRepeat","img/motor_5.png","72","72","motor","5","214","1","0","0","",""
"null","","276839","HierDym76pjp2l","dq69ozpkqw","msl000550","iti","img/motor_blank.png","null","72","motor","","","","","","",""
"501","","277347","HierDym76pjp2l","dq69ozpkqw","msl000550","motor","img/motor_1.png","65","65","motor","1","215","1","0","0","",""
"null","","277459","HierDym76pjp2l","dq69ozpkqw","msl000550","iti","img/motor_blank.png","null","65","motor","","","","","","",""
"629","","278097","HierDym76pjp2l","dq69ozpkqw","msl000550","motor","img/motor_3.png","68","68","motor","3","216","1","0","0","",""
"null","","278208","HierDym76pjp2l","dq69ozpkqw","msl000550","iti","img/motor_blank.png","null","68","motor","","","","","","",""
"418","","278634","HierDym76pjp2l","dq69ozpkqw","msl000550","motor","img/motor_1.png","65","65","motor","1","217","1","0","0","",""
"null","","278743","HierDym76pjp2l","dq69ozpkqw","msl000550","iti","img/motor_blank.png","null","65","motor","","","","","","",""
"590","","279343","HierDym76pjp2l","dq69ozpkqw","msl000550","motor","img/motor_5.png","72","72","motor","5","218","1","0","0","",""
"null","","279454","HierDym76pjp2l","dq69ozpkqw","msl000550","iti","img/motor_blank.png","null","72","motor","","","","","","",""
"1385","","280849","HierDym76pjp2l","dq69ozpkqw","msl000550","motor","img/motor_6.png","75","74","motor","6","219","0","1","0","",""
"521","","281381","HierDym76pjp2l","dq69ozpkqw","msl000550","motorRepeat","img/motor_6.png","76","74","motor","6","219","0","1","0","",""
"368","","281755","HierDym76pjp2l","dq69ozpkqw","msl000550","motorRepeat","img/motor_6.png","75","74","motor","6","219","0","1","0","",""
"1552","","283316","HierDym76pjp2l","dq69ozpkqw","msl000550","motorRepeat","img/motor_6.png","76","74","motor","6","219","0","1","0","",""
"1807","","285132","HierDym76pjp2l","dq69ozpkqw","msl000550","motorRepeat","img/motor_6.png","74","74","motor","6","219","1","0","0","",""
"null","","285241","HierDym76pjp2l","dq69ozpkqw","msl000550","iti","img/motor_blank.png","null","74","motor","","","","","","",""
"533","","285783","HierDym76pjp2l","dq69ozpkqw","msl000550","motor","img/motor_8.png","76","76","motor","8","220","1","0","0","",""
"null","","285894","HierDym76pjp2l","dq69ozpkqw","msl000550","iti","img/motor_blank.png","null","76","motor","","","","","","",""
"654","","286557","HierDym76pjp2l","dq69ozpkqw","msl000550","motor","img/motor_4.png","70","70","motor","4","221","1","0","0","",""
"null","","286667","HierDym76pjp2l","dq69ozpkqw","msl000550","iti","img/motor_blank.png","null","70","motor","","","","","","",""
"583","","287258","HierDym76pjp2l","dq69ozpkqw","msl000550","motor","img/motor_1.png","65","65","motor","1","222","1","0","0","",""
"null","","287365","HierDym76pjp2l","dq69ozpkqw","msl000550","iti","img/motor_blank.png","null","65","motor","","","","","","",""
"593","","287968","HierDym76pjp2l","dq69ozpkqw","msl000550","motor","img/motor_6.png","74","74","motor","6","223","1","0","0","",""
"null","","288078","HierDym76pjp2l","dq69ozpkqw","msl000550","iti","img/motor_blank.png","null","74","motor","","","","","","",""
"462","","288551","HierDym76pjp2l","dq69ozpkqw","msl000550","motor","img/motor_2.png","68","83","motor","2","224","0","1","0","",""
"571","","289132","HierDym76pjp2l","dq69ozpkqw","msl000550","motorRepeat","img/motor_2.png","83","83","motor","2","224","1","0","0","",""
"null","","289242","HierDym76pjp2l","dq69ozpkqw","msl000550","iti","img/motor_blank.png","null","83","motor","","","","","","",""
"755","","290005","HierDym76pjp2l","dq69ozpkqw","msl000550","motor","img/motor_3.png","68","68","motor","3","225","1","0","0","",""
"null","","290115","HierDym76pjp2l","dq69ozpkqw","msl000550","iti","img/motor_blank.png","null","68","motor","","","","","","",""
"550","","290674","HierDym76pjp2l","dq69ozpkqw","msl000550","motor","img/motor_8.png","76","76","motor","8","226","1","0","0","",""
"null","","290783","HierDym76pjp2l","dq69ozpkqw","msl000550","iti","img/motor_blank.png","null","76","motor","","","","","","",""
"794","","291586","HierDym76pjp2l","dq69ozpkqw","msl000550","motor","img/motor_8.png","76","76","motor","8","227","1","0","0","",""
"null","","291697","HierDym76pjp2l","dq69ozpkqw","msl000550","iti","img/motor_blank.png","null","76","motor","","","","","","",""
"746","","292451","HierDym76pjp2l","dq69ozpkqw","msl000550","motor","img/motor_7.png","75","75","motor","7","228","1","0","0","",""
"null","","292562","HierDym76pjp2l","dq69ozpkqw","msl000550","iti","img/motor_blank.png","null","75","motor","","","","","","",""
"485","","293057","HierDym76pjp2l","dq69ozpkqw","msl000550","motor","img/motor_6.png","74","74","motor","6","229","1","0","0","",""
"null","","293168","HierDym76pjp2l","dq69ozpkqw","msl000550","iti","img/motor_blank.png","null","74","motor","","","","","","",""
"453","","293630","HierDym76pjp2l","dq69ozpkqw","msl000550","motor","img/motor_5.png","72","72","motor","5","230","1","0","0","",""
"null","","293738","HierDym76pjp2l","dq69ozpkqw","msl000550","iti","img/motor_blank.png","null","72","motor","","","","","","",""
"741","","294488","HierDym76pjp2l","dq69ozpkqw","msl000550","motor","img/motor_2.png","83","83","motor","2","231","1","0","0","",""
"null","","294598","HierDym76pjp2l","dq69ozpkqw","msl000550","iti","img/motor_blank.png","null","83","motor","","","","","","",""
"591","","295198","HierDym76pjp2l","dq69ozpkqw","msl000550","motor","img/motor_4.png","70","70","motor","4","232","1","0","0","",""
"null","","295309","HierDym76pjp2l","dq69ozpkqw","msl000550","iti","img/motor_blank.png","null","70","motor","","","","","","",""
"585","","295904","HierDym76pjp2l","dq69ozpkqw","msl000550","motor","img/motor_1.png","65","65","motor","1","233","1","0","0","",""
"null","","296014","HierDym76pjp2l","dq69ozpkqw","msl000550","iti","img/motor_blank.png","null","65","motor","","","","","","",""
"1518","","297541","HierDym76pjp2l","dq69ozpkqw","msl000550","motor","img/motor_4.png","70","70","motor","4","234","1","0","0","",""
"null","","297653","HierDym76pjp2l","dq69ozpkqw","msl000550","iti","img/motor_blank.png","null","70","motor","","","","","","",""
"573","","298235","HierDym76pjp2l","dq69ozpkqw","msl000550","motor","img/motor_8.png","76","76","motor","8","235","1","0","0","",""
"null","","298345","HierDym76pjp2l","dq69ozpkqw","msl000550","iti","img/motor_blank.png","null","76","motor","","","","","","",""
"321","","298676","HierDym76pjp2l","dq69ozpkqw","msl000550","motor","img/motor_8.png","76","76","motor","8","236","1","0","0","",""
"null","","298787","HierDym76pjp2l","dq69ozpkqw","msl000550","iti","img/motor_blank.png","null","76","motor","","","","","","",""
"487","","299284","HierDym76pjp2l","dq69ozpkqw","msl000550","motor","img/motor_3.png","68","68","motor","3","237","1","0","0","",""
"null","","299394","HierDym76pjp2l","dq69ozpkqw","msl000550","iti","img/motor_blank.png","null","68","motor","","","","","","",""
"693","","300095","HierDym76pjp2l","dq69ozpkqw","msl000550","motor","img/motor_5.png","72","72","motor","5","238","1","0","0","",""
"null","","300203","HierDym76pjp2l","dq69ozpkqw","msl000550","iti","img/motor_blank.png","null","72","motor","","","","","","",""
"1192","","301403","HierDym76pjp2l","dq69ozpkqw","msl000550","motor","img/motor_1.png","65","65","motor","1","239","1","0","0","",""
"null","","301512","HierDym76pjp2l","dq69ozpkqw","msl000550","iti","img/motor_blank.png","null","65","motor","","","","","","",""
"611","","302134","HierDym76pjp2l","dq69ozpkqw","msl000550","motor","img/motor_7.png","75","75","motor","7","240","1","0","0","",""
"null","","302244","HierDym76pjp2l","dq69ozpkqw","msl000550","iti","img/motor_blank.png","null","75","motor","","","","","","",""
"528","","302782","HierDym76pjp2l","dq69ozpkqw","msl000550","motor","img/motor_5.png","72","72","motor","5","241","1","0","0","",""
"null","","302892","HierDym76pjp2l","dq69ozpkqw","msl000550","iti","img/motor_blank.png","null","72","motor","","","","","","",""
"391","","303292","HierDym76pjp2l","dq69ozpkqw","msl000550","motor","img/motor_8.png","76","76","motor","8","242","1","0","0","",""
"null","","303403","HierDym76pjp2l","dq69ozpkqw","msl000550","iti","img/motor_blank.png","null","76","motor","","","","","","",""
"587","","304001","HierDym76pjp2l","dq69ozpkqw","msl000550","motor","img/motor_6.png","74","74","motor","6","243","1","0","0","",""
"null","","304112","HierDym76pjp2l","dq69ozpkqw","msl000550","iti","img/motor_blank.png","null","74","motor","","","","","","",""
"523","","304645","HierDym76pjp2l","dq69ozpkqw","msl000550","motor","img/motor_8.png","76","76","motor","8","244","1","0","0","",""
"null","","304754","HierDym76pjp2l","dq69ozpkqw","msl000550","iti","img/motor_blank.png","null","76","motor","","","","","","",""
"653","","305419","HierDym76pjp2l","dq69ozpkqw","msl000550","motor","img/motor_6.png","74","74","motor","6","245","1","0","0","",""
"null","","305530","HierDym76pjp2l","dq69ozpkqw","msl000550","iti","img/motor_blank.png","null","74","motor","","","","","","",""
"395","","305935","HierDym76pjp2l","dq69ozpkqw","msl000550","motor","img/motor_7.png","76","75","motor","7","246","0","1","0","",""
"422","","306367","HierDym76pjp2l","dq69ozpkqw","msl000550","motorRepeat","img/motor_7.png","75","75","motor","7","246","1","0","0","",""
"null","","306478","HierDym76pjp2l","dq69ozpkqw","msl000550","iti","img/motor_blank.png","null","75","motor","","","","","","",""
"706","","307194","HierDym76pjp2l","dq69ozpkqw","msl000550","motor","img/motor_6.png","74","74","motor","6","247","1","0","0","",""
"null","","307305","HierDym76pjp2l","dq69ozpkqw","msl000550","iti","img/motor_blank.png","null","74","motor","","","","","","",""
"832","","308148","HierDym76pjp2l","dq69ozpkqw","msl000550","motor","img/motor_3.png","68","68","motor","3","248","1","0","0","",""
"null","","308258","HierDym76pjp2l","dq69ozpkqw","msl000550","iti","img/motor_blank.png","null","68","motor","","","","","","",""
"428","","308696","HierDym76pjp2l","dq69ozpkqw","msl000550","motor","img/motor_3.png","68","68","motor","3","249","1","0","0","",""
"null","","308807","HierDym76pjp2l","dq69ozpkqw","msl000550","iti","img/motor_blank.png","null","68","motor","","","","","","",""
"405","","309224","HierDym76pjp2l","dq69ozpkqw","msl000550","motor","img/motor_2.png","83","83","motor","2","250","1","0","0","",""
"null","","309335","HierDym76pjp2l","dq69ozpkqw","msl000550","iti","img/motor_blank.png","null","83","motor","","","","","","",""
"381","","309722","HierDym76pjp2l","dq69ozpkqw","msl000550","motor","img/motor_1.png","65","65","motor","1","251","1","0","0","",""
"null","","309833","HierDym76pjp2l","dq69ozpkqw","msl000550","iti","img/motor_blank.png","null","65","motor","","","","","","",""
"541","","310385","HierDym76pjp2l","dq69ozpkqw","msl000550","motor","img/motor_4.png","70","70","motor","4","252","1","0","0","",""
"null","","310495","HierDym76pjp2l","dq69ozpkqw","msl000550","iti","img/motor_blank.png","null","70","motor","","","","","","",""
"540","","311046","HierDym76pjp2l","dq69ozpkqw","msl000550","motor","img/motor_8.png","76","76","motor","8","253","1","0","0","",""
"null","","311154","HierDym76pjp2l","dq69ozpkqw","msl000550","iti","img/motor_blank.png","null","76","motor","","","","","","",""
"633","","311798","HierDym76pjp2l","dq69ozpkqw","msl000550","motor","img/motor_6.png","74","74","motor","6","254","1","0","0","",""
"null","","311909","HierDym76pjp2l","dq69ozpkqw","msl000550","iti","img/motor_blank.png","null","74","motor","","","","","","",""
"658","","312574","HierDym76pjp2l","dq69ozpkqw","msl000550","motor","img/motor_4.png","70","70","motor","4","255","1","0","0","",""
"null","","312685","HierDym76pjp2l","dq69ozpkqw","msl000550","iti","img/motor_blank.png","null","70","motor","","","","","","",""
"490","","313185","HierDym76pjp2l","dq69ozpkqw","msl000550","motor","img/motor_3.png","68","68","motor","3","256","1","0","0","",""
"null","","313294","HierDym76pjp2l","dq69ozpkqw","msl000550","iti","img/motor_blank.png","null","68","motor","","","","","","",""
"335","","313639","HierDym76pjp2l","dq69ozpkqw","msl000550","motor","img/motor_2.png","83","83","motor","2","257","1","0","0","",""
"null","","313750","HierDym76pjp2l","dq69ozpkqw","msl000550","iti","img/motor_blank.png","null","83","motor","","","","","","",""
"570","","314328","HierDym76pjp2l","dq69ozpkqw","msl000550","motor","img/motor_3.png","68","68","motor","3","258","1","0","0","",""
"null","","314439","HierDym76pjp2l","dq69ozpkqw","msl000550","iti","img/motor_blank.png","null","68","motor","","","","","","",""
"373","","314822","HierDym76pjp2l","dq69ozpkqw","msl000550","motor","img/motor_3.png","68","68","motor","3","259","1","0","0","",""
"null","","314933","HierDym76pjp2l","dq69ozpkqw","msl000550","iti","img/motor_blank.png","null","68","motor","","","","","","",""
"416","","315359","HierDym76pjp2l","dq69ozpkqw","msl000550","motor","img/motor_2.png","83","83","motor","2","260","1","0","0","",""
"null","","315469","HierDym76pjp2l","dq69ozpkqw","msl000550","iti","img/motor_blank.png","null","83","motor","","","","","","",""
"441","","315920","HierDym76pjp2l","dq69ozpkqw","msl000550","motor","img/motor_3.png","68","68","motor","3","261","1","0","0","",""
"null","","316031","HierDym76pjp2l","dq69ozpkqw","msl000550","iti","img/motor_blank.png","null","68","motor","","","","","","",""
"622","","316662","HierDym76pjp2l","dq69ozpkqw","msl000550","motor","img/motor_8.png","76","76","motor","8","262","1","0","0","",""
"null","","316773","HierDym76pjp2l","dq69ozpkqw","msl000550","iti","img/motor_blank.png","null","76","motor","","","","","","",""
"803","","317586","HierDym76pjp2l","dq69ozpkqw","msl000550","motor","img/motor_6.png","74","74","motor","6","263","1","0","0","",""
"null","","317696","HierDym76pjp2l","dq69ozpkqw","msl000550","iti","img/motor_blank.png","null","74","motor","","","","","","",""
"392","","318099","HierDym76pjp2l","dq69ozpkqw","msl000550","motor","img/motor_8.png","76","76","motor","8","264","1","0","0","",""
"null","","318210","HierDym76pjp2l","dq69ozpkqw","msl000550","iti","img/motor_blank.png","null","76","motor","","","","","","",""
"587","","318807","HierDym76pjp2l","dq69ozpkqw","msl000550","motor","img/motor_1.png","65","65","motor","1","265","1","0","0","",""
"null","","318917","HierDym76pjp2l","dq69ozpkqw","msl000550","iti","img/motor_blank.png","null","65","motor","","","","","","",""
"527","","319455","HierDym76pjp2l","dq69ozpkqw","msl000550","motor","img/motor_5.png","72","72","motor","5","266","1","0","0","",""
"null","","319565","HierDym76pjp2l","dq69ozpkqw","msl000550","iti","img/motor_blank.png","null","72","motor","","","","","","",""
"562","","320137","HierDym76pjp2l","dq69ozpkqw","msl000550","motor","img/motor_7.png","74","75","motor","7","267","0","1","0","",""
"278","","320425","HierDym76pjp2l","dq69ozpkqw","msl000550","motorRepeat","img/motor_7.png","75","75","motor","7","267","1","0","0","",""
"null","","320535","HierDym76pjp2l","dq69ozpkqw","msl000550","iti","img/motor_blank.png","null","75","motor","","","","","","",""
"570","","321115","HierDym76pjp2l","dq69ozpkqw","msl000550","motor","img/motor_5.png","72","72","motor","5","268","1","0","0","",""
"null","","321226","HierDym76pjp2l","dq69ozpkqw","msl000550","iti","img/motor_blank.png","null","72","motor","","","","","","",""
"431","","321668","HierDym76pjp2l","dq69ozpkqw","msl000550","motor","img/motor_8.png","76","76","motor","8","269","1","0","0","",""
"null","","321779","HierDym76pjp2l","dq69ozpkqw","msl000550","iti","img/motor_blank.png","null","76","motor","","","","","","",""
"643","","322431","HierDym76pjp2l","dq69ozpkqw","msl000550","motor","img/motor_1.png","65","65","motor","1","270","1","0","0","",""
"null","","322541","HierDym76pjp2l","dq69ozpkqw","msl000550","iti","img/motor_blank.png","null","65","motor","","","","","","",""
"412","","322962","HierDym76pjp2l","dq69ozpkqw","msl000550","motor","img/motor_8.png","76","76","motor","8","271","1","0","0","",""
"null","","323073","HierDym76pjp2l","dq69ozpkqw","msl000550","iti","img/motor_blank.png","null","76","motor","","","","","","",""
"364","","323446","HierDym76pjp2l","dq69ozpkqw","msl000550","motor","img/motor_1.png","65","65","motor","1","272","1","0","0","",""
"null","","323557","HierDym76pjp2l","dq69ozpkqw","msl000550","iti","img/motor_blank.png","null","65","motor","","","","","","",""
"512","","324079","HierDym76pjp2l","dq69ozpkqw","msl000550","motor","img/motor_2.png","83","83","motor","2","273","1","0","0","",""
"null","","324190","HierDym76pjp2l","dq69ozpkqw","msl000550","iti","img/motor_blank.png","null","83","motor","","","","","","",""
"556","","324754","HierDym76pjp2l","dq69ozpkqw","msl000550","motor","img/motor_3.png","68","68","motor","3","274","1","0","0","",""
"null","","324864","HierDym76pjp2l","dq69ozpkqw","msl000550","iti","img/motor_blank.png","null","68","motor","","","","","","",""
"533","","325408","HierDym76pjp2l","dq69ozpkqw","msl000550","motor","img/motor_6.png","74","74","motor","6","275","1","0","0","",""
"null","","325518","HierDym76pjp2l","dq69ozpkqw","msl000550","iti","img/motor_blank.png","null","74","motor","","","","","","",""
"639","","326169","HierDym76pjp2l","dq69ozpkqw","msl000550","motor","img/motor_1.png","65","65","motor","1","276","1","0","0","",""
"null","","326278","HierDym76pjp2l","dq69ozpkqw","msl000550","iti","img/motor_blank.png","null","65","motor","","","","","","",""
"379","","326667","HierDym76pjp2l","dq69ozpkqw","msl000550","motor","img/motor_1.png","65","65","motor","1","277","1","0","0","",""
"null","","326778","HierDym76pjp2l","dq69ozpkqw","msl000550","iti","img/motor_blank.png","null","65","motor","","","","","","",""
"735","","327522","HierDym76pjp2l","dq69ozpkqw","msl000550","motor","img/motor_3.png","68","68","motor","3","278","1","0","0","",""
"null","","327633","HierDym76pjp2l","dq69ozpkqw","msl000550","iti","img/motor_blank.png","null","68","motor","","","","","","",""
"357","","327998","HierDym76pjp2l","dq69ozpkqw","msl000550","motor","img/motor_4.png","68","70","motor","4","279","0","1","0","",""
"341","","328348","HierDym76pjp2l","dq69ozpkqw","msl000550","motorRepeat","img/motor_4.png","70","70","motor","4","279","1","0","0","",""
"null","","328459","HierDym76pjp2l","dq69ozpkqw","msl000550","iti","img/motor_blank.png","null","70","motor","","","","","","",""
"763","","329235","HierDym76pjp2l","dq69ozpkqw","msl000550","motor","img/motor_6.png","68","74","motor","6","280","0","1","0","",""
"397","","329642","HierDym76pjp2l","dq69ozpkqw","msl000550","motorRepeat","img/motor_6.png","74","74","motor","6","280","1","0","0","",""
"null","","329752","HierDym76pjp2l","dq69ozpkqw","msl000550","iti","img/motor_blank.png","null","74","motor","","","","","","",""
"690","","330452","HierDym76pjp2l","dq69ozpkqw","msl000550","motor","img/motor_1.png","65","65","motor","1","281","1","0","0","",""
"null","","330563","HierDym76pjp2l","dq69ozpkqw","msl000550","iti","img/motor_blank.png","null","65","motor","","","","","","",""
"838","","331410","HierDym76pjp2l","dq69ozpkqw","msl000550","motor","img/motor_1.png","65","65","motor","1","282","1","0","0","",""
"null","","331520","HierDym76pjp2l","dq69ozpkqw","msl000550","iti","img/motor_blank.png","null","65","motor","","","","","","",""
"641","","332172","HierDym76pjp2l","dq69ozpkqw","msl000550","motor","img/motor_7.png","75","75","motor","7","283","1","0","0","",""
"null","","332283","HierDym76pjp2l","dq69ozpkqw","msl000550","iti","img/motor_blank.png","null","75","motor","","","","","","",""
"705","","333000","HierDym76pjp2l","dq69ozpkqw","msl000550","motor","img/motor_2.png","83","83","motor","2","284","1","0","0","",""
"null","","333112","HierDym76pjp2l","dq69ozpkqw","msl000550","iti","img/motor_blank.png","null","83","motor","","","","","","",""
"681","","333803","HierDym76pjp2l","dq69ozpkqw","msl000550","motor","img/motor_5.png","72","72","motor","5","285","1","0","0","",""
"null","","333914","HierDym76pjp2l","dq69ozpkqw","msl000550","iti","img/motor_blank.png","null","72","motor","","","","","","",""
"628","","334554","HierDym76pjp2l","dq69ozpkqw","msl000550","motor","img/motor_6.png","74","74","motor","6","286","1","0","0","",""
"null","","334668","HierDym76pjp2l","dq69ozpkqw","msl000550","iti","img/motor_blank.png","null","74","motor","","","","","","",""
"745","","335421","HierDym76pjp2l","dq69ozpkqw","msl000550","motor","img/motor_2.png","83","83","motor","2","287","1","0","0","",""
"null","","335534","HierDym76pjp2l","dq69ozpkqw","msl000550","iti","img/motor_blank.png","null","83","motor","","","","","","",""
"953","","336496","HierDym76pjp2l","dq69ozpkqw","msl000550","motor","img/motor_4.png","70","70","motor","4","288","1","0","0","",""
"null","","336606","HierDym76pjp2l","dq69ozpkqw","msl000550","iti","img/motor_blank.png","null","70","motor","","","","","","",""
"965","","337581","HierDym76pjp2l","dq69ozpkqw","msl000550","motor","img/motor_3.png","68","68","motor","3","289","1","0","0","",""
"null","","337692","HierDym76pjp2l","dq69ozpkqw","msl000550","iti","img/motor_blank.png","null","68","motor","","","","","","",""
"633","","338334","HierDym76pjp2l","dq69ozpkqw","msl000550","motor","img/motor_7.png","75","75","motor","7","290","1","0","0","",""
"null","","338445","HierDym76pjp2l","dq69ozpkqw","msl000550","iti","img/motor_blank.png","null","75","motor","","","","","","",""
"538","","338992","HierDym76pjp2l","dq69ozpkqw","msl000550","motor","img/motor_7.png","75","75","motor","7","291","1","0","0","",""
"null","","339102","HierDym76pjp2l","dq69ozpkqw","msl000550","iti","img/motor_blank.png","null","75","motor","","","","","","",""
"396","","339506","HierDym76pjp2l","dq69ozpkqw","msl000550","motor","img/motor_3.png","83","68","motor","3","292","0","1","0","",""
"425","","339941","HierDym76pjp2l","dq69ozpkqw","msl000550","motorRepeat","img/motor_3.png","68","68","motor","3","292","1","0","0","",""
"null","","340052","HierDym76pjp2l","dq69ozpkqw","msl000550","iti","img/motor_blank.png","null","68","motor","","","","","","",""
"512","","340573","HierDym76pjp2l","dq69ozpkqw","msl000550","motor","img/motor_5.png","72","72","motor","5","293","1","0","0","",""
"null","","340683","HierDym76pjp2l","dq69ozpkqw","msl000550","iti","img/motor_blank.png","null","72","motor","","","","","","",""
"567","","341260","HierDym76pjp2l","dq69ozpkqw","msl000550","motor","img/motor_1.png","65","65","motor","1","294","1","0","0","",""
"null","","341371","HierDym76pjp2l","dq69ozpkqw","msl000550","iti","img/motor_blank.png","null","65","motor","","","","","","",""
"610","","341991","HierDym76pjp2l","dq69ozpkqw","msl000550","motor","img/motor_3.png","68","68","motor","3","295","1","0","0","",""
"null","","342101","HierDym76pjp2l","dq69ozpkqw","msl000550","iti","img/motor_blank.png","null","68","motor","","","","","","",""
"616","","342727","HierDym76pjp2l","dq69ozpkqw","msl000550","motor","img/motor_8.png","76","76","motor","8","296","1","0","0","",""
"null","","342838","HierDym76pjp2l","dq69ozpkqw","msl000550","iti","img/motor_blank.png","null","76","motor","","","","","","",""
"892","","343740","HierDym76pjp2l","dq69ozpkqw","msl000550","motor","img/motor_3.png","68","68","motor","3","297","1","0","0","",""
"null","","343851","HierDym76pjp2l","dq69ozpkqw","msl000550","iti","img/motor_blank.png","null","68","motor","","","","","","",""
"640","","344500","HierDym76pjp2l","dq69ozpkqw","msl000550","motor","img/motor_1.png","65","65","motor","1","298","1","0","0","",""
"null","","344612","HierDym76pjp2l","dq69ozpkqw","msl000550","iti","img/motor_blank.png","null","65","motor","","","","","","",""
"1218","","345840","HierDym76pjp2l","dq69ozpkqw","msl000550","motor","img/motor_4.png","70","70","motor","4","299","1","0","0","",""
"null","","345952","HierDym76pjp2l","dq69ozpkqw","msl000550","iti","img/motor_blank.png","null","70","motor","","","","","","",""
"546","","346506","HierDym76pjp2l","dq69ozpkqw","msl000550","motor","img/motor_6.png","74","74","motor","6","300","1","0","0","",""
"null","","346616","HierDym76pjp2l","dq69ozpkqw","msl000550","iti","img/motor_blank.png","null","74","motor","","","","","","",""
"458","","347084","HierDym76pjp2l","dq69ozpkqw","msl000550","motor","img/motor_8.png","76","76","motor","8","301","1","0","0","",""
"null","","347195","HierDym76pjp2l","dq69ozpkqw","msl000550","iti","img/motor_blank.png","null","76","motor","","","","","","",""
"955","","348160","HierDym76pjp2l","dq69ozpkqw","msl000550","motor","img/motor_3.png","68","68","motor","3","302","1","0","0","",""
"null","","348271","HierDym76pjp2l","dq69ozpkqw","msl000550","iti","img/motor_blank.png","null","68","motor","","","","","","",""
"676","","348956","HierDym76pjp2l","dq69ozpkqw","msl000550","motor","img/motor_6.png","74","74","motor","6","303","1","0","0","",""
"null","","349065","HierDym76pjp2l","dq69ozpkqw","msl000550","iti","img/motor_blank.png","null","74","motor","","","","","","",""
"551","","349626","HierDym76pjp2l","dq69ozpkqw","msl000550","motor","img/motor_6.png","74","74","motor","6","304","1","0","0","",""
"null","","349738","HierDym76pjp2l","dq69ozpkqw","msl000550","iti","img/motor_blank.png","null","74","motor","","","","","","",""
"480","","350227","HierDym76pjp2l","dq69ozpkqw","msl000550","motor","img/motor_4.png","68","70","motor","4","305","0","1","0","",""
"392","","350629","HierDym76pjp2l","dq69ozpkqw","msl000550","motorRepeat","img/motor_4.png","70","70","motor","4","305","1","0","0","",""
"null","","350738","HierDym76pjp2l","dq69ozpkqw","msl000550","iti","img/motor_blank.png","null","70","motor","","","","","","",""
"481","","351228","HierDym76pjp2l","dq69ozpkqw","msl000550","motor","img/motor_6.png","75","74","motor","6","306","0","1","0","",""
"374","","351612","HierDym76pjp2l","dq69ozpkqw","msl000550","motorRepeat","img/motor_6.png","74","74","motor","6","306","1","0","0","",""
"null","","351724","HierDym76pjp2l","dq69ozpkqw","msl000550","iti","img/motor_blank.png","null","74","motor","","","","","","",""
"895","","352627","HierDym76pjp2l","dq69ozpkqw","msl000550","motor","img/motor_7.png","75","75","motor","7","307","1","0","0","",""
"null","","352735","HierDym76pjp2l","dq69ozpkqw","msl000550","iti","img/motor_blank.png","null","75","motor","","","","","","",""
"366","","353110","HierDym76pjp2l","dq69ozpkqw","msl000550","motor","img/motor_8.png","76","76","motor","8","308","1","0","0","",""
"null","","353221","HierDym76pjp2l","dq69ozpkqw","msl000550","iti","img/motor_blank.png","null","76","motor","","","","","","",""
"576","","353805","HierDym76pjp2l","dq69ozpkqw","msl000550","motor","img/motor_5.png","72","72","motor","5","309","1","0","0","",""
"null","","353914","HierDym76pjp2l","dq69ozpkqw","msl000550","iti","img/motor_blank.png","null","72","motor","","","","","","",""
"707","","354630","HierDym76pjp2l","dq69ozpkqw","msl000550","motor","img/motor_1.png","65","65","motor","1","310","1","0","0","",""
"null","","354738","HierDym76pjp2l","dq69ozpkqw","msl000550","iti","img/motor_blank.png","null","65","motor","","","","","","",""
"789","","355537","HierDym76pjp2l","dq69ozpkqw","msl000550","motor","img/motor_6.png","74","74","motor","6","311","1","0","0","",""
"null","","355648","HierDym76pjp2l","dq69ozpkqw","msl000550","iti","img/motor_blank.png","null","74","motor","","","","","","",""
"659","","356316","HierDym76pjp2l","dq69ozpkqw","msl000550","motor","img/motor_4.png","70","70","motor","4","312","1","0","0","",""
"null","","356425","HierDym76pjp2l","dq69ozpkqw","msl000550","iti","img/motor_blank.png","null","70","motor","","","","","","",""
"761","","357196","HierDym76pjp2l","dq69ozpkqw","msl000550","motor","img/motor_2.png","83","83","motor","2","313","1","0","0","",""
"null","","357306","HierDym76pjp2l","dq69ozpkqw","msl000550","iti","img/motor_blank.png","null","83","motor","","","","","","",""
"1135","","358452","HierDym76pjp2l","dq69ozpkqw","msl000550","motor","img/motor_6.png","74","74","motor","6","314","1","0","0","",""
"null","","358562","HierDym76pjp2l","dq69ozpkqw","msl000550","iti","img/motor_blank.png","null","74","motor","","","","","","",""
"534","","359105","HierDym76pjp2l","dq69ozpkqw","msl000550","motor","img/motor_7.png","75","75","motor","7","315","1","0","0","",""
"null","","359215","HierDym76pjp2l","dq69ozpkqw","msl000550","iti","img/motor_blank.png","null","75","motor","","","","","","",""
"833","","360058","HierDym76pjp2l","dq69ozpkqw","msl000550","motor","img/motor_5.png","72","72","motor","5","316","1","0","0","",""
"null","","360169","HierDym76pjp2l","dq69ozpkqw","msl000550","iti","img/motor_blank.png","null","72","motor","","","","","","",""
"866","","361046","HierDym76pjp2l","dq69ozpkqw","msl000550","motor","img/motor_3.png","68","68","motor","3","317","1","0","0","",""
"null","","361154","HierDym76pjp2l","dq69ozpkqw","msl000550","iti","img/motor_blank.png","null","68","motor","","","","","","",""
"339","","361501","HierDym76pjp2l","dq69ozpkqw","msl000550","motor","img/motor_3.png","68","68","motor","3","318","1","0","0","",""
"null","","361612","HierDym76pjp2l","dq69ozpkqw","msl000550","iti","img/motor_blank.png","null","68","motor","","","","","","",""
"392","","362011","HierDym76pjp2l","dq69ozpkqw","msl000550","motor","img/motor_1.png","65","65","motor","1","319","1","0","0","",""
"null","","362120","HierDym76pjp2l","dq69ozpkqw","msl000550","iti","img/motor_blank.png","null","65","motor","","","","","","",""
"638","","362766","HierDym76pjp2l","dq69ozpkqw","msl000550","motor","img/motor_7.png","75","75","motor","7","320","1","0","0","",""
"null","","362877","HierDym76pjp2l","dq69ozpkqw","msl000550","iti","img/motor_blank.png","null","75","motor","","","","","","",""
"679","","363566","HierDym76pjp2l","dq69ozpkqw","msl000550","motor","img/motor_3.png","68","68","motor","3","321","1","0","0","",""
"null","","363677","HierDym76pjp2l","dq69ozpkqw","msl000550","iti","img/motor_blank.png","null","68","motor","","","","","","",""
"797","","364484","HierDym76pjp2l","dq69ozpkqw","msl000550","motor","img/motor_2.png","83","83","motor","2","322","1","0","0","",""
"null","","364594","HierDym76pjp2l","dq69ozpkqw","msl000550","iti","img/motor_blank.png","null","83","motor","","","","","","",""
"681","","365284","HierDym76pjp2l","dq69ozpkqw","msl000550","motor","img/motor_5.png","72","72","motor","5","323","1","0","0","",""
"null","","365395","HierDym76pjp2l","dq69ozpkqw","msl000550","iti","img/motor_blank.png","null","72","motor","","","","","","",""
"485","","365889","HierDym76pjp2l","dq69ozpkqw","msl000550","motor","img/motor_2.png","68","83","motor","2","324","0","1","0","",""
"347","","366247","HierDym76pjp2l","dq69ozpkqw","msl000550","motorRepeat","img/motor_2.png","83","83","motor","2","324","1","0","0","",""
"null","","366357","HierDym76pjp2l","dq69ozpkqw","msl000550","iti","img/motor_blank.png","null","83","motor","","","","","","",""
"463","","366829","HierDym76pjp2l","dq69ozpkqw","msl000550","motor","img/motor_8.png","76","76","motor","8","325","1","0","0","",""
"null","","366941","HierDym76pjp2l","dq69ozpkqw","msl000550","iti","img/motor_blank.png","null","76","motor","","","","","","",""
"663","","367613","HierDym76pjp2l","dq69ozpkqw","msl000550","motor","img/motor_7.png","75","75","motor","7","326","1","0","0","",""
"null","","367724","HierDym76pjp2l","dq69ozpkqw","msl000550","iti","img/motor_blank.png","null","75","motor","","","","","","",""
"580","","368316","HierDym76pjp2l","dq69ozpkqw","msl000550","motor","img/motor_8.png","76","76","motor","8","327","1","0","0","",""
"null","","368428","HierDym76pjp2l","dq69ozpkqw","msl000550","iti","img/motor_blank.png","null","76","motor","","","","","","",""
"653","","369091","HierDym76pjp2l","dq69ozpkqw","msl000550","motor","img/motor_4.png","70","70","motor","4","328","1","0","0","",""
"null","","369202","HierDym76pjp2l","dq69ozpkqw","msl000550","iti","img/motor_blank.png","null","70","motor","","","","","","",""
"473","","369685","HierDym76pjp2l","dq69ozpkqw","msl000550","motor","img/motor_2.png","68","83","motor","2","329","0","1","0","",""
"335","","370029","HierDym76pjp2l","dq69ozpkqw","msl000550","motorRepeat","img/motor_2.png","83","83","motor","2","329","1","0","0","",""
"null","","370140","HierDym76pjp2l","dq69ozpkqw","msl000550","iti","img/motor_blank.png","null","83","motor","","","","","","",""
"660","","370812","HierDym76pjp2l","dq69ozpkqw","msl000550","motor","img/motor_1.png","65","65","motor","1","330","1","0","0","",""
"null","","370920","HierDym76pjp2l","dq69ozpkqw","msl000550","iti","img/motor_blank.png","null","65","motor","","","","","","",""
"715","","371643","HierDym76pjp2l","dq69ozpkqw","msl000550","motor","img/motor_5.png","72","72","motor","5","331","1","0","0","",""
"null","","371753","HierDym76pjp2l","dq69ozpkqw","msl000550","iti","img/motor_blank.png","null","72","motor","","","","","","",""
"647","","372410","HierDym76pjp2l","dq69ozpkqw","msl000550","motor","img/motor_4.png","70","70","motor","4","332","1","0","0","",""
"null","","372520","HierDym76pjp2l","dq69ozpkqw","msl000550","iti","img/motor_blank.png","null","70","motor","","","","","","",""
"484","","373011","HierDym76pjp2l","dq69ozpkqw","msl000550","motor","img/motor_7.png","75","75","motor","7","333","1","0","0","",""
"null","","373122","HierDym76pjp2l","dq69ozpkqw","msl000550","iti","img/motor_blank.png","null","75","motor","","","","","","",""
"940","","374071","HierDym76pjp2l","dq69ozpkqw","msl000550","motor","img/motor_3.png","68","68","motor","3","334","1","0","0","",""
"null","","374182","HierDym76pjp2l","dq69ozpkqw","msl000550","iti","img/motor_blank.png","null","68","motor","","","","","","",""
"588","","374779","HierDym76pjp2l","dq69ozpkqw","msl000550","motor","img/motor_7.png","75","75","motor","7","335","1","0","0","",""
"null","","374889","HierDym76pjp2l","dq69ozpkqw","msl000550","iti","img/motor_blank.png","null","75","motor","","","","","","",""
"564","","375462","HierDym76pjp2l","dq69ozpkqw","msl000550","motor","img/motor_5.png","72","72","motor","5","336","1","0","0","",""
"null","","375573","HierDym76pjp2l","dq69ozpkqw","msl000550","iti","img/motor_blank.png","null","72","motor","","","","","","",""
"483","","376065","HierDym76pjp2l","dq69ozpkqw","msl000550","motor","img/motor_1.png","65","65","motor","1","337","1","0","0","",""
"null","","376176","HierDym76pjp2l","dq69ozpkqw","msl000550","iti","img/motor_blank.png","null","65","motor","","","","","","",""
"563","","376749","HierDym76pjp2l","dq69ozpkqw","msl000550","motor","img/motor_3.png","68","68","motor","3","338","1","0","0","",""
"null","","376860","HierDym76pjp2l","dq69ozpkqw","msl000550","iti","img/motor_blank.png","null","68","motor","","","","","","",""
"565","","377436","HierDym76pjp2l","dq69ozpkqw","msl000550","motor","img/motor_8.png","76","76","motor","8","339","1","0","0","",""
"null","","377547","HierDym76pjp2l","dq69ozpkqw","msl000550","iti","img/motor_blank.png","null","76","motor","","","","","","",""
"381","","377938","HierDym76pjp2l","dq69ozpkqw","msl000550","motor","img/motor_8.png","76","76","motor","8","340","1","0","0","",""
"null","","378050","HierDym76pjp2l","dq69ozpkqw","msl000550","iti","img/motor_blank.png","null","76","motor","","","","","","",""
"548","","378608","HierDym76pjp2l","dq69ozpkqw","msl000550","motor","img/motor_1.png","65","65","motor","1","341","1","0","0","",""
"null","","378721","HierDym76pjp2l","dq69ozpkqw","msl000550","iti","img/motor_blank.png","null","65","motor","","","","","","",""
"503","","379233","HierDym76pjp2l","dq69ozpkqw","msl000550","motor","img/motor_8.png","76","76","motor","8","342","1","0","0","",""
"null","","379344","HierDym76pjp2l","dq69ozpkqw","msl000550","iti","img/motor_blank.png","null","76","motor","","","","","","",""
"647","","380001","HierDym76pjp2l","dq69ozpkqw","msl000550","motor","img/motor_8.png","76","76","motor","8","343","1","0","0","",""
"null","","380111","HierDym76pjp2l","dq69ozpkqw","msl000550","iti","img/motor_blank.png","null","76","motor","","","","","","",""
"57","","380175","HierDym76pjp2l","dq69ozpkqw","msl000550","motor","img/motor_5.png","68","72","motor","5","344","0","1","0","",""
"518","","380703","HierDym76pjp2l","dq69ozpkqw","msl000550","motorRepeat","img/motor_5.png","72","72","motor","5","344","1","0","0","",""
"null","","380815","HierDym76pjp2l","dq69ozpkqw","msl000550","iti","img/motor_blank.png","null","72","motor","","","","","","",""
"768","","381592","HierDym76pjp2l","dq69ozpkqw","msl000550","motor","img/motor_1.png","65","65","motor","1","345","1","0","0","",""
"null","","381704","HierDym76pjp2l","dq69ozpkqw","msl000550","iti","img/motor_blank.png","null","65","motor","","","","","","",""
"563","","382276","HierDym76pjp2l","dq69ozpkqw","msl000550","motor","img/motor_8.png","76","76","motor","8","346","1","0","0","",""
"null","","382386","HierDym76pjp2l","dq69ozpkqw","msl000550","iti","img/motor_blank.png","null","76","motor","","","","","","",""
"663","","383057","HierDym76pjp2l","dq69ozpkqw","msl000550","motor","img/motor_4.png","70","70","motor","4","347","1","0","0","",""
"null","","383166","HierDym76pjp2l","dq69ozpkqw","msl000550","iti","img/motor_blank.png","null","70","motor","","","","","","",""
"594","","383770","HierDym76pjp2l","dq69ozpkqw","msl000550","motor","img/motor_7.png","75","75","motor","7","348","1","0","0","",""
"null","","383881","HierDym76pjp2l","dq69ozpkqw","msl000550","iti","img/motor_blank.png","null","75","motor","","","","","","",""
"751","","384640","HierDym76pjp2l","dq69ozpkqw","msl000550","motor","img/motor_4.png","70","70","motor","4","349","1","0","0","",""
"null","","384749","HierDym76pjp2l","dq69ozpkqw","msl000550","iti","img/motor_blank.png","null","70","motor","","","","","","",""
"609","","385367","HierDym76pjp2l","dq69ozpkqw","msl000550","motor","img/motor_7.png","75","75","motor","7","350","1","0","0","",""
"null","","385480","HierDym76pjp2l","dq69ozpkqw","msl000550","iti","img/motor_blank.png","null","75","motor","","","","","","",""
"792","","386282","HierDym76pjp2l","dq69ozpkqw","msl000550","motor","img/motor_6.png","74","74","motor","6","351","1","0","0","",""
"null","","386391","HierDym76pjp2l","dq69ozpkqw","msl000550","iti","img/motor_blank.png","null","74","motor","","","","","","",""
"551","","386951","HierDym76pjp2l","dq69ozpkqw","msl000550","motor","img/motor_1.png","65","65","motor","1","352","1","0","0","",""
"null","","387063","HierDym76pjp2l","dq69ozpkqw","msl000550","iti","img/motor_blank.png","null","65","motor","","","","","","",""
"659","","387733","HierDym76pjp2l","dq69ozpkqw","msl000550","motor","img/motor_4.png","70","70","motor","4","353","1","0","0","",""
"null","","387843","HierDym76pjp2l","dq69ozpkqw","msl000550","iti","img/motor_blank.png","null","70","motor","","","","","","",""
"377","","388230","HierDym76pjp2l","dq69ozpkqw","msl000550","motor","img/motor_8.png","76","76","motor","8","354","1","0","0","",""
"null","","388340","HierDym76pjp2l","dq69ozpkqw","msl000550","iti","img/motor_blank.png","null","76","motor","","","","","","",""
"474","","388824","HierDym76pjp2l","dq69ozpkqw","msl000550","motor","img/motor_6.png","74","74","motor","6","355","1","0","0","",""
"null","","388935","HierDym76pjp2l","dq69ozpkqw","msl000550","iti","img/motor_blank.png","null","74","motor","","","","","","",""
"414","","389360","HierDym76pjp2l","dq69ozpkqw","msl000550","motor","img/motor_3.png","68","68","motor","3","356","1","0","0","",""
"null","","389470","HierDym76pjp2l","dq69ozpkqw","msl000550","iti","img/motor_blank.png","null","68","motor","","","","","","",""
"292","","389772","HierDym76pjp2l","dq69ozpkqw","msl000550","motor","img/motor_3.png","65","68","motor","3","357","0","1","0","",""
"646","","390429","HierDym76pjp2l","dq69ozpkqw","msl000550","motorRepeat","img/motor_3.png","70","68","motor","3","357","0","1","0","",""
"217","","390655","HierDym76pjp2l","dq69ozpkqw","msl000550","motorRepeat","img/motor_3.png","68","68","motor","3","357","1","0","0","",""
"null","","390765","HierDym76pjp2l","dq69ozpkqw","msl000550","iti","img/motor_blank.png","null","68","motor","","","","","","",""
"416","","391191","HierDym76pjp2l","dq69ozpkqw","msl000550","motor","img/motor_1.png","65","65","motor","1","358","1","0","0","",""
"null","","391302","HierDym76pjp2l","dq69ozpkqw","msl000550","iti","img/motor_blank.png","null","65","motor","","","","","","",""
"361","","391673","HierDym76pjp2l","dq69ozpkqw","msl000550","motor","img/motor_6.png","76","74","motor","6","359","0","1","0","",""
"430","","392112","HierDym76pjp2l","dq69ozpkqw","msl000550","motorRepeat","img/motor_6.png","74","74","motor","6","359","1","0","0","",""
"null","","392223","HierDym76pjp2l","dq69ozpkqw","msl000550","iti","img/motor_blank.png","null","74","motor","","","","","","",""
