"rt","responses","time_elapsed","subject","prolificID","demoID","trialType","stimulus","key_press","corrresp","phase","stimNum","trialNum","corr","repeatTrial","motorSwitch","pracCounter","hierarchy"
"7637","{""Q0"":""msl000608""}","7664","HierDyv1ja67l8","vv74p5ktg1","msl000608","","","","","","","","","","","",""
"1572","","9244","HierDyv1ja67l8","vv74p5ktg1","msl000608","","","","","","","","","","","",""
"","","11306","HierDyv1ja67l8","vv74p5ktg1","msl000608","fullscreen","","","","","","","","","","",""
"70910","","82225","HierDyv1ja67l8","vv74p5ktg1","msl000608","","","","","","","","","","","",""
"464","","82698","HierDyv1ja67l8","vv74p5ktg1","msl000608","motor","img/motor_2.png","83","83","motor","2","1","1","0","0","",""
"null","","82807","HierDyv1ja67l8","vv74p5ktg1","msl000608","iti","img/motor_blank.png","null","83","motor","","","","","","",""
"465","","83280","HierDyv1ja67l8","vv74p5ktg1","msl000608","motor","img/motor_8.png","76","76","motor","8","2","1","0","0","",""
"null","","83389","HierDyv1ja67l8","vv74p5ktg1","msl000608","iti","img/motor_blank.png","null","76","motor","","","","","","",""
"501","","83899","HierDyv1ja67l8","vv74p5ktg1","msl000608","motor","img/motor_7.png","75","75","motor","7","3","1","0","0","",""
"null","","84009","HierDyv1ja67l8","vv74p5ktg1","msl000608","iti","img/motor_blank.png","null","75","motor","","","","","","",""
"457","","84476","HierDyv1ja67l8","vv74p5ktg1","msl000608","motor","img/motor_7.png","75","75","motor","7","4","1","0","0","",""
"null","","84586","HierDyv1ja67l8","vv74p5ktg1","msl000608","iti","img/motor_blank.png","null","75","motor","","","","","","",""
"378","","84972","HierDyv1ja67l8","vv74p5ktg1","msl000608","motor","img/motor_8.png","76","76","motor","8","5","1","0","0","",""
"null","","85082","HierDyv1ja67l8","vv74p5ktg1","msl000608","iti","img/motor_blank.png","null","76","motor","","","","","","",""
"488","","85579","HierDyv1ja67l8","vv74p5ktg1","msl000608","motor","img/motor_6.png","72","74","motor","6","6","0","1","0","",""
"423","","86011","HierDyv1ja67l8","vv74p5ktg1","msl000608","motorRepeat","img/motor_6.png","74","74","motor","6","6","1","0","0","",""
"null","","86118","HierDyv1ja67l8","vv74p5ktg1","msl000608","iti","img/motor_blank.png","null","74","motor","","","","","","",""
"411","","86537","HierDyv1ja67l8","vv74p5ktg1","msl000608","motor","img/motor_5.png","72","72","motor","5","7","1","0","0","",""
"null","","86647","HierDyv1ja67l8","vv74p5ktg1","msl000608","iti","img/motor_blank.png","null","72","motor","","","","","","",""
"303","","86959","HierDyv1ja67l8","vv74p5ktg1","msl000608","motor","img/motor_6.png","74","74","motor","6","8","1","0","0","",""
"null","","87070","HierDyv1ja67l8","vv74p5ktg1","msl000608","iti","img/motor_blank.png","null","74","motor","","","","","","",""
"605","","87682","HierDyv1ja67l8","vv74p5ktg1","msl000608","motor","img/motor_2.png","83","83","motor","2","9","1","0","0","",""
"null","","87793","HierDyv1ja67l8","vv74p5ktg1","msl000608","iti","img/motor_blank.png","null","83","motor","","","","","","",""
"508","","88307","HierDyv1ja67l8","vv74p5ktg1","msl000608","motor","img/motor_5.png","72","72","motor","5","10","1","0","0","",""
"null","","88417","HierDyv1ja67l8","vv74p5ktg1","msl000608","iti","img/motor_blank.png","null","72","motor","","","","","","",""
"368","","88795","HierDyv1ja67l8","vv74p5ktg1","msl000608","motor","img/motor_8.png","76","76","motor","8","11","1","0","0","",""
"null","","88904","HierDyv1ja67l8","vv74p5ktg1","msl000608","iti","img/motor_blank.png","null","76","motor","","","","","","",""
"335","","89249","HierDyv1ja67l8","vv74p5ktg1","msl000608","motor","img/motor_5.png","72","72","motor","5","12","1","0","0","",""
"null","","89359","HierDyv1ja67l8","vv74p5ktg1","msl000608","iti","img/motor_blank.png","null","72","motor","","","","","","",""
"415","","89783","HierDyv1ja67l8","vv74p5ktg1","msl000608","motor","img/motor_1.png","65","65","motor","1","13","1","0","0","",""
"null","","89893","HierDyv1ja67l8","vv74p5ktg1","msl000608","iti","img/motor_blank.png","null","65","motor","","","","","","",""
"516","","90418","HierDyv1ja67l8","vv74p5ktg1","msl000608","motor","img/motor_3.png","68","68","motor","3","14","1","0","0","",""
"null","","90527","HierDyv1ja67l8","vv74p5ktg1","msl000608","iti","img/motor_blank.png","null","68","motor","","","","","","",""
"586","","91122","HierDyv1ja67l8","vv74p5ktg1","msl000608","motor","img/motor_1.png","65","65","motor","1","15","1","0","0","",""
"null","","91232","HierDyv1ja67l8","vv74p5ktg1","msl000608","iti","img/motor_blank.png","null","65","motor","","","","","","",""
"577","","91817","HierDyv1ja67l8","vv74p5ktg1","msl000608","motor","img/motor_7.png","75","75","motor","7","16","1","0","0","",""
"null","","91927","HierDyv1ja67l8","vv74p5ktg1","msl000608","iti","img/motor_blank.png","null","75","motor","","","","","","",""
"324","","92260","HierDyv1ja67l8","vv74p5ktg1","msl000608","motor","img/motor_5.png","72","72","motor","5","17","1","0","0","",""
"null","","92369","HierDyv1ja67l8","vv74p5ktg1","msl000608","iti","img/motor_blank.png","null","72","motor","","","","","","",""
"321","","92699","HierDyv1ja67l8","vv74p5ktg1","msl000608","motor","img/motor_6.png","74","74","motor","6","18","1","0","0","",""
"null","","92809","HierDyv1ja67l8","vv74p5ktg1","msl000608","iti","img/motor_blank.png","null","74","motor","","","","","","",""
"386","","93201","HierDyv1ja67l8","vv74p5ktg1","msl000608","motor","img/motor_5.png","72","72","motor","5","19","1","0","0","",""
"null","","93312","HierDyv1ja67l8","vv74p5ktg1","msl000608","iti","img/motor_blank.png","null","72","motor","","","","","","",""
"530","","93850","HierDyv1ja67l8","vv74p5ktg1","msl000608","motor","img/motor_2.png","83","83","motor","2","20","1","0","0","",""
"null","","93960","HierDyv1ja67l8","vv74p5ktg1","msl000608","iti","img/motor_blank.png","null","83","motor","","","","","","",""
"353","","94322","HierDyv1ja67l8","vv74p5ktg1","msl000608","motor","img/motor_1.png","65","65","motor","1","21","1","0","0","",""
"null","","94431","HierDyv1ja67l8","vv74p5ktg1","msl000608","iti","img/motor_blank.png","null","65","motor","","","","","","",""
"462","","94901","HierDyv1ja67l8","vv74p5ktg1","msl000608","motor","img/motor_4.png","70","70","motor","4","22","1","0","0","",""
"null","","95012","HierDyv1ja67l8","vv74p5ktg1","msl000608","iti","img/motor_blank.png","null","70","motor","","","","","","",""
"315","","95336","HierDyv1ja67l8","vv74p5ktg1","msl000608","motor","img/motor_1.png","65","65","motor","1","23","1","0","0","",""
"null","","95446","HierDyv1ja67l8","vv74p5ktg1","msl000608","iti","img/motor_blank.png","null","65","motor","","","","","","",""
"338","","95793","HierDyv1ja67l8","vv74p5ktg1","msl000608","motor","img/motor_8.png","76","76","motor","8","24","1","0","0","",""
"null","","95903","HierDyv1ja67l8","vv74p5ktg1","msl000608","iti","img/motor_blank.png","null","76","motor","","","","","","",""
"293","","96205","HierDyv1ja67l8","vv74p5ktg1","msl000608","motor","img/motor_5.png","72","72","motor","5","25","1","0","0","",""
"null","","96314","HierDyv1ja67l8","vv74p5ktg1","msl000608","iti","img/motor_blank.png","null","72","motor","","","","","","",""
"364","","96688","HierDyv1ja67l8","vv74p5ktg1","msl000608","motor","img/motor_6.png","74","74","motor","6","26","1","0","0","",""
"null","","96796","HierDyv1ja67l8","vv74p5ktg1","msl000608","iti","img/motor_blank.png","null","74","motor","","","","","","",""
"405","","97209","HierDyv1ja67l8","vv74p5ktg1","msl000608","motor","img/motor_4.png","70","70","motor","4","27","1","0","0","",""
"null","","97318","HierDyv1ja67l8","vv74p5ktg1","msl000608","iti","img/motor_blank.png","null","70","motor","","","","","","",""
"381","","97708","HierDyv1ja67l8","vv74p5ktg1","msl000608","motor","img/motor_1.png","65","65","motor","1","28","1","0","0","",""
"null","","97815","HierDyv1ja67l8","vv74p5ktg1","msl000608","iti","img/motor_blank.png","null","65","motor","","","","","","",""
"329","","98152","HierDyv1ja67l8","vv74p5ktg1","msl000608","motor","img/motor_1.png","65","65","motor","1","29","1","0","0","",""
"null","","98262","HierDyv1ja67l8","vv74p5ktg1","msl000608","iti","img/motor_blank.png","null","65","motor","","","","","","",""
"278","","98549","HierDyv1ja67l8","vv74p5ktg1","msl000608","motor","img/motor_2.png","65","83","motor","2","30","0","1","0","",""
"339","","98896","HierDyv1ja67l8","vv74p5ktg1","msl000608","motorRepeat","img/motor_2.png","83","83","motor","2","30","1","0","0","",""
"null","","99007","HierDyv1ja67l8","vv74p5ktg1","msl000608","iti","img/motor_blank.png","null","83","motor","","","","","","",""
"416","","99431","HierDyv1ja67l8","vv74p5ktg1","msl000608","motor","img/motor_6.png","72","74","motor","6","31","0","1","0","",""
"326","","99762","HierDyv1ja67l8","vv74p5ktg1","msl000608","motorRepeat","img/motor_6.png","74","74","motor","6","31","1","0","0","",""
"null","","99873","HierDyv1ja67l8","vv74p5ktg1","msl000608","iti","img/motor_blank.png","null","74","motor","","","","","","",""
"394","","100275","HierDyv1ja67l8","vv74p5ktg1","msl000608","motor","img/motor_5.png","72","72","motor","5","32","1","0","0","",""
"null","","100384","HierDyv1ja67l8","vv74p5ktg1","msl000608","iti","img/motor_blank.png","null","72","motor","","","","","","",""
"555","","100946","HierDyv1ja67l8","vv74p5ktg1","msl000608","motor","img/motor_2.png","83","83","motor","2","33","1","0","0","",""
"null","","101055","HierDyv1ja67l8","vv74p5ktg1","msl000608","iti","img/motor_blank.png","null","83","motor","","","","","","",""
"649","","101712","HierDyv1ja67l8","vv74p5ktg1","msl000608","motor","img/motor_3.png","68","68","motor","3","34","1","0","0","",""
"null","","101821","HierDyv1ja67l8","vv74p5ktg1","msl000608","iti","img/motor_blank.png","null","68","motor","","","","","","",""
"464","","102293","HierDyv1ja67l8","vv74p5ktg1","msl000608","motor","img/motor_6.png","74","74","motor","6","35","1","0","0","",""
"null","","102404","HierDyv1ja67l8","vv74p5ktg1","msl000608","iti","img/motor_blank.png","null","74","motor","","","","","","",""
"467","","102880","HierDyv1ja67l8","vv74p5ktg1","msl000608","motor","img/motor_2.png","83","83","motor","2","36","1","0","0","",""
"null","","102989","HierDyv1ja67l8","vv74p5ktg1","msl000608","iti","img/motor_blank.png","null","83","motor","","","","","","",""
"435","","103432","HierDyv1ja67l8","vv74p5ktg1","msl000608","motor","img/motor_2.png","83","83","motor","2","37","1","0","0","",""
"null","","103538","HierDyv1ja67l8","vv74p5ktg1","msl000608","iti","img/motor_blank.png","null","83","motor","","","","","","",""
"446","","103991","HierDyv1ja67l8","vv74p5ktg1","msl000608","motor","img/motor_8.png","76","76","motor","8","38","1","0","0","",""
"null","","104098","HierDyv1ja67l8","vv74p5ktg1","msl000608","iti","img/motor_blank.png","null","76","motor","","","","","","",""
"481","","104585","HierDyv1ja67l8","vv74p5ktg1","msl000608","motor","img/motor_2.png","83","83","motor","2","39","1","0","0","",""
"null","","104694","HierDyv1ja67l8","vv74p5ktg1","msl000608","iti","img/motor_blank.png","null","83","motor","","","","","","",""
"720","","105422","HierDyv1ja67l8","vv74p5ktg1","msl000608","motor","img/motor_6.png","74","74","motor","6","40","1","0","0","",""
"null","","105528","HierDyv1ja67l8","vv74p5ktg1","msl000608","iti","img/motor_blank.png","null","74","motor","","","","","","",""
"330","","105865","HierDyv1ja67l8","vv74p5ktg1","msl000608","motor","img/motor_6.png","74","74","motor","6","41","1","0","0","",""
"null","","105972","HierDyv1ja67l8","vv74p5ktg1","msl000608","iti","img/motor_blank.png","null","74","motor","","","","","","",""
"455","","106433","HierDyv1ja67l8","vv74p5ktg1","msl000608","motor","img/motor_3.png","83","68","motor","3","42","0","1","0","",""
"252","","106694","HierDyv1ja67l8","vv74p5ktg1","msl000608","motorRepeat","img/motor_3.png","68","68","motor","3","42","1","0","0","",""
"null","","106805","HierDyv1ja67l8","vv74p5ktg1","msl000608","iti","img/motor_blank.png","null","68","motor","","","","","","",""
"461","","107274","HierDyv1ja67l8","vv74p5ktg1","msl000608","motor","img/motor_8.png","76","76","motor","8","43","1","0","0","",""
"null","","107385","HierDyv1ja67l8","vv74p5ktg1","msl000608","iti","img/motor_blank.png","null","76","motor","","","","","","",""
"499","","107891","HierDyv1ja67l8","vv74p5ktg1","msl000608","motor","img/motor_3.png","68","68","motor","3","44","1","0","0","",""
"null","","107999","HierDyv1ja67l8","vv74p5ktg1","msl000608","iti","img/motor_blank.png","null","68","motor","","","","","","",""
"523","","108530","HierDyv1ja67l8","vv74p5ktg1","msl000608","motor","img/motor_4.png","70","70","motor","4","45","1","0","0","",""
"null","","108640","HierDyv1ja67l8","vv74p5ktg1","msl000608","iti","img/motor_blank.png","null","70","motor","","","","","","",""
"781","","109427","HierDyv1ja67l8","vv74p5ktg1","msl000608","motor","img/motor_2.png","83","83","motor","2","46","1","0","0","",""
"null","","109535","HierDyv1ja67l8","vv74p5ktg1","msl000608","iti","img/motor_blank.png","null","83","motor","","","","","","",""
"524","","110065","HierDyv1ja67l8","vv74p5ktg1","msl000608","motor","img/motor_3.png","68","68","motor","3","47","1","0","0","",""
"null","","110173","HierDyv1ja67l8","vv74p5ktg1","msl000608","iti","img/motor_blank.png","null","68","motor","","","","","","",""
"561","","110739","HierDyv1ja67l8","vv74p5ktg1","msl000608","motor","img/motor_2.png","83","83","motor","2","48","1","0","0","",""
"null","","110849","HierDyv1ja67l8","vv74p5ktg1","msl000608","iti","img/motor_blank.png","null","83","motor","","","","","","",""
"624","","111481","HierDyv1ja67l8","vv74p5ktg1","msl000608","motor","img/motor_7.png","75","75","motor","7","49","1","0","0","",""
"null","","111588","HierDyv1ja67l8","vv74p5ktg1","msl000608","iti","img/motor_blank.png","null","75","motor","","","","","","",""
"291","","111886","HierDyv1ja67l8","vv74p5ktg1","msl000608","motor","img/motor_6.png","74","74","motor","6","50","1","0","0","",""
"null","","111996","HierDyv1ja67l8","vv74p5ktg1","msl000608","iti","img/motor_blank.png","null","74","motor","","","","","","",""
"1076","","113080","HierDyv1ja67l8","vv74p5ktg1","msl000608","motor","img/motor_3.png","68","68","motor","3","51","1","0","0","",""
"null","","113189","HierDyv1ja67l8","vv74p5ktg1","msl000608","iti","img/motor_blank.png","null","68","motor","","","","","","",""
"499","","113696","HierDyv1ja67l8","vv74p5ktg1","msl000608","motor","img/motor_4.png","70","70","motor","4","52","1","0","0","",""
"null","","113806","HierDyv1ja67l8","vv74p5ktg1","msl000608","iti","img/motor_blank.png","null","70","motor","","","","","","",""
"438","","114254","HierDyv1ja67l8","vv74p5ktg1","msl000608","motor","img/motor_5.png","72","72","motor","5","53","1","0","0","",""
"null","","114363","HierDyv1ja67l8","vv74p5ktg1","msl000608","iti","img/motor_blank.png","null","72","motor","","","","","","",""
"690","","115061","HierDyv1ja67l8","vv74p5ktg1","msl000608","motor","img/motor_2.png","83","83","motor","2","54","1","0","0","",""
"null","","115171","HierDyv1ja67l8","vv74p5ktg1","msl000608","iti","img/motor_blank.png","null","83","motor","","","","","","",""
"542","","115719","HierDyv1ja67l8","vv74p5ktg1","msl000608","motor","img/motor_5.png","72","72","motor","5","55","1","0","0","",""
"null","","115829","HierDyv1ja67l8","vv74p5ktg1","msl000608","iti","img/motor_blank.png","null","72","motor","","","","","","",""
"540","","116378","HierDyv1ja67l8","vv74p5ktg1","msl000608","motor","img/motor_3.png","68","68","motor","3","56","1","0","0","",""
"null","","116488","HierDyv1ja67l8","vv74p5ktg1","msl000608","iti","img/motor_blank.png","null","68","motor","","","","","","",""
"397","","116893","HierDyv1ja67l8","vv74p5ktg1","msl000608","motor","img/motor_3.png","68","68","motor","3","57","1","0","0","",""
"null","","117003","HierDyv1ja67l8","vv74p5ktg1","msl000608","iti","img/motor_blank.png","null","68","motor","","","","","","",""
"460","","117471","HierDyv1ja67l8","vv74p5ktg1","msl000608","motor","img/motor_6.png","74","74","motor","6","58","1","0","0","",""
"null","","117581","HierDyv1ja67l8","vv74p5ktg1","msl000608","iti","img/motor_blank.png","null","74","motor","","","","","","",""
"553","","118142","HierDyv1ja67l8","vv74p5ktg1","msl000608","motor","img/motor_4.png","70","70","motor","4","59","1","0","0","",""
"null","","118252","HierDyv1ja67l8","vv74p5ktg1","msl000608","iti","img/motor_blank.png","null","70","motor","","","","","","",""
"425","","118682","HierDyv1ja67l8","vv74p5ktg1","msl000608","motor","img/motor_6.png","74","74","motor","6","60","1","0","0","",""
"null","","118792","HierDyv1ja67l8","vv74p5ktg1","msl000608","iti","img/motor_blank.png","null","74","motor","","","","","","",""
"366","","119167","HierDyv1ja67l8","vv74p5ktg1","msl000608","motor","img/motor_8.png","76","76","motor","8","61","1","0","0","",""
"null","","119278","HierDyv1ja67l8","vv74p5ktg1","msl000608","iti","img/motor_blank.png","null","76","motor","","","","","","",""
"510","","119796","HierDyv1ja67l8","vv74p5ktg1","msl000608","motor","img/motor_5.png","72","72","motor","5","62","1","0","0","",""
"null","","119906","HierDyv1ja67l8","vv74p5ktg1","msl000608","iti","img/motor_blank.png","null","72","motor","","","","","","",""
"386","","120300","HierDyv1ja67l8","vv74p5ktg1","msl000608","motor","img/motor_7.png","74","75","motor","7","63","0","1","0","",""
"308","","120618","HierDyv1ja67l8","vv74p5ktg1","msl000608","motorRepeat","img/motor_7.png","75","75","motor","7","63","1","0","0","",""
"null","","120726","HierDyv1ja67l8","vv74p5ktg1","msl000608","iti","img/motor_blank.png","null","75","motor","","","","","","",""
"947","","121682","HierDyv1ja67l8","vv74p5ktg1","msl000608","motor","img/motor_3.png","68","68","motor","3","64","1","0","0","",""
"null","","121792","HierDyv1ja67l8","vv74p5ktg1","msl000608","iti","img/motor_blank.png","null","68","motor","","","","","","",""
"407","","122206","HierDyv1ja67l8","vv74p5ktg1","msl000608","motor","img/motor_2.png","83","83","motor","2","65","1","0","0","",""
"null","","122316","HierDyv1ja67l8","vv74p5ktg1","msl000608","iti","img/motor_blank.png","null","83","motor","","","","","","",""
"458","","122780","HierDyv1ja67l8","vv74p5ktg1","msl000608","motor","img/motor_3.png","68","68","motor","3","66","1","0","0","",""
"null","","122889","HierDyv1ja67l8","vv74p5ktg1","msl000608","iti","img/motor_blank.png","null","68","motor","","","","","","",""
"492","","123390","HierDyv1ja67l8","vv74p5ktg1","msl000608","motor","img/motor_7.png","75","75","motor","7","67","1","0","0","",""
"null","","123499","HierDyv1ja67l8","vv74p5ktg1","msl000608","iti","img/motor_blank.png","null","75","motor","","","","","","",""
"465","","123970","HierDyv1ja67l8","vv74p5ktg1","msl000608","motor","img/motor_2.png","83","83","motor","2","68","1","0","0","",""
"null","","124079","HierDyv1ja67l8","vv74p5ktg1","msl000608","iti","img/motor_blank.png","null","83","motor","","","","","","",""
"602","","124689","HierDyv1ja67l8","vv74p5ktg1","msl000608","motor","img/motor_4.png","70","70","motor","4","69","1","0","0","",""
"null","","124798","HierDyv1ja67l8","vv74p5ktg1","msl000608","iti","img/motor_blank.png","null","70","motor","","","","","","",""
"578","","125385","HierDyv1ja67l8","vv74p5ktg1","msl000608","motor","img/motor_6.png","74","74","motor","6","70","1","0","0","",""
"null","","125494","HierDyv1ja67l8","vv74p5ktg1","msl000608","iti","img/motor_blank.png","null","74","motor","","","","","","",""
"448","","125950","HierDyv1ja67l8","vv74p5ktg1","msl000608","motor","img/motor_4.png","70","70","motor","4","71","1","0","0","",""
"null","","126060","HierDyv1ja67l8","vv74p5ktg1","msl000608","iti","img/motor_blank.png","null","70","motor","","","","","","",""
"466","","126534","HierDyv1ja67l8","vv74p5ktg1","msl000608","motor","img/motor_2.png","83","83","motor","2","72","1","0","0","",""
"null","","126642","HierDyv1ja67l8","vv74p5ktg1","msl000608","iti","img/motor_blank.png","null","83","motor","","","","","","",""
"557","","127207","HierDyv1ja67l8","vv74p5ktg1","msl000608","motor","img/motor_6.png","74","74","motor","6","73","1","0","0","",""
"null","","127317","HierDyv1ja67l8","vv74p5ktg1","msl000608","iti","img/motor_blank.png","null","74","motor","","","","","","",""
"542","","127866","HierDyv1ja67l8","vv74p5ktg1","msl000608","motor","img/motor_4.png","70","70","motor","4","74","1","0","0","",""
"null","","127975","HierDyv1ja67l8","vv74p5ktg1","msl000608","iti","img/motor_blank.png","null","70","motor","","","","","","",""
"453","","128438","HierDyv1ja67l8","vv74p5ktg1","msl000608","motor","img/motor_1.png","65","65","motor","1","75","1","0","0","",""
"null","","128548","HierDyv1ja67l8","vv74p5ktg1","msl000608","iti","img/motor_blank.png","null","65","motor","","","","","","",""
"535","","129092","HierDyv1ja67l8","vv74p5ktg1","msl000608","motor","img/motor_3.png","68","68","motor","3","76","1","0","0","",""
"null","","129202","HierDyv1ja67l8","vv74p5ktg1","msl000608","iti","img/motor_blank.png","null","68","motor","","","","","","",""
"491","","129702","HierDyv1ja67l8","vv74p5ktg1","msl000608","motor","img/motor_4.png","70","70","motor","4","77","1","0","0","",""
"null","","129811","HierDyv1ja67l8","vv74p5ktg1","msl000608","iti","img/motor_blank.png","null","70","motor","","","","","","",""
"711","","130532","HierDyv1ja67l8","vv74p5ktg1","msl000608","motor","img/motor_6.png","74","74","motor","6","78","1","0","0","",""
"null","","130641","HierDyv1ja67l8","vv74p5ktg1","msl000608","iti","img/motor_blank.png","null","74","motor","","","","","","",""
"362","","131011","HierDyv1ja67l8","vv74p5ktg1","msl000608","motor","img/motor_7.png","75","75","motor","7","79","1","0","0","",""
"null","","131122","HierDyv1ja67l8","vv74p5ktg1","msl000608","iti","img/motor_blank.png","null","75","motor","","","","","","",""
"368","","131498","HierDyv1ja67l8","vv74p5ktg1","msl000608","motor","img/motor_6.png","74","74","motor","6","80","1","0","0","",""
"null","","131608","HierDyv1ja67l8","vv74p5ktg1","msl000608","iti","img/motor_blank.png","null","74","motor","","","","","","",""
"465","","132082","HierDyv1ja67l8","vv74p5ktg1","msl000608","motor","img/motor_4.png","70","70","motor","4","81","1","0","0","",""
"null","","132191","HierDyv1ja67l8","vv74p5ktg1","msl000608","iti","img/motor_blank.png","null","70","motor","","","","","","",""
"320","","132519","HierDyv1ja67l8","vv74p5ktg1","msl000608","motor","img/motor_8.png","76","76","motor","8","82","1","0","0","",""
"null","","132629","HierDyv1ja67l8","vv74p5ktg1","msl000608","iti","img/motor_blank.png","null","76","motor","","","","","","",""
"371","","133010","HierDyv1ja67l8","vv74p5ktg1","msl000608","motor","img/motor_4.png","70","70","motor","4","83","1","0","0","",""
"null","","133119","HierDyv1ja67l8","vv74p5ktg1","msl000608","iti","img/motor_blank.png","null","70","motor","","","","","","",""
"740","","133867","HierDyv1ja67l8","vv74p5ktg1","msl000608","motor","img/motor_2.png","83","83","motor","2","84","1","0","0","",""
"null","","133976","HierDyv1ja67l8","vv74p5ktg1","msl000608","iti","img/motor_blank.png","null","83","motor","","","","","","",""
"525","","134510","HierDyv1ja67l8","vv74p5ktg1","msl000608","motor","img/motor_3.png","68","68","motor","3","85","1","0","0","",""
"null","","134620","HierDyv1ja67l8","vv74p5ktg1","msl000608","iti","img/motor_blank.png","null","68","motor","","","","","","",""
"503","","135135","HierDyv1ja67l8","vv74p5ktg1","msl000608","motor","img/motor_6.png","74","74","motor","6","86","1","0","0","",""
"null","","135245","HierDyv1ja67l8","vv74p5ktg1","msl000608","iti","img/motor_blank.png","null","74","motor","","","","","","",""
"414","","135667","HierDyv1ja67l8","vv74p5ktg1","msl000608","motor","img/motor_4.png","70","70","motor","4","87","1","0","0","",""
"null","","135777","HierDyv1ja67l8","vv74p5ktg1","msl000608","iti","img/motor_blank.png","null","70","motor","","","","","","",""
"327","","136112","HierDyv1ja67l8","vv74p5ktg1","msl000608","motor","img/motor_4.png","70","70","motor","4","88","1","0","0","",""
"null","","136221","HierDyv1ja67l8","vv74p5ktg1","msl000608","iti","img/motor_blank.png","null","70","motor","","","","","","",""
"347","","136578","HierDyv1ja67l8","vv74p5ktg1","msl000608","motor","img/motor_1.png","65","65","motor","1","89","1","0","0","",""
"null","","136688","HierDyv1ja67l8","vv74p5ktg1","msl000608","iti","img/motor_blank.png","null","65","motor","","","","","","",""
"263","","136960","HierDyv1ja67l8","vv74p5ktg1","msl000608","motor","img/motor_3.png","70","68","motor","3","90","0","1","0","",""
"288","","137255","HierDyv1ja67l8","vv74p5ktg1","msl000608","motorRepeat","img/motor_3.png","68","68","motor","3","90","1","0","0","",""
"12","","137367","HierDyv1ja67l8","vv74p5ktg1","msl000608","iti","img/motor_blank.png","68","68","motor","","","","","","",""
"341","","137716","HierDyv1ja67l8","vv74p5ktg1","msl000608","motor","img/motor_2.png","83","83","motor","2","91","1","0","0","",""
"null","","137827","HierDyv1ja67l8","vv74p5ktg1","msl000608","iti","img/motor_blank.png","null","83","motor","","","","","","",""
"599","","138435","HierDyv1ja67l8","vv74p5ktg1","msl000608","motor","img/motor_6.png","74","74","motor","6","92","1","0","0","",""
"null","","138547","HierDyv1ja67l8","vv74p5ktg1","msl000608","iti","img/motor_blank.png","null","74","motor","","","","","","",""
"568","","139126","HierDyv1ja67l8","vv74p5ktg1","msl000608","motor","img/motor_6.png","74","74","motor","6","93","1","0","0","",""
"null","","139237","HierDyv1ja67l8","vv74p5ktg1","msl000608","iti","img/motor_blank.png","null","74","motor","","","","","","",""
"452","","139699","HierDyv1ja67l8","vv74p5ktg1","msl000608","motor","img/motor_1.png","65","65","motor","1","94","1","0","0","",""
"null","","139811","HierDyv1ja67l8","vv74p5ktg1","msl000608","iti","img/motor_blank.png","null","65","motor","","","","","","",""
"316","","140136","HierDyv1ja67l8","vv74p5ktg1","msl000608","motor","img/motor_1.png","65","65","motor","1","95","1","0","0","",""
"null","","140245","HierDyv1ja67l8","vv74p5ktg1","msl000608","iti","img/motor_blank.png","null","65","motor","","","","","","",""
"610","","140865","HierDyv1ja67l8","vv74p5ktg1","msl000608","motor","img/motor_6.png","74","74","motor","6","96","1","0","0","",""
"null","","140973","HierDyv1ja67l8","vv74p5ktg1","msl000608","iti","img/motor_blank.png","null","74","motor","","","","","","",""
"368","","141348","HierDyv1ja67l8","vv74p5ktg1","msl000608","motor","img/motor_6.png","74","74","motor","6","97","1","0","0","",""
"null","","141458","HierDyv1ja67l8","vv74p5ktg1","msl000608","iti","img/motor_blank.png","null","74","motor","","","","","","",""
"332","","141800","HierDyv1ja67l8","vv74p5ktg1","msl000608","motor","img/motor_8.png","76","76","motor","8","98","1","0","0","",""
"null","","141910","HierDyv1ja67l8","vv74p5ktg1","msl000608","iti","img/motor_blank.png","null","76","motor","","","","","","",""
"647","","142567","HierDyv1ja67l8","vv74p5ktg1","msl000608","motor","img/motor_3.png","68","68","motor","3","99","1","0","0","",""
"null","","142675","HierDyv1ja67l8","vv74p5ktg1","msl000608","iti","img/motor_blank.png","null","68","motor","","","","","","",""
"423","","143107","HierDyv1ja67l8","vv74p5ktg1","msl000608","motor","img/motor_8.png","76","76","motor","8","100","1","0","0","",""
"null","","143215","HierDyv1ja67l8","vv74p5ktg1","msl000608","iti","img/motor_blank.png","null","76","motor","","","","","","",""
"405","","143630","HierDyv1ja67l8","vv74p5ktg1","msl000608","motor","img/motor_1.png","65","65","motor","1","101","1","0","0","",""
"null","","143738","HierDyv1ja67l8","vv74p5ktg1","msl000608","iti","img/motor_blank.png","null","65","motor","","","","","","",""
"514","","144261","HierDyv1ja67l8","vv74p5ktg1","msl000608","motor","img/motor_5.png","72","72","motor","5","102","1","0","0","",""
"null","","144371","HierDyv1ja67l8","vv74p5ktg1","msl000608","iti","img/motor_blank.png","null","72","motor","","","","","","",""
"330","","144709","HierDyv1ja67l8","vv74p5ktg1","msl000608","motor","img/motor_8.png","76","76","motor","8","103","1","0","0","",""
"null","","144817","HierDyv1ja67l8","vv74p5ktg1","msl000608","iti","img/motor_blank.png","null","76","motor","","","","","","",""
"355","","145182","HierDyv1ja67l8","vv74p5ktg1","msl000608","motor","img/motor_1.png","70","65","motor","1","104","0","1","0","",""
"167","","145356","HierDyv1ja67l8","vv74p5ktg1","msl000608","motorRepeat","img/motor_1.png","65","65","motor","1","104","1","0","0","",""
"null","","145464","HierDyv1ja67l8","vv74p5ktg1","msl000608","iti","img/motor_blank.png","null","65","motor","","","","","","",""
"847","","146321","HierDyv1ja67l8","vv74p5ktg1","msl000608","motor","img/motor_3.png","68","68","motor","3","105","1","0","0","",""
"null","","146432","HierDyv1ja67l8","vv74p5ktg1","msl000608","iti","img/motor_blank.png","null","68","motor","","","","","","",""
"816","","147256","HierDyv1ja67l8","vv74p5ktg1","msl000608","motor","img/motor_8.png","76","76","motor","8","106","1","0","0","",""
"null","","147364","HierDyv1ja67l8","vv74p5ktg1","msl000608","iti","img/motor_blank.png","null","76","motor","","","","","","",""
"573","","147945","HierDyv1ja67l8","vv74p5ktg1","msl000608","motor","img/motor_2.png","83","83","motor","2","107","1","0","0","",""
"null","","148056","HierDyv1ja67l8","vv74p5ktg1","msl000608","iti","img/motor_blank.png","null","83","motor","","","","","","",""
"384","","148448","HierDyv1ja67l8","vv74p5ktg1","msl000608","motor","img/motor_1.png","65","65","motor","1","108","1","0","0","",""
"null","","148557","HierDyv1ja67l8","vv74p5ktg1","msl000608","iti","img/motor_blank.png","null","65","motor","","","","","","",""
"495","","149060","HierDyv1ja67l8","vv74p5ktg1","msl000608","motor","img/motor_4.png","70","70","motor","4","109","1","0","0","",""
"null","","149170","HierDyv1ja67l8","vv74p5ktg1","msl000608","iti","img/motor_blank.png","null","70","motor","","","","","","",""
"366","","149544","HierDyv1ja67l8","vv74p5ktg1","msl000608","motor","img/motor_8.png","76","76","motor","8","110","1","0","0","",""
"null","","149654","HierDyv1ja67l8","vv74p5ktg1","msl000608","iti","img/motor_blank.png","null","76","motor","","","","","","",""
"326","","149988","HierDyv1ja67l8","vv74p5ktg1","msl000608","motor","img/motor_8.png","76","76","motor","8","111","1","0","0","",""
"null","","150098","HierDyv1ja67l8","vv74p5ktg1","msl000608","iti","img/motor_blank.png","null","76","motor","","","","","","",""
"430","","150535","HierDyv1ja67l8","vv74p5ktg1","msl000608","motor","img/motor_6.png","74","74","motor","6","112","1","0","0","",""
"null","","150645","HierDyv1ja67l8","vv74p5ktg1","msl000608","iti","img/motor_blank.png","null","74","motor","","","","","","",""
"328","","150982","HierDyv1ja67l8","vv74p5ktg1","msl000608","motor","img/motor_1.png","65","65","motor","1","113","1","0","0","",""
"null","","151092","HierDyv1ja67l8","vv74p5ktg1","msl000608","iti","img/motor_blank.png","null","65","motor","","","","","","",""
"465","","151567","HierDyv1ja67l8","vv74p5ktg1","msl000608","motor","img/motor_3.png","68","68","motor","3","114","1","0","0","",""
"null","","151676","HierDyv1ja67l8","vv74p5ktg1","msl000608","iti","img/motor_blank.png","null","68","motor","","","","","","",""
"428","","152113","HierDyv1ja67l8","vv74p5ktg1","msl000608","motor","img/motor_1.png","65","65","motor","1","115","1","0","0","",""
"null","","152220","HierDyv1ja67l8","vv74p5ktg1","msl000608","iti","img/motor_blank.png","null","65","motor","","","","","","",""
"472","","152701","HierDyv1ja67l8","vv74p5ktg1","msl000608","motor","img/motor_4.png","70","70","motor","4","116","1","0","0","",""
"null","","152811","HierDyv1ja67l8","vv74p5ktg1","msl000608","iti","img/motor_blank.png","null","70","motor","","","","","","",""
"452","","153272","HierDyv1ja67l8","vv74p5ktg1","msl000608","motor","img/motor_6.png","74","74","motor","6","117","1","0","0","",""
"null","","153382","HierDyv1ja67l8","vv74p5ktg1","msl000608","iti","img/motor_blank.png","null","74","motor","","","","","","",""
"287","","153677","HierDyv1ja67l8","vv74p5ktg1","msl000608","motor","img/motor_8.png","76","76","motor","8","118","1","0","0","",""
"null","","153788","HierDyv1ja67l8","vv74p5ktg1","msl000608","iti","img/motor_blank.png","null","76","motor","","","","","","",""
"369","","154165","HierDyv1ja67l8","vv74p5ktg1","msl000608","motor","img/motor_5.png","72","72","motor","5","119","1","0","0","",""
"null","","154275","HierDyv1ja67l8","vv74p5ktg1","msl000608","iti","img/motor_blank.png","null","72","motor","","","","","","",""
"739","","155024","HierDyv1ja67l8","vv74p5ktg1","msl000608","motor","img/motor_2.png","83","83","motor","2","120","1","0","0","",""
"null","","155135","HierDyv1ja67l8","vv74p5ktg1","msl000608","iti","img/motor_blank.png","null","83","motor","","","","","","",""
"456","","155600","HierDyv1ja67l8","vv74p5ktg1","msl000608","motor","img/motor_5.png","72","72","motor","5","121","1","0","0","",""
"null","","155708","HierDyv1ja67l8","vv74p5ktg1","msl000608","iti","img/motor_blank.png","null","72","motor","","","","","","",""
"400","","156118","HierDyv1ja67l8","vv74p5ktg1","msl000608","motor","img/motor_5.png","72","72","motor","5","122","1","0","0","",""
"null","","156224","HierDyv1ja67l8","vv74p5ktg1","msl000608","iti","img/motor_blank.png","null","72","motor","","","","","","",""
"643","","156875","HierDyv1ja67l8","vv74p5ktg1","msl000608","motor","img/motor_3.png","68","68","motor","3","123","1","0","0","",""
"null","","156986","HierDyv1ja67l8","vv74p5ktg1","msl000608","iti","img/motor_blank.png","null","68","motor","","","","","","",""
"725","","157716","HierDyv1ja67l8","vv74p5ktg1","msl000608","motor","img/motor_2.png","83","83","motor","2","124","1","0","0","",""
"null","","157826","HierDyv1ja67l8","vv74p5ktg1","msl000608","iti","img/motor_blank.png","null","83","motor","","","","","","",""
"566","","158401","HierDyv1ja67l8","vv74p5ktg1","msl000608","motor","img/motor_3.png","68","68","motor","3","125","1","0","0","",""
"null","","158512","HierDyv1ja67l8","vv74p5ktg1","msl000608","iti","img/motor_blank.png","null","68","motor","","","","","","",""
"333","","158854","HierDyv1ja67l8","vv74p5ktg1","msl000608","motor","img/motor_8.png","76","76","motor","8","126","1","0","0","",""
"null","","158961","HierDyv1ja67l8","vv74p5ktg1","msl000608","iti","img/motor_blank.png","null","76","motor","","","","","","",""
"582","","159552","HierDyv1ja67l8","vv74p5ktg1","msl000608","motor","img/motor_2.png","83","83","motor","2","127","1","0","0","",""
"null","","159660","HierDyv1ja67l8","vv74p5ktg1","msl000608","iti","img/motor_blank.png","null","83","motor","","","","","","",""
"288","","159958","HierDyv1ja67l8","vv74p5ktg1","msl000608","motor","img/motor_7.png","76","75","motor","7","128","0","1","0","",""
"300","","160266","HierDyv1ja67l8","vv74p5ktg1","msl000608","motorRepeat","img/motor_7.png","75","75","motor","7","128","1","0","0","",""
"null","","160376","HierDyv1ja67l8","vv74p5ktg1","msl000608","iti","img/motor_blank.png","null","75","motor","","","","","","",""
"350","","160735","HierDyv1ja67l8","vv74p5ktg1","msl000608","motor","img/motor_8.png","76","76","motor","8","129","1","0","0","",""
"null","","160845","HierDyv1ja67l8","vv74p5ktg1","msl000608","iti","img/motor_blank.png","null","76","motor","","","","","","",""
"434","","161290","HierDyv1ja67l8","vv74p5ktg1","msl000608","motor","img/motor_1.png","65","65","motor","1","130","1","0","0","",""
"null","","161398","HierDyv1ja67l8","vv74p5ktg1","msl000608","iti","img/motor_blank.png","null","65","motor","","","","","","",""
"486","","161892","HierDyv1ja67l8","vv74p5ktg1","msl000608","motor","img/motor_5.png","72","72","motor","5","131","1","0","0","",""
"null","","162001","HierDyv1ja67l8","vv74p5ktg1","msl000608","iti","img/motor_blank.png","null","72","motor","","","","","","",""
"382","","162391","HierDyv1ja67l8","vv74p5ktg1","msl000608","motor","img/motor_5.png","72","72","motor","5","132","1","0","0","",""
"null","","162499","HierDyv1ja67l8","vv74p5ktg1","msl000608","iti","img/motor_blank.png","null","72","motor","","","","","","",""
"476","","162982","HierDyv1ja67l8","vv74p5ktg1","msl000608","motor","img/motor_1.png","65","65","motor","1","133","1","0","0","",""
"null","","163088","HierDyv1ja67l8","vv74p5ktg1","msl000608","iti","img/motor_blank.png","null","65","motor","","","","","","",""
"484","","163581","HierDyv1ja67l8","vv74p5ktg1","msl000608","motor","img/motor_5.png","72","72","motor","5","134","1","0","0","",""
"null","","163689","HierDyv1ja67l8","vv74p5ktg1","msl000608","iti","img/motor_blank.png","null","72","motor","","","","","","",""
"391","","164089","HierDyv1ja67l8","vv74p5ktg1","msl000608","motor","img/motor_4.png","70","70","motor","4","135","1","0","0","",""
"null","","164199","HierDyv1ja67l8","vv74p5ktg1","msl000608","iti","img/motor_blank.png","null","70","motor","","","","","","",""
"361","","164569","HierDyv1ja67l8","vv74p5ktg1","msl000608","motor","img/motor_4.png","72","70","motor","4","136","0","1","0","",""
"41","","164617","HierDyv1ja67l8","vv74p5ktg1","msl000608","motorRepeat","img/motor_4.png","70","70","motor","4","136","1","0","0","",""
"null","","164724","HierDyv1ja67l8","vv74p5ktg1","msl000608","iti","img/motor_blank.png","null","70","motor","","","","","","",""
"458","","165192","HierDyv1ja67l8","vv74p5ktg1","msl000608","motor","img/motor_2.png","83","83","motor","2","137","1","0","0","",""
"null","","165303","HierDyv1ja67l8","vv74p5ktg1","msl000608","iti","img/motor_blank.png","null","83","motor","","","","","","",""
"297","","165610","HierDyv1ja67l8","vv74p5ktg1","msl000608","motor","img/motor_7.png","76","75","motor","7","138","0","1","0","",""
"348","","165965","HierDyv1ja67l8","vv74p5ktg1","msl000608","motorRepeat","img/motor_7.png","75","75","motor","7","138","1","0","0","",""
"null","","166075","HierDyv1ja67l8","vv74p5ktg1","msl000608","iti","img/motor_blank.png","null","75","motor","","","","","","",""
"327","","166412","HierDyv1ja67l8","vv74p5ktg1","msl000608","motor","img/motor_8.png","76","76","motor","8","139","1","0","0","",""
"null","","166521","HierDyv1ja67l8","vv74p5ktg1","msl000608","iti","img/motor_blank.png","null","76","motor","","","","","","",""
"514","","167045","HierDyv1ja67l8","vv74p5ktg1","msl000608","motor","img/motor_5.png","72","72","motor","5","140","1","0","0","",""
"null","","167155","HierDyv1ja67l8","vv74p5ktg1","msl000608","iti","img/motor_blank.png","null","72","motor","","","","","","",""
"416","","167582","HierDyv1ja67l8","vv74p5ktg1","msl000608","motor","img/motor_7.png","75","75","motor","7","141","1","0","0","",""
"null","","167692","HierDyv1ja67l8","vv74p5ktg1","msl000608","iti","img/motor_blank.png","null","75","motor","","","","","","",""
"354","","168054","HierDyv1ja67l8","vv74p5ktg1","msl000608","motor","img/motor_7.png","75","75","motor","7","142","1","0","0","",""
"null","","168164","HierDyv1ja67l8","vv74p5ktg1","msl000608","iti","img/motor_blank.png","null","75","motor","","","","","","",""
"373","","168545","HierDyv1ja67l8","vv74p5ktg1","msl000608","motor","img/motor_5.png","72","72","motor","5","143","1","0","0","",""
"null","","168654","HierDyv1ja67l8","vv74p5ktg1","msl000608","iti","img/motor_blank.png","null","72","motor","","","","","","",""
"374","","169037","HierDyv1ja67l8","vv74p5ktg1","msl000608","motor","img/motor_8.png","76","76","motor","8","144","1","0","0","",""
"null","","169147","HierDyv1ja67l8","vv74p5ktg1","msl000608","iti","img/motor_blank.png","null","76","motor","","","","","","",""
"268","","169425","HierDyv1ja67l8","vv74p5ktg1","msl000608","motor","img/motor_5.png","72","72","motor","5","145","1","0","0","",""
"null","","169535","HierDyv1ja67l8","vv74p5ktg1","msl000608","iti","img/motor_blank.png","null","72","motor","","","","","","",""
"402","","169946","HierDyv1ja67l8","vv74p5ktg1","msl000608","motor","img/motor_1.png","65","65","motor","1","146","1","0","0","",""
"null","","170056","HierDyv1ja67l8","vv74p5ktg1","msl000608","iti","img/motor_blank.png","null","65","motor","","","","","","",""
"397","","170461","HierDyv1ja67l8","vv74p5ktg1","msl000608","motor","img/motor_4.png","70","70","motor","4","147","1","0","0","",""
"null","","170571","HierDyv1ja67l8","vv74p5ktg1","msl000608","iti","img/motor_blank.png","null","70","motor","","","","","","",""
"671","","171249","HierDyv1ja67l8","vv74p5ktg1","msl000608","motor","img/motor_3.png","68","68","motor","3","148","1","0","0","",""
"null","","171358","HierDyv1ja67l8","vv74p5ktg1","msl000608","iti","img/motor_blank.png","null","68","motor","","","","","","",""
"282","","171649","HierDyv1ja67l8","vv74p5ktg1","msl000608","motor","img/motor_7.png","75","75","motor","7","149","1","0","0","",""
"null","","171760","HierDyv1ja67l8","vv74p5ktg1","msl000608","iti","img/motor_blank.png","null","75","motor","","","","","","",""
"467","","172236","HierDyv1ja67l8","vv74p5ktg1","msl000608","motor","img/motor_8.png","76","76","motor","8","150","1","0","0","",""
"null","","172346","HierDyv1ja67l8","vv74p5ktg1","msl000608","iti","img/motor_blank.png","null","76","motor","","","","","","",""
"295","","172651","HierDyv1ja67l8","vv74p5ktg1","msl000608","motor","img/motor_1.png","65","65","motor","1","151","1","0","0","",""
"null","","172761","HierDyv1ja67l8","vv74p5ktg1","msl000608","iti","img/motor_blank.png","null","65","motor","","","","","","",""
"399","","173168","HierDyv1ja67l8","vv74p5ktg1","msl000608","motor","img/motor_5.png","72","72","motor","5","152","1","0","0","",""
"null","","173279","HierDyv1ja67l8","vv74p5ktg1","msl000608","iti","img/motor_blank.png","null","72","motor","","","","","","",""
"553","","173841","HierDyv1ja67l8","vv74p5ktg1","msl000608","motor","img/motor_3.png","68","68","motor","3","153","1","0","0","",""
"null","","173951","HierDyv1ja67l8","vv74p5ktg1","msl000608","iti","img/motor_blank.png","null","68","motor","","","","","","",""
"288","","174247","HierDyv1ja67l8","vv74p5ktg1","msl000608","motor","img/motor_5.png","75","72","motor","5","154","0","1","0","",""
"236","","174493","HierDyv1ja67l8","vv74p5ktg1","msl000608","motorRepeat","img/motor_5.png","72","72","motor","5","154","1","0","0","",""
"null","","174603","HierDyv1ja67l8","vv74p5ktg1","msl000608","iti","img/motor_blank.png","null","72","motor","","","","","","",""
"381","","174994","HierDyv1ja67l8","vv74p5ktg1","msl000608","motor","img/motor_7.png","75","75","motor","7","155","1","0","0","",""
"null","","175104","HierDyv1ja67l8","vv74p5ktg1","msl000608","iti","img/motor_blank.png","null","75","motor","","","","","","",""
"766","","175878","HierDyv1ja67l8","vv74p5ktg1","msl000608","motor","img/motor_3.png","68","68","motor","3","156","1","0","0","",""
"null","","175988","HierDyv1ja67l8","vv74p5ktg1","msl000608","iti","img/motor_blank.png","null","68","motor","","","","","","",""
"374","","176370","HierDyv1ja67l8","vv74p5ktg1","msl000608","motor","img/motor_2.png","83","83","motor","2","157","1","0","0","",""
"null","","176479","HierDyv1ja67l8","vv74p5ktg1","msl000608","iti","img/motor_blank.png","null","83","motor","","","","","","",""
"400","","176886","HierDyv1ja67l8","vv74p5ktg1","msl000608","motor","img/motor_2.png","83","83","motor","2","158","1","0","0","",""
"null","","176996","HierDyv1ja67l8","vv74p5ktg1","msl000608","iti","img/motor_blank.png","null","83","motor","","","","","","",""
"700","","177706","HierDyv1ja67l8","vv74p5ktg1","msl000608","motor","img/motor_5.png","74","72","motor","5","159","0","1","0","",""
"613","","178328","HierDyv1ja67l8","vv74p5ktg1","msl000608","motorRepeat","img/motor_5.png","74","72","motor","5","159","0","1","0","",""
"216","","178552","HierDyv1ja67l8","vv74p5ktg1","msl000608","motorRepeat","img/motor_5.png","72","72","motor","5","159","1","0","0","",""
"null","","178661","HierDyv1ja67l8","vv74p5ktg1","msl000608","iti","img/motor_blank.png","null","72","motor","","","","","","",""
"347","","179017","HierDyv1ja67l8","vv74p5ktg1","msl000608","motor","img/motor_8.png","76","76","motor","8","160","1","0","0","",""
"null","","179127","HierDyv1ja67l8","vv74p5ktg1","msl000608","iti","img/motor_blank.png","null","76","motor","","","","","","",""
"351","","179486","HierDyv1ja67l8","vv74p5ktg1","msl000608","motor","img/motor_1.png","65","65","motor","1","161","1","0","0","",""
"null","","179596","HierDyv1ja67l8","vv74p5ktg1","msl000608","iti","img/motor_blank.png","null","65","motor","","","","","","",""
"345","","179950","HierDyv1ja67l8","vv74p5ktg1","msl000608","motor","img/motor_4.png","70","70","motor","4","162","1","0","0","",""
"null","","180061","HierDyv1ja67l8","vv74p5ktg1","msl000608","iti","img/motor_blank.png","null","70","motor","","","","","","",""
"334","","180403","HierDyv1ja67l8","vv74p5ktg1","msl000608","motor","img/motor_8.png","76","76","motor","8","163","1","0","0","",""
"null","","180513","HierDyv1ja67l8","vv74p5ktg1","msl000608","iti","img/motor_blank.png","null","76","motor","","","","","","",""
"656","","181179","HierDyv1ja67l8","vv74p5ktg1","msl000608","motor","img/motor_3.png","68","68","motor","3","164","1","0","0","",""
"null","","181289","HierDyv1ja67l8","vv74p5ktg1","msl000608","iti","img/motor_blank.png","null","68","motor","","","","","","",""
"267","","181565","HierDyv1ja67l8","vv74p5ktg1","msl000608","motor","img/motor_3.png","68","68","motor","3","165","1","0","0","",""
"null","","181675","HierDyv1ja67l8","vv74p5ktg1","msl000608","iti","img/motor_blank.png","null","68","motor","","","","","","",""
"358","","182043","HierDyv1ja67l8","vv74p5ktg1","msl000608","motor","img/motor_2.png","83","83","motor","2","166","1","0","0","",""
"null","","182154","HierDyv1ja67l8","vv74p5ktg1","msl000608","iti","img/motor_blank.png","null","83","motor","","","","","","",""
"345","","182507","HierDyv1ja67l8","vv74p5ktg1","msl000608","motor","img/motor_8.png","76","76","motor","8","167","1","0","0","",""
"null","","182618","HierDyv1ja67l8","vv74p5ktg1","msl000608","iti","img/motor_blank.png","null","76","motor","","","","","","",""
"430","","183056","HierDyv1ja67l8","vv74p5ktg1","msl000608","motor","img/motor_4.png","70","70","motor","4","168","1","0","0","",""
"null","","183167","HierDyv1ja67l8","vv74p5ktg1","msl000608","iti","img/motor_blank.png","null","70","motor","","","","","","",""
"366","","183542","HierDyv1ja67l8","vv74p5ktg1","msl000608","motor","img/motor_1.png","65","65","motor","1","169","1","0","0","",""
"null","","183653","HierDyv1ja67l8","vv74p5ktg1","msl000608","iti","img/motor_blank.png","null","65","motor","","","","","","",""
"287","","183951","HierDyv1ja67l8","vv74p5ktg1","msl000608","motor","img/motor_8.png","76","76","motor","8","170","1","0","0","",""
"null","","184061","HierDyv1ja67l8","vv74p5ktg1","msl000608","iti","img/motor_blank.png","null","76","motor","","","","","","",""
"303","","184374","HierDyv1ja67l8","vv74p5ktg1","msl000608","motor","img/motor_7.png","76","75","motor","7","171","0","1","0","",""
"308","","184690","HierDyv1ja67l8","vv74p5ktg1","msl000608","motorRepeat","img/motor_7.png","75","75","motor","7","171","1","0","0","",""
"null","","184801","HierDyv1ja67l8","vv74p5ktg1","msl000608","iti","img/motor_blank.png","null","75","motor","","","","","","",""
"389","","185198","HierDyv1ja67l8","vv74p5ktg1","msl000608","motor","img/motor_1.png","65","65","motor","1","172","1","0","0","",""
"null","","185308","HierDyv1ja67l8","vv74p5ktg1","msl000608","iti","img/motor_blank.png","null","65","motor","","","","","","",""
"360","","185676","HierDyv1ja67l8","vv74p5ktg1","msl000608","motor","img/motor_8.png","76","76","motor","8","173","1","0","0","",""
"null","","185785","HierDyv1ja67l8","vv74p5ktg1","msl000608","iti","img/motor_blank.png","null","76","motor","","","","","","",""
"402","","186197","HierDyv1ja67l8","vv74p5ktg1","msl000608","motor","img/motor_7.png","75","75","motor","7","174","1","0","0","",""
"null","","186308","HierDyv1ja67l8","vv74p5ktg1","msl000608","iti","img/motor_blank.png","null","75","motor","","","","","","",""
"543","","186861","HierDyv1ja67l8","vv74p5ktg1","msl000608","motor","img/motor_6.png","74","74","motor","6","175","1","0","0","",""
"null","","186970","HierDyv1ja67l8","vv74p5ktg1","msl000608","iti","img/motor_blank.png","null","74","motor","","","","","","",""
"577","","187555","HierDyv1ja67l8","vv74p5ktg1","msl000608","motor","img/motor_2.png","83","83","motor","2","176","1","0","0","",""
"null","","187665","HierDyv1ja67l8","vv74p5ktg1","msl000608","iti","img/motor_blank.png","null","83","motor","","","","","","",""
"475","","188150","HierDyv1ja67l8","vv74p5ktg1","msl000608","motor","img/motor_4.png","70","70","motor","4","177","1","0","0","",""
"null","","188261","HierDyv1ja67l8","vv74p5ktg1","msl000608","iti","img/motor_blank.png","null","70","motor","","","","","","",""
"318","","188588","HierDyv1ja67l8","vv74p5ktg1","msl000608","motor","img/motor_4.png","70","70","motor","4","178","1","0","0","",""
"null","","188698","HierDyv1ja67l8","vv74p5ktg1","msl000608","iti","img/motor_blank.png","null","70","motor","","","","","","",""
"517","","189223","HierDyv1ja67l8","vv74p5ktg1","msl000608","motor","img/motor_5.png","72","72","motor","5","179","1","0","0","",""
"null","","189334","HierDyv1ja67l8","vv74p5ktg1","msl000608","iti","img/motor_blank.png","null","72","motor","","","","","","",""
"458","","189802","HierDyv1ja67l8","vv74p5ktg1","msl000608","motor","img/motor_4.png","70","70","motor","4","180","1","0","0","",""
"null","","189912","HierDyv1ja67l8","vv74p5ktg1","msl000608","iti","img/motor_blank.png","null","70","motor","","","","","","",""
"283","","190205","HierDyv1ja67l8","vv74p5ktg1","msl000608","motor","img/motor_5.png","72","72","motor","5","181","1","0","0","",""
"null","","190316","HierDyv1ja67l8","vv74p5ktg1","msl000608","iti","img/motor_blank.png","null","72","motor","","","","","","",""
"505","","190830","HierDyv1ja67l8","vv74p5ktg1","msl000608","motor","img/motor_2.png","83","83","motor","2","182","1","0","0","",""
"null","","190941","HierDyv1ja67l8","vv74p5ktg1","msl000608","iti","img/motor_blank.png","null","83","motor","","","","","","",""
"311","","191262","HierDyv1ja67l8","vv74p5ktg1","msl000608","motor","img/motor_5.png","72","72","motor","5","183","1","0","0","",""
"null","","191372","HierDyv1ja67l8","vv74p5ktg1","msl000608","iti","img/motor_blank.png","null","72","motor","","","","","","",""
"605","","191985","HierDyv1ja67l8","vv74p5ktg1","msl000608","motor","img/motor_3.png","68","68","motor","3","184","1","0","0","",""
"null","","192095","HierDyv1ja67l8","vv74p5ktg1","msl000608","iti","img/motor_blank.png","null","68","motor","","","","","","",""
"411","","192517","HierDyv1ja67l8","vv74p5ktg1","msl000608","motor","img/motor_8.png","76","76","motor","8","185","1","0","0","",""
"null","","192628","HierDyv1ja67l8","vv74p5ktg1","msl000608","iti","img/motor_blank.png","null","76","motor","","","","","","",""
"479","","193116","HierDyv1ja67l8","vv74p5ktg1","msl000608","motor","img/motor_3.png","68","68","motor","3","186","1","0","0","",""
"null","","193224","HierDyv1ja67l8","vv74p5ktg1","msl000608","iti","img/motor_blank.png","null","68","motor","","","","","","",""
"342","","193576","HierDyv1ja67l8","vv74p5ktg1","msl000608","motor","img/motor_3.png","68","68","motor","3","187","1","0","0","",""
"null","","193684","HierDyv1ja67l8","vv74p5ktg1","msl000608","iti","img/motor_blank.png","null","68","motor","","","","","","",""
"299","","193991","HierDyv1ja67l8","vv74p5ktg1","msl000608","motor","img/motor_4.png","75","70","motor","4","188","0","1","0","",""
"169","","194169","HierDyv1ja67l8","vv74p5ktg1","msl000608","motorRepeat","img/motor_4.png","70","70","motor","4","188","1","0","0","",""
"null","","194280","HierDyv1ja67l8","vv74p5ktg1","msl000608","iti","img/motor_blank.png","null","70","motor","","","","","","",""
"748","","195037","HierDyv1ja67l8","vv74p5ktg1","msl000608","motor","img/motor_6.png","74","74","motor","6","189","1","0","0","",""
"null","","195147","HierDyv1ja67l8","vv74p5ktg1","msl000608","iti","img/motor_blank.png","null","74","motor","","","","","","",""
"427","","195585","HierDyv1ja67l8","vv74p5ktg1","msl000608","motor","img/motor_1.png","65","65","motor","1","190","1","0","0","",""
"null","","195694","HierDyv1ja67l8","vv74p5ktg1","msl000608","iti","img/motor_blank.png","null","65","motor","","","","","","",""
"341","","196046","HierDyv1ja67l8","vv74p5ktg1","msl000608","motor","img/motor_1.png","65","65","motor","1","191","1","0","0","",""
"null","","196154","HierDyv1ja67l8","vv74p5ktg1","msl000608","iti","img/motor_blank.png","null","65","motor","","","","","","",""
"319","","196481","HierDyv1ja67l8","vv74p5ktg1","msl000608","motor","img/motor_7.png","76","75","motor","7","192","0","1","0","",""
"333","","196823","HierDyv1ja67l8","vv74p5ktg1","msl000608","motorRepeat","img/motor_7.png","75","75","motor","7","192","1","0","0","",""
"null","","196933","HierDyv1ja67l8","vv74p5ktg1","msl000608","iti","img/motor_blank.png","null","75","motor","","","","","","",""
"783","","197725","HierDyv1ja67l8","vv74p5ktg1","msl000608","motor","img/motor_5.png","72","72","motor","5","193","1","0","0","",""
"null","","197834","HierDyv1ja67l8","vv74p5ktg1","msl000608","iti","img/motor_blank.png","null","72","motor","","","","","","",""
"427","","198270","HierDyv1ja67l8","vv74p5ktg1","msl000608","motor","img/motor_2.png","83","83","motor","2","194","1","0","0","",""
"null","","198380","HierDyv1ja67l8","vv74p5ktg1","msl000608","iti","img/motor_blank.png","null","83","motor","","","","","","",""
"356","","198745","HierDyv1ja67l8","vv74p5ktg1","msl000608","motor","img/motor_8.png","76","76","motor","8","195","1","0","0","",""
"null","","198854","HierDyv1ja67l8","vv74p5ktg1","msl000608","iti","img/motor_blank.png","null","76","motor","","","","","","",""
"429","","199295","HierDyv1ja67l8","vv74p5ktg1","msl000608","motor","img/motor_7.png","75","75","motor","7","196","1","0","0","",""
"null","","199407","HierDyv1ja67l8","vv74p5ktg1","msl000608","iti","img/motor_blank.png","null","75","motor","","","","","","",""
"723","","200142","HierDyv1ja67l8","vv74p5ktg1","msl000608","motor","img/motor_7.png","75","75","motor","7","197","1","0","0","",""
"null","","200252","HierDyv1ja67l8","vv74p5ktg1","msl000608","iti","img/motor_blank.png","null","75","motor","","","","","","",""
"455","","200716","HierDyv1ja67l8","vv74p5ktg1","msl000608","motor","img/motor_2.png","83","83","motor","2","198","1","0","0","",""
"null","","200829","HierDyv1ja67l8","vv74p5ktg1","msl000608","iti","img/motor_blank.png","null","83","motor","","","","","","",""
"452","","201291","HierDyv1ja67l8","vv74p5ktg1","msl000608","motor","img/motor_4.png","70","70","motor","4","199","1","0","0","",""
"null","","201402","HierDyv1ja67l8","vv74p5ktg1","msl000608","iti","img/motor_blank.png","null","70","motor","","","","","","",""
"541","","201952","HierDyv1ja67l8","vv74p5ktg1","msl000608","motor","img/motor_3.png","68","68","motor","3","200","1","0","0","",""
"null","","202064","HierDyv1ja67l8","vv74p5ktg1","msl000608","iti","img/motor_blank.png","null","68","motor","","","","","","",""
"357","","202431","HierDyv1ja67l8","vv74p5ktg1","msl000608","motor","img/motor_3.png","68","68","motor","3","201","1","0","0","",""
"null","","202542","HierDyv1ja67l8","vv74p5ktg1","msl000608","iti","img/motor_blank.png","null","68","motor","","","","","","",""
"385","","202936","HierDyv1ja67l8","vv74p5ktg1","msl000608","motor","img/motor_7.png","74","75","motor","7","202","0","1","0","",""
"262","","203208","HierDyv1ja67l8","vv74p5ktg1","msl000608","motorRepeat","img/motor_7.png","75","75","motor","7","202","1","0","0","",""
"null","","203316","HierDyv1ja67l8","vv74p5ktg1","msl000608","iti","img/motor_blank.png","null","75","motor","","","","","","",""
"372","","203701","HierDyv1ja67l8","vv74p5ktg1","msl000608","motor","img/motor_5.png","72","72","motor","5","203","1","0","0","",""
"null","","203813","HierDyv1ja67l8","vv74p5ktg1","msl000608","iti","img/motor_blank.png","null","72","motor","","","","","","",""
"353","","204177","HierDyv1ja67l8","vv74p5ktg1","msl000608","motor","img/motor_1.png","65","65","motor","1","204","1","0","0","",""
"null","","204289","HierDyv1ja67l8","vv74p5ktg1","msl000608","iti","img/motor_blank.png","null","65","motor","","","","","","",""
"422","","204720","HierDyv1ja67l8","vv74p5ktg1","msl000608","motor","img/motor_3.png","68","68","motor","3","205","1","0","0","",""
"null","","204829","HierDyv1ja67l8","vv74p5ktg1","msl000608","iti","img/motor_blank.png","null","68","motor","","","","","","",""
"337","","205176","HierDyv1ja67l8","vv74p5ktg1","msl000608","motor","img/motor_4.png","70","70","motor","4","206","1","0","0","",""
"null","","205288","HierDyv1ja67l8","vv74p5ktg1","msl000608","iti","img/motor_blank.png","null","70","motor","","","","","","",""
"480","","205778","HierDyv1ja67l8","vv74p5ktg1","msl000608","motor","img/motor_5.png","72","72","motor","5","207","1","0","0","",""
"null","","205890","HierDyv1ja67l8","vv74p5ktg1","msl000608","iti","img/motor_blank.png","null","72","motor","","","","","","",""
"379","","206279","HierDyv1ja67l8","vv74p5ktg1","msl000608","motor","img/motor_6.png","74","74","motor","6","208","1","0","0","",""
"null","","206390","HierDyv1ja67l8","vv74p5ktg1","msl000608","iti","img/motor_blank.png","null","74","motor","","","","","","",""
"360","","206762","HierDyv1ja67l8","vv74p5ktg1","msl000608","motor","img/motor_8.png","76","76","motor","8","209","1","0","0","",""
"null","","206874","HierDyv1ja67l8","vv74p5ktg1","msl000608","iti","img/motor_blank.png","null","76","motor","","","","","","",""
"409","","207292","HierDyv1ja67l8","vv74p5ktg1","msl000608","motor","img/motor_7.png","75","75","motor","7","210","1","0","0","",""
"null","","207404","HierDyv1ja67l8","vv74p5ktg1","msl000608","iti","img/motor_blank.png","null","75","motor","","","","","","",""
"603","","208016","HierDyv1ja67l8","vv74p5ktg1","msl000608","motor","img/motor_2.png","83","83","motor","2","211","1","0","0","",""
"null","","208127","HierDyv1ja67l8","vv74p5ktg1","msl000608","iti","img/motor_blank.png","null","83","motor","","","","","","",""
"418","","208555","HierDyv1ja67l8","vv74p5ktg1","msl000608","motor","img/motor_1.png","65","65","motor","1","212","1","0","0","",""
"null","","208665","HierDyv1ja67l8","vv74p5ktg1","msl000608","iti","img/motor_blank.png","null","65","motor","","","","","","",""
"349","","209024","HierDyv1ja67l8","vv74p5ktg1","msl000608","motor","img/motor_1.png","65","65","motor","1","213","1","0","0","",""
"null","","209136","HierDyv1ja67l8","vv74p5ktg1","msl000608","iti","img/motor_blank.png","null","65","motor","","","","","","",""
"436","","209581","HierDyv1ja67l8","vv74p5ktg1","msl000608","motor","img/motor_2.png","83","83","motor","2","214","1","0","0","",""
"null","","209691","HierDyv1ja67l8","vv74p5ktg1","msl000608","iti","img/motor_blank.png","null","83","motor","","","","","","",""
"462","","210164","HierDyv1ja67l8","vv74p5ktg1","msl000608","motor","img/motor_4.png","70","70","motor","4","215","1","0","0","",""
"null","","210275","HierDyv1ja67l8","vv74p5ktg1","msl000608","iti","img/motor_blank.png","null","70","motor","","","","","","",""
"492","","210776","HierDyv1ja67l8","vv74p5ktg1","msl000608","motor","img/motor_6.png","74","74","motor","6","216","1","0","0","",""
"null","","210886","HierDyv1ja67l8","vv74p5ktg1","msl000608","iti","img/motor_blank.png","null","74","motor","","","","","","",""
"389","","211284","HierDyv1ja67l8","vv74p5ktg1","msl000608","motor","img/motor_5.png","72","72","motor","5","217","1","0","0","",""
"null","","211395","HierDyv1ja67l8","vv74p5ktg1","msl000608","iti","img/motor_blank.png","null","72","motor","","","","","","",""
"390","","211793","HierDyv1ja67l8","vv74p5ktg1","msl000608","motor","img/motor_4.png","70","70","motor","4","218","1","0","0","",""
"null","","211905","HierDyv1ja67l8","vv74p5ktg1","msl000608","iti","img/motor_blank.png","null","70","motor","","","","","","",""
"309","","212221","HierDyv1ja67l8","vv74p5ktg1","msl000608","motor","img/motor_3.png","70","68","motor","3","219","0","1","0","",""
"347","","212579","HierDyv1ja67l8","vv74p5ktg1","msl000608","motorRepeat","img/motor_3.png","68","68","motor","3","219","1","0","0","",""
"null","","212689","HierDyv1ja67l8","vv74p5ktg1","msl000608","iti","img/motor_blank.png","null","68","motor","","","","","","",""
"377","","213076","HierDyv1ja67l8","vv74p5ktg1","msl000608","motor","img/motor_5.png","72","72","motor","5","220","1","0","0","",""
"null","","213187","HierDyv1ja67l8","vv74p5ktg1","msl000608","iti","img/motor_blank.png","null","72","motor","","","","","","",""
"450","","213646","HierDyv1ja67l8","vv74p5ktg1","msl000608","motor","img/motor_7.png","75","75","motor","7","221","1","0","0","",""
"null","","213757","HierDyv1ja67l8","vv74p5ktg1","msl000608","iti","img/motor_blank.png","null","75","motor","","","","","","",""
"728","","214495","HierDyv1ja67l8","vv74p5ktg1","msl000608","motor","img/motor_3.png","68","68","motor","3","222","1","0","0","",""
"null","","214607","HierDyv1ja67l8","vv74p5ktg1","msl000608","iti","img/motor_blank.png","null","68","motor","","","","","","",""
"435","","215053","HierDyv1ja67l8","vv74p5ktg1","msl000608","motor","img/motor_5.png","72","72","motor","5","223","1","0","0","",""
"null","","215164","HierDyv1ja67l8","vv74p5ktg1","msl000608","iti","img/motor_blank.png","null","72","motor","","","","","","",""
"591","","215765","HierDyv1ja67l8","vv74p5ktg1","msl000608","motor","img/motor_1.png","65","65","motor","1","224","1","0","0","",""
"null","","215873","HierDyv1ja67l8","vv74p5ktg1","msl000608","iti","img/motor_blank.png","null","65","motor","","","","","","",""
"541","","216424","HierDyv1ja67l8","vv74p5ktg1","msl000608","motor","img/motor_7.png","75","75","motor","7","225","1","0","0","",""
"null","","216535","HierDyv1ja67l8","vv74p5ktg1","msl000608","iti","img/motor_blank.png","null","75","motor","","","","","","",""
"470","","217015","HierDyv1ja67l8","vv74p5ktg1","msl000608","motor","img/motor_2.png","83","83","motor","2","226","1","0","0","",""
"null","","217124","HierDyv1ja67l8","vv74p5ktg1","msl000608","iti","img/motor_blank.png","null","83","motor","","","","","","",""
"372","","217503","HierDyv1ja67l8","vv74p5ktg1","msl000608","motor","img/motor_8.png","76","76","motor","8","227","1","0","0","",""
"null","","217612","HierDyv1ja67l8","vv74p5ktg1","msl000608","iti","img/motor_blank.png","null","76","motor","","","","","","",""
"522","","218142","HierDyv1ja67l8","vv74p5ktg1","msl000608","motor","img/motor_2.png","83","83","motor","2","228","1","0","0","",""
"null","","218254","HierDyv1ja67l8","vv74p5ktg1","msl000608","iti","img/motor_blank.png","null","83","motor","","","","","","",""
"512","","218776","HierDyv1ja67l8","vv74p5ktg1","msl000608","motor","img/motor_3.png","68","68","motor","3","229","1","0","0","",""
"null","","218886","HierDyv1ja67l8","vv74p5ktg1","msl000608","iti","img/motor_blank.png","null","68","motor","","","","","","",""
"478","","219373","HierDyv1ja67l8","vv74p5ktg1","msl000608","motor","img/motor_7.png","75","75","motor","7","230","1","0","0","",""
"null","","219484","HierDyv1ja67l8","vv74p5ktg1","msl000608","iti","img/motor_blank.png","null","75","motor","","","","","","",""
"372","","219867","HierDyv1ja67l8","vv74p5ktg1","msl000608","motor","img/motor_6.png","74","74","motor","6","231","1","0","0","",""
"null","","219977","HierDyv1ja67l8","vv74p5ktg1","msl000608","iti","img/motor_blank.png","null","74","motor","","","","","","",""
"513","","220498","HierDyv1ja67l8","vv74p5ktg1","msl000608","motor","img/motor_1.png","65","65","motor","1","232","1","0","0","",""
"null","","220609","HierDyv1ja67l8","vv74p5ktg1","msl000608","iti","img/motor_blank.png","null","65","motor","","","","","","",""
"542","","221159","HierDyv1ja67l8","vv74p5ktg1","msl000608","motor","img/motor_5.png","72","72","motor","5","233","1","0","0","",""
"null","","221269","HierDyv1ja67l8","vv74p5ktg1","msl000608","iti","img/motor_blank.png","null","72","motor","","","","","","",""
"345","","221623","HierDyv1ja67l8","vv74p5ktg1","msl000608","motor","img/motor_1.png","65","65","motor","1","234","1","0","0","",""
"null","","221735","HierDyv1ja67l8","vv74p5ktg1","msl000608","iti","img/motor_blank.png","null","65","motor","","","","","","",""
"284","","222030","HierDyv1ja67l8","vv74p5ktg1","msl000608","motor","img/motor_7.png","76","75","motor","7","235","0","1","0","",""
"306","","222345","HierDyv1ja67l8","vv74p5ktg1","msl000608","motorRepeat","img/motor_7.png","75","75","motor","7","235","1","0","0","",""
"null","","222455","HierDyv1ja67l8","vv74p5ktg1","msl000608","iti","img/motor_blank.png","null","75","motor","","","","","","",""
"388","","222850","HierDyv1ja67l8","vv74p5ktg1","msl000608","motor","img/motor_2.png","65","83","motor","2","236","0","1","0","",""
"345","","223204","HierDyv1ja67l8","vv74p5ktg1","msl000608","motorRepeat","img/motor_2.png","83","83","motor","2","236","1","0","0","",""
"null","","223314","HierDyv1ja67l8","vv74p5ktg1","msl000608","iti","img/motor_blank.png","null","83","motor","","","","","","",""
"461","","223784","HierDyv1ja67l8","vv74p5ktg1","msl000608","motor","img/motor_6.png","72","74","motor","6","237","0","1","0","",""
"272","","224066","HierDyv1ja67l8","vv74p5ktg1","msl000608","motorRepeat","img/motor_6.png","74","74","motor","6","237","1","0","0","",""
"null","","224177","HierDyv1ja67l8","vv74p5ktg1","msl000608","iti","img/motor_blank.png","null","74","motor","","","","","","",""
"521","","224707","HierDyv1ja67l8","vv74p5ktg1","msl000608","motor","img/motor_5.png","72","72","motor","5","238","1","0","0","",""
"null","","224816","HierDyv1ja67l8","vv74p5ktg1","msl000608","iti","img/motor_blank.png","null","72","motor","","","","","","",""
"414","","225237","HierDyv1ja67l8","vv74p5ktg1","msl000608","motor","img/motor_6.png","75","74","motor","6","239","0","1","0","",""
"281","","225528","HierDyv1ja67l8","vv74p5ktg1","msl000608","motorRepeat","img/motor_6.png","74","74","motor","6","239","1","0","0","",""
"null","","225637","HierDyv1ja67l8","vv74p5ktg1","msl000608","iti","img/motor_blank.png","null","74","motor","","","","","","",""
"394","","226040","HierDyv1ja67l8","vv74p5ktg1","msl000608","motor","img/motor_6.png","74","74","motor","6","240","1","0","0","",""
"null","","226151","HierDyv1ja67l8","vv74p5ktg1","msl000608","iti","img/motor_blank.png","null","74","motor","","","","","","",""
"402","","226562","HierDyv1ja67l8","vv74p5ktg1","msl000608","motor","img/motor_7.png","75","75","motor","7","241","1","0","0","",""
"null","","226671","HierDyv1ja67l8","vv74p5ktg1","msl000608","iti","img/motor_blank.png","null","75","motor","","","","","","",""
"683","","227364","HierDyv1ja67l8","vv74p5ktg1","msl000608","motor","img/motor_2.png","83","83","motor","2","242","1","0","0","",""
"null","","227474","HierDyv1ja67l8","vv74p5ktg1","msl000608","iti","img/motor_blank.png","null","83","motor","","","","","","",""
"412","","227896","HierDyv1ja67l8","vv74p5ktg1","msl000608","motor","img/motor_1.png","65","65","motor","1","243","1","0","0","",""
"null","","228007","HierDyv1ja67l8","vv74p5ktg1","msl000608","iti","img/motor_blank.png","null","65","motor","","","","","","",""
"511","","228528","HierDyv1ja67l8","vv74p5ktg1","msl000608","motor","img/motor_4.png","70","70","motor","4","244","1","0","0","",""
"null","","228640","HierDyv1ja67l8","vv74p5ktg1","msl000608","iti","img/motor_blank.png","null","70","motor","","","","","","",""
"351","","229000","HierDyv1ja67l8","vv74p5ktg1","msl000608","motor","img/motor_8.png","76","76","motor","8","245","1","0","0","",""
"null","","229112","HierDyv1ja67l8","vv74p5ktg1","msl000608","iti","img/motor_blank.png","null","76","motor","","","","","","",""
"677","","229798","HierDyv1ja67l8","vv74p5ktg1","msl000608","motor","img/motor_4.png","70","70","motor","4","246","1","0","0","",""
"null","","229907","HierDyv1ja67l8","vv74p5ktg1","msl000608","iti","img/motor_blank.png","null","70","motor","","","","","","",""
"459","","230377","HierDyv1ja67l8","vv74p5ktg1","msl000608","motor","img/motor_5.png","72","72","motor","5","247","1","0","0","",""
"null","","230487","HierDyv1ja67l8","vv74p5ktg1","msl000608","iti","img/motor_blank.png","null","72","motor","","","","","","",""
"636","","231132","HierDyv1ja67l8","vv74p5ktg1","msl000608","motor","img/motor_2.png","83","83","motor","2","248","1","0","0","",""
"null","","231242","HierDyv1ja67l8","vv74p5ktg1","msl000608","iti","img/motor_blank.png","null","83","motor","","","","","","",""
"553","","231805","HierDyv1ja67l8","vv74p5ktg1","msl000608","motor","img/motor_7.png","75","75","motor","7","249","1","0","0","",""
"null","","231917","HierDyv1ja67l8","vv74p5ktg1","msl000608","iti","img/motor_blank.png","null","75","motor","","","","","","",""
"738","","232662","HierDyv1ja67l8","vv74p5ktg1","msl000608","motor","img/motor_1.png","65","65","motor","1","250","1","0","0","",""
"null","","232773","HierDyv1ja67l8","vv74p5ktg1","msl000608","iti","img/motor_blank.png","null","65","motor","","","","","","",""
"367","","233149","HierDyv1ja67l8","vv74p5ktg1","msl000608","motor","img/motor_1.png","65","65","motor","1","251","1","0","0","",""
"null","","233260","HierDyv1ja67l8","vv74p5ktg1","msl000608","iti","img/motor_blank.png","null","65","motor","","","","","","",""
"573","","233844","HierDyv1ja67l8","vv74p5ktg1","msl000608","motor","img/motor_6.png","74","74","motor","6","252","1","0","0","",""
"null","","233955","HierDyv1ja67l8","vv74p5ktg1","msl000608","iti","img/motor_blank.png","null","74","motor","","","","","","",""
"480","","234445","HierDyv1ja67l8","vv74p5ktg1","msl000608","motor","img/motor_7.png","74","75","motor","7","253","0","1","0","",""
"386","","234841","HierDyv1ja67l8","vv74p5ktg1","msl000608","motorRepeat","img/motor_7.png","75","75","motor","7","253","1","0","0","",""
"null","","234952","HierDyv1ja67l8","vv74p5ktg1","msl000608","iti","img/motor_blank.png","null","75","motor","","","","","","",""
"594","","235556","HierDyv1ja67l8","vv74p5ktg1","msl000608","motor","img/motor_3.png","70","68","motor","3","254","0","1","0","",""
"271","","235835","HierDyv1ja67l8","vv74p5ktg1","msl000608","motorRepeat","img/motor_3.png","68","68","motor","3","254","1","0","0","",""
"null","","235945","HierDyv1ja67l8","vv74p5ktg1","msl000608","iti","img/motor_blank.png","null","68","motor","","","","","","",""
"403","","236355","HierDyv1ja67l8","vv74p5ktg1","msl000608","motor","img/motor_8.png","76","76","motor","8","255","1","0","0","",""
"null","","236465","HierDyv1ja67l8","vv74p5ktg1","msl000608","iti","img/motor_blank.png","null","76","motor","","","","","","",""
"681","","237156","HierDyv1ja67l8","vv74p5ktg1","msl000608","motor","img/motor_3.png","68","68","motor","3","256","1","0","0","",""
"null","","237265","HierDyv1ja67l8","vv74p5ktg1","msl000608","iti","img/motor_blank.png","null","68","motor","","","","","","",""
"529","","237803","HierDyv1ja67l8","vv74p5ktg1","msl000608","motor","img/motor_7.png","75","75","motor","7","257","1","0","0","",""
"null","","237913","HierDyv1ja67l8","vv74p5ktg1","msl000608","iti","img/motor_blank.png","null","75","motor","","","","","","",""
"527","","238447","HierDyv1ja67l8","vv74p5ktg1","msl000608","motor","img/motor_1.png","65","65","motor","1","258","1","0","0","",""
"null","","238556","HierDyv1ja67l8","vv74p5ktg1","msl000608","iti","img/motor_blank.png","null","65","motor","","","","","","",""
"749","","239314","HierDyv1ja67l8","vv74p5ktg1","msl000608","motor","img/motor_6.png","74","74","motor","6","259","1","0","0","",""
"null","","239425","HierDyv1ja67l8","vv74p5ktg1","msl000608","iti","img/motor_blank.png","null","74","motor","","","","","","",""
"365","","239801","HierDyv1ja67l8","vv74p5ktg1","msl000608","motor","img/motor_7.png","75","75","motor","7","260","1","0","0","",""
"null","","239912","HierDyv1ja67l8","vv74p5ktg1","msl000608","iti","img/motor_blank.png","null","75","motor","","","","","","",""
"596","","240521","HierDyv1ja67l8","vv74p5ktg1","msl000608","motor","img/motor_4.png","70","70","motor","4","261","1","0","0","",""
"null","","240632","HierDyv1ja67l8","vv74p5ktg1","msl000608","iti","img/motor_blank.png","null","70","motor","","","","","","",""
"363","","241005","HierDyv1ja67l8","vv74p5ktg1","msl000608","motor","img/motor_3.png","68","68","motor","3","262","1","0","0","",""
"null","","241117","HierDyv1ja67l8","vv74p5ktg1","msl000608","iti","img/motor_blank.png","null","68","motor","","","","","","",""
"430","","241557","HierDyv1ja67l8","vv74p5ktg1","msl000608","motor","img/motor_5.png","72","72","motor","5","263","1","0","0","",""
"null","","241669","HierDyv1ja67l8","vv74p5ktg1","msl000608","iti","img/motor_blank.png","null","72","motor","","","","","","",""
"510","","242189","HierDyv1ja67l8","vv74p5ktg1","msl000608","motor","img/motor_4.png","70","70","motor","4","264","1","0","0","",""
"null","","242300","HierDyv1ja67l8","vv74p5ktg1","msl000608","iti","img/motor_blank.png","null","70","motor","","","","","","",""
"547","","242857","HierDyv1ja67l8","vv74p5ktg1","msl000608","motor","img/motor_3.png","68","68","motor","3","265","1","0","0","",""
"null","","242966","HierDyv1ja67l8","vv74p5ktg1","msl000608","iti","img/motor_blank.png","null","68","motor","","","","","","",""
"327","","243303","HierDyv1ja67l8","vv74p5ktg1","msl000608","motor","img/motor_3.png","68","68","motor","3","266","1","0","0","",""
"null","","243415","HierDyv1ja67l8","vv74p5ktg1","msl000608","iti","img/motor_blank.png","null","68","motor","","","","","","",""
"463","","243886","HierDyv1ja67l8","vv74p5ktg1","msl000608","motor","img/motor_4.png","70","70","motor","4","267","1","0","0","",""
"null","","243997","HierDyv1ja67l8","vv74p5ktg1","msl000608","iti","img/motor_blank.png","null","70","motor","","","","","","",""
"396","","244403","HierDyv1ja67l8","vv74p5ktg1","msl000608","motor","img/motor_3.png","68","68","motor","3","268","1","0","0","",""
"null","","244514","HierDyv1ja67l8","vv74p5ktg1","msl000608","iti","img/motor_blank.png","null","68","motor","","","","","","",""
"399","","244922","HierDyv1ja67l8","vv74p5ktg1","msl000608","motor","img/motor_6.png","74","74","motor","6","269","1","0","0","",""
"null","","245034","HierDyv1ja67l8","vv74p5ktg1","msl000608","iti","img/motor_blank.png","null","74","motor","","","","","","",""
"359","","245403","HierDyv1ja67l8","vv74p5ktg1","msl000608","motor","img/motor_3.png","68","68","motor","3","270","1","0","0","",""
"null","","245514","HierDyv1ja67l8","vv74p5ktg1","msl000608","iti","img/motor_blank.png","null","68","motor","","","","","","",""
"591","","246115","HierDyv1ja67l8","vv74p5ktg1","msl000608","motor","img/motor_5.png","72","72","motor","5","271","1","0","0","",""
"null","","246224","HierDyv1ja67l8","vv74p5ktg1","msl000608","iti","img/motor_blank.png","null","72","motor","","","","","","",""
"433","","246665","HierDyv1ja67l8","vv74p5ktg1","msl000608","motor","img/motor_6.png","74","74","motor","6","272","1","0","0","",""
"null","","246777","HierDyv1ja67l8","vv74p5ktg1","msl000608","iti","img/motor_blank.png","null","74","motor","","","","","","",""
"382","","247167","HierDyv1ja67l8","vv74p5ktg1","msl000608","motor","img/motor_5.png","72","72","motor","5","273","1","0","0","",""
"null","","247278","HierDyv1ja67l8","vv74p5ktg1","msl000608","iti","img/motor_blank.png","null","72","motor","","","","","","",""
"388","","247674","HierDyv1ja67l8","vv74p5ktg1","msl000608","motor","img/motor_3.png","68","68","motor","3","274","1","0","0","",""
"null","","247784","HierDyv1ja67l8","vv74p5ktg1","msl000608","iti","img/motor_blank.png","null","68","motor","","","","","","",""
"453","","248246","HierDyv1ja67l8","vv74p5ktg1","msl000608","motor","img/motor_8.png","76","76","motor","8","275","1","0","0","",""
"null","","248355","HierDyv1ja67l8","vv74p5ktg1","msl000608","iti","img/motor_blank.png","null","76","motor","","","","","","",""
"530","","248896","HierDyv1ja67l8","vv74p5ktg1","msl000608","motor","img/motor_4.png","70","70","motor","4","276","1","0","0","",""
"null","","249005","HierDyv1ja67l8","vv74p5ktg1","msl000608","iti","img/motor_blank.png","null","70","motor","","","","","","",""
"387","","249400","HierDyv1ja67l8","vv74p5ktg1","msl000608","motor","img/motor_2.png","65","83","motor","2","277","0","1","0","",""
"268","","249677","HierDyv1ja67l8","vv74p5ktg1","msl000608","motorRepeat","img/motor_2.png","83","83","motor","2","277","1","0","0","",""
"null","","249789","HierDyv1ja67l8","vv74p5ktg1","msl000608","iti","img/motor_blank.png","null","83","motor","","","","","","",""
"361","","250161","HierDyv1ja67l8","vv74p5ktg1","msl000608","motor","img/motor_1.png","65","65","motor","1","278","1","0","0","",""
"null","","250271","HierDyv1ja67l8","vv74p5ktg1","msl000608","iti","img/motor_blank.png","null","65","motor","","","","","","",""
"562","","250842","HierDyv1ja67l8","vv74p5ktg1","msl000608","motor","img/motor_6.png","74","74","motor","6","279","1","0","0","",""
"null","","250952","HierDyv1ja67l8","vv74p5ktg1","msl000608","iti","img/motor_blank.png","null","74","motor","","","","","","",""
"395","","251356","HierDyv1ja67l8","vv74p5ktg1","msl000608","motor","img/motor_8.png","76","76","motor","8","280","1","0","0","",""
"null","","251467","HierDyv1ja67l8","vv74p5ktg1","msl000608","iti","img/motor_blank.png","null","76","motor","","","","","","",""
"347","","251822","HierDyv1ja67l8","vv74p5ktg1","msl000608","motor","img/motor_6.png","74","74","motor","6","281","1","0","0","",""
"null","","251933","HierDyv1ja67l8","vv74p5ktg1","msl000608","iti","img/motor_blank.png","null","74","motor","","","","","","",""
"562","","252505","HierDyv1ja67l8","vv74p5ktg1","msl000608","motor","img/motor_3.png","68","68","motor","3","282","1","0","0","",""
"null","","252616","HierDyv1ja67l8","vv74p5ktg1","msl000608","iti","img/motor_blank.png","null","68","motor","","","","","","",""
"298","","252925","HierDyv1ja67l8","vv74p5ktg1","msl000608","motor","img/motor_1.png","65","65","motor","1","283","1","0","0","",""
"null","","253036","HierDyv1ja67l8","vv74p5ktg1","msl000608","iti","img/motor_blank.png","null","65","motor","","","","","","",""
"447","","253491","HierDyv1ja67l8","vv74p5ktg1","msl000608","motor","img/motor_8.png","76","76","motor","8","284","1","0","0","",""
"null","","253602","HierDyv1ja67l8","vv74p5ktg1","msl000608","iti","img/motor_blank.png","null","76","motor","","","","","","",""
"352","","253962","HierDyv1ja67l8","vv74p5ktg1","msl000608","motor","img/motor_1.png","65","65","motor","1","285","1","0","0","",""
"null","","254073","HierDyv1ja67l8","vv74p5ktg1","msl000608","iti","img/motor_blank.png","null","65","motor","","","","","","",""
"363","","254446","HierDyv1ja67l8","vv74p5ktg1","msl000608","motor","img/motor_2.png","65","83","motor","2","286","0","1","0","",""
"220","","254675","HierDyv1ja67l8","vv74p5ktg1","msl000608","motorRepeat","img/motor_2.png","83","83","motor","2","286","1","0","0","",""
"null","","254785","HierDyv1ja67l8","vv74p5ktg1","msl000608","iti","img/motor_blank.png","null","83","motor","","","","","","",""
"469","","255265","HierDyv1ja67l8","vv74p5ktg1","msl000608","motor","img/motor_6.png","74","74","motor","6","287","1","0","0","",""
"null","","255376","HierDyv1ja67l8","vv74p5ktg1","msl000608","iti","img/motor_blank.png","null","74","motor","","","","","","",""
"271","","255657","HierDyv1ja67l8","vv74p5ktg1","msl000608","motor","img/motor_8.png","76","76","motor","8","288","1","0","0","",""
"null","","255768","HierDyv1ja67l8","vv74p5ktg1","msl000608","iti","img/motor_blank.png","null","76","motor","","","","","","",""
"573","","256347","HierDyv1ja67l8","vv74p5ktg1","msl000608","motor","img/motor_8.png","76","76","motor","8","289","1","0","0","",""
"null","","256459","HierDyv1ja67l8","vv74p5ktg1","msl000608","iti","img/motor_blank.png","null","76","motor","","","","","","",""
"502","","256969","HierDyv1ja67l8","vv74p5ktg1","msl000608","motor","img/motor_3.png","83","68","motor","3","290","0","1","0","",""
"254","","257231","HierDyv1ja67l8","vv74p5ktg1","msl000608","motorRepeat","img/motor_3.png","70","68","motor","3","290","0","1","0","",""
"453","","257695","HierDyv1ja67l8","vv74p5ktg1","msl000608","motorRepeat","img/motor_3.png","68","68","motor","3","290","1","0","0","",""
"null","","257807","HierDyv1ja67l8","vv74p5ktg1","msl000608","iti","img/motor_blank.png","null","68","motor","","","","","","",""
"554","","258372","HierDyv1ja67l8","vv74p5ktg1","msl000608","motor","img/motor_1.png","65","65","motor","1","291","1","0","0","",""
"null","","258481","HierDyv1ja67l8","vv74p5ktg1","msl000608","iti","img/motor_blank.png","null","65","motor","","","","","","",""
"574","","259065","HierDyv1ja67l8","vv74p5ktg1","msl000608","motor","img/motor_8.png","76","76","motor","8","292","1","0","0","",""
"null","","259176","HierDyv1ja67l8","vv74p5ktg1","msl000608","iti","img/motor_blank.png","null","76","motor","","","","","","",""
"529","","259713","HierDyv1ja67l8","vv74p5ktg1","msl000608","motor","img/motor_2.png","83","83","motor","2","293","1","0","0","",""
"null","","259825","HierDyv1ja67l8","vv74p5ktg1","msl000608","iti","img/motor_blank.png","null","83","motor","","","","","","",""
"513","","260346","HierDyv1ja67l8","vv74p5ktg1","msl000608","motor","img/motor_4.png","70","70","motor","4","294","1","0","0","",""
"null","","260457","HierDyv1ja67l8","vv74p5ktg1","msl000608","iti","img/motor_blank.png","null","70","motor","","","","","","",""
"307","","260775","HierDyv1ja67l8","vv74p5ktg1","msl000608","motor","img/motor_1.png","65","65","motor","1","295","1","0","0","",""
"null","","260887","HierDyv1ja67l8","vv74p5ktg1","msl000608","iti","img/motor_blank.png","null","65","motor","","","","","","",""
"476","","261372","HierDyv1ja67l8","vv74p5ktg1","msl000608","motor","img/motor_2.png","83","83","motor","2","296","1","0","0","",""
"null","","261482","HierDyv1ja67l8","vv74p5ktg1","msl000608","iti","img/motor_blank.png","null","83","motor","","","","","","",""
"341","","261833","HierDyv1ja67l8","vv74p5ktg1","msl000608","motor","img/motor_8.png","76","76","motor","8","297","1","0","0","",""
"null","","261941","HierDyv1ja67l8","vv74p5ktg1","msl000608","iti","img/motor_blank.png","null","76","motor","","","","","","",""
"450","","262402","HierDyv1ja67l8","vv74p5ktg1","msl000608","motor","img/motor_7.png","74","75","motor","7","298","0","1","0","",""
"73","","262484","HierDyv1ja67l8","vv74p5ktg1","msl000608","motorRepeat","img/motor_7.png","75","75","motor","7","298","1","0","0","",""
"null","","262594","HierDyv1ja67l8","vv74p5ktg1","msl000608","iti","img/motor_blank.png","null","75","motor","","","","","","",""
"580","","263184","HierDyv1ja67l8","vv74p5ktg1","msl000608","motor","img/motor_4.png","70","70","motor","4","299","1","0","0","",""
"null","","263295","HierDyv1ja67l8","vv74p5ktg1","msl000608","iti","img/motor_blank.png","null","70","motor","","","","","","",""
"671","","263977","HierDyv1ja67l8","vv74p5ktg1","msl000608","motor","img/motor_7.png","75","75","motor","7","300","1","0","0","",""
"null","","264090","HierDyv1ja67l8","vv74p5ktg1","msl000608","iti","img/motor_blank.png","null","75","motor","","","","","","",""
"413","","264515","HierDyv1ja67l8","vv74p5ktg1","msl000608","motor","img/motor_8.png","76","76","motor","8","301","1","0","0","",""
"null","","264627","HierDyv1ja67l8","vv74p5ktg1","msl000608","iti","img/motor_blank.png","null","76","motor","","","","","","",""
"589","","265223","HierDyv1ja67l8","vv74p5ktg1","msl000608","motor","img/motor_5.png","72","72","motor","5","302","1","0","0","",""
"null","","265336","HierDyv1ja67l8","vv74p5ktg1","msl000608","iti","img/motor_blank.png","null","72","motor","","","","","","",""
"547","","265894","HierDyv1ja67l8","vv74p5ktg1","msl000608","motor","img/motor_6.png","74","74","motor","6","303","1","0","0","",""
"null","","266006","HierDyv1ja67l8","vv74p5ktg1","msl000608","iti","img/motor_blank.png","null","74","motor","","","","","","",""
"486","","266502","HierDyv1ja67l8","vv74p5ktg1","msl000608","motor","img/motor_2.png","68","83","motor","2","304","0","1","0","",""
"255","","266767","HierDyv1ja67l8","vv74p5ktg1","msl000608","motorRepeat","img/motor_2.png","83","83","motor","2","304","1","0","0","",""
"null","","266878","HierDyv1ja67l8","vv74p5ktg1","msl000608","iti","img/motor_blank.png","null","83","motor","","","","","","",""
"502","","267389","HierDyv1ja67l8","vv74p5ktg1","msl000608","motor","img/motor_2.png","83","83","motor","2","305","1","0","0","",""
"null","","267501","HierDyv1ja67l8","vv74p5ktg1","msl000608","iti","img/motor_blank.png","null","83","motor","","","","","","",""
"340","","267854","HierDyv1ja67l8","vv74p5ktg1","msl000608","motor","img/motor_1.png","65","65","motor","1","306","1","0","0","",""
"null","","267966","HierDyv1ja67l8","vv74p5ktg1","msl000608","iti","img/motor_blank.png","null","65","motor","","","","","","",""
"633","","268611","HierDyv1ja67l8","vv74p5ktg1","msl000608","motor","img/motor_6.png","74","74","motor","6","307","1","0","0","",""
"null","","268719","HierDyv1ja67l8","vv74p5ktg1","msl000608","iti","img/motor_blank.png","null","74","motor","","","","","","",""
"335","","269063","HierDyv1ja67l8","vv74p5ktg1","msl000608","motor","img/motor_1.png","65","65","motor","1","308","1","0","0","",""
"null","","269175","HierDyv1ja67l8","vv74p5ktg1","msl000608","iti","img/motor_blank.png","null","65","motor","","","","","","",""
"424","","269608","HierDyv1ja67l8","vv74p5ktg1","msl000608","motor","img/motor_2.png","83","83","motor","2","309","1","0","0","",""
"null","","269718","HierDyv1ja67l8","vv74p5ktg1","msl000608","iti","img/motor_blank.png","null","83","motor","","","","","","",""
"547","","270276","HierDyv1ja67l8","vv74p5ktg1","msl000608","motor","img/motor_5.png","72","72","motor","5","310","1","0","0","",""
"null","","270388","HierDyv1ja67l8","vv74p5ktg1","msl000608","iti","img/motor_blank.png","null","72","motor","","","","","","",""
"352","","270748","HierDyv1ja67l8","vv74p5ktg1","msl000608","motor","img/motor_7.png","75","75","motor","7","311","1","0","0","",""
"null","","270859","HierDyv1ja67l8","vv74p5ktg1","msl000608","iti","img/motor_blank.png","null","75","motor","","","","","","",""
"361","","271229","HierDyv1ja67l8","vv74p5ktg1","msl000608","motor","img/motor_5.png","72","72","motor","5","312","1","0","0","",""
"null","","271339","HierDyv1ja67l8","vv74p5ktg1","msl000608","iti","img/motor_blank.png","null","72","motor","","","","","","",""
"317","","271666","HierDyv1ja67l8","vv74p5ktg1","msl000608","motor","img/motor_8.png","76","76","motor","8","313","1","0","0","",""
"null","","271778","HierDyv1ja67l8","vv74p5ktg1","msl000608","iti","img/motor_blank.png","null","76","motor","","","","","","",""
"500","","272288","HierDyv1ja67l8","vv74p5ktg1","msl000608","motor","img/motor_6.png","74","74","motor","6","314","1","0","0","",""
"null","","272399","HierDyv1ja67l8","vv74p5ktg1","msl000608","iti","img/motor_blank.png","null","74","motor","","","","","","",""
"419","","272829","HierDyv1ja67l8","vv74p5ktg1","msl000608","motor","img/motor_1.png","65","65","motor","1","315","1","0","0","",""
"null","","272938","HierDyv1ja67l8","vv74p5ktg1","msl000608","iti","img/motor_blank.png","null","65","motor","","","","","","",""
"442","","273390","HierDyv1ja67l8","vv74p5ktg1","msl000608","motor","img/motor_3.png","83","68","motor","3","316","0","1","0","",""
"375","","273772","HierDyv1ja67l8","vv74p5ktg1","msl000608","motorRepeat","img/motor_3.png","68","68","motor","3","316","1","0","0","",""
"null","","273883","HierDyv1ja67l8","vv74p5ktg1","msl000608","iti","img/motor_blank.png","null","68","motor","","","","","","",""
"384","","274276","HierDyv1ja67l8","vv74p5ktg1","msl000608","motor","img/motor_5.png","70","72","motor","5","317","0","1","0","",""
"237","","274522","HierDyv1ja67l8","vv74p5ktg1","msl000608","motorRepeat","img/motor_5.png","72","72","motor","5","317","1","0","0","",""
"null","","274633","HierDyv1ja67l8","vv74p5ktg1","msl000608","iti","img/motor_blank.png","null","72","motor","","","","","","",""
"667","","275309","HierDyv1ja67l8","vv74p5ktg1","msl000608","motor","img/motor_3.png","68","68","motor","3","318","1","0","0","",""
"null","","275420","HierDyv1ja67l8","vv74p5ktg1","msl000608","iti","img/motor_blank.png","null","68","motor","","","","","","",""
"472","","275902","HierDyv1ja67l8","vv74p5ktg1","msl000608","motor","img/motor_4.png","70","70","motor","4","319","1","0","0","",""
"null","","276013","HierDyv1ja67l8","vv74p5ktg1","msl000608","iti","img/motor_blank.png","null","70","motor","","","","","","",""
"362","","276385","HierDyv1ja67l8","vv74p5ktg1","msl000608","motor","img/motor_8.png","76","76","motor","8","320","1","0","0","",""
"null","","276496","HierDyv1ja67l8","vv74p5ktg1","msl000608","iti","img/motor_blank.png","null","76","motor","","","","","","",""
"851","","277358","HierDyv1ja67l8","vv74p5ktg1","msl000608","motor","img/motor_6.png","74","74","motor","6","321","1","0","0","",""
"null","","277467","HierDyv1ja67l8","vv74p5ktg1","msl000608","iti","img/motor_blank.png","null","74","motor","","","","","","",""
"600","","278075","HierDyv1ja67l8","vv74p5ktg1","msl000608","motor","img/motor_7.png","75","75","motor","7","322","1","0","0","",""
"null","","278186","HierDyv1ja67l8","vv74p5ktg1","msl000608","iti","img/motor_blank.png","null","75","motor","","","","","","",""
"393","","278589","HierDyv1ja67l8","vv74p5ktg1","msl000608","motor","img/motor_5.png","72","72","motor","5","323","1","0","0","",""
"null","","278699","HierDyv1ja67l8","vv74p5ktg1","msl000608","iti","img/motor_blank.png","null","72","motor","","","","","","",""
"606","","279316","HierDyv1ja67l8","vv74p5ktg1","msl000608","motor","img/motor_3.png","68","68","motor","3","324","1","0","0","",""
"null","","279427","HierDyv1ja67l8","vv74p5ktg1","msl000608","iti","img/motor_blank.png","null","68","motor","","","","","","",""
"312","","279746","HierDyv1ja67l8","vv74p5ktg1","msl000608","motor","img/motor_2.png","65","83","motor","2","325","0","1","0","",""
"414","","280170","HierDyv1ja67l8","vv74p5ktg1","msl000608","motorRepeat","img/motor_2.png","83","83","motor","2","325","1","0","0","",""
"null","","280281","HierDyv1ja67l8","vv74p5ktg1","msl000608","iti","img/motor_blank.png","null","83","motor","","","","","","",""
"972","","281262","HierDyv1ja67l8","vv74p5ktg1","msl000608","motor","img/motor_3.png","83","68","motor","3","326","0","1","0","",""
"904","","282177","HierDyv1ja67l8","vv74p5ktg1","msl000608","motorRepeat","img/motor_3.png","68","68","motor","3","326","1","0","0","",""
"null","","282288","HierDyv1ja67l8","vv74p5ktg1","msl000608","iti","img/motor_blank.png","null","68","motor","","","","","","",""
"1073","","283371","HierDyv1ja67l8","vv74p5ktg1","msl000608","motor","img/motor_6.png","74","74","motor","6","327","1","0","0","",""
"null","","283482","HierDyv1ja67l8","vv74p5ktg1","msl000608","iti","img/motor_blank.png","null","74","motor","","","","","","",""
"511","","284003","HierDyv1ja67l8","vv74p5ktg1","msl000608","motor","img/motor_3.png","68","68","motor","3","328","1","0","0","",""
"null","","284113","HierDyv1ja67l8","vv74p5ktg1","msl000608","iti","img/motor_blank.png","null","68","motor","","","","","","",""
"404","","284527","HierDyv1ja67l8","vv74p5ktg1","msl000608","motor","img/motor_7.png","75","75","motor","7","329","1","0","0","",""
"null","","284638","HierDyv1ja67l8","vv74p5ktg1","msl000608","iti","img/motor_blank.png","null","75","motor","","","","","","",""
"449","","285097","HierDyv1ja67l8","vv74p5ktg1","msl000608","motor","img/motor_1.png","65","65","motor","1","330","1","0","0","",""
"null","","285208","HierDyv1ja67l8","vv74p5ktg1","msl000608","iti","img/motor_blank.png","null","65","motor","","","","","","",""
"528","","285745","HierDyv1ja67l8","vv74p5ktg1","msl000608","motor","img/motor_7.png","75","75","motor","7","331","1","0","0","",""
"null","","285856","HierDyv1ja67l8","vv74p5ktg1","msl000608","iti","img/motor_blank.png","null","75","motor","","","","","","",""
"488","","286354","HierDyv1ja67l8","vv74p5ktg1","msl000608","motor","img/motor_4.png","70","70","motor","4","332","1","0","0","",""
"null","","286464","HierDyv1ja67l8","vv74p5ktg1","msl000608","iti","img/motor_blank.png","null","70","motor","","","","","","",""
"381","","286855","HierDyv1ja67l8","vv74p5ktg1","msl000608","motor","img/motor_1.png","65","65","motor","1","333","1","0","0","",""
"null","","286964","HierDyv1ja67l8","vv74p5ktg1","msl000608","iti","img/motor_blank.png","null","65","motor","","","","","","",""
"427","","287402","HierDyv1ja67l8","vv74p5ktg1","msl000608","motor","img/motor_7.png","75","75","motor","7","334","1","0","0","",""
"null","","287512","HierDyv1ja67l8","vv74p5ktg1","msl000608","iti","img/motor_blank.png","null","75","motor","","","","","","",""
"547","","288069","HierDyv1ja67l8","vv74p5ktg1","msl000608","motor","img/motor_3.png","68","68","motor","3","335","1","0","0","",""
"null","","288180","HierDyv1ja67l8","vv74p5ktg1","msl000608","iti","img/motor_blank.png","null","68","motor","","","","","","",""
"601","","288790","HierDyv1ja67l8","vv74p5ktg1","msl000608","motor","img/motor_6.png","74","74","motor","6","336","1","0","0","",""
"null","","288902","HierDyv1ja67l8","vv74p5ktg1","msl000608","iti","img/motor_blank.png","null","74","motor","","","","","","",""
"369","","289281","HierDyv1ja67l8","vv74p5ktg1","msl000608","motor","img/motor_7.png","75","75","motor","7","337","1","0","0","",""
"null","","289393","HierDyv1ja67l8","vv74p5ktg1","msl000608","iti","img/motor_blank.png","null","75","motor","","","","","","",""
"512","","289916","HierDyv1ja67l8","vv74p5ktg1","msl000608","motor","img/motor_3.png","68","68","motor","3","338","1","0","0","",""
"null","","290027","HierDyv1ja67l8","vv74p5ktg1","msl000608","iti","img/motor_blank.png","null","68","motor","","","","","","",""
"611","","290648","HierDyv1ja67l8","vv74p5ktg1","msl000608","motor","img/motor_6.png","74","74","motor","6","339","1","0","0","",""
"null","","290759","HierDyv1ja67l8","vv74p5ktg1","msl000608","iti","img/motor_blank.png","null","74","motor","","","","","","",""
"548","","291316","HierDyv1ja67l8","vv74p5ktg1","msl000608","motor","img/motor_2.png","83","83","motor","2","340","1","0","0","",""
"null","","291427","HierDyv1ja67l8","vv74p5ktg1","msl000608","iti","img/motor_blank.png","null","83","motor","","","","","","",""
"662","","292098","HierDyv1ja67l8","vv74p5ktg1","msl000608","motor","img/motor_5.png","72","72","motor","5","341","1","0","0","",""
"null","","292208","HierDyv1ja67l8","vv74p5ktg1","msl000608","iti","img/motor_blank.png","null","72","motor","","","","","","",""
"408","","292626","HierDyv1ja67l8","vv74p5ktg1","msl000608","motor","img/motor_7.png","75","75","motor","7","342","1","0","0","",""
"null","","292737","HierDyv1ja67l8","vv74p5ktg1","msl000608","iti","img/motor_blank.png","null","75","motor","","","","","","",""
"359","","293107","HierDyv1ja67l8","vv74p5ktg1","msl000608","motor","img/motor_1.png","65","65","motor","1","343","1","0","0","",""
"null","","293215","HierDyv1ja67l8","vv74p5ktg1","msl000608","iti","img/motor_blank.png","null","65","motor","","","","","","",""
"447","","293672","HierDyv1ja67l8","vv74p5ktg1","msl000608","motor","img/motor_5.png","75","72","motor","5","344","0","1","0","",""
"244","","293924","HierDyv1ja67l8","vv74p5ktg1","msl000608","motorRepeat","img/motor_5.png","72","72","motor","5","344","1","0","0","",""
"null","","294036","HierDyv1ja67l8","vv74p5ktg1","msl000608","iti","img/motor_blank.png","null","72","motor","","","","","","",""
"453","","294498","HierDyv1ja67l8","vv74p5ktg1","msl000608","motor","img/motor_4.png","70","70","motor","4","345","1","0","0","",""
"null","","294609","HierDyv1ja67l8","vv74p5ktg1","msl000608","iti","img/motor_blank.png","null","70","motor","","","","","","",""
"626","","295243","HierDyv1ja67l8","vv74p5ktg1","msl000608","motor","img/motor_6.png","74","74","motor","6","346","1","0","0","",""
"null","","295353","HierDyv1ja67l8","vv74p5ktg1","msl000608","iti","img/motor_blank.png","null","74","motor","","","","","","",""
"729","","296091","HierDyv1ja67l8","vv74p5ktg1","msl000608","motor","img/motor_2.png","83","83","motor","2","347","1","0","0","",""
"null","","296203","HierDyv1ja67l8","vv74p5ktg1","msl000608","iti","img/motor_blank.png","null","83","motor","","","","","","",""
"419","","296631","HierDyv1ja67l8","vv74p5ktg1","msl000608","motor","img/motor_7.png","75","75","motor","7","348","1","0","0","",""
"null","","296741","HierDyv1ja67l8","vv74p5ktg1","msl000608","iti","img/motor_blank.png","null","75","motor","","","","","","",""
"488","","297237","HierDyv1ja67l8","vv74p5ktg1","msl000608","motor","img/motor_7.png","75","75","motor","7","349","1","0","0","",""
"null","","297345","HierDyv1ja67l8","vv74p5ktg1","msl000608","iti","img/motor_blank.png","null","75","motor","","","","","","",""
"492","","297845","HierDyv1ja67l8","vv74p5ktg1","msl000608","motor","img/motor_2.png","83","83","motor","2","350","1","0","0","",""
"null","","297954","HierDyv1ja67l8","vv74p5ktg1","msl000608","iti","img/motor_blank.png","null","83","motor","","","","","","",""
"474","","298439","HierDyv1ja67l8","vv74p5ktg1","msl000608","motor","img/motor_4.png","70","70","motor","4","351","1","0","0","",""
"null","","298550","HierDyv1ja67l8","vv74p5ktg1","msl000608","iti","img/motor_blank.png","null","70","motor","","","","","","",""
"446","","299005","HierDyv1ja67l8","vv74p5ktg1","msl000608","motor","img/motor_7.png","75","75","motor","7","352","1","0","0","",""
"null","","299114","HierDyv1ja67l8","vv74p5ktg1","msl000608","iti","img/motor_blank.png","null","75","motor","","","","","","",""
"464","","299587","HierDyv1ja67l8","vv74p5ktg1","msl000608","motor","img/motor_1.png","65","65","motor","1","353","1","0","0","",""
"null","","299697","HierDyv1ja67l8","vv74p5ktg1","msl000608","iti","img/motor_blank.png","null","65","motor","","","","","","",""
"487","","300194","HierDyv1ja67l8","vv74p5ktg1","msl000608","motor","img/motor_8.png","76","76","motor","8","354","1","0","0","",""
"null","","300305","HierDyv1ja67l8","vv74p5ktg1","msl000608","iti","img/motor_blank.png","null","76","motor","","","","","","",""
"663","","300978","HierDyv1ja67l8","vv74p5ktg1","msl000608","motor","img/motor_4.png","70","70","motor","4","355","1","0","0","",""
"null","","301089","HierDyv1ja67l8","vv74p5ktg1","msl000608","iti","img/motor_blank.png","null","70","motor","","","","","","",""
"370","","301468","HierDyv1ja67l8","vv74p5ktg1","msl000608","motor","img/motor_7.png","72","75","motor","7","356","0","1","0","",""
"207","","301683","HierDyv1ja67l8","vv74p5ktg1","msl000608","motorRepeat","img/motor_7.png","75","75","motor","7","356","1","0","0","",""
"null","","301794","HierDyv1ja67l8","vv74p5ktg1","msl000608","iti","img/motor_blank.png","null","75","motor","","","","","","",""
"558","","302362","HierDyv1ja67l8","vv74p5ktg1","msl000608","motor","img/motor_6.png","74","74","motor","6","357","1","0","0","",""
"null","","302471","HierDyv1ja67l8","vv74p5ktg1","msl000608","iti","img/motor_blank.png","null","74","motor","","","","","","",""
"363","","302846","HierDyv1ja67l8","vv74p5ktg1","msl000608","motor","img/motor_1.png","65","65","motor","1","358","1","0","0","",""
"null","","302956","HierDyv1ja67l8","vv74p5ktg1","msl000608","iti","img/motor_blank.png","null","65","motor","","","","","","",""
