"rt","responses","time_elapsed","subject","prolificID","demoID","trialType","stimulus","key_press","corrresp","phase","stimNum","trialNum","corr","repeatTrial","motorSwitch","pracCounter","hierarchy"
"6834","{""Q0"":""msl000823""}","6879","HierDyhfwjavnb","m76sg0btrv","msl000823","","","","","","","","","","","",""
"815","","7702","HierDyhfwjavnb","m76sg0btrv","msl000823","","","","","","","","","","","",""
"","","9782","HierDyhfwjavnb","m76sg0btrv","msl000823","fullscreen","","","","","","","","","","",""
"64645","","74436","HierDyhfwjavnb","m76sg0btrv","msl000823","","","","","","","","","","","",""
"536","","74982","HierDyhfwjavnb","m76sg0btrv","msl000823","motor","img/motor_1.png","65","65","motor","1","1","1","0","0","",""
"null","","75094","HierDyhfwjavnb","m76sg0btrv","msl000823","iti","img/motor_blank.png","null","65","motor","","","","","","",""
"556","","75662","HierDyhfwjavnb","m76sg0btrv","msl000823","motor","img/motor_5.png","72","72","motor","5","2","1","0","0","",""
"null","","75773","HierDyhfwjavnb","m76sg0btrv","msl000823","iti","img/motor_blank.png","null","72","motor","","","","","","",""
"579","","76361","HierDyhfwjavnb","m76sg0btrv","msl000823","motor","img/motor_4.png","70","70","motor","4","3","1","0","0","",""
"null","","76473","HierDyhfwjavnb","m76sg0btrv","msl000823","iti","img/motor_blank.png","null","70","motor","","","","","","",""
"593","","77074","HierDyhfwjavnb","m76sg0btrv","msl000823","motor","img/motor_6.png","74","74","motor","6","4","1","0","0","",""
"null","","77186","HierDyhfwjavnb","m76sg0btrv","msl000823","iti","img/motor_blank.png","null","74","motor","","","","","","",""
"627","","77822","HierDyhfwjavnb","m76sg0btrv","msl000823","motor","img/motor_2.png","83","83","motor","2","5","1","0","0","",""
"null","","77930","HierDyhfwjavnb","m76sg0btrv","msl000823","iti","img/motor_blank.png","null","83","motor","","","","","","",""
"621","","78561","HierDyhfwjavnb","m76sg0btrv","msl000823","motor","img/motor_5.png","72","72","motor","5","6","1","0","0","",""
"null","","78667","HierDyhfwjavnb","m76sg0btrv","msl000823","iti","img/motor_blank.png","null","72","motor","","","","","","",""
"433","","79107","HierDyhfwjavnb","m76sg0btrv","msl000823","motor","img/motor_5.png","72","72","motor","5","7","1","0","0","",""
"null","","79215","HierDyhfwjavnb","m76sg0btrv","msl000823","iti","img/motor_blank.png","null","72","motor","","","","","","",""
"561","","79781","HierDyhfwjavnb","m76sg0btrv","msl000823","motor","img/motor_8.png","76","76","motor","8","8","1","0","0","",""
"null","","79888","HierDyhfwjavnb","m76sg0btrv","msl000823","iti","img/motor_blank.png","null","76","motor","","","","","","",""
"550","","80445","HierDyhfwjavnb","m76sg0btrv","msl000823","motor","img/motor_4.png","70","70","motor","4","9","1","0","0","",""
"null","","80551","HierDyhfwjavnb","m76sg0btrv","msl000823","iti","img/motor_blank.png","null","70","motor","","","","","","",""
"515","","81073","HierDyhfwjavnb","m76sg0btrv","msl000823","motor","img/motor_3.png","68","68","motor","3","10","1","0","0","",""
"null","","81180","HierDyhfwjavnb","m76sg0btrv","msl000823","iti","img/motor_blank.png","null","68","motor","","","","","","",""
"391","","81579","HierDyhfwjavnb","m76sg0btrv","msl000823","motor","img/motor_3.png","68","68","motor","3","11","1","0","0","",""
"null","","81686","HierDyhfwjavnb","m76sg0btrv","msl000823","iti","img/motor_blank.png","null","68","motor","","","","","","",""
"573","","82266","HierDyhfwjavnb","m76sg0btrv","msl000823","motor","img/motor_7.png","75","75","motor","7","12","1","0","0","",""
"null","","82373","HierDyhfwjavnb","m76sg0btrv","msl000823","iti","img/motor_blank.png","null","75","motor","","","","","","",""
"501","","82880","HierDyhfwjavnb","m76sg0btrv","msl000823","motor","img/motor_5.png","72","72","motor","5","13","1","0","0","",""
"null","","82988","HierDyhfwjavnb","m76sg0btrv","msl000823","iti","img/motor_blank.png","null","72","motor","","","","","","",""
"550","","83546","HierDyhfwjavnb","m76sg0btrv","msl000823","motor","img/motor_8.png","76","76","motor","8","14","1","0","0","",""
"null","","83654","HierDyhfwjavnb","m76sg0btrv","msl000823","iti","img/motor_blank.png","null","76","motor","","","","","","",""
"489","","84150","HierDyhfwjavnb","m76sg0btrv","msl000823","motor","img/motor_4.png","70","70","motor","4","15","1","0","0","",""
"null","","84257","HierDyhfwjavnb","m76sg0btrv","msl000823","iti","img/motor_blank.png","null","70","motor","","","","","","",""
"503","","84768","HierDyhfwjavnb","m76sg0btrv","msl000823","motor","img/motor_3.png","68","68","motor","3","16","1","0","0","",""
"null","","84874","HierDyhfwjavnb","m76sg0btrv","msl000823","iti","img/motor_blank.png","null","68","motor","","","","","","",""
"455","","85337","HierDyhfwjavnb","m76sg0btrv","msl000823","motor","img/motor_5.png","72","72","motor","5","17","1","0","0","",""
"null","","85445","HierDyhfwjavnb","m76sg0btrv","msl000823","iti","img/motor_blank.png","null","72","motor","","","","","","",""
"460","","85911","HierDyhfwjavnb","m76sg0btrv","msl000823","motor","img/motor_6.png","74","74","motor","6","18","1","0","0","",""
"null","","86018","HierDyhfwjavnb","m76sg0btrv","msl000823","iti","img/motor_blank.png","null","74","motor","","","","","","",""
"504","","86528","HierDyhfwjavnb","m76sg0btrv","msl000823","motor","img/motor_1.png","65","65","motor","1","19","1","0","0","",""
"null","","86635","HierDyhfwjavnb","m76sg0btrv","msl000823","iti","img/motor_blank.png","null","65","motor","","","","","","",""
"513","","87154","HierDyhfwjavnb","m76sg0btrv","msl000823","motor","img/motor_6.png","75","74","motor","6","20","0","1","0","",""
"374","","87535","HierDyhfwjavnb","m76sg0btrv","msl000823","motorRepeat","img/motor_6.png","74","74","motor","6","20","1","0","0","",""
"null","","87642","HierDyhfwjavnb","m76sg0btrv","msl000823","iti","img/motor_blank.png","null","74","motor","","","","","","",""
"556","","88204","HierDyhfwjavnb","m76sg0btrv","msl000823","motor","img/motor_4.png","70","70","motor","4","21","1","0","0","",""
"null","","88312","HierDyhfwjavnb","m76sg0btrv","msl000823","iti","img/motor_blank.png","null","70","motor","","","","","","",""
"488","","88806","HierDyhfwjavnb","m76sg0btrv","msl000823","motor","img/motor_8.png","76","76","motor","8","22","1","0","0","",""
"null","","88913","HierDyhfwjavnb","m76sg0btrv","msl000823","iti","img/motor_blank.png","null","76","motor","","","","","","",""
"640","","89562","HierDyhfwjavnb","m76sg0btrv","msl000823","motor","img/motor_2.png","83","83","motor","2","23","1","0","0","",""
"null","","89670","HierDyhfwjavnb","m76sg0btrv","msl000823","iti","img/motor_blank.png","null","83","motor","","","","","","",""
"496","","90174","HierDyhfwjavnb","m76sg0btrv","msl000823","motor","img/motor_6.png","74","74","motor","6","24","1","0","0","",""
"null","","90283","HierDyhfwjavnb","m76sg0btrv","msl000823","iti","img/motor_blank.png","null","74","motor","","","","","","",""
"535","","90824","HierDyhfwjavnb","m76sg0btrv","msl000823","motor","img/motor_5.png","72","72","motor","5","25","1","0","0","",""
"null","","90933","HierDyhfwjavnb","m76sg0btrv","msl000823","iti","img/motor_blank.png","null","72","motor","","","","","","",""
"557","","91499","HierDyhfwjavnb","m76sg0btrv","msl000823","motor","img/motor_2.png","68","83","motor","2","26","0","1","0","",""
"341","","91849","HierDyhfwjavnb","m76sg0btrv","msl000823","motorRepeat","img/motor_2.png","83","83","motor","2","26","1","0","0","",""
"null","","91960","HierDyhfwjavnb","m76sg0btrv","msl000823","iti","img/motor_blank.png","null","83","motor","","","","","","",""
"608","","92577","HierDyhfwjavnb","m76sg0btrv","msl000823","motor","img/motor_1.png","65","65","motor","1","27","1","0","0","",""
"null","","92687","HierDyhfwjavnb","m76sg0btrv","msl000823","iti","img/motor_blank.png","null","65","motor","","","","","","",""
"428","","93123","HierDyhfwjavnb","m76sg0btrv","msl000823","motor","img/motor_1.png","65","65","motor","1","28","1","0","0","",""
"null","","93233","HierDyhfwjavnb","m76sg0btrv","msl000823","iti","img/motor_blank.png","null","65","motor","","","","","","",""
"604","","93847","HierDyhfwjavnb","m76sg0btrv","msl000823","motor","img/motor_3.png","70","68","motor","3","29","0","1","0","",""
"312","","94169","HierDyhfwjavnb","m76sg0btrv","msl000823","motorRepeat","img/motor_3.png","68","68","motor","3","29","1","0","0","",""
"null","","94279","HierDyhfwjavnb","m76sg0btrv","msl000823","iti","img/motor_blank.png","null","68","motor","","","","","","",""
"463","","94750","HierDyhfwjavnb","m76sg0btrv","msl000823","motor","img/motor_5.png","72","72","motor","5","30","1","0","0","",""
"null","","94860","HierDyhfwjavnb","m76sg0btrv","msl000823","iti","img/motor_blank.png","null","72","motor","","","","","","",""
"590","","95456","HierDyhfwjavnb","m76sg0btrv","msl000823","motor","img/motor_7.png","75","75","motor","7","31","1","0","0","",""
"null","","95563","HierDyhfwjavnb","m76sg0btrv","msl000823","iti","img/motor_blank.png","null","75","motor","","","","","","",""
"378","","95948","HierDyhfwjavnb","m76sg0btrv","msl000823","motor","img/motor_7.png","75","75","motor","7","32","1","0","0","",""
"null","","96055","HierDyhfwjavnb","m76sg0btrv","msl000823","iti","img/motor_blank.png","null","75","motor","","","","","","",""
"634","","96695","HierDyhfwjavnb","m76sg0btrv","msl000823","motor","img/motor_2.png","83","83","motor","2","33","1","0","0","",""
"null","","96802","HierDyhfwjavnb","m76sg0btrv","msl000823","iti","img/motor_blank.png","null","83","motor","","","","","","",""
"496","","97302","HierDyhfwjavnb","m76sg0btrv","msl000823","motor","img/motor_7.png","75","75","motor","7","34","1","0","0","",""
"null","","97409","HierDyhfwjavnb","m76sg0btrv","msl000823","iti","img/motor_blank.png","null","75","motor","","","","","","",""
"508","","97923","HierDyhfwjavnb","m76sg0btrv","msl000823","motor","img/motor_8.png","76","76","motor","8","35","1","0","0","",""
"null","","98030","HierDyhfwjavnb","m76sg0btrv","msl000823","iti","img/motor_blank.png","null","76","motor","","","","","","",""
"520","","98557","HierDyhfwjavnb","m76sg0btrv","msl000823","motor","img/motor_1.png","65","65","motor","1","36","1","0","0","",""
"null","","98663","HierDyhfwjavnb","m76sg0btrv","msl000823","iti","img/motor_blank.png","null","65","motor","","","","","","",""
"483","","99153","HierDyhfwjavnb","m76sg0btrv","msl000823","motor","img/motor_1.png","65","65","motor","1","37","1","0","0","",""
"null","","99259","HierDyhfwjavnb","m76sg0btrv","msl000823","iti","img/motor_blank.png","null","65","motor","","","","","","",""
"570","","99836","HierDyhfwjavnb","m76sg0btrv","msl000823","motor","img/motor_3.png","83","68","motor","3","38","0","1","0","",""
"323","","100165","HierDyhfwjavnb","m76sg0btrv","msl000823","motorRepeat","img/motor_3.png","70","68","motor","3","38","0","1","0","",""
"231","","100403","HierDyhfwjavnb","m76sg0btrv","msl000823","motorRepeat","img/motor_3.png","68","68","motor","3","38","1","0","0","",""
"null","","100510","HierDyhfwjavnb","m76sg0btrv","msl000823","iti","img/motor_blank.png","null","68","motor","","","","","","",""
"524","","101041","HierDyhfwjavnb","m76sg0btrv","msl000823","motor","img/motor_8.png","76","76","motor","8","39","1","0","0","",""
"null","","101148","HierDyhfwjavnb","m76sg0btrv","msl000823","iti","img/motor_blank.png","null","76","motor","","","","","","",""
"342","","101497","HierDyhfwjavnb","m76sg0btrv","msl000823","motor","img/motor_8.png","76","76","motor","8","40","1","0","0","",""
"null","","101604","HierDyhfwjavnb","m76sg0btrv","msl000823","iti","img/motor_blank.png","null","76","motor","","","","","","",""
"422","","102030","HierDyhfwjavnb","m76sg0btrv","msl000823","motor","img/motor_1.png","65","65","motor","1","41","1","0","0","",""
"null","","102139","HierDyhfwjavnb","m76sg0btrv","msl000823","iti","img/motor_blank.png","null","65","motor","","","","","","",""
"668","","102813","HierDyhfwjavnb","m76sg0btrv","msl000823","motor","img/motor_4.png","70","70","motor","4","42","1","0","0","",""
"null","","102919","HierDyhfwjavnb","m76sg0btrv","msl000823","iti","img/motor_blank.png","null","70","motor","","","","","","",""
"327","","103253","HierDyhfwjavnb","m76sg0btrv","msl000823","motor","img/motor_4.png","70","70","motor","4","43","1","0","0","",""
"null","","103359","HierDyhfwjavnb","m76sg0btrv","msl000823","iti","img/motor_blank.png","null","70","motor","","","","","","",""
"605","","103973","HierDyhfwjavnb","m76sg0btrv","msl000823","motor","img/motor_6.png","74","74","motor","6","44","1","0","0","",""
"null","","104083","HierDyhfwjavnb","m76sg0btrv","msl000823","iti","img/motor_blank.png","null","74","motor","","","","","","",""
"553","","104643","HierDyhfwjavnb","m76sg0btrv","msl000823","motor","img/motor_3.png","68","68","motor","3","45","1","0","0","",""
"null","","104753","HierDyhfwjavnb","m76sg0btrv","msl000823","iti","img/motor_blank.png","null","68","motor","","","","","","",""
"572","","105334","HierDyhfwjavnb","m76sg0btrv","msl000823","motor","img/motor_7.png","75","75","motor","7","46","1","0","0","",""
"null","","105441","HierDyhfwjavnb","m76sg0btrv","msl000823","iti","img/motor_blank.png","null","75","motor","","","","","","",""
"536","","105985","HierDyhfwjavnb","m76sg0btrv","msl000823","motor","img/motor_5.png","72","72","motor","5","47","1","0","0","",""
"null","","106092","HierDyhfwjavnb","m76sg0btrv","msl000823","iti","img/motor_blank.png","null","72","motor","","","","","","",""
"470","","106568","HierDyhfwjavnb","m76sg0btrv","msl000823","motor","img/motor_5.png","72","72","motor","5","48","1","0","0","",""
"null","","106675","HierDyhfwjavnb","m76sg0btrv","msl000823","iti","img/motor_blank.png","null","72","motor","","","","","","",""
"504","","107186","HierDyhfwjavnb","m76sg0btrv","msl000823","motor","img/motor_8.png","76","76","motor","8","49","1","0","0","",""
"null","","107294","HierDyhfwjavnb","m76sg0btrv","msl000823","iti","img/motor_blank.png","null","76","motor","","","","","","",""
"606","","107909","HierDyhfwjavnb","m76sg0btrv","msl000823","motor","img/motor_3.png","68","68","motor","3","50","1","0","0","",""
"null","","108019","HierDyhfwjavnb","m76sg0btrv","msl000823","iti","img/motor_blank.png","null","68","motor","","","","","","",""
"419","","108444","HierDyhfwjavnb","m76sg0btrv","msl000823","motor","img/motor_4.png","68","70","motor","4","51","0","1","0","",""
"123","","108576","HierDyhfwjavnb","m76sg0btrv","msl000823","motorRepeat","img/motor_4.png","70","70","motor","4","51","1","0","0","",""
"null","","108686","HierDyhfwjavnb","m76sg0btrv","msl000823","iti","img/motor_blank.png","null","70","motor","","","","","","",""
"488","","109184","HierDyhfwjavnb","m76sg0btrv","msl000823","motor","img/motor_3.png","68","68","motor","3","52","1","0","0","",""
"null","","109292","HierDyhfwjavnb","m76sg0btrv","msl000823","iti","img/motor_blank.png","null","68","motor","","","","","","",""
"444","","109745","HierDyhfwjavnb","m76sg0btrv","msl000823","motor","img/motor_5.png","72","72","motor","5","53","1","0","0","",""
"null","","109855","HierDyhfwjavnb","m76sg0btrv","msl000823","iti","img/motor_blank.png","null","72","motor","","","","","","",""
"433","","110296","HierDyhfwjavnb","m76sg0btrv","msl000823","motor","img/motor_3.png","68","68","motor","3","54","1","0","0","",""
"null","","110405","HierDyhfwjavnb","m76sg0btrv","msl000823","iti","img/motor_blank.png","null","68","motor","","","","","","",""
"415","","110827","HierDyhfwjavnb","m76sg0btrv","msl000823","motor","img/motor_4.png","70","70","motor","4","55","1","0","0","",""
"null","","110938","HierDyhfwjavnb","m76sg0btrv","msl000823","iti","img/motor_blank.png","null","70","motor","","","","","","",""
"577","","111524","HierDyhfwjavnb","m76sg0btrv","msl000823","motor","img/motor_6.png","74","74","motor","6","56","1","0","0","",""
"null","","111633","HierDyhfwjavnb","m76sg0btrv","msl000823","iti","img/motor_blank.png","null","74","motor","","","","","","",""
"318","","111959","HierDyhfwjavnb","m76sg0btrv","msl000823","motor","img/motor_6.png","74","74","motor","6","57","1","0","0","",""
"null","","112070","HierDyhfwjavnb","m76sg0btrv","msl000823","iti","img/motor_blank.png","null","74","motor","","","","","","",""
"534","","112612","HierDyhfwjavnb","m76sg0btrv","msl000823","motor","img/motor_4.png","70","70","motor","4","58","1","0","0","",""
"null","","112721","HierDyhfwjavnb","m76sg0btrv","msl000823","iti","img/motor_blank.png","null","70","motor","","","","","","",""
"550","","113279","HierDyhfwjavnb","m76sg0btrv","msl000823","motor","img/motor_2.png","83","83","motor","2","59","1","0","0","",""
"null","","113390","HierDyhfwjavnb","m76sg0btrv","msl000823","iti","img/motor_blank.png","null","83","motor","","","","","","",""
"614","","114011","HierDyhfwjavnb","m76sg0btrv","msl000823","motor","img/motor_7.png","75","75","motor","7","60","1","0","0","",""
"null","","114121","HierDyhfwjavnb","m76sg0btrv","msl000823","iti","img/motor_blank.png","null","75","motor","","","","","","",""
"539","","114670","HierDyhfwjavnb","m76sg0btrv","msl000823","motor","img/motor_4.png","70","70","motor","4","61","1","0","0","",""
"null","","114778","HierDyhfwjavnb","m76sg0btrv","msl000823","iti","img/motor_blank.png","null","70","motor","","","","","","",""
"739","","115527","HierDyhfwjavnb","m76sg0btrv","msl000823","motor","img/motor_7.png","75","75","motor","7","62","1","0","0","",""
"null","","115636","HierDyhfwjavnb","m76sg0btrv","msl000823","iti","img/motor_blank.png","null","75","motor","","","","","","",""
"303","","115948","HierDyhfwjavnb","m76sg0btrv","msl000823","motor","img/motor_7.png","75","75","motor","7","63","1","0","0","",""
"null","","116058","HierDyhfwjavnb","m76sg0btrv","msl000823","iti","img/motor_blank.png","null","75","motor","","","","","","",""
"415","","116482","HierDyhfwjavnb","m76sg0btrv","msl000823","motor","img/motor_8.png","76","76","motor","8","64","1","0","0","",""
"null","","116591","HierDyhfwjavnb","m76sg0btrv","msl000823","iti","img/motor_blank.png","null","76","motor","","","","","","",""
"423","","117022","HierDyhfwjavnb","m76sg0btrv","msl000823","motor","img/motor_5.png","72","72","motor","5","65","1","0","0","",""
"null","","117129","HierDyhfwjavnb","m76sg0btrv","msl000823","iti","img/motor_blank.png","null","72","motor","","","","","","",""
"397","","117534","HierDyhfwjavnb","m76sg0btrv","msl000823","motor","img/motor_2.png","70","83","motor","2","66","0","1","0","",""
"303","","117846","HierDyhfwjavnb","m76sg0btrv","msl000823","motorRepeat","img/motor_2.png","83","83","motor","2","66","1","0","0","",""
"null","","117956","HierDyhfwjavnb","m76sg0btrv","msl000823","iti","img/motor_blank.png","null","83","motor","","","","","","",""
"422","","118387","HierDyhfwjavnb","m76sg0btrv","msl000823","motor","img/motor_7.png","75","75","motor","7","67","1","0","0","",""
"null","","118495","HierDyhfwjavnb","m76sg0btrv","msl000823","iti","img/motor_blank.png","null","75","motor","","","","","","",""
"756","","119262","HierDyhfwjavnb","m76sg0btrv","msl000823","motor","img/motor_3.png","68","68","motor","3","68","1","0","0","",""
"null","","119373","HierDyhfwjavnb","m76sg0btrv","msl000823","iti","img/motor_blank.png","null","68","motor","","","","","","",""
"371","","119752","HierDyhfwjavnb","m76sg0btrv","msl000823","motor","img/motor_4.png","68","70","motor","4","69","0","1","0","",""
"263","","120023","HierDyhfwjavnb","m76sg0btrv","msl000823","motorRepeat","img/motor_4.png","70","70","motor","4","69","1","0","0","",""
"null","","120132","HierDyhfwjavnb","m76sg0btrv","msl000823","iti","img/motor_blank.png","null","70","motor","","","","","","",""
"460","","120601","HierDyhfwjavnb","m76sg0btrv","msl000823","motor","img/motor_8.png","76","76","motor","8","70","1","0","0","",""
"null","","120711","HierDyhfwjavnb","m76sg0btrv","msl000823","iti","img/motor_blank.png","null","76","motor","","","","","","",""
"713","","121432","HierDyhfwjavnb","m76sg0btrv","msl000823","motor","img/motor_2.png","83","83","motor","2","71","1","0","0","",""
"null","","121539","HierDyhfwjavnb","m76sg0btrv","msl000823","iti","img/motor_blank.png","null","83","motor","","","","","","",""
"392","","121940","HierDyhfwjavnb","m76sg0btrv","msl000823","motor","img/motor_1.png","83","65","motor","1","72","0","1","0","",""
"323","","122271","HierDyhfwjavnb","m76sg0btrv","msl000823","motorRepeat","img/motor_1.png","65","65","motor","1","72","1","0","0","",""
"null","","122382","HierDyhfwjavnb","m76sg0btrv","msl000823","iti","img/motor_blank.png","null","65","motor","","","","","","",""
"482","","122873","HierDyhfwjavnb","m76sg0btrv","msl000823","motor","img/motor_2.png","83","83","motor","2","73","1","0","0","",""
"null","","122982","HierDyhfwjavnb","m76sg0btrv","msl000823","iti","img/motor_blank.png","null","83","motor","","","","","","",""
"430","","123420","HierDyhfwjavnb","m76sg0btrv","msl000823","motor","img/motor_5.png","75","72","motor","5","74","0","1","0","",""
"289","","123716","HierDyhfwjavnb","m76sg0btrv","msl000823","motorRepeat","img/motor_5.png","72","72","motor","5","74","1","0","0","",""
"null","","123824","HierDyhfwjavnb","m76sg0btrv","msl000823","iti","img/motor_blank.png","null","72","motor","","","","","","",""
"567","","124400","HierDyhfwjavnb","m76sg0btrv","msl000823","motor","img/motor_1.png","83","65","motor","1","75","0","1","0","",""
"246","","124655","HierDyhfwjavnb","m76sg0btrv","msl000823","motorRepeat","img/motor_1.png","65","65","motor","1","75","1","0","0","",""
"null","","124765","HierDyhfwjavnb","m76sg0btrv","msl000823","iti","img/motor_blank.png","null","65","motor","","","","","","",""
"729","","125503","HierDyhfwjavnb","m76sg0btrv","msl000823","motor","img/motor_7.png","75","75","motor","7","76","1","0","0","",""
"null","","125613","HierDyhfwjavnb","m76sg0btrv","msl000823","iti","img/motor_blank.png","null","75","motor","","","","","","",""
"561","","126182","HierDyhfwjavnb","m76sg0btrv","msl000823","motor","img/motor_6.png","74","74","motor","6","77","1","0","0","",""
"null","","126292","HierDyhfwjavnb","m76sg0btrv","msl000823","iti","img/motor_blank.png","null","74","motor","","","","","","",""
"613","","126913","HierDyhfwjavnb","m76sg0btrv","msl000823","motor","img/motor_3.png","68","68","motor","3","78","1","0","0","",""
"null","","127023","HierDyhfwjavnb","m76sg0btrv","msl000823","iti","img/motor_blank.png","null","68","motor","","","","","","",""
"473","","127505","HierDyhfwjavnb","m76sg0btrv","msl000823","motor","img/motor_4.png","70","70","motor","4","79","1","0","0","",""
"null","","127615","HierDyhfwjavnb","m76sg0btrv","msl000823","iti","img/motor_blank.png","null","70","motor","","","","","","",""
"560","","128182","HierDyhfwjavnb","m76sg0btrv","msl000823","motor","img/motor_2.png","83","83","motor","2","80","1","0","0","",""
"null","","128293","HierDyhfwjavnb","m76sg0btrv","msl000823","iti","img/motor_blank.png","null","83","motor","","","","","","",""
"415","","128717","HierDyhfwjavnb","m76sg0btrv","msl000823","motor","img/motor_2.png","83","83","motor","2","81","1","0","0","",""
"null","","128826","HierDyhfwjavnb","m76sg0btrv","msl000823","iti","img/motor_blank.png","null","83","motor","","","","","","",""
"572","","129408","HierDyhfwjavnb","m76sg0btrv","msl000823","motor","img/motor_6.png","75","74","motor","6","82","0","1","0","",""
"417","","129833","HierDyhfwjavnb","m76sg0btrv","msl000823","motorRepeat","img/motor_6.png","74","74","motor","6","82","1","0","0","",""
"null","","129942","HierDyhfwjavnb","m76sg0btrv","msl000823","iti","img/motor_blank.png","null","74","motor","","","","","","",""
"647","","130598","HierDyhfwjavnb","m76sg0btrv","msl000823","motor","img/motor_8.png","76","76","motor","8","83","1","0","0","",""
"null","","130705","HierDyhfwjavnb","m76sg0btrv","msl000823","iti","img/motor_blank.png","null","76","motor","","","","","","",""
"535","","131250","HierDyhfwjavnb","m76sg0btrv","msl000823","motor","img/motor_4.png","70","70","motor","4","84","1","0","0","",""
"null","","131359","HierDyhfwjavnb","m76sg0btrv","msl000823","iti","img/motor_blank.png","null","70","motor","","","","","","",""
"791","","132159","HierDyhfwjavnb","m76sg0btrv","msl000823","motor","img/motor_5.png","72","72","motor","5","85","1","0","0","",""
"null","","132270","HierDyhfwjavnb","m76sg0btrv","msl000823","iti","img/motor_blank.png","null","72","motor","","","","","","",""
"598","","132876","HierDyhfwjavnb","m76sg0btrv","msl000823","motor","img/motor_4.png","70","70","motor","4","86","1","0","0","",""
"null","","132986","HierDyhfwjavnb","m76sg0btrv","msl000823","iti","img/motor_blank.png","null","70","motor","","","","","","",""
"472","","133467","HierDyhfwjavnb","m76sg0btrv","msl000823","motor","img/motor_6.png","74","74","motor","6","87","1","0","0","",""
"null","","133578","HierDyhfwjavnb","m76sg0btrv","msl000823","iti","img/motor_blank.png","null","74","motor","","","","","","",""
"313","","133899","HierDyhfwjavnb","m76sg0btrv","msl000823","motor","img/motor_6.png","74","74","motor","6","88","1","0","0","",""
"null","","134009","HierDyhfwjavnb","m76sg0btrv","msl000823","iti","img/motor_blank.png","null","74","motor","","","","","","",""
"446","","134461","HierDyhfwjavnb","m76sg0btrv","msl000823","motor","img/motor_2.png","83","83","motor","2","89","1","0","0","",""
"null","","134571","HierDyhfwjavnb","m76sg0btrv","msl000823","iti","img/motor_blank.png","null","83","motor","","","","","","",""
"514","","135093","HierDyhfwjavnb","m76sg0btrv","msl000823","motor","img/motor_6.png","74","74","motor","6","90","1","0","0","",""
"null","","135203","HierDyhfwjavnb","m76sg0btrv","msl000823","iti","img/motor_blank.png","null","74","motor","","","","","","",""
"568","","135783","HierDyhfwjavnb","m76sg0btrv","msl000823","motor","img/motor_1.png","65","65","motor","1","91","1","0","0","",""
"null","","135896","HierDyhfwjavnb","m76sg0btrv","msl000823","iti","img/motor_blank.png","null","65","motor","","","","","","",""
"567","","136473","HierDyhfwjavnb","m76sg0btrv","msl000823","motor","img/motor_4.png","70","70","motor","4","92","1","0","0","",""
"null","","136585","HierDyhfwjavnb","m76sg0btrv","msl000823","iti","img/motor_blank.png","null","70","motor","","","","","","",""
"592","","137186","HierDyhfwjavnb","m76sg0btrv","msl000823","motor","img/motor_2.png","83","83","motor","2","93","1","0","0","",""
"null","","137295","HierDyhfwjavnb","m76sg0btrv","msl000823","iti","img/motor_blank.png","null","83","motor","","","","","","",""
"525","","137828","HierDyhfwjavnb","m76sg0btrv","msl000823","motor","img/motor_5.png","72","72","motor","5","94","1","0","0","",""
"null","","137939","HierDyhfwjavnb","m76sg0btrv","msl000823","iti","img/motor_blank.png","null","72","motor","","","","","","",""
"403","","138351","HierDyhfwjavnb","m76sg0btrv","msl000823","motor","img/motor_4.png","83","70","motor","4","95","0","1","0","",""
"301","","138662","HierDyhfwjavnb","m76sg0btrv","msl000823","motorRepeat","img/motor_4.png","70","70","motor","4","95","1","0","0","",""
"null","","138772","HierDyhfwjavnb","m76sg0btrv","msl000823","iti","img/motor_blank.png","null","70","motor","","","","","","",""
"587","","139368","HierDyhfwjavnb","m76sg0btrv","msl000823","motor","img/motor_3.png","68","68","motor","3","96","1","0","0","",""
"null","","139477","HierDyhfwjavnb","m76sg0btrv","msl000823","iti","img/motor_blank.png","null","68","motor","","","","","","",""
"519","","140009","HierDyhfwjavnb","m76sg0btrv","msl000823","motor","img/motor_8.png","76","76","motor","8","97","1","0","0","",""
"null","","140121","HierDyhfwjavnb","m76sg0btrv","msl000823","iti","img/motor_blank.png","null","76","motor","","","","","","",""
"528","","140658","HierDyhfwjavnb","m76sg0btrv","msl000823","motor","img/motor_7.png","75","75","motor","7","98","1","0","0","",""
"null","","140770","HierDyhfwjavnb","m76sg0btrv","msl000823","iti","img/motor_blank.png","null","75","motor","","","","","","",""
"538","","141319","HierDyhfwjavnb","m76sg0btrv","msl000823","motor","img/motor_1.png","65","65","motor","1","99","1","0","0","",""
"null","","141430","HierDyhfwjavnb","m76sg0btrv","msl000823","iti","img/motor_blank.png","null","65","motor","","","","","","",""
"603","","142041","HierDyhfwjavnb","m76sg0btrv","msl000823","motor","img/motor_7.png","75","75","motor","7","100","1","0","0","",""
"null","","142153","HierDyhfwjavnb","m76sg0btrv","msl000823","iti","img/motor_blank.png","null","75","motor","","","","","","",""
"370","","142529","HierDyhfwjavnb","m76sg0btrv","msl000823","motor","img/motor_6.png","74","74","motor","6","101","1","0","0","",""
"null","","142640","HierDyhfwjavnb","m76sg0btrv","msl000823","iti","img/motor_blank.png","null","74","motor","","","","","","",""
"529","","143179","HierDyhfwjavnb","m76sg0btrv","msl000823","motor","img/motor_7.png","75","75","motor","7","102","1","0","0","",""
"null","","143287","HierDyhfwjavnb","m76sg0btrv","msl000823","iti","img/motor_blank.png","null","75","motor","","","","","","",""
"343","","143639","HierDyhfwjavnb","m76sg0btrv","msl000823","motor","img/motor_7.png","75","75","motor","7","103","1","0","0","",""
"null","","143750","HierDyhfwjavnb","m76sg0btrv","msl000823","iti","img/motor_blank.png","null","75","motor","","","","","","",""
"429","","144188","HierDyhfwjavnb","m76sg0btrv","msl000823","motor","img/motor_8.png","76","76","motor","8","104","1","0","0","",""
"null","","144299","HierDyhfwjavnb","m76sg0btrv","msl000823","iti","img/motor_blank.png","null","76","motor","","","","","","",""
"533","","144838","HierDyhfwjavnb","m76sg0btrv","msl000823","motor","img/motor_3.png","70","68","motor","3","105","0","1","0","",""
"248","","145093","HierDyhfwjavnb","m76sg0btrv","msl000823","motorRepeat","img/motor_3.png","68","68","motor","3","105","1","0","0","",""
"null","","145202","HierDyhfwjavnb","m76sg0btrv","msl000823","iti","img/motor_blank.png","null","68","motor","","","","","","",""
"403","","145613","HierDyhfwjavnb","m76sg0btrv","msl000823","motor","img/motor_4.png","70","70","motor","4","106","1","0","0","",""
"null","","145721","HierDyhfwjavnb","m76sg0btrv","msl000823","iti","img/motor_blank.png","null","70","motor","","","","","","",""
"485","","146217","HierDyhfwjavnb","m76sg0btrv","msl000823","motor","img/motor_2.png","83","83","motor","2","107","1","0","0","",""
"null","","146326","HierDyhfwjavnb","m76sg0btrv","msl000823","iti","img/motor_blank.png","null","83","motor","","","","","","",""
"385","","146718","HierDyhfwjavnb","m76sg0btrv","msl000823","motor","img/motor_4.png","70","70","motor","4","108","1","0","0","",""
"null","","146826","HierDyhfwjavnb","m76sg0btrv","msl000823","iti","img/motor_blank.png","null","70","motor","","","","","","",""
"391","","147228","HierDyhfwjavnb","m76sg0btrv","msl000823","motor","img/motor_2.png","83","83","motor","2","109","1","0","0","",""
"null","","147339","HierDyhfwjavnb","m76sg0btrv","msl000823","iti","img/motor_blank.png","null","83","motor","","","","","","",""
"315","","147660","HierDyhfwjavnb","m76sg0btrv","msl000823","motor","img/motor_2.png","83","83","motor","2","110","1","0","0","",""
"null","","147770","HierDyhfwjavnb","m76sg0btrv","msl000823","iti","img/motor_blank.png","null","83","motor","","","","","","",""
"504","","148282","HierDyhfwjavnb","m76sg0btrv","msl000823","motor","img/motor_8.png","75","76","motor","8","111","0","1","0","",""
"288","","148578","HierDyhfwjavnb","m76sg0btrv","msl000823","motorRepeat","img/motor_8.png","76","76","motor","8","111","1","0","0","",""
"null","","148688","HierDyhfwjavnb","m76sg0btrv","msl000823","iti","img/motor_blank.png","null","76","motor","","","","","","",""
"711","","149408","HierDyhfwjavnb","m76sg0btrv","msl000823","motor","img/motor_2.png","83","83","motor","2","112","1","0","0","",""
"null","","149519","HierDyhfwjavnb","m76sg0btrv","msl000823","iti","img/motor_blank.png","null","83","motor","","","","","","",""
"520","","150047","HierDyhfwjavnb","m76sg0btrv","msl000823","motor","img/motor_7.png","75","75","motor","7","113","1","0","0","",""
"null","","150157","HierDyhfwjavnb","m76sg0btrv","msl000823","iti","img/motor_blank.png","null","75","motor","","","","","","",""
"734","","150901","HierDyhfwjavnb","m76sg0btrv","msl000823","motor","img/motor_4.png","70","70","motor","4","114","1","0","0","",""
"null","","151011","HierDyhfwjavnb","m76sg0btrv","msl000823","iti","img/motor_blank.png","null","70","motor","","","","","","",""
"309","","151330","HierDyhfwjavnb","m76sg0btrv","msl000823","motor","img/motor_4.png","70","70","motor","4","115","1","0","0","",""
"null","","151438","HierDyhfwjavnb","m76sg0btrv","msl000823","iti","img/motor_blank.png","null","70","motor","","","","","","",""
"587","","152033","HierDyhfwjavnb","m76sg0btrv","msl000823","motor","img/motor_3.png","68","68","motor","3","116","1","0","0","",""
"null","","152144","HierDyhfwjavnb","m76sg0btrv","msl000823","iti","img/motor_blank.png","null","68","motor","","","","","","",""
"356","","152510","HierDyhfwjavnb","m76sg0btrv","msl000823","motor","img/motor_3.png","68","68","motor","3","117","1","0","0","",""
"null","","152620","HierDyhfwjavnb","m76sg0btrv","msl000823","iti","img/motor_blank.png","null","68","motor","","","","","","",""
"477","","153106","HierDyhfwjavnb","m76sg0btrv","msl000823","motor","img/motor_6.png","75","74","motor","6","118","0","1","0","",""
"305","","153421","HierDyhfwjavnb","m76sg0btrv","msl000823","motorRepeat","img/motor_6.png","74","74","motor","6","118","1","0","0","",""
"null","","153528","HierDyhfwjavnb","m76sg0btrv","msl000823","iti","img/motor_blank.png","null","74","motor","","","","","","",""
"630","","154168","HierDyhfwjavnb","m76sg0btrv","msl000823","motor","img/motor_3.png","68","68","motor","3","119","1","0","0","",""
"null","","154278","HierDyhfwjavnb","m76sg0btrv","msl000823","iti","img/motor_blank.png","null","68","motor","","","","","","",""
"468","","154757","HierDyhfwjavnb","m76sg0btrv","msl000823","motor","img/motor_6.png","74","74","motor","6","120","1","0","0","",""
"null","","154865","HierDyhfwjavnb","m76sg0btrv","msl000823","iti","img/motor_blank.png","null","74","motor","","","","","","",""
"525","","155399","HierDyhfwjavnb","m76sg0btrv","msl000823","motor","img/motor_5.png","72","72","motor","5","121","1","0","0","",""
"null","","155509","HierDyhfwjavnb","m76sg0btrv","msl000823","iti","img/motor_blank.png","null","72","motor","","","","","","",""
"369","","155884","HierDyhfwjavnb","m76sg0btrv","msl000823","motor","img/motor_5.png","72","72","motor","5","122","1","0","0","",""
"null","","155993","HierDyhfwjavnb","m76sg0btrv","msl000823","iti","img/motor_blank.png","null","72","motor","","","","","","",""
"512","","156514","HierDyhfwjavnb","m76sg0btrv","msl000823","motor","img/motor_2.png","70","83","motor","2","123","0","1","0","",""
"241","","156764","HierDyhfwjavnb","m76sg0btrv","msl000823","motorRepeat","img/motor_2.png","83","83","motor","2","123","1","0","0","",""
"null","","156876","HierDyhfwjavnb","m76sg0btrv","msl000823","iti","img/motor_blank.png","null","83","motor","","","","","","",""
"455","","157341","HierDyhfwjavnb","m76sg0btrv","msl000823","motor","img/motor_6.png","75","74","motor","6","124","0","1","0","",""
"251","","157601","HierDyhfwjavnb","m76sg0btrv","msl000823","motorRepeat","img/motor_6.png","74","74","motor","6","124","1","0","0","",""
"null","","157712","HierDyhfwjavnb","m76sg0btrv","msl000823","iti","img/motor_blank.png","null","74","motor","","","","","","",""
"600","","158321","HierDyhfwjavnb","m76sg0btrv","msl000823","motor","img/motor_2.png","83","83","motor","2","125","1","0","0","",""
"null","","158432","HierDyhfwjavnb","m76sg0btrv","msl000823","iti","img/motor_blank.png","null","83","motor","","","","","","",""
"613","","159054","HierDyhfwjavnb","m76sg0btrv","msl000823","motor","img/motor_1.png","65","65","motor","1","126","1","0","0","",""
"null","","159165","HierDyhfwjavnb","m76sg0btrv","msl000823","iti","img/motor_blank.png","null","65","motor","","","","","","",""
"472","","159645","HierDyhfwjavnb","m76sg0btrv","msl000823","motor","img/motor_8.png","76","76","motor","8","127","1","0","0","",""
"null","","159756","HierDyhfwjavnb","m76sg0btrv","msl000823","iti","img/motor_blank.png","null","76","motor","","","","","","",""
"463","","160229","HierDyhfwjavnb","m76sg0btrv","msl000823","motor","img/motor_5.png","72","72","motor","5","128","1","0","0","",""
"null","","160339","HierDyhfwjavnb","m76sg0btrv","msl000823","iti","img/motor_blank.png","null","72","motor","","","","","","",""
"496","","160845","HierDyhfwjavnb","m76sg0btrv","msl000823","motor","img/motor_7.png","75","75","motor","7","129","1","0","0","",""
"null","","160956","HierDyhfwjavnb","m76sg0btrv","msl000823","iti","img/motor_blank.png","null","75","motor","","","","","","",""
"696","","161661","HierDyhfwjavnb","m76sg0btrv","msl000823","motor","img/motor_4.png","70","70","motor","4","130","1","0","0","",""
"null","","161773","HierDyhfwjavnb","m76sg0btrv","msl000823","iti","img/motor_blank.png","null","70","motor","","","","","","",""
"454","","162237","HierDyhfwjavnb","m76sg0btrv","msl000823","motor","img/motor_1.png","65","65","motor","1","131","1","0","0","",""
"null","","162348","HierDyhfwjavnb","m76sg0btrv","msl000823","iti","img/motor_blank.png","null","65","motor","","","","","","",""
"469","","162827","HierDyhfwjavnb","m76sg0btrv","msl000823","motor","img/motor_5.png","72","72","motor","5","132","1","0","0","",""
"null","","162938","HierDyhfwjavnb","m76sg0btrv","msl000823","iti","img/motor_blank.png","null","72","motor","","","","","","",""
"337","","163283","HierDyhfwjavnb","m76sg0btrv","msl000823","motor","img/motor_6.png","74","74","motor","6","133","1","0","0","",""
"null","","163393","HierDyhfwjavnb","m76sg0btrv","msl000823","iti","img/motor_blank.png","null","74","motor","","","","","","",""
"442","","163845","HierDyhfwjavnb","m76sg0btrv","msl000823","motor","img/motor_5.png","72","72","motor","5","134","1","0","0","",""
"null","","163956","HierDyhfwjavnb","m76sg0btrv","msl000823","iti","img/motor_blank.png","null","72","motor","","","","","","",""
"538","","164501","HierDyhfwjavnb","m76sg0btrv","msl000823","motor","img/motor_1.png","65","65","motor","1","135","1","0","0","",""
"null","","164612","HierDyhfwjavnb","m76sg0btrv","msl000823","iti","img/motor_blank.png","null","65","motor","","","","","","",""
"624","","165245","HierDyhfwjavnb","m76sg0btrv","msl000823","motor","img/motor_3.png","83","68","motor","3","136","0","1","0","",""
"194","","165445","HierDyhfwjavnb","m76sg0btrv","msl000823","motorRepeat","img/motor_3.png","68","68","motor","3","136","1","0","0","",""
"null","","165555","HierDyhfwjavnb","m76sg0btrv","msl000823","iti","img/motor_blank.png","null","68","motor","","","","","","",""
"474","","166036","HierDyhfwjavnb","m76sg0btrv","msl000823","motor","img/motor_1.png","65","65","motor","1","137","1","0","0","",""
"null","","166147","HierDyhfwjavnb","m76sg0btrv","msl000823","iti","img/motor_blank.png","null","65","motor","","","","","","",""
"410","","166567","HierDyhfwjavnb","m76sg0btrv","msl000823","motor","img/motor_4.png","70","70","motor","4","138","1","0","0","",""
"null","","166678","HierDyhfwjavnb","m76sg0btrv","msl000823","iti","img/motor_blank.png","null","70","motor","","","","","","",""
"631","","167319","HierDyhfwjavnb","m76sg0btrv","msl000823","motor","img/motor_7.png","75","75","motor","7","139","1","0","0","",""
"null","","167430","HierDyhfwjavnb","m76sg0btrv","msl000823","iti","img/motor_blank.png","null","75","motor","","","","","","",""
"642","","168080","HierDyhfwjavnb","m76sg0btrv","msl000823","motor","img/motor_3.png","68","68","motor","3","140","1","0","0","",""
"null","","168190","HierDyhfwjavnb","m76sg0btrv","msl000823","iti","img/motor_blank.png","null","68","motor","","","","","","",""
"594","","168787","HierDyhfwjavnb","m76sg0btrv","msl000823","motor","img/motor_2.png","83","83","motor","2","141","1","0","0","",""
"null","","168898","HierDyhfwjavnb","m76sg0btrv","msl000823","iti","img/motor_blank.png","null","83","motor","","","","","","",""
"426","","169336","HierDyhfwjavnb","m76sg0btrv","msl000823","motor","img/motor_4.png","70","70","motor","4","142","1","0","0","",""
"null","","169444","HierDyhfwjavnb","m76sg0btrv","msl000823","iti","img/motor_blank.png","null","70","motor","","","","","","",""
"429","","169882","HierDyhfwjavnb","m76sg0btrv","msl000823","motor","img/motor_1.png","65","65","motor","1","143","1","0","0","",""
"null","","169990","HierDyhfwjavnb","m76sg0btrv","msl000823","iti","img/motor_blank.png","null","65","motor","","","","","","",""
"550","","170548","HierDyhfwjavnb","m76sg0btrv","msl000823","motor","img/motor_2.png","83","83","motor","2","144","1","0","0","",""
"null","","170656","HierDyhfwjavnb","m76sg0btrv","msl000823","iti","img/motor_blank.png","null","83","motor","","","","","","",""
"519","","171183","HierDyhfwjavnb","m76sg0btrv","msl000823","motor","img/motor_4.png","70","70","motor","4","145","1","0","0","",""
"null","","171293","HierDyhfwjavnb","m76sg0btrv","msl000823","iti","img/motor_blank.png","null","70","motor","","","","","","",""
"454","","171755","HierDyhfwjavnb","m76sg0btrv","msl000823","motor","img/motor_7.png","75","75","motor","7","146","1","0","0","",""
"null","","171864","HierDyhfwjavnb","m76sg0btrv","msl000823","iti","img/motor_blank.png","null","75","motor","","","","","","",""
"572","","172446","HierDyhfwjavnb","m76sg0btrv","msl000823","motor","img/motor_2.png","83","83","motor","2","147","1","0","0","",""
"null","","172555","HierDyhfwjavnb","m76sg0btrv","msl000823","iti","img/motor_blank.png","null","83","motor","","","","","","",""
"399","","172963","HierDyhfwjavnb","m76sg0btrv","msl000823","motor","img/motor_7.png","75","75","motor","7","148","1","0","0","",""
"null","","173072","HierDyhfwjavnb","m76sg0btrv","msl000823","iti","img/motor_blank.png","null","75","motor","","","","","","",""
"344","","173425","HierDyhfwjavnb","m76sg0btrv","msl000823","motor","img/motor_2.png","83","83","motor","2","149","1","0","0","",""
"null","","173534","HierDyhfwjavnb","m76sg0btrv","msl000823","iti","img/motor_blank.png","null","83","motor","","","","","","",""
"328","","173872","HierDyhfwjavnb","m76sg0btrv","msl000823","motor","img/motor_8.png","75","76","motor","8","150","0","1","0","",""
"434","","174315","HierDyhfwjavnb","m76sg0btrv","msl000823","motorRepeat","img/motor_8.png","76","76","motor","8","150","1","0","0","",""
"null","","174426","HierDyhfwjavnb","m76sg0btrv","msl000823","iti","img/motor_blank.png","null","76","motor","","","","","","",""
"657","","175092","HierDyhfwjavnb","m76sg0btrv","msl000823","motor","img/motor_3.png","70","68","motor","3","151","0","1","0","",""
"127","","175228","HierDyhfwjavnb","m76sg0btrv","msl000823","motorRepeat","img/motor_3.png","68","68","motor","3","151","1","0","0","",""
"null","","175337","HierDyhfwjavnb","m76sg0btrv","msl000823","iti","img/motor_blank.png","null","68","motor","","","","","","",""
"489","","175834","HierDyhfwjavnb","m76sg0btrv","msl000823","motor","img/motor_8.png","76","76","motor","8","152","1","0","0","",""
"null","","175945","HierDyhfwjavnb","m76sg0btrv","msl000823","iti","img/motor_blank.png","null","76","motor","","","","","","",""
"478","","176433","HierDyhfwjavnb","m76sg0btrv","msl000823","motor","img/motor_3.png","68","68","motor","3","153","1","0","0","",""
"null","","176543","HierDyhfwjavnb","m76sg0btrv","msl000823","iti","img/motor_blank.png","null","68","motor","","","","","","",""
"486","","177037","HierDyhfwjavnb","m76sg0btrv","msl000823","motor","img/motor_1.png","65","65","motor","1","154","1","0","0","",""
"null","","177148","HierDyhfwjavnb","m76sg0btrv","msl000823","iti","img/motor_blank.png","null","65","motor","","","","","","",""
"680","","177836","HierDyhfwjavnb","m76sg0btrv","msl000823","motor","img/motor_6.png","74","74","motor","6","155","1","0","0","",""
"null","","177947","HierDyhfwjavnb","m76sg0btrv","msl000823","iti","img/motor_blank.png","null","74","motor","","","","","","",""
"499","","178455","HierDyhfwjavnb","m76sg0btrv","msl000823","motor","img/motor_2.png","68","83","motor","2","156","0","1","0","",""
"413","","178875","HierDyhfwjavnb","m76sg0btrv","msl000823","motorRepeat","img/motor_2.png","83","83","motor","2","156","1","0","0","",""
"null","","178983","HierDyhfwjavnb","m76sg0btrv","msl000823","iti","img/motor_blank.png","null","83","motor","","","","","","",""
"579","","179573","HierDyhfwjavnb","m76sg0btrv","msl000823","motor","img/motor_3.png","68","68","motor","3","157","1","0","0","",""
"null","","179682","HierDyhfwjavnb","m76sg0btrv","msl000823","iti","img/motor_blank.png","null","68","motor","","","","","","",""
"548","","180239","HierDyhfwjavnb","m76sg0btrv","msl000823","motor","img/motor_5.png","72","72","motor","5","158","1","0","0","",""
"null","","180349","HierDyhfwjavnb","m76sg0btrv","msl000823","iti","img/motor_blank.png","null","72","motor","","","","","","",""
"516","","180874","HierDyhfwjavnb","m76sg0btrv","msl000823","motor","img/motor_1.png","65","65","motor","1","159","1","0","0","",""
"null","","180983","HierDyhfwjavnb","m76sg0btrv","msl000823","iti","img/motor_blank.png","null","65","motor","","","","","","",""
"644","","181635","HierDyhfwjavnb","m76sg0btrv","msl000823","motor","img/motor_4.png","70","70","motor","4","160","1","0","0","",""
"null","","181744","HierDyhfwjavnb","m76sg0btrv","msl000823","iti","img/motor_blank.png","null","70","motor","","","","","","",""
"428","","182181","HierDyhfwjavnb","m76sg0btrv","msl000823","motor","img/motor_5.png","72","72","motor","5","161","1","0","0","",""
"null","","182289","HierDyhfwjavnb","m76sg0btrv","msl000823","iti","img/motor_blank.png","null","72","motor","","","","","","",""
"691","","182987","HierDyhfwjavnb","m76sg0btrv","msl000823","motor","img/motor_2.png","83","83","motor","2","162","1","0","0","",""
"null","","183095","HierDyhfwjavnb","m76sg0btrv","msl000823","iti","img/motor_blank.png","null","83","motor","","","","","","",""
"508","","183610","HierDyhfwjavnb","m76sg0btrv","msl000823","motor","img/motor_5.png","72","72","motor","5","163","1","0","0","",""
"null","","183718","HierDyhfwjavnb","m76sg0btrv","msl000823","iti","img/motor_blank.png","null","72","motor","","","","","","",""
"396","","184121","HierDyhfwjavnb","m76sg0btrv","msl000823","motor","img/motor_1.png","83","65","motor","1","164","0","1","0","",""
"310","","184437","HierDyhfwjavnb","m76sg0btrv","msl000823","motorRepeat","img/motor_1.png","65","65","motor","1","164","1","0","0","",""
"null","","184545","HierDyhfwjavnb","m76sg0btrv","msl000823","iti","img/motor_blank.png","null","65","motor","","","","","","",""
"437","","184991","HierDyhfwjavnb","m76sg0btrv","msl000823","motor","img/motor_6.png","74","74","motor","6","165","1","0","0","",""
"null","","185101","HierDyhfwjavnb","m76sg0btrv","msl000823","iti","img/motor_blank.png","null","74","motor","","","","","","",""
"801","","185913","HierDyhfwjavnb","m76sg0btrv","msl000823","motor","img/motor_4.png","70","70","motor","4","166","1","0","0","",""
"null","","186024","HierDyhfwjavnb","m76sg0btrv","msl000823","iti","img/motor_blank.png","null","70","motor","","","","","","",""
"319","","186354","HierDyhfwjavnb","m76sg0btrv","msl000823","motor","img/motor_4.png","70","70","motor","4","167","1","0","0","",""
"null","","186465","HierDyhfwjavnb","m76sg0btrv","msl000823","iti","img/motor_blank.png","null","70","motor","","","","","","",""
"475","","186949","HierDyhfwjavnb","m76sg0btrv","msl000823","motor","img/motor_5.png","74","72","motor","5","168","0","1","0","",""
"307","","187266","HierDyhfwjavnb","m76sg0btrv","msl000823","motorRepeat","img/motor_5.png","72","72","motor","5","168","1","0","0","",""
"null","","187376","HierDyhfwjavnb","m76sg0btrv","msl000823","iti","img/motor_blank.png","null","72","motor","","","","","","",""
"404","","187789","HierDyhfwjavnb","m76sg0btrv","msl000823","motor","img/motor_1.png","65","65","motor","1","169","1","0","0","",""
"null","","187900","HierDyhfwjavnb","m76sg0btrv","msl000823","iti","img/motor_blank.png","null","65","motor","","","","","","",""
"361","","188271","HierDyhfwjavnb","m76sg0btrv","msl000823","motor","img/motor_5.png","72","72","motor","5","170","1","0","0","",""
"null","","188382","HierDyhfwjavnb","m76sg0btrv","msl000823","iti","img/motor_blank.png","null","72","motor","","","","","","",""
"636","","189026","HierDyhfwjavnb","m76sg0btrv","msl000823","motor","img/motor_4.png","70","70","motor","4","171","1","0","0","",""
"null","","189137","HierDyhfwjavnb","m76sg0btrv","msl000823","iti","img/motor_blank.png","null","70","motor","","","","","","",""
"562","","189707","HierDyhfwjavnb","m76sg0btrv","msl000823","motor","img/motor_6.png","74","74","motor","6","172","1","0","0","",""
"null","","189818","HierDyhfwjavnb","m76sg0btrv","msl000823","iti","img/motor_blank.png","null","74","motor","","","","","","",""
"580","","190409","HierDyhfwjavnb","m76sg0btrv","msl000823","motor","img/motor_7.png","75","75","motor","7","173","1","0","0","",""
"null","","190518","HierDyhfwjavnb","m76sg0btrv","msl000823","iti","img/motor_blank.png","null","75","motor","","","","","","",""
"594","","191122","HierDyhfwjavnb","m76sg0btrv","msl000823","motor","img/motor_1.png","65","65","motor","1","174","1","0","0","",""
"null","","191233","HierDyhfwjavnb","m76sg0btrv","msl000823","iti","img/motor_blank.png","null","65","motor","","","","","","",""
"545","","191785","HierDyhfwjavnb","m76sg0btrv","msl000823","motor","img/motor_6.png","74","74","motor","6","175","1","0","0","",""
"null","","191896","HierDyhfwjavnb","m76sg0btrv","msl000823","iti","img/motor_blank.png","null","74","motor","","","","","","",""
"836","","192743","HierDyhfwjavnb","m76sg0btrv","msl000823","motor","img/motor_4.png","70","70","motor","4","176","1","0","0","",""
"null","","192853","HierDyhfwjavnb","m76sg0btrv","msl000823","iti","img/motor_blank.png","null","70","motor","","","","","","",""
"492","","193354","HierDyhfwjavnb","m76sg0btrv","msl000823","motor","img/motor_8.png","76","76","motor","8","177","1","0","0","",""
"null","","193466","HierDyhfwjavnb","m76sg0btrv","msl000823","iti","img/motor_blank.png","null","76","motor","","","","","","",""
"516","","193991","HierDyhfwjavnb","m76sg0btrv","msl000823","motor","img/motor_4.png","70","70","motor","4","178","1","0","0","",""
"null","","194099","HierDyhfwjavnb","m76sg0btrv","msl000823","iti","img/motor_blank.png","null","70","motor","","","","","","",""
"500","","194608","HierDyhfwjavnb","m76sg0btrv","msl000823","motor","img/motor_2.png","83","83","motor","2","179","1","0","0","",""
"null","","194719","HierDyhfwjavnb","m76sg0btrv","msl000823","iti","img/motor_blank.png","null","83","motor","","","","","","",""
"542","","195271","HierDyhfwjavnb","m76sg0btrv","msl000823","motor","img/motor_7.png","75","75","motor","7","180","1","0","0","",""
"null","","195381","HierDyhfwjavnb","m76sg0btrv","msl000823","iti","img/motor_blank.png","null","75","motor","","","","","","",""
"457","","195847","HierDyhfwjavnb","m76sg0btrv","msl000823","motor","img/motor_3.png","83","68","motor","3","181","0","1","0","",""
"302","","196158","HierDyhfwjavnb","m76sg0btrv","msl000823","motorRepeat","img/motor_3.png","68","68","motor","3","181","1","0","0","",""
"null","","196267","HierDyhfwjavnb","m76sg0btrv","msl000823","iti","img/motor_blank.png","null","68","motor","","","","","","",""
"415","","196691","HierDyhfwjavnb","m76sg0btrv","msl000823","motor","img/motor_7.png","75","75","motor","7","182","1","0","0","",""
"null","","196799","HierDyhfwjavnb","m76sg0btrv","msl000823","iti","img/motor_blank.png","null","75","motor","","","","","","",""
"530","","197338","HierDyhfwjavnb","m76sg0btrv","msl000823","motor","img/motor_1.png","65","65","motor","1","183","1","0","0","",""
"null","","197448","HierDyhfwjavnb","m76sg0btrv","msl000823","iti","img/motor_blank.png","null","65","motor","","","","","","",""
"373","","197831","HierDyhfwjavnb","m76sg0btrv","msl000823","motor","img/motor_8.png","76","76","motor","8","184","1","0","0","",""
"null","","197943","HierDyhfwjavnb","m76sg0btrv","msl000823","iti","img/motor_blank.png","null","76","motor","","","","","","",""
"579","","198531","HierDyhfwjavnb","m76sg0btrv","msl000823","motor","img/motor_6.png","75","74","motor","6","185","0","1","0","",""
"189","","198727","HierDyhfwjavnb","m76sg0btrv","msl000823","motorRepeat","img/motor_6.png","72","74","motor","6","185","0","1","0","",""
"403","","199140","HierDyhfwjavnb","m76sg0btrv","msl000823","motorRepeat","img/motor_6.png","74","74","motor","6","185","1","0","0","",""
"null","","199250","HierDyhfwjavnb","m76sg0btrv","msl000823","iti","img/motor_blank.png","null","74","motor","","","","","","",""
"600","","199862","HierDyhfwjavnb","m76sg0btrv","msl000823","motor","img/motor_4.png","70","70","motor","4","186","1","0","0","",""
"null","","199974","HierDyhfwjavnb","m76sg0btrv","msl000823","iti","img/motor_blank.png","null","70","motor","","","","","","",""
"595","","200581","HierDyhfwjavnb","m76sg0btrv","msl000823","motor","img/motor_8.png","76","76","motor","8","187","1","0","0","",""
"null","","200692","HierDyhfwjavnb","m76sg0btrv","msl000823","iti","img/motor_blank.png","null","76","motor","","","","","","",""
"441","","201143","HierDyhfwjavnb","m76sg0btrv","msl000823","motor","img/motor_2.png","65","83","motor","2","188","0","1","0","",""
"306","","201459","HierDyhfwjavnb","m76sg0btrv","msl000823","motorRepeat","img/motor_2.png","83","83","motor","2","188","1","0","0","",""
"null","","201570","HierDyhfwjavnb","m76sg0btrv","msl000823","iti","img/motor_blank.png","null","83","motor","","","","","","",""
"482","","202063","HierDyhfwjavnb","m76sg0btrv","msl000823","motor","img/motor_1.png","65","65","motor","1","189","1","0","0","",""
"null","","202174","HierDyhfwjavnb","m76sg0btrv","msl000823","iti","img/motor_blank.png","null","65","motor","","","","","","",""
"541","","202724","HierDyhfwjavnb","m76sg0btrv","msl000823","motor","img/motor_8.png","76","76","motor","8","190","1","0","0","",""
"null","","202836","HierDyhfwjavnb","m76sg0btrv","msl000823","iti","img/motor_blank.png","null","76","motor","","","","","","",""
"391","","203234","HierDyhfwjavnb","m76sg0btrv","msl000823","motor","img/motor_5.png","72","72","motor","5","191","1","0","0","",""
"null","","203345","HierDyhfwjavnb","m76sg0btrv","msl000823","iti","img/motor_blank.png","null","72","motor","","","","","","",""
"614","","203969","HierDyhfwjavnb","m76sg0btrv","msl000823","motor","img/motor_6.png","74","74","motor","6","192","1","0","0","",""
"null","","204081","HierDyhfwjavnb","m76sg0btrv","msl000823","iti","img/motor_blank.png","null","74","motor","","","","","","",""
"649","","204741","HierDyhfwjavnb","m76sg0btrv","msl000823","motor","img/motor_3.png","68","68","motor","3","193","1","0","0","",""
"null","","204852","HierDyhfwjavnb","m76sg0btrv","msl000823","iti","img/motor_blank.png","null","68","motor","","","","","","",""
"919","","205779","HierDyhfwjavnb","m76sg0btrv","msl000823","motor","img/motor_1.png","65","65","motor","1","194","1","0","0","",""
"null","","205892","HierDyhfwjavnb","m76sg0btrv","msl000823","iti","img/motor_blank.png","null","65","motor","","","","","","",""
"439","","206342","HierDyhfwjavnb","m76sg0btrv","msl000823","motor","img/motor_7.png","75","75","motor","7","195","1","0","0","",""
"null","","206452","HierDyhfwjavnb","m76sg0btrv","msl000823","iti","img/motor_blank.png","null","75","motor","","","","","","",""
"509","","206971","HierDyhfwjavnb","m76sg0btrv","msl000823","motor","img/motor_4.png","70","70","motor","4","196","1","0","0","",""
"null","","207082","HierDyhfwjavnb","m76sg0btrv","msl000823","iti","img/motor_blank.png","null","70","motor","","","","","","",""
"732","","207823","HierDyhfwjavnb","m76sg0btrv","msl000823","motor","img/motor_2.png","83","83","motor","2","197","1","0","0","",""
"null","","207934","HierDyhfwjavnb","m76sg0btrv","msl000823","iti","img/motor_blank.png","null","83","motor","","","","","","",""
"501","","208446","HierDyhfwjavnb","m76sg0btrv","msl000823","motor","img/motor_4.png","70","70","motor","4","198","1","0","0","",""
"null","","208557","HierDyhfwjavnb","m76sg0btrv","msl000823","iti","img/motor_blank.png","null","70","motor","","","","","","",""
"365","","208932","HierDyhfwjavnb","m76sg0btrv","msl000823","motor","img/motor_4.png","70","70","motor","4","199","1","0","0","",""
"null","","209041","HierDyhfwjavnb","m76sg0btrv","msl000823","iti","img/motor_blank.png","null","70","motor","","","","","","",""
"393","","209443","HierDyhfwjavnb","m76sg0btrv","msl000823","motor","img/motor_1.png","65","65","motor","1","200","1","0","0","",""
"null","","209553","HierDyhfwjavnb","m76sg0btrv","msl000823","iti","img/motor_blank.png","null","65","motor","","","","","","",""
"518","","210082","HierDyhfwjavnb","m76sg0btrv","msl000823","motor","img/motor_2.png","83","83","motor","2","201","1","0","0","",""
"null","","210192","HierDyhfwjavnb","m76sg0btrv","msl000823","iti","img/motor_blank.png","null","83","motor","","","","","","",""
"524","","210725","HierDyhfwjavnb","m76sg0btrv","msl000823","motor","img/motor_8.png","76","76","motor","8","202","1","0","0","",""
"null","","210836","HierDyhfwjavnb","m76sg0btrv","msl000823","iti","img/motor_blank.png","null","76","motor","","","","","","",""
"496","","211341","HierDyhfwjavnb","m76sg0btrv","msl000823","motor","img/motor_7.png","75","75","motor","7","203","1","0","0","",""
"null","","211450","HierDyhfwjavnb","m76sg0btrv","msl000823","iti","img/motor_blank.png","null","75","motor","","","","","","",""
"494","","211953","HierDyhfwjavnb","m76sg0btrv","msl000823","motor","img/motor_5.png","72","72","motor","5","204","1","0","0","",""
"null","","212064","HierDyhfwjavnb","m76sg0btrv","msl000823","iti","img/motor_blank.png","null","72","motor","","","","","","",""
"497","","212571","HierDyhfwjavnb","m76sg0btrv","msl000823","motor","img/motor_8.png","76","76","motor","8","205","1","0","0","",""
"null","","212681","HierDyhfwjavnb","m76sg0btrv","msl000823","iti","img/motor_blank.png","null","76","motor","","","","","","",""
"613","","213302","HierDyhfwjavnb","m76sg0btrv","msl000823","motor","img/motor_1.png","65","65","motor","1","206","1","0","0","",""
"null","","213413","HierDyhfwjavnb","m76sg0btrv","msl000823","iti","img/motor_blank.png","null","65","motor","","","","","","",""
"525","","213947","HierDyhfwjavnb","m76sg0btrv","msl000823","motor","img/motor_8.png","76","76","motor","8","207","1","0","0","",""
"null","","214057","HierDyhfwjavnb","m76sg0btrv","msl000823","iti","img/motor_blank.png","null","76","motor","","","","","","",""
"366","","214432","HierDyhfwjavnb","m76sg0btrv","msl000823","motor","img/motor_1.png","65","65","motor","1","208","1","0","0","",""
"null","","214541","HierDyhfwjavnb","m76sg0btrv","msl000823","iti","img/motor_blank.png","null","65","motor","","","","","","",""
"379","","214930","HierDyhfwjavnb","m76sg0btrv","msl000823","motor","img/motor_8.png","76","76","motor","8","209","1","0","0","",""
"null","","215039","HierDyhfwjavnb","m76sg0btrv","msl000823","iti","img/motor_blank.png","null","76","motor","","","","","","",""
"659","","215706","HierDyhfwjavnb","m76sg0btrv","msl000823","motor","img/motor_7.png","75","75","motor","7","210","1","0","0","",""
"null","","215817","HierDyhfwjavnb","m76sg0btrv","msl000823","iti","img/motor_blank.png","null","75","motor","","","","","","",""
"689","","216515","HierDyhfwjavnb","m76sg0btrv","msl000823","motor","img/motor_4.png","70","70","motor","4","211","1","0","0","",""
"null","","216623","HierDyhfwjavnb","m76sg0btrv","msl000823","iti","img/motor_blank.png","null","70","motor","","","","","","",""
"570","","217202","HierDyhfwjavnb","m76sg0btrv","msl000823","motor","img/motor_8.png","76","76","motor","8","212","1","0","0","",""
"null","","217313","HierDyhfwjavnb","m76sg0btrv","msl000823","iti","img/motor_blank.png","null","76","motor","","","","","","",""
"513","","217836","HierDyhfwjavnb","m76sg0btrv","msl000823","motor","img/motor_1.png","65","65","motor","1","213","1","0","0","",""
"null","","217948","HierDyhfwjavnb","m76sg0btrv","msl000823","iti","img/motor_blank.png","null","65","motor","","","","","","",""
"456","","218413","HierDyhfwjavnb","m76sg0btrv","msl000823","motor","img/motor_7.png","75","75","motor","7","214","1","0","0","",""
"null","","218523","HierDyhfwjavnb","m76sg0btrv","msl000823","iti","img/motor_blank.png","null","75","motor","","","","","","",""
"559","","219090","HierDyhfwjavnb","m76sg0btrv","msl000823","motor","img/motor_3.png","83","68","motor","3","215","0","1","0","",""
"218","","219316","HierDyhfwjavnb","m76sg0btrv","msl000823","motorRepeat","img/motor_3.png","68","68","motor","3","215","1","0","0","",""
"null","","219427","HierDyhfwjavnb","m76sg0btrv","msl000823","iti","img/motor_blank.png","null","68","motor","","","","","","",""
"517","","219953","HierDyhfwjavnb","m76sg0btrv","msl000823","motor","img/motor_7.png","75","75","motor","7","216","1","0","0","",""
"null","","220063","HierDyhfwjavnb","m76sg0btrv","msl000823","iti","img/motor_blank.png","null","75","motor","","","","","","",""
"824","","220897","HierDyhfwjavnb","m76sg0btrv","msl000823","motor","img/motor_2.png","83","83","motor","2","217","1","0","0","",""
"null","","221006","HierDyhfwjavnb","m76sg0btrv","msl000823","iti","img/motor_blank.png","null","83","motor","","","","","","",""
"640","","221653","HierDyhfwjavnb","m76sg0btrv","msl000823","motor","img/motor_6.png","74","74","motor","6","218","1","0","0","",""
"null","","221763","HierDyhfwjavnb","m76sg0btrv","msl000823","iti","img/motor_blank.png","null","74","motor","","","","","","",""
"580","","222352","HierDyhfwjavnb","m76sg0btrv","msl000823","motor","img/motor_1.png","65","65","motor","1","219","1","0","0","",""
"null","","222463","HierDyhfwjavnb","m76sg0btrv","msl000823","iti","img/motor_blank.png","null","65","motor","","","","","","",""
"596","","223070","HierDyhfwjavnb","m76sg0btrv","msl000823","motor","img/motor_2.png","83","83","motor","2","220","1","0","0","",""
"null","","223181","HierDyhfwjavnb","m76sg0btrv","msl000823","iti","img/motor_blank.png","null","83","motor","","","","","","",""
"448","","223638","HierDyhfwjavnb","m76sg0btrv","msl000823","motor","img/motor_8.png","76","76","motor","8","221","1","0","0","",""
"null","","223749","HierDyhfwjavnb","m76sg0btrv","msl000823","iti","img/motor_blank.png","null","76","motor","","","","","","",""
"326","","224083","HierDyhfwjavnb","m76sg0btrv","msl000823","motor","img/motor_8.png","76","76","motor","8","222","1","0","0","",""
"null","","224195","HierDyhfwjavnb","m76sg0btrv","msl000823","iti","img/motor_blank.png","null","76","motor","","","","","","",""
"370","","224574","HierDyhfwjavnb","m76sg0btrv","msl000823","motor","img/motor_1.png","65","65","motor","1","223","1","0","0","",""
"null","","224684","HierDyhfwjavnb","m76sg0btrv","msl000823","iti","img/motor_blank.png","null","65","motor","","","","","","",""
"701","","225394","HierDyhfwjavnb","m76sg0btrv","msl000823","motor","img/motor_6.png","74","74","motor","6","224","1","0","0","",""
"null","","225504","HierDyhfwjavnb","m76sg0btrv","msl000823","iti","img/motor_blank.png","null","74","motor","","","","","","",""
"517","","226029","HierDyhfwjavnb","m76sg0btrv","msl000823","motor","img/motor_2.png","68","83","motor","2","225","0","1","0","",""
"308","","226347","HierDyhfwjavnb","m76sg0btrv","msl000823","motorRepeat","img/motor_2.png","83","83","motor","2","225","1","0","0","",""
"null","","226458","HierDyhfwjavnb","m76sg0btrv","msl000823","iti","img/motor_blank.png","null","83","motor","","","","","","",""
"498","","226965","HierDyhfwjavnb","m76sg0btrv","msl000823","motor","img/motor_1.png","65","65","motor","1","226","1","0","0","",""
"null","","227076","HierDyhfwjavnb","m76sg0btrv","msl000823","iti","img/motor_blank.png","null","65","motor","","","","","","",""
"497","","227584","HierDyhfwjavnb","m76sg0btrv","msl000823","motor","img/motor_8.png","76","76","motor","8","227","1","0","0","",""
"null","","227693","HierDyhfwjavnb","m76sg0btrv","msl000823","iti","img/motor_blank.png","null","76","motor","","","","","","",""
"816","","228518","HierDyhfwjavnb","m76sg0btrv","msl000823","motor","img/motor_4.png","70","70","motor","4","228","1","0","0","",""
"null","","228629","HierDyhfwjavnb","m76sg0btrv","msl000823","iti","img/motor_blank.png","null","70","motor","","","","","","",""
"691","","229328","HierDyhfwjavnb","m76sg0btrv","msl000823","motor","img/motor_8.png","76","76","motor","8","229","1","0","0","",""
"null","","229439","HierDyhfwjavnb","m76sg0btrv","msl000823","iti","img/motor_blank.png","null","76","motor","","","","","","",""
"860","","230309","HierDyhfwjavnb","m76sg0btrv","msl000823","motor","img/motor_6.png","74","74","motor","6","230","1","0","0","",""
"null","","230420","HierDyhfwjavnb","m76sg0btrv","msl000823","iti","img/motor_blank.png","null","74","motor","","","","","","",""
"439","","230869","HierDyhfwjavnb","m76sg0btrv","msl000823","motor","img/motor_8.png","76","76","motor","8","231","1","0","0","",""
"null","","230980","HierDyhfwjavnb","m76sg0btrv","msl000823","iti","img/motor_blank.png","null","76","motor","","","","","","",""
"568","","231558","HierDyhfwjavnb","m76sg0btrv","msl000823","motor","img/motor_4.png","70","70","motor","4","232","1","0","0","",""
"null","","231668","HierDyhfwjavnb","m76sg0btrv","msl000823","iti","img/motor_blank.png","null","70","motor","","","","","","",""
"581","","232258","HierDyhfwjavnb","m76sg0btrv","msl000823","motor","img/motor_5.png","72","72","motor","5","233","1","0","0","",""
"null","","232368","HierDyhfwjavnb","m76sg0btrv","msl000823","iti","img/motor_blank.png","null","72","motor","","","","","","",""
"533","","232911","HierDyhfwjavnb","m76sg0btrv","msl000823","motor","img/motor_4.png","70","70","motor","4","234","1","0","0","",""
"null","","233022","HierDyhfwjavnb","m76sg0btrv","msl000823","iti","img/motor_blank.png","null","70","motor","","","","","","",""
"482","","233513","HierDyhfwjavnb","m76sg0btrv","msl000823","motor","img/motor_5.png","72","72","motor","5","235","1","0","0","",""
"null","","233625","HierDyhfwjavnb","m76sg0btrv","msl000823","iti","img/motor_blank.png","null","72","motor","","","","","","",""
"586","","234221","HierDyhfwjavnb","m76sg0btrv","msl000823","motor","img/motor_2.png","83","83","motor","2","236","1","0","0","",""
"null","","234331","HierDyhfwjavnb","m76sg0btrv","msl000823","iti","img/motor_blank.png","null","83","motor","","","","","","",""
"683","","235024","HierDyhfwjavnb","m76sg0btrv","msl000823","motor","img/motor_3.png","68","68","motor","3","237","1","0","0","",""
"null","","235134","HierDyhfwjavnb","m76sg0btrv","msl000823","iti","img/motor_blank.png","null","68","motor","","","","","","",""
"537","","235681","HierDyhfwjavnb","m76sg0btrv","msl000823","motor","img/motor_2.png","83","83","motor","2","238","1","0","0","",""
"null","","235791","HierDyhfwjavnb","m76sg0btrv","msl000823","iti","img/motor_blank.png","null","83","motor","","","","","","",""
"477","","236278","HierDyhfwjavnb","m76sg0btrv","msl000823","motor","img/motor_8.png","76","76","motor","8","239","1","0","0","",""
"null","","236389","HierDyhfwjavnb","m76sg0btrv","msl000823","iti","img/motor_blank.png","null","76","motor","","","","","","",""
"633","","237031","HierDyhfwjavnb","m76sg0btrv","msl000823","motor","img/motor_6.png","74","74","motor","6","240","1","0","0","",""
"null","","237142","HierDyhfwjavnb","m76sg0btrv","msl000823","iti","img/motor_blank.png","null","74","motor","","","","","","",""
"452","","237604","HierDyhfwjavnb","m76sg0btrv","msl000823","motor","img/motor_5.png","72","72","motor","5","241","1","0","0","",""
"null","","237714","HierDyhfwjavnb","m76sg0btrv","msl000823","iti","img/motor_blank.png","null","72","motor","","","","","","",""
"333","","238057","HierDyhfwjavnb","m76sg0btrv","msl000823","motor","img/motor_5.png","72","72","motor","5","242","1","0","0","",""
"null","","238165","HierDyhfwjavnb","m76sg0btrv","msl000823","iti","img/motor_blank.png","null","72","motor","","","","","","",""
"390","","238564","HierDyhfwjavnb","m76sg0btrv","msl000823","motor","img/motor_6.png","74","74","motor","6","243","1","0","0","",""
"null","","238675","HierDyhfwjavnb","m76sg0btrv","msl000823","iti","img/motor_blank.png","null","74","motor","","","","","","",""
"436","","239120","HierDyhfwjavnb","m76sg0btrv","msl000823","motor","img/motor_7.png","75","75","motor","7","244","1","0","0","",""
"null","","239229","HierDyhfwjavnb","m76sg0btrv","msl000823","iti","img/motor_blank.png","null","75","motor","","","","","","",""
"461","","239698","HierDyhfwjavnb","m76sg0btrv","msl000823","motor","img/motor_5.png","72","72","motor","5","245","1","0","0","",""
"null","","239808","HierDyhfwjavnb","m76sg0btrv","msl000823","iti","img/motor_blank.png","null","72","motor","","","","","","",""
"537","","240354","HierDyhfwjavnb","m76sg0btrv","msl000823","motor","img/motor_1.png","65","65","motor","1","246","1","0","0","",""
"null","","240465","HierDyhfwjavnb","m76sg0btrv","msl000823","iti","img/motor_blank.png","null","65","motor","","","","","","",""
"517","","240992","HierDyhfwjavnb","m76sg0btrv","msl000823","motor","img/motor_7.png","75","75","motor","7","247","1","0","0","",""
"null","","241102","HierDyhfwjavnb","m76sg0btrv","msl000823","iti","img/motor_blank.png","null","75","motor","","","","","","",""
"472","","241586","HierDyhfwjavnb","m76sg0btrv","msl000823","motor","img/motor_8.png","76","76","motor","8","248","1","0","0","",""
"null","","241697","HierDyhfwjavnb","m76sg0btrv","msl000823","iti","img/motor_blank.png","null","76","motor","","","","","","",""
"361","","242068","HierDyhfwjavnb","m76sg0btrv","msl000823","motor","img/motor_8.png","76","76","motor","8","249","1","0","0","",""
"null","","242178","HierDyhfwjavnb","m76sg0btrv","msl000823","iti","img/motor_blank.png","null","76","motor","","","","","","",""
"432","","242619","HierDyhfwjavnb","m76sg0btrv","msl000823","motor","img/motor_5.png","72","72","motor","5","250","1","0","0","",""
"null","","242730","HierDyhfwjavnb","m76sg0btrv","msl000823","iti","img/motor_blank.png","null","72","motor","","","","","","",""
"592","","243332","HierDyhfwjavnb","m76sg0btrv","msl000823","motor","img/motor_3.png","68","68","motor","3","251","1","0","0","",""
"null","","243441","HierDyhfwjavnb","m76sg0btrv","msl000823","iti","img/motor_blank.png","null","68","motor","","","","","","",""
"547","","243997","HierDyhfwjavnb","m76sg0btrv","msl000823","motor","img/motor_5.png","72","72","motor","5","252","1","0","0","",""
"null","","244107","HierDyhfwjavnb","m76sg0btrv","msl000823","iti","img/motor_blank.png","null","72","motor","","","","","","",""
"564","","244679","HierDyhfwjavnb","m76sg0btrv","msl000823","motor","img/motor_3.png","68","68","motor","3","253","1","0","0","",""
"null","","244786","HierDyhfwjavnb","m76sg0btrv","msl000823","iti","img/motor_blank.png","null","68","motor","","","","","","",""
"441","","245238","HierDyhfwjavnb","m76sg0btrv","msl000823","motor","img/motor_8.png","76","76","motor","8","254","1","0","0","",""
"null","","245346","HierDyhfwjavnb","m76sg0btrv","msl000823","iti","img/motor_blank.png","null","76","motor","","","","","","",""
"338","","245691","HierDyhfwjavnb","m76sg0btrv","msl000823","motor","img/motor_7.png","76","75","motor","7","255","0","1","0","",""
"339","","246039","HierDyhfwjavnb","m76sg0btrv","msl000823","motorRepeat","img/motor_7.png","75","75","motor","7","255","1","0","0","",""
"null","","246149","HierDyhfwjavnb","m76sg0btrv","msl000823","iti","img/motor_blank.png","null","75","motor","","","","","","",""
"588","","246747","HierDyhfwjavnb","m76sg0btrv","msl000823","motor","img/motor_5.png","72","72","motor","5","256","1","0","0","",""
"null","","246854","HierDyhfwjavnb","m76sg0btrv","msl000823","iti","img/motor_blank.png","null","72","motor","","","","","","",""
"454","","247319","HierDyhfwjavnb","m76sg0btrv","msl000823","motor","img/motor_3.png","68","68","motor","3","257","1","0","0","",""
"null","","247429","HierDyhfwjavnb","m76sg0btrv","msl000823","iti","img/motor_blank.png","null","68","motor","","","","","","",""
"349","","247786","HierDyhfwjavnb","m76sg0btrv","msl000823","motor","img/motor_2.png","83","83","motor","2","258","1","0","0","",""
"null","","247897","HierDyhfwjavnb","m76sg0btrv","msl000823","iti","img/motor_blank.png","null","83","motor","","","","","","",""
"614","","248519","HierDyhfwjavnb","m76sg0btrv","msl000823","motor","img/motor_6.png","74","74","motor","6","259","1","0","0","",""
"null","","248631","HierDyhfwjavnb","m76sg0btrv","msl000823","iti","img/motor_blank.png","null","74","motor","","","","","","",""
"612","","249253","HierDyhfwjavnb","m76sg0btrv","msl000823","motor","img/motor_4.png","70","70","motor","4","260","1","0","0","",""
"null","","249363","HierDyhfwjavnb","m76sg0btrv","msl000823","iti","img/motor_blank.png","null","70","motor","","","","","","",""
"556","","249929","HierDyhfwjavnb","m76sg0btrv","msl000823","motor","img/motor_7.png","75","75","motor","7","261","1","0","0","",""
"null","","250039","HierDyhfwjavnb","m76sg0btrv","msl000823","iti","img/motor_blank.png","null","75","motor","","","","","","",""
"322","","250370","HierDyhfwjavnb","m76sg0btrv","msl000823","motor","img/motor_7.png","75","75","motor","7","262","1","0","0","",""
"null","","250482","HierDyhfwjavnb","m76sg0btrv","msl000823","iti","img/motor_blank.png","null","75","motor","","","","","","",""
"393","","250884","HierDyhfwjavnb","m76sg0btrv","msl000823","motor","img/motor_6.png","72","74","motor","6","263","0","1","0","",""
"346","","251237","HierDyhfwjavnb","m76sg0btrv","msl000823","motorRepeat","img/motor_6.png","74","74","motor","6","263","1","0","0","",""
"null","","251348","HierDyhfwjavnb","m76sg0btrv","msl000823","iti","img/motor_blank.png","null","74","motor","","","","","","",""
"425","","251782","HierDyhfwjavnb","m76sg0btrv","msl000823","motor","img/motor_8.png","76","76","motor","8","264","1","0","0","",""
"null","","251893","HierDyhfwjavnb","m76sg0btrv","msl000823","iti","img/motor_blank.png","null","76","motor","","","","","","",""
"355","","252258","HierDyhfwjavnb","m76sg0btrv","msl000823","motor","img/motor_8.png","76","76","motor","8","265","1","0","0","",""
"null","","252369","HierDyhfwjavnb","m76sg0btrv","msl000823","iti","img/motor_blank.png","null","76","motor","","","","","","",""
"631","","253011","HierDyhfwjavnb","m76sg0btrv","msl000823","motor","img/motor_6.png","74","74","motor","6","266","1","0","0","",""
"null","","253121","HierDyhfwjavnb","m76sg0btrv","msl000823","iti","img/motor_blank.png","null","74","motor","","","","","","",""
"537","","253667","HierDyhfwjavnb","m76sg0btrv","msl000823","motor","img/motor_1.png","65","65","motor","1","267","1","0","0","",""
"null","","253779","HierDyhfwjavnb","m76sg0btrv","msl000823","iti","img/motor_blank.png","null","65","motor","","","","","","",""
"619","","254406","HierDyhfwjavnb","m76sg0btrv","msl000823","motor","img/motor_2.png","83","83","motor","2","268","1","0","0","",""
"null","","254516","HierDyhfwjavnb","m76sg0btrv","msl000823","iti","img/motor_blank.png","null","83","motor","","","","","","",""
"503","","255026","HierDyhfwjavnb","m76sg0btrv","msl000823","motor","img/motor_5.png","72","72","motor","5","269","1","0","0","",""
"null","","255138","HierDyhfwjavnb","m76sg0btrv","msl000823","iti","img/motor_blank.png","null","72","motor","","","","","","",""
"418","","255564","HierDyhfwjavnb","m76sg0btrv","msl000823","motor","img/motor_6.png","75","74","motor","6","270","0","1","0","",""
"293","","255866","HierDyhfwjavnb","m76sg0btrv","msl000823","motorRepeat","img/motor_6.png","74","74","motor","6","270","1","0","0","",""
"null","","255977","HierDyhfwjavnb","m76sg0btrv","msl000823","iti","img/motor_blank.png","null","74","motor","","","","","","",""
"313","","256297","HierDyhfwjavnb","m76sg0btrv","msl000823","motor","img/motor_7.png","75","75","motor","7","271","1","0","0","",""
"null","","256408","HierDyhfwjavnb","m76sg0btrv","msl000823","iti","img/motor_blank.png","null","75","motor","","","","","","",""
"764","","257181","HierDyhfwjavnb","m76sg0btrv","msl000823","motor","img/motor_2.png","83","83","motor","2","272","1","0","0","",""
"null","","257289","HierDyhfwjavnb","m76sg0btrv","msl000823","iti","img/motor_blank.png","null","83","motor","","","","","","",""
"544","","257844","HierDyhfwjavnb","m76sg0btrv","msl000823","motor","img/motor_4.png","70","70","motor","4","273","1","0","0","",""
"null","","257953","HierDyhfwjavnb","m76sg0btrv","msl000823","iti","img/motor_blank.png","null","70","motor","","","","","","",""
"448","","258411","HierDyhfwjavnb","m76sg0btrv","msl000823","motor","img/motor_1.png","65","65","motor","1","274","1","0","0","",""
"null","","258522","HierDyhfwjavnb","m76sg0btrv","msl000823","iti","img/motor_blank.png","null","65","motor","","","","","","",""
"414","","258944","HierDyhfwjavnb","m76sg0btrv","msl000823","motor","img/motor_8.png","76","76","motor","8","275","1","0","0","",""
"null","","259055","HierDyhfwjavnb","m76sg0btrv","msl000823","iti","img/motor_blank.png","null","76","motor","","","","","","",""
"340","","259405","HierDyhfwjavnb","m76sg0btrv","msl000823","motor","img/motor_5.png","72","72","motor","5","276","1","0","0","",""
"null","","259513","HierDyhfwjavnb","m76sg0btrv","msl000823","iti","img/motor_blank.png","null","72","motor","","","","","","",""
"404","","259928","HierDyhfwjavnb","m76sg0btrv","msl000823","motor","img/motor_8.png","75","76","motor","8","277","0","1","0","",""
"285","","260223","HierDyhfwjavnb","m76sg0btrv","msl000823","motorRepeat","img/motor_8.png","76","76","motor","8","277","1","0","0","",""
"null","","260333","HierDyhfwjavnb","m76sg0btrv","msl000823","iti","img/motor_blank.png","null","76","motor","","","","","","",""
"352","","260695","HierDyhfwjavnb","m76sg0btrv","msl000823","motor","img/motor_5.png","72","72","motor","5","278","1","0","0","",""
"null","","260805","HierDyhfwjavnb","m76sg0btrv","msl000823","iti","img/motor_blank.png","null","72","motor","","","","","","",""
"597","","261413","HierDyhfwjavnb","m76sg0btrv","msl000823","motor","img/motor_2.png","83","83","motor","2","279","1","0","0","",""
"null","","261525","HierDyhfwjavnb","m76sg0btrv","msl000823","iti","img/motor_blank.png","null","83","motor","","","","","","",""
"466","","262000","HierDyhfwjavnb","m76sg0btrv","msl000823","motor","img/motor_5.png","72","72","motor","5","280","1","0","0","",""
"null","","262110","HierDyhfwjavnb","m76sg0btrv","msl000823","iti","img/motor_blank.png","null","72","motor","","","","","","",""
"405","","262524","HierDyhfwjavnb","m76sg0btrv","msl000823","motor","img/motor_6.png","75","74","motor","6","281","0","1","0","",""
"333","","262867","HierDyhfwjavnb","m76sg0btrv","msl000823","motorRepeat","img/motor_6.png","74","74","motor","6","281","1","0","0","",""
"null","","262978","HierDyhfwjavnb","m76sg0btrv","msl000823","iti","img/motor_blank.png","null","74","motor","","","","","","",""
"453","","263439","HierDyhfwjavnb","m76sg0btrv","msl000823","motor","img/motor_8.png","76","76","motor","8","282","1","0","0","",""
"null","","263550","HierDyhfwjavnb","m76sg0btrv","msl000823","iti","img/motor_blank.png","null","76","motor","","","","","","",""
"728","","264289","HierDyhfwjavnb","m76sg0btrv","msl000823","motor","img/motor_2.png","83","83","motor","2","283","1","0","0","",""
"null","","264402","HierDyhfwjavnb","m76sg0btrv","msl000823","iti","img/motor_blank.png","null","83","motor","","","","","","",""
"331","","264744","HierDyhfwjavnb","m76sg0btrv","msl000823","motor","img/motor_2.png","83","83","motor","2","284","1","0","0","",""
"null","","264856","HierDyhfwjavnb","m76sg0btrv","msl000823","iti","img/motor_blank.png","null","83","motor","","","","","","",""
"540","","265406","HierDyhfwjavnb","m76sg0btrv","msl000823","motor","img/motor_1.png","65","65","motor","1","285","1","0","0","",""
"null","","265520","HierDyhfwjavnb","m76sg0btrv","msl000823","iti","img/motor_blank.png","null","65","motor","","","","","","",""
"357","","265889","HierDyhfwjavnb","m76sg0btrv","msl000823","motor","img/motor_1.png","65","65","motor","1","286","1","0","0","",""
"null","","266000","HierDyhfwjavnb","m76sg0btrv","msl000823","iti","img/motor_blank.png","null","65","motor","","","","","","",""
"592","","266603","HierDyhfwjavnb","m76sg0btrv","msl000823","motor","img/motor_3.png","70","68","motor","3","287","0","1","0","",""
"340","","266952","HierDyhfwjavnb","m76sg0btrv","msl000823","motorRepeat","img/motor_3.png","68","68","motor","3","287","1","0","0","",""
"null","","267064","HierDyhfwjavnb","m76sg0btrv","msl000823","iti","img/motor_blank.png","null","68","motor","","","","","","",""
"636","","267708","HierDyhfwjavnb","m76sg0btrv","msl000823","motor","img/motor_2.png","83","83","motor","2","288","1","0","0","",""
"null","","267820","HierDyhfwjavnb","m76sg0btrv","msl000823","iti","img/motor_blank.png","null","83","motor","","","","","","",""
"590","","268423","HierDyhfwjavnb","m76sg0btrv","msl000823","motor","img/motor_7.png","75","75","motor","7","289","1","0","0","",""
"null","","268532","HierDyhfwjavnb","m76sg0btrv","msl000823","iti","img/motor_blank.png","null","75","motor","","","","","","",""
"513","","269056","HierDyhfwjavnb","m76sg0btrv","msl000823","motor","img/motor_1.png","65","65","motor","1","290","1","0","0","",""
"null","","269169","HierDyhfwjavnb","m76sg0btrv","msl000823","iti","img/motor_blank.png","null","65","motor","","","","","","",""
"511","","269689","HierDyhfwjavnb","m76sg0btrv","msl000823","motor","img/motor_5.png","72","72","motor","5","291","1","0","0","",""
"null","","269798","HierDyhfwjavnb","m76sg0btrv","msl000823","iti","img/motor_blank.png","null","72","motor","","","","","","",""
"473","","270280","HierDyhfwjavnb","m76sg0btrv","msl000823","motor","img/motor_7.png","75","75","motor","7","292","1","0","0","",""
"null","","270390","HierDyhfwjavnb","m76sg0btrv","msl000823","iti","img/motor_blank.png","null","75","motor","","","","","","",""
"665","","271062","HierDyhfwjavnb","m76sg0btrv","msl000823","motor","img/motor_3.png","68","68","motor","3","293","1","0","0","",""
"null","","271172","HierDyhfwjavnb","m76sg0btrv","msl000823","iti","img/motor_blank.png","null","68","motor","","","","","","",""
"298","","271480","HierDyhfwjavnb","m76sg0btrv","msl000823","motor","img/motor_3.png","68","68","motor","3","294","1","0","0","",""
"null","","271589","HierDyhfwjavnb","m76sg0btrv","msl000823","iti","img/motor_blank.png","null","68","motor","","","","","","",""
"633","","272233","HierDyhfwjavnb","m76sg0btrv","msl000823","motor","img/motor_6.png","74","74","motor","6","295","1","0","0","",""
"null","","272342","HierDyhfwjavnb","m76sg0btrv","msl000823","iti","img/motor_blank.png","null","74","motor","","","","","","",""
"804","","273156","HierDyhfwjavnb","m76sg0btrv","msl000823","motor","img/motor_2.png","83","83","motor","2","296","1","0","0","",""
"null","","273265","HierDyhfwjavnb","m76sg0btrv","msl000823","iti","img/motor_blank.png","null","83","motor","","","","","","",""
"502","","273777","HierDyhfwjavnb","m76sg0btrv","msl000823","motor","img/motor_3.png","68","68","motor","3","297","1","0","0","",""
"null","","273887","HierDyhfwjavnb","m76sg0btrv","msl000823","iti","img/motor_blank.png","null","68","motor","","","","","","",""
"517","","274414","HierDyhfwjavnb","m76sg0btrv","msl000823","motor","img/motor_8.png","76","76","motor","8","298","1","0","0","",""
"null","","274523","HierDyhfwjavnb","m76sg0btrv","msl000823","iti","img/motor_blank.png","null","76","motor","","","","","","",""
"1047","","275582","HierDyhfwjavnb","m76sg0btrv","msl000823","motor","img/motor_7.png","75","75","motor","7","299","1","0","0","",""
"null","","275692","HierDyhfwjavnb","m76sg0btrv","msl000823","iti","img/motor_blank.png","null","75","motor","","","","","","",""
"630","","276330","HierDyhfwjavnb","m76sg0btrv","msl000823","motor","img/motor_4.png","70","70","motor","4","300","1","0","0","",""
"null","","276439","HierDyhfwjavnb","m76sg0btrv","msl000823","iti","img/motor_blank.png","null","70","motor","","","","","","",""
"631","","277080","HierDyhfwjavnb","m76sg0btrv","msl000823","motor","img/motor_6.png","74","74","motor","6","301","1","0","0","",""
"null","","277191","HierDyhfwjavnb","m76sg0btrv","msl000823","iti","img/motor_blank.png","null","74","motor","","","","","","",""
"497","","277697","HierDyhfwjavnb","m76sg0btrv","msl000823","motor","img/motor_7.png","74","75","motor","7","302","0","1","0","",""
"221","","277927","HierDyhfwjavnb","m76sg0btrv","msl000823","motorRepeat","img/motor_7.png","75","75","motor","7","302","1","0","0","",""
"null","","278036","HierDyhfwjavnb","m76sg0btrv","msl000823","iti","img/motor_blank.png","null","75","motor","","","","","","",""
"429","","278476","HierDyhfwjavnb","m76sg0btrv","msl000823","motor","img/motor_5.png","72","72","motor","5","303","1","0","0","",""
"null","","278586","HierDyhfwjavnb","m76sg0btrv","msl000823","iti","img/motor_blank.png","null","72","motor","","","","","","",""
"417","","279012","HierDyhfwjavnb","m76sg0btrv","msl000823","motor","img/motor_8.png","76","76","motor","8","304","1","0","0","",""
"null","","279123","HierDyhfwjavnb","m76sg0btrv","msl000823","iti","img/motor_blank.png","null","76","motor","","","","","","",""
"616","","279749","HierDyhfwjavnb","m76sg0btrv","msl000823","motor","img/motor_3.png","83","68","motor","3","305","0","1","0","",""
"262","","280022","HierDyhfwjavnb","m76sg0btrv","msl000823","motorRepeat","img/motor_3.png","68","68","motor","3","305","1","0","0","",""
"null","","280132","HierDyhfwjavnb","m76sg0btrv","msl000823","iti","img/motor_blank.png","null","68","motor","","","","","","",""
"639","","280779","HierDyhfwjavnb","m76sg0btrv","msl000823","motor","img/motor_8.png","76","76","motor","8","306","1","0","0","",""
"null","","280890","HierDyhfwjavnb","m76sg0btrv","msl000823","iti","img/motor_blank.png","null","76","motor","","","","","","",""
"477","","281377","HierDyhfwjavnb","m76sg0btrv","msl000823","motor","img/motor_6.png","74","74","motor","6","307","1","0","0","",""
"null","","281486","HierDyhfwjavnb","m76sg0btrv","msl000823","iti","img/motor_blank.png","null","74","motor","","","","","","",""
"473","","281967","HierDyhfwjavnb","m76sg0btrv","msl000823","motor","img/motor_5.png","72","72","motor","5","308","1","0","0","",""
"null","","282078","HierDyhfwjavnb","m76sg0btrv","msl000823","iti","img/motor_blank.png","null","72","motor","","","","","","",""
"563","","282651","HierDyhfwjavnb","m76sg0btrv","msl000823","motor","img/motor_7.png","75","75","motor","7","309","1","0","0","",""
"null","","282761","HierDyhfwjavnb","m76sg0btrv","msl000823","iti","img/motor_blank.png","null","75","motor","","","","","","",""
"507","","283276","HierDyhfwjavnb","m76sg0btrv","msl000823","motor","img/motor_1.png","65","65","motor","1","310","1","0","0","",""
"null","","283387","HierDyhfwjavnb","m76sg0btrv","msl000823","iti","img/motor_blank.png","null","65","motor","","","","","","",""
"623","","284021","HierDyhfwjavnb","m76sg0btrv","msl000823","motor","img/motor_5.png","72","72","motor","5","311","1","0","0","",""
"null","","284131","HierDyhfwjavnb","m76sg0btrv","msl000823","iti","img/motor_blank.png","null","72","motor","","","","","","",""
"974","","285115","HierDyhfwjavnb","m76sg0btrv","msl000823","motor","img/motor_3.png","68","68","motor","3","312","1","0","0","",""
"null","","285227","HierDyhfwjavnb","m76sg0btrv","msl000823","iti","img/motor_blank.png","null","68","motor","","","","","","",""
"487","","285722","HierDyhfwjavnb","m76sg0btrv","msl000823","motor","img/motor_1.png","65","65","motor","1","313","1","0","0","",""
"null","","285834","HierDyhfwjavnb","m76sg0btrv","msl000823","iti","img/motor_blank.png","null","65","motor","","","","","","",""
"557","","286402","HierDyhfwjavnb","m76sg0btrv","msl000823","motor","img/motor_6.png","74","74","motor","6","314","1","0","0","",""
"null","","286511","HierDyhfwjavnb","m76sg0btrv","msl000823","iti","img/motor_blank.png","null","74","motor","","","","","","",""
"291","","286810","HierDyhfwjavnb","m76sg0btrv","msl000823","motor","img/motor_6.png","74","74","motor","6","315","1","0","0","",""
"null","","286922","HierDyhfwjavnb","m76sg0btrv","msl000823","iti","img/motor_blank.png","null","74","motor","","","","","","",""
"438","","287368","HierDyhfwjavnb","m76sg0btrv","msl000823","motor","img/motor_1.png","65","65","motor","1","316","1","0","0","",""
"null","","287478","HierDyhfwjavnb","m76sg0btrv","msl000823","iti","img/motor_blank.png","null","65","motor","","","","","","",""
"397","","287884","HierDyhfwjavnb","m76sg0btrv","msl000823","motor","img/motor_5.png","74","72","motor","5","317","0","1","0","",""
"271","","288165","HierDyhfwjavnb","m76sg0btrv","msl000823","motorRepeat","img/motor_5.png","72","72","motor","5","317","1","0","0","",""
"null","","288276","HierDyhfwjavnb","m76sg0btrv","msl000823","iti","img/motor_blank.png","null","72","motor","","","","","","",""
"565","","288851","HierDyhfwjavnb","m76sg0btrv","msl000823","motor","img/motor_3.png","68","68","motor","3","318","1","0","0","",""
"null","","288963","HierDyhfwjavnb","m76sg0btrv","msl000823","iti","img/motor_blank.png","null","68","motor","","","","","","",""
"389","","289361","HierDyhfwjavnb","m76sg0btrv","msl000823","motor","img/motor_6.png","75","74","motor","6","319","0","1","0","",""
"281","","289652","HierDyhfwjavnb","m76sg0btrv","msl000823","motorRepeat","img/motor_6.png","74","74","motor","6","319","1","0","0","",""
"null","","289763","HierDyhfwjavnb","m76sg0btrv","msl000823","iti","img/motor_blank.png","null","74","motor","","","","","","",""
"431","","290203","HierDyhfwjavnb","m76sg0btrv","msl000823","motor","img/motor_7.png","75","75","motor","7","320","1","0","0","",""
"null","","290314","HierDyhfwjavnb","m76sg0btrv","msl000823","iti","img/motor_blank.png","null","75","motor","","","","","","",""
"710","","291032","HierDyhfwjavnb","m76sg0btrv","msl000823","motor","img/motor_3.png","68","68","motor","3","321","1","0","0","",""
"null","","291141","HierDyhfwjavnb","m76sg0btrv","msl000823","iti","img/motor_blank.png","null","68","motor","","","","","","",""
"565","","291715","HierDyhfwjavnb","m76sg0btrv","msl000823","motor","img/motor_8.png","76","76","motor","8","322","1","0","0","",""
"null","","291826","HierDyhfwjavnb","m76sg0btrv","msl000823","iti","img/motor_blank.png","null","76","motor","","","","","","",""
"730","","292567","HierDyhfwjavnb","m76sg0btrv","msl000823","motor","img/motor_2.png","83","83","motor","2","323","1","0","0","",""
"null","","292677","HierDyhfwjavnb","m76sg0btrv","msl000823","iti","img/motor_blank.png","null","83","motor","","","","","","",""
"661","","293348","HierDyhfwjavnb","m76sg0btrv","msl000823","motor","img/motor_4.png","70","70","motor","4","324","1","0","0","",""
"null","","293456","HierDyhfwjavnb","m76sg0btrv","msl000823","iti","img/motor_blank.png","null","70","motor","","","","","","",""
"516","","293983","HierDyhfwjavnb","m76sg0btrv","msl000823","motor","img/motor_3.png","68","68","motor","3","325","1","0","0","",""
"null","","294092","HierDyhfwjavnb","m76sg0btrv","msl000823","iti","img/motor_blank.png","null","68","motor","","","","","","",""
"817","","294918","HierDyhfwjavnb","m76sg0btrv","msl000823","motor","img/motor_6.png","74","74","motor","6","326","1","0","0","",""
"null","","295027","HierDyhfwjavnb","m76sg0btrv","msl000823","iti","img/motor_blank.png","null","74","motor","","","","","","",""
"454","","295492","HierDyhfwjavnb","m76sg0btrv","msl000823","motor","img/motor_3.png","68","68","motor","3","327","1","0","0","",""
"null","","295603","HierDyhfwjavnb","m76sg0btrv","msl000823","iti","img/motor_blank.png","null","68","motor","","","","","","",""
"558","","296171","HierDyhfwjavnb","m76sg0btrv","msl000823","motor","img/motor_2.png","83","83","motor","2","328","1","0","0","",""
"null","","296280","HierDyhfwjavnb","m76sg0btrv","msl000823","iti","img/motor_blank.png","null","83","motor","","","","","","",""
"528","","296817","HierDyhfwjavnb","m76sg0btrv","msl000823","motor","img/motor_3.png","70","68","motor","3","329","0","1","0","",""
"302","","297129","HierDyhfwjavnb","m76sg0btrv","msl000823","motorRepeat","img/motor_3.png","68","68","motor","3","329","1","0","0","",""
"null","","297240","HierDyhfwjavnb","m76sg0btrv","msl000823","iti","img/motor_blank.png","null","68","motor","","","","","","",""
"527","","297775","HierDyhfwjavnb","m76sg0btrv","msl000823","motor","img/motor_1.png","65","65","motor","1","330","1","0","0","",""
"null","","297886","HierDyhfwjavnb","m76sg0btrv","msl000823","iti","img/motor_blank.png","null","65","motor","","","","","","",""
"432","","298328","HierDyhfwjavnb","m76sg0btrv","msl000823","motor","img/motor_5.png","72","72","motor","5","331","1","0","0","",""
"null","","298438","HierDyhfwjavnb","m76sg0btrv","msl000823","iti","img/motor_blank.png","null","72","motor","","","","","","",""
"850","","299295","HierDyhfwjavnb","m76sg0btrv","msl000823","motor","img/motor_2.png","83","83","motor","2","332","1","0","0","",""
"null","","299405","HierDyhfwjavnb","m76sg0btrv","msl000823","iti","img/motor_blank.png","null","83","motor","","","","","","",""
"551","","299966","HierDyhfwjavnb","m76sg0btrv","msl000823","motor","img/motor_8.png","76","76","motor","8","333","1","0","0","",""
"null","","300077","HierDyhfwjavnb","m76sg0btrv","msl000823","iti","img/motor_blank.png","null","76","motor","","","","","","",""
"499","","300587","HierDyhfwjavnb","m76sg0btrv","msl000823","motor","img/motor_6.png","74","74","motor","6","334","1","0","0","",""
"null","","300697","HierDyhfwjavnb","m76sg0btrv","msl000823","iti","img/motor_blank.png","null","74","motor","","","","","","",""
"636","","301344","HierDyhfwjavnb","m76sg0btrv","msl000823","motor","img/motor_8.png","76","76","motor","8","335","1","0","0","",""
"null","","301452","HierDyhfwjavnb","m76sg0btrv","msl000823","iti","img/motor_blank.png","null","76","motor","","","","","","",""
"861","","302324","HierDyhfwjavnb","m76sg0btrv","msl000823","motor","img/motor_2.png","83","83","motor","2","336","1","0","0","",""
"null","","302435","HierDyhfwjavnb","m76sg0btrv","msl000823","iti","img/motor_blank.png","null","83","motor","","","","","","",""
"405","","302850","HierDyhfwjavnb","m76sg0btrv","msl000823","motor","img/motor_5.png","74","72","motor","5","337","0","1","0","",""
"287","","303146","HierDyhfwjavnb","m76sg0btrv","msl000823","motorRepeat","img/motor_5.png","72","72","motor","5","337","1","0","0","",""
"null","","303256","HierDyhfwjavnb","m76sg0btrv","msl000823","iti","img/motor_blank.png","null","72","motor","","","","","","",""
"401","","303668","HierDyhfwjavnb","m76sg0btrv","msl000823","motor","img/motor_5.png","72","72","motor","5","338","1","0","0","",""
"null","","303778","HierDyhfwjavnb","m76sg0btrv","msl000823","iti","img/motor_blank.png","null","72","motor","","","","","","",""
"548","","304336","HierDyhfwjavnb","m76sg0btrv","msl000823","motor","img/motor_4.png","70","70","motor","4","339","1","0","0","",""
"null","","304447","HierDyhfwjavnb","m76sg0btrv","msl000823","iti","img/motor_blank.png","null","70","motor","","","","","","",""
"516","","304973","HierDyhfwjavnb","m76sg0btrv","msl000823","motor","img/motor_6.png","72","74","motor","6","340","0","1","0","",""
"94","","305078","HierDyhfwjavnb","m76sg0btrv","msl000823","motorRepeat","img/motor_6.png","74","74","motor","6","340","1","0","0","",""
"null","","305189","HierDyhfwjavnb","m76sg0btrv","msl000823","iti","img/motor_blank.png","null","74","motor","","","","","","",""
"607","","305804","HierDyhfwjavnb","m76sg0btrv","msl000823","motor","img/motor_2.png","68","83","motor","2","341","0","1","0","",""
"161","","305976","HierDyhfwjavnb","m76sg0btrv","msl000823","motorRepeat","img/motor_2.png","83","83","motor","2","341","1","0","0","",""
"null","","306088","HierDyhfwjavnb","m76sg0btrv","msl000823","iti","img/motor_blank.png","null","83","motor","","","","","","",""
"623","","306718","HierDyhfwjavnb","m76sg0btrv","msl000823","motor","img/motor_4.png","70","70","motor","4","342","1","0","0","",""
"null","","306829","HierDyhfwjavnb","m76sg0btrv","msl000823","iti","img/motor_blank.png","null","70","motor","","","","","","",""
"498","","307336","HierDyhfwjavnb","m76sg0btrv","msl000823","motor","img/motor_1.png","65","65","motor","1","343","1","0","0","",""
"null","","307447","HierDyhfwjavnb","m76sg0btrv","msl000823","iti","img/motor_blank.png","null","65","motor","","","","","","",""
"356","","307811","HierDyhfwjavnb","m76sg0btrv","msl000823","motor","img/motor_4.png","70","70","motor","4","344","1","0","0","",""
"null","","307923","HierDyhfwjavnb","m76sg0btrv","msl000823","iti","img/motor_blank.png","null","70","motor","","","","","","",""
"515","","308447","HierDyhfwjavnb","m76sg0btrv","msl000823","motor","img/motor_8.png","76","76","motor","8","345","1","0","0","",""
"null","","308558","HierDyhfwjavnb","m76sg0btrv","msl000823","iti","img/motor_blank.png","null","76","motor","","","","","","",""
"515","","309083","HierDyhfwjavnb","m76sg0btrv","msl000823","motor","img/motor_4.png","70","70","motor","4","346","1","0","0","",""
"null","","309195","HierDyhfwjavnb","m76sg0btrv","msl000823","iti","img/motor_blank.png","null","70","motor","","","","","","",""
"528","","309732","HierDyhfwjavnb","m76sg0btrv","msl000823","motor","img/motor_1.png","65","65","motor","1","347","1","0","0","",""
"null","","309844","HierDyhfwjavnb","m76sg0btrv","msl000823","iti","img/motor_blank.png","null","65","motor","","","","","","",""
"659","","310512","HierDyhfwjavnb","m76sg0btrv","msl000823","motor","img/motor_7.png","75","75","motor","7","348","1","0","0","",""
"null","","310622","HierDyhfwjavnb","m76sg0btrv","msl000823","iti","img/motor_blank.png","null","75","motor","","","","","","",""
"584","","311217","HierDyhfwjavnb","m76sg0btrv","msl000823","motor","img/motor_6.png","74","74","motor","6","349","1","0","0","",""
"null","","311328","HierDyhfwjavnb","m76sg0btrv","msl000823","iti","img/motor_blank.png","null","74","motor","","","","","","",""
"554","","311891","HierDyhfwjavnb","m76sg0btrv","msl000823","motor","img/motor_7.png","75","75","motor","7","350","1","0","0","",""
"null","","312003","HierDyhfwjavnb","m76sg0btrv","msl000823","iti","img/motor_blank.png","null","75","motor","","","","","","",""
"620","","312633","HierDyhfwjavnb","m76sg0btrv","msl000823","motor","img/motor_1.png","65","65","motor","1","351","1","0","0","",""
"null","","312745","HierDyhfwjavnb","m76sg0btrv","msl000823","iti","img/motor_blank.png","null","65","motor","","","","","","",""
"399","","313154","HierDyhfwjavnb","m76sg0btrv","msl000823","motor","img/motor_4.png","70","70","motor","4","352","1","0","0","",""
"null","","313265","HierDyhfwjavnb","m76sg0btrv","msl000823","iti","img/motor_blank.png","null","70","motor","","","","","","",""
"476","","313751","HierDyhfwjavnb","m76sg0btrv","msl000823","motor","img/motor_5.png","72","72","motor","5","353","1","0","0","",""
"null","","313860","HierDyhfwjavnb","m76sg0btrv","msl000823","iti","img/motor_blank.png","null","72","motor","","","","","","",""
"407","","314278","HierDyhfwjavnb","m76sg0btrv","msl000823","motor","img/motor_6.png","74","74","motor","6","354","1","0","0","",""
"null","","314389","HierDyhfwjavnb","m76sg0btrv","msl000823","iti","img/motor_blank.png","null","74","motor","","","","","","",""
