"rt","responses","time_elapsed","subject","prolificID","demoID","trialType","stimulus","key_press","corrresp","phase","stimNum","trialNum","corr","repeatTrial","motorSwitch","pracCounter","hierarchy"
"7835","{""Q0"":""msl000686""}","7862","HierDycka5bq6n","zxjkr193f7","msl000686","","","","","","","","","","","",""
"1883","","9750","HierDycka5bq6n","zxjkr193f7","msl000686","","","","","","","","","","","",""
"","","11967","HierDycka5bq6n","zxjkr193f7","msl000686","fullscreen","","","","","","","","","","",""
"39731","","51705","HierDycka5bq6n","zxjkr193f7","msl000686","","","","","","","","","","","",""
"744","","52459","HierDycka5bq6n","zxjkr193f7","msl000686","motor","img/motor_1.png","65","65","motor","1","1","1","0","0","",""
"null","","52565","HierDycka5bq6n","zxjkr193f7","msl000686","iti","img/motor_blank.png","null","65","motor","","","","","","",""
"903","","53475","HierDycka5bq6n","zxjkr193f7","msl000686","motor","img/motor_5.png","72","72","motor","5","2","1","0","0","",""
"null","","53581","HierDycka5bq6n","zxjkr193f7","msl000686","iti","img/motor_blank.png","null","72","motor","","","","","","",""
"591","","54180","HierDycka5bq6n","zxjkr193f7","msl000686","motor","img/motor_4.png","70","70","motor","4","3","1","0","0","",""
"null","","54287","HierDycka5bq6n","zxjkr193f7","msl000686","iti","img/motor_blank.png","null","70","motor","","","","","","",""
"593","","54885","HierDycka5bq6n","zxjkr193f7","msl000686","motor","img/motor_6.png","75","74","motor","6","4","0","1","0","",""
"354","","55246","HierDycka5bq6n","zxjkr193f7","msl000686","motorRepeat","img/motor_6.png","74","74","motor","6","4","1","0","0","",""
"null","","55351","HierDycka5bq6n","zxjkr193f7","msl000686","iti","img/motor_blank.png","null","74","motor","","","","","","",""
"537","","55894","HierDycka5bq6n","zxjkr193f7","msl000686","motor","img/motor_2.png","68","83","motor","2","5","0","1","0","",""
"461","","56360","HierDycka5bq6n","zxjkr193f7","msl000686","motorRepeat","img/motor_2.png","83","83","motor","2","5","1","0","0","",""
"null","","56466","HierDycka5bq6n","zxjkr193f7","msl000686","iti","img/motor_blank.png","null","83","motor","","","","","","",""
"568","","57038","HierDycka5bq6n","zxjkr193f7","msl000686","motor","img/motor_5.png","72","72","motor","5","6","1","0","0","",""
"null","","57145","HierDycka5bq6n","zxjkr193f7","msl000686","iti","img/motor_blank.png","null","72","motor","","","","","","",""
"459","","57610","HierDycka5bq6n","zxjkr193f7","msl000686","motor","img/motor_5.png","72","72","motor","5","7","1","0","0","",""
"null","","57718","HierDycka5bq6n","zxjkr193f7","msl000686","iti","img/motor_blank.png","null","72","motor","","","","","","",""
"522","","58246","HierDycka5bq6n","zxjkr193f7","msl000686","motor","img/motor_8.png","76","76","motor","8","8","1","0","0","",""
"null","","58353","HierDycka5bq6n","zxjkr193f7","msl000686","iti","img/motor_blank.png","null","76","motor","","","","","","",""
"676","","59037","HierDycka5bq6n","zxjkr193f7","msl000686","motor","img/motor_4.png","70","70","motor","4","9","1","0","0","",""
"null","","59143","HierDycka5bq6n","zxjkr193f7","msl000686","iti","img/motor_blank.png","null","70","motor","","","","","","",""
"657","","59805","HierDycka5bq6n","zxjkr193f7","msl000686","motor","img/motor_3.png","68","68","motor","3","10","1","0","0","",""
"null","","59911","HierDycka5bq6n","zxjkr193f7","msl000686","iti","img/motor_blank.png","null","68","motor","","","","","","",""
"434","","60352","HierDycka5bq6n","zxjkr193f7","msl000686","motor","img/motor_3.png","68","68","motor","3","11","1","0","0","",""
"null","","60458","HierDycka5bq6n","zxjkr193f7","msl000686","iti","img/motor_blank.png","null","68","motor","","","","","","",""
"559","","61023","HierDycka5bq6n","zxjkr193f7","msl000686","motor","img/motor_7.png","75","75","motor","7","12","1","0","0","",""
"null","","61130","HierDycka5bq6n","zxjkr193f7","msl000686","iti","img/motor_blank.png","null","75","motor","","","","","","",""
"460","","61597","HierDycka5bq6n","zxjkr193f7","msl000686","motor","img/motor_5.png","72","72","motor","5","13","1","0","0","",""
"null","","61705","HierDycka5bq6n","zxjkr193f7","msl000686","iti","img/motor_blank.png","null","72","motor","","","","","","",""
"457","","62168","HierDycka5bq6n","zxjkr193f7","msl000686","motor","img/motor_8.png","76","76","motor","8","14","1","0","0","",""
"null","","62275","HierDycka5bq6n","zxjkr193f7","msl000686","iti","img/motor_blank.png","null","76","motor","","","","","","",""
"709","","62990","HierDycka5bq6n","zxjkr193f7","msl000686","motor","img/motor_4.png","70","70","motor","4","15","1","0","0","",""
"null","","63097","HierDycka5bq6n","zxjkr193f7","msl000686","iti","img/motor_blank.png","null","70","motor","","","","","","",""
"536","","63640","HierDycka5bq6n","zxjkr193f7","msl000686","motor","img/motor_3.png","68","68","motor","3","16","1","0","0","",""
"null","","63747","HierDycka5bq6n","zxjkr193f7","msl000686","iti","img/motor_blank.png","null","68","motor","","","","","","",""
"724","","64478","HierDycka5bq6n","zxjkr193f7","msl000686","motor","img/motor_5.png","72","72","motor","5","17","1","0","0","",""
"null","","64584","HierDycka5bq6n","zxjkr193f7","msl000686","iti","img/motor_blank.png","null","72","motor","","","","","","",""
"411","","65001","HierDycka5bq6n","zxjkr193f7","msl000686","motor","img/motor_6.png","74","74","motor","6","18","1","0","0","",""
"null","","65107","HierDycka5bq6n","zxjkr193f7","msl000686","iti","img/motor_blank.png","null","74","motor","","","","","","",""
"594","","65707","HierDycka5bq6n","zxjkr193f7","msl000686","motor","img/motor_1.png","65","65","motor","1","19","1","0","0","",""
"null","","65814","HierDycka5bq6n","zxjkr193f7","msl000686","iti","img/motor_blank.png","null","65","motor","","","","","","",""
"745","","66566","HierDycka5bq6n","zxjkr193f7","msl000686","motor","img/motor_6.png","74","74","motor","6","20","1","0","0","",""
"null","","66672","HierDycka5bq6n","zxjkr193f7","msl000686","iti","img/motor_blank.png","null","74","motor","","","","","","",""
"561","","67240","HierDycka5bq6n","zxjkr193f7","msl000686","motor","img/motor_4.png","70","70","motor","4","21","1","0","0","",""
"null","","67346","HierDycka5bq6n","zxjkr193f7","msl000686","iti","img/motor_blank.png","null","70","motor","","","","","","",""
"547","","67900","HierDycka5bq6n","zxjkr193f7","msl000686","motor","img/motor_8.png","76","76","motor","8","22","1","0","0","",""
"null","","68008","HierDycka5bq6n","zxjkr193f7","msl000686","iti","img/motor_blank.png","null","76","motor","","","","","","",""
"698","","68712","HierDycka5bq6n","zxjkr193f7","msl000686","motor","img/motor_2.png","83","83","motor","2","23","1","0","0","",""
"null","","68820","HierDycka5bq6n","zxjkr193f7","msl000686","iti","img/motor_blank.png","null","83","motor","","","","","","",""
"571","","69396","HierDycka5bq6n","zxjkr193f7","msl000686","motor","img/motor_6.png","74","74","motor","6","24","1","0","0","",""
"null","","69503","HierDycka5bq6n","zxjkr193f7","msl000686","iti","img/motor_blank.png","null","74","motor","","","","","","",""
"647","","70157","HierDycka5bq6n","zxjkr193f7","msl000686","motor","img/motor_5.png","72","72","motor","5","25","1","0","0","",""
"null","","70264","HierDycka5bq6n","zxjkr193f7","msl000686","iti","img/motor_blank.png","null","72","motor","","","","","","",""
"668","","70937","HierDycka5bq6n","zxjkr193f7","msl000686","motor","img/motor_2.png","68","83","motor","2","26","0","1","0","",""
"345","","71292","HierDycka5bq6n","zxjkr193f7","msl000686","motorRepeat","img/motor_2.png","83","83","motor","2","26","1","0","0","",""
"null","","71400","HierDycka5bq6n","zxjkr193f7","msl000686","iti","img/motor_blank.png","null","83","motor","","","","","","",""
"568","","71976","HierDycka5bq6n","zxjkr193f7","msl000686","motor","img/motor_1.png","65","65","motor","1","27","1","0","0","",""
"null","","72083","HierDycka5bq6n","zxjkr193f7","msl000686","iti","img/motor_blank.png","null","65","motor","","","","","","",""
"630","","72720","HierDycka5bq6n","zxjkr193f7","msl000686","motor","img/motor_1.png","65","65","motor","1","28","1","0","0","",""
"null","","72829","HierDycka5bq6n","zxjkr193f7","msl000686","iti","img/motor_blank.png","null","65","motor","","","","","","",""
"709","","73544","HierDycka5bq6n","zxjkr193f7","msl000686","motor","img/motor_3.png","68","68","motor","3","29","1","0","0","",""
"null","","73651","HierDycka5bq6n","zxjkr193f7","msl000686","iti","img/motor_blank.png","null","68","motor","","","","","","",""
"596","","74254","HierDycka5bq6n","zxjkr193f7","msl000686","motor","img/motor_5.png","72","72","motor","5","30","1","0","0","",""
"null","","74361","HierDycka5bq6n","zxjkr193f7","msl000686","iti","img/motor_blank.png","null","72","motor","","","","","","",""
"744","","75111","HierDycka5bq6n","zxjkr193f7","msl000686","motor","img/motor_7.png","75","75","motor","7","31","1","0","0","",""
"null","","75218","HierDycka5bq6n","zxjkr193f7","msl000686","iti","img/motor_blank.png","null","75","motor","","","","","","",""
"644","","75874","HierDycka5bq6n","zxjkr193f7","msl000686","motor","img/motor_7.png","75","75","motor","7","32","1","0","0","",""
"null","","75982","HierDycka5bq6n","zxjkr193f7","msl000686","iti","img/motor_blank.png","null","75","motor","","","","","","",""
"614","","76604","HierDycka5bq6n","zxjkr193f7","msl000686","motor","img/motor_2.png","83","83","motor","2","33","1","0","0","",""
"null","","76711","HierDycka5bq6n","zxjkr193f7","msl000686","iti","img/motor_blank.png","null","83","motor","","","","","","",""
"464","","77182","HierDycka5bq6n","zxjkr193f7","msl000686","motor","img/motor_7.png","75","75","motor","7","34","1","0","0","",""
"null","","77291","HierDycka5bq6n","zxjkr193f7","msl000686","iti","img/motor_blank.png","null","75","motor","","","","","","",""
"541","","77839","HierDycka5bq6n","zxjkr193f7","msl000686","motor","img/motor_8.png","76","76","motor","8","35","1","0","0","",""
"null","","77945","HierDycka5bq6n","zxjkr193f7","msl000686","iti","img/motor_blank.png","null","76","motor","","","","","","",""
"541","","78494","HierDycka5bq6n","zxjkr193f7","msl000686","motor","img/motor_1.png","65","65","motor","1","36","1","0","0","",""
"null","","78599","HierDycka5bq6n","zxjkr193f7","msl000686","iti","img/motor_blank.png","null","65","motor","","","","","","",""
"473","","79079","HierDycka5bq6n","zxjkr193f7","msl000686","motor","img/motor_1.png","65","65","motor","1","37","1","0","0","",""
"null","","79186","HierDycka5bq6n","zxjkr193f7","msl000686","iti","img/motor_blank.png","null","65","motor","","","","","","",""
"741","","79934","HierDycka5bq6n","zxjkr193f7","msl000686","motor","img/motor_3.png","68","68","motor","3","38","1","0","0","",""
"null","","80041","HierDycka5bq6n","zxjkr193f7","msl000686","iti","img/motor_blank.png","null","68","motor","","","","","","",""
"551","","80600","HierDycka5bq6n","zxjkr193f7","msl000686","motor","img/motor_8.png","76","76","motor","8","39","1","0","0","",""
"null","","80707","HierDycka5bq6n","zxjkr193f7","msl000686","iti","img/motor_blank.png","null","76","motor","","","","","","",""
"348","","81063","HierDycka5bq6n","zxjkr193f7","msl000686","motor","img/motor_8.png","76","76","motor","8","40","1","0","0","",""
"null","","81169","HierDycka5bq6n","zxjkr193f7","msl000686","iti","img/motor_blank.png","null","76","motor","","","","","","",""
"588","","81765","HierDycka5bq6n","zxjkr193f7","msl000686","motor","img/motor_1.png","65","65","motor","1","41","1","0","0","",""
"null","","81871","HierDycka5bq6n","zxjkr193f7","msl000686","iti","img/motor_blank.png","null","65","motor","","","","","","",""
"629","","82508","HierDycka5bq6n","zxjkr193f7","msl000686","motor","img/motor_4.png","70","70","motor","4","42","1","0","0","",""
"null","","82613","HierDycka5bq6n","zxjkr193f7","msl000686","iti","img/motor_blank.png","null","70","motor","","","","","","",""
"420","","83040","HierDycka5bq6n","zxjkr193f7","msl000686","motor","img/motor_4.png","70","70","motor","4","43","1","0","0","",""
"null","","83146","HierDycka5bq6n","zxjkr193f7","msl000686","iti","img/motor_blank.png","null","70","motor","","","","","","",""
"747","","83900","HierDycka5bq6n","zxjkr193f7","msl000686","motor","img/motor_6.png","74","74","motor","6","44","1","0","0","",""
"null","","84006","HierDycka5bq6n","zxjkr193f7","msl000686","iti","img/motor_blank.png","null","74","motor","","","","","","",""
"773","","84787","HierDycka5bq6n","zxjkr193f7","msl000686","motor","img/motor_3.png","83","68","motor","3","45","0","1","0","",""
"33","","84827","HierDycka5bq6n","zxjkr193f7","msl000686","motorRepeat","img/motor_3.png","68","68","motor","3","45","1","0","0","",""
"null","","84933","HierDycka5bq6n","zxjkr193f7","msl000686","iti","img/motor_blank.png","null","68","motor","","","","","","",""
"585","","85526","HierDycka5bq6n","zxjkr193f7","msl000686","motor","img/motor_7.png","75","75","motor","7","46","1","0","0","",""
"null","","85632","HierDycka5bq6n","zxjkr193f7","msl000686","iti","img/motor_blank.png","null","75","motor","","","","","","",""
"528","","86166","HierDycka5bq6n","zxjkr193f7","msl000686","motor","img/motor_5.png","72","72","motor","5","47","1","0","0","",""
"null","","86272","HierDycka5bq6n","zxjkr193f7","msl000686","iti","img/motor_blank.png","null","72","motor","","","","","","",""
"475","","86754","HierDycka5bq6n","zxjkr193f7","msl000686","motor","img/motor_5.png","72","72","motor","5","48","1","0","0","",""
"null","","86861","HierDycka5bq6n","zxjkr193f7","msl000686","iti","img/motor_blank.png","null","72","motor","","","","","","",""
"368","","87236","HierDycka5bq6n","zxjkr193f7","msl000686","motor","img/motor_8.png","76","76","motor","8","49","1","0","0","",""
"null","","87342","HierDycka5bq6n","zxjkr193f7","msl000686","iti","img/motor_blank.png","null","76","motor","","","","","","",""
"736","","88084","HierDycka5bq6n","zxjkr193f7","msl000686","motor","img/motor_3.png","68","68","motor","3","50","1","0","0","",""
"null","","88190","HierDycka5bq6n","zxjkr193f7","msl000686","iti","img/motor_blank.png","null","68","motor","","","","","","",""
"455","","88651","HierDycka5bq6n","zxjkr193f7","msl000686","motor","img/motor_4.png","70","70","motor","4","51","1","0","0","",""
"null","","88759","HierDycka5bq6n","zxjkr193f7","msl000686","iti","img/motor_blank.png","null","70","motor","","","","","","",""
"505","","89271","HierDycka5bq6n","zxjkr193f7","msl000686","motor","img/motor_3.png","68","68","motor","3","52","1","0","0","",""
"null","","89379","HierDycka5bq6n","zxjkr193f7","msl000686","iti","img/motor_blank.png","null","68","motor","","","","","","",""
"404","","89789","HierDycka5bq6n","zxjkr193f7","msl000686","motor","img/motor_5.png","72","72","motor","5","53","1","0","0","",""
"null","","89897","HierDycka5bq6n","zxjkr193f7","msl000686","iti","img/motor_blank.png","null","72","motor","","","","","","",""
"499","","90403","HierDycka5bq6n","zxjkr193f7","msl000686","motor","img/motor_3.png","68","68","motor","3","54","1","0","0","",""
"null","","90510","HierDycka5bq6n","zxjkr193f7","msl000686","iti","img/motor_blank.png","null","68","motor","","","","","","",""
"421","","90939","HierDycka5bq6n","zxjkr193f7","msl000686","motor","img/motor_4.png","70","70","motor","4","55","1","0","0","",""
"null","","91045","HierDycka5bq6n","zxjkr193f7","msl000686","iti","img/motor_blank.png","null","70","motor","","","","","","",""
"606","","91659","HierDycka5bq6n","zxjkr193f7","msl000686","motor","img/motor_6.png","74","74","motor","6","56","1","0","0","",""
"null","","91765","HierDycka5bq6n","zxjkr193f7","msl000686","iti","img/motor_blank.png","null","74","motor","","","","","","",""
"489","","92261","HierDycka5bq6n","zxjkr193f7","msl000686","motor","img/motor_6.png","74","74","motor","6","57","1","0","0","",""
"null","","92365","HierDycka5bq6n","zxjkr193f7","msl000686","iti","img/motor_blank.png","null","74","motor","","","","","","",""
"535","","92906","HierDycka5bq6n","zxjkr193f7","msl000686","motor","img/motor_4.png","70","70","motor","4","58","1","0","0","",""
"null","","93013","HierDycka5bq6n","zxjkr193f7","msl000686","iti","img/motor_blank.png","null","70","motor","","","","","","",""
"354","","93374","HierDycka5bq6n","zxjkr193f7","msl000686","motor","img/motor_2.png","68","83","motor","2","59","0","1","0","",""
"422","","93802","HierDycka5bq6n","zxjkr193f7","msl000686","motorRepeat","img/motor_2.png","83","83","motor","2","59","1","0","0","",""
"null","","93907","HierDycka5bq6n","zxjkr193f7","msl000686","iti","img/motor_blank.png","null","83","motor","","","","","","",""
"494","","94407","HierDycka5bq6n","zxjkr193f7","msl000686","motor","img/motor_7.png","75","75","motor","7","60","1","0","0","",""
"null","","94512","HierDycka5bq6n","zxjkr193f7","msl000686","iti","img/motor_blank.png","null","75","motor","","","","","","",""
"603","","95120","HierDycka5bq6n","zxjkr193f7","msl000686","motor","img/motor_4.png","70","70","motor","4","61","1","0","0","",""
"null","","95226","HierDycka5bq6n","zxjkr193f7","msl000686","iti","img/motor_blank.png","null","70","motor","","","","","","",""
"447","","95678","HierDycka5bq6n","zxjkr193f7","msl000686","motor","img/motor_7.png","74","75","motor","7","62","0","1","0","",""
"76","","95759","HierDycka5bq6n","zxjkr193f7","msl000686","motorRepeat","img/motor_7.png","75","75","motor","7","62","1","0","0","",""
"null","","95866","HierDycka5bq6n","zxjkr193f7","msl000686","iti","img/motor_blank.png","null","75","motor","","","","","","",""
"37","","95909","HierDycka5bq6n","zxjkr193f7","msl000686","motor","img/motor_7.png","75","75","motor","7","63","1","0","0","",""
"null","","96014","HierDycka5bq6n","zxjkr193f7","msl000686","iti","img/motor_blank.png","null","75","motor","","","","","","",""
"506","","96524","HierDycka5bq6n","zxjkr193f7","msl000686","motor","img/motor_8.png","76","76","motor","8","64","1","0","0","",""
"null","","96629","HierDycka5bq6n","zxjkr193f7","msl000686","iti","img/motor_blank.png","null","76","motor","","","","","","",""
"638","","97274","HierDycka5bq6n","zxjkr193f7","msl000686","motor","img/motor_5.png","72","72","motor","5","65","1","0","0","",""
"null","","97379","HierDycka5bq6n","zxjkr193f7","msl000686","iti","img/motor_blank.png","null","72","motor","","","","","","",""
"723","","98108","HierDycka5bq6n","zxjkr193f7","msl000686","motor","img/motor_2.png","83","83","motor","2","66","1","0","0","",""
"null","","98213","HierDycka5bq6n","zxjkr193f7","msl000686","iti","img/motor_blank.png","null","83","motor","","","","","","",""
"640","","98858","HierDycka5bq6n","zxjkr193f7","msl000686","motor","img/motor_7.png","75","75","motor","7","67","1","0","0","",""
"null","","98964","HierDycka5bq6n","zxjkr193f7","msl000686","iti","img/motor_blank.png","null","75","motor","","","","","","",""
"541","","99513","HierDycka5bq6n","zxjkr193f7","msl000686","motor","img/motor_3.png","68","68","motor","3","68","1","0","0","",""
"null","","99619","HierDycka5bq6n","zxjkr193f7","msl000686","iti","img/motor_blank.png","null","68","motor","","","","","","",""
"515","","100141","HierDycka5bq6n","zxjkr193f7","msl000686","motor","img/motor_4.png","70","70","motor","4","69","1","0","0","",""
"null","","100249","HierDycka5bq6n","zxjkr193f7","msl000686","iti","img/motor_blank.png","null","70","motor","","","","","","",""
"447","","100703","HierDycka5bq6n","zxjkr193f7","msl000686","motor","img/motor_8.png","76","76","motor","8","70","1","0","0","",""
"null","","100810","HierDycka5bq6n","zxjkr193f7","msl000686","iti","img/motor_blank.png","null","76","motor","","","","","","",""
"718","","101536","HierDycka5bq6n","zxjkr193f7","msl000686","motor","img/motor_2.png","83","83","motor","2","71","1","0","0","",""
"null","","101643","HierDycka5bq6n","zxjkr193f7","msl000686","iti","img/motor_blank.png","null","83","motor","","","","","","",""
"829","","102478","HierDycka5bq6n","zxjkr193f7","msl000686","motor","img/motor_1.png","65","65","motor","1","72","1","0","0","",""
"null","","102586","HierDycka5bq6n","zxjkr193f7","msl000686","iti","img/motor_blank.png","null","65","motor","","","","","","",""
"601","","103196","HierDycka5bq6n","zxjkr193f7","msl000686","motor","img/motor_2.png","83","83","motor","2","73","1","0","0","",""
"null","","103302","HierDycka5bq6n","zxjkr193f7","msl000686","iti","img/motor_blank.png","null","83","motor","","","","","","",""
"495","","103805","HierDycka5bq6n","zxjkr193f7","msl000686","motor","img/motor_5.png","70","72","motor","5","74","0","1","0","",""
"284","","104095","HierDycka5bq6n","zxjkr193f7","msl000686","motorRepeat","img/motor_5.png","72","72","motor","5","74","1","0","0","",""
"null","","104203","HierDycka5bq6n","zxjkr193f7","msl000686","iti","img/motor_blank.png","null","72","motor","","","","","","",""
"552","","104762","HierDycka5bq6n","zxjkr193f7","msl000686","motor","img/motor_1.png","65","65","motor","1","75","1","0","0","",""
"null","","104869","HierDycka5bq6n","zxjkr193f7","msl000686","iti","img/motor_blank.png","null","65","motor","","","","","","",""
"599","","105475","HierDycka5bq6n","zxjkr193f7","msl000686","motor","img/motor_7.png","75","75","motor","7","76","1","0","0","",""
"null","","105582","HierDycka5bq6n","zxjkr193f7","msl000686","iti","img/motor_blank.png","null","75","motor","","","","","","",""
"588","","106178","HierDycka5bq6n","zxjkr193f7","msl000686","motor","img/motor_6.png","74","74","motor","6","77","1","0","0","",""
"null","","106286","HierDycka5bq6n","zxjkr193f7","msl000686","iti","img/motor_blank.png","null","74","motor","","","","","","",""
"597","","106891","HierDycka5bq6n","zxjkr193f7","msl000686","motor","img/motor_3.png","68","68","motor","3","78","1","0","0","",""
"null","","106998","HierDycka5bq6n","zxjkr193f7","msl000686","iti","img/motor_blank.png","null","68","motor","","","","","","",""
"428","","107433","HierDycka5bq6n","zxjkr193f7","msl000686","motor","img/motor_4.png","70","70","motor","4","79","1","0","0","",""
"null","","107541","HierDycka5bq6n","zxjkr193f7","msl000686","iti","img/motor_blank.png","null","70","motor","","","","","","",""
"569","","108116","HierDycka5bq6n","zxjkr193f7","msl000686","motor","img/motor_2.png","68","83","motor","2","80","0","1","0","",""
"409","","108533","HierDycka5bq6n","zxjkr193f7","msl000686","motorRepeat","img/motor_2.png","83","83","motor","2","80","1","0","0","",""
"null","","108640","HierDycka5bq6n","zxjkr193f7","msl000686","iti","img/motor_blank.png","null","83","motor","","","","","","",""
"422","","109070","HierDycka5bq6n","zxjkr193f7","msl000686","motor","img/motor_2.png","83","83","motor","2","81","1","0","0","",""
"null","","109177","HierDycka5bq6n","zxjkr193f7","msl000686","iti","img/motor_blank.png","null","83","motor","","","","","","",""
"555","","109740","HierDycka5bq6n","zxjkr193f7","msl000686","motor","img/motor_6.png","74","74","motor","6","82","1","0","0","",""
"null","","109847","HierDycka5bq6n","zxjkr193f7","msl000686","iti","img/motor_blank.png","null","74","motor","","","","","","",""
"552","","110404","HierDycka5bq6n","zxjkr193f7","msl000686","motor","img/motor_8.png","76","76","motor","8","83","1","0","0","",""
"null","","110511","HierDycka5bq6n","zxjkr193f7","msl000686","iti","img/motor_blank.png","null","76","motor","","","","","","",""
"529","","111047","HierDycka5bq6n","zxjkr193f7","msl000686","motor","img/motor_4.png","70","70","motor","4","84","1","0","0","",""
"null","","111155","HierDycka5bq6n","zxjkr193f7","msl000686","iti","img/motor_blank.png","null","70","motor","","","","","","",""
"477","","111639","HierDycka5bq6n","zxjkr193f7","msl000686","motor","img/motor_5.png","72","72","motor","5","85","1","0","0","",""
"null","","111747","HierDycka5bq6n","zxjkr193f7","msl000686","iti","img/motor_blank.png","null","72","motor","","","","","","",""
"515","","112269","HierDycka5bq6n","zxjkr193f7","msl000686","motor","img/motor_4.png","70","70","motor","4","86","1","0","0","",""
"null","","112376","HierDycka5bq6n","zxjkr193f7","msl000686","iti","img/motor_blank.png","null","70","motor","","","","","","",""
"493","","112877","HierDycka5bq6n","zxjkr193f7","msl000686","motor","img/motor_6.png","74","74","motor","6","87","1","0","0","",""
"null","","112984","HierDycka5bq6n","zxjkr193f7","msl000686","iti","img/motor_blank.png","null","74","motor","","","","","","",""
"375","","113366","HierDycka5bq6n","zxjkr193f7","msl000686","motor","img/motor_6.png","74","74","motor","6","88","1","0","0","",""
"null","","113474","HierDycka5bq6n","zxjkr193f7","msl000686","iti","img/motor_blank.png","null","74","motor","","","","","","",""
"495","","113975","HierDycka5bq6n","zxjkr193f7","msl000686","motor","img/motor_2.png","83","83","motor","2","89","1","0","0","",""
"null","","114082","HierDycka5bq6n","zxjkr193f7","msl000686","iti","img/motor_blank.png","null","83","motor","","","","","","",""
"559","","114648","HierDycka5bq6n","zxjkr193f7","msl000686","motor","img/motor_6.png","74","74","motor","6","90","1","0","0","",""
"null","","114756","HierDycka5bq6n","zxjkr193f7","msl000686","iti","img/motor_blank.png","null","74","motor","","","","","","",""
"581","","115344","HierDycka5bq6n","zxjkr193f7","msl000686","motor","img/motor_1.png","65","65","motor","1","91","1","0","0","",""
"null","","115450","HierDycka5bq6n","zxjkr193f7","msl000686","iti","img/motor_blank.png","null","65","motor","","","","","","",""
"719","","116178","HierDycka5bq6n","zxjkr193f7","msl000686","motor","img/motor_4.png","70","70","motor","4","92","1","0","0","",""
"null","","116286","HierDycka5bq6n","zxjkr193f7","msl000686","iti","img/motor_blank.png","null","70","motor","","","","","","",""
"603","","116896","HierDycka5bq6n","zxjkr193f7","msl000686","motor","img/motor_2.png","83","83","motor","2","93","1","0","0","",""
"null","","117003","HierDycka5bq6n","zxjkr193f7","msl000686","iti","img/motor_blank.png","null","83","motor","","","","","","",""
"492","","117502","HierDycka5bq6n","zxjkr193f7","msl000686","motor","img/motor_5.png","72","72","motor","5","94","1","0","0","",""
"null","","117609","HierDycka5bq6n","zxjkr193f7","msl000686","iti","img/motor_blank.png","null","72","motor","","","","","","",""
"563","","118179","HierDycka5bq6n","zxjkr193f7","msl000686","motor","img/motor_4.png","70","70","motor","4","95","1","0","0","",""
"null","","118287","HierDycka5bq6n","zxjkr193f7","msl000686","iti","img/motor_blank.png","null","70","motor","","","","","","",""
"531","","118823","HierDycka5bq6n","zxjkr193f7","msl000686","motor","img/motor_3.png","68","68","motor","3","96","1","0","0","",""
"null","","118931","HierDycka5bq6n","zxjkr193f7","msl000686","iti","img/motor_blank.png","null","68","motor","","","","","","",""
"423","","119361","HierDycka5bq6n","zxjkr193f7","msl000686","motor","img/motor_8.png","76","76","motor","8","97","1","0","0","",""
"null","","119468","HierDycka5bq6n","zxjkr193f7","msl000686","iti","img/motor_blank.png","null","76","motor","","","","","","",""
"492","","119966","HierDycka5bq6n","zxjkr193f7","msl000686","motor","img/motor_7.png","75","75","motor","7","98","1","0","0","",""
"null","","120074","HierDycka5bq6n","zxjkr193f7","msl000686","iti","img/motor_blank.png","null","75","motor","","","","","","",""
"1109","","121192","HierDycka5bq6n","zxjkr193f7","msl000686","motor","img/motor_1.png","65","65","motor","1","99","1","0","0","",""
"null","","121299","HierDycka5bq6n","zxjkr193f7","msl000686","iti","img/motor_blank.png","null","65","motor","","","","","","",""
"497","","121803","HierDycka5bq6n","zxjkr193f7","msl000686","motor","img/motor_7.png","75","75","motor","7","100","1","0","0","",""
"null","","121911","HierDycka5bq6n","zxjkr193f7","msl000686","iti","img/motor_blank.png","null","75","motor","","","","","","",""
"458","","122375","HierDycka5bq6n","zxjkr193f7","msl000686","motor","img/motor_6.png","74","74","motor","6","101","1","0","0","",""
"null","","122483","HierDycka5bq6n","zxjkr193f7","msl000686","iti","img/motor_blank.png","null","74","motor","","","","","","",""
"476","","122965","HierDycka5bq6n","zxjkr193f7","msl000686","motor","img/motor_7.png","75","75","motor","7","102","1","0","0","",""
"null","","123071","HierDycka5bq6n","zxjkr193f7","msl000686","iti","img/motor_blank.png","null","75","motor","","","","","","",""
"359","","123435","HierDycka5bq6n","zxjkr193f7","msl000686","motor","img/motor_7.png","75","75","motor","7","103","1","0","0","",""
"null","","123543","HierDycka5bq6n","zxjkr193f7","msl000686","iti","img/motor_blank.png","null","75","motor","","","","","","",""
"439","","123986","HierDycka5bq6n","zxjkr193f7","msl000686","motor","img/motor_8.png","76","76","motor","8","104","1","0","0","",""
"null","","124092","HierDycka5bq6n","zxjkr193f7","msl000686","iti","img/motor_blank.png","null","76","motor","","","","","","",""
"671","","124770","HierDycka5bq6n","zxjkr193f7","msl000686","motor","img/motor_3.png","83","68","motor","3","105","0","1","0","",""
"464","","125240","HierDycka5bq6n","zxjkr193f7","msl000686","motorRepeat","img/motor_3.png","68","68","motor","3","105","1","0","0","",""
"null","","125346","HierDycka5bq6n","zxjkr193f7","msl000686","iti","img/motor_blank.png","null","68","motor","","","","","","",""
"513","","125865","HierDycka5bq6n","zxjkr193f7","msl000686","motor","img/motor_4.png","70","70","motor","4","106","1","0","0","",""
"null","","125973","HierDycka5bq6n","zxjkr193f7","msl000686","iti","img/motor_blank.png","null","70","motor","","","","","","",""
"593","","126571","HierDycka5bq6n","zxjkr193f7","msl000686","motor","img/motor_2.png","83","83","motor","2","107","1","0","0","",""
"null","","126678","HierDycka5bq6n","zxjkr193f7","msl000686","iti","img/motor_blank.png","null","83","motor","","","","","","",""
"354","","127040","HierDycka5bq6n","zxjkr193f7","msl000686","motor","img/motor_4.png","70","70","motor","4","108","1","0","0","",""
"null","","127147","HierDycka5bq6n","zxjkr193f7","msl000686","iti","img/motor_blank.png","null","70","motor","","","","","","",""
"388","","127541","HierDycka5bq6n","zxjkr193f7","msl000686","motor","img/motor_2.png","83","83","motor","2","109","1","0","0","",""
"null","","127648","HierDycka5bq6n","zxjkr193f7","msl000686","iti","img/motor_blank.png","null","83","motor","","","","","","",""
"343","","127996","HierDycka5bq6n","zxjkr193f7","msl000686","motor","img/motor_2.png","83","83","motor","2","110","1","0","0","",""
"null","","128101","HierDycka5bq6n","zxjkr193f7","msl000686","iti","img/motor_blank.png","null","83","motor","","","","","","",""
"503","","128610","HierDycka5bq6n","zxjkr193f7","msl000686","motor","img/motor_8.png","76","76","motor","8","111","1","0","0","",""
"null","","128716","HierDycka5bq6n","zxjkr193f7","msl000686","iti","img/motor_blank.png","null","76","motor","","","","","","",""
"495","","129217","HierDycka5bq6n","zxjkr193f7","msl000686","motor","img/motor_2.png","83","83","motor","2","112","1","0","0","",""
"null","","129324","HierDycka5bq6n","zxjkr193f7","msl000686","iti","img/motor_blank.png","null","83","motor","","","","","","",""
"490","","129821","HierDycka5bq6n","zxjkr193f7","msl000686","motor","img/motor_7.png","75","75","motor","7","113","1","0","0","",""
"null","","129929","HierDycka5bq6n","zxjkr193f7","msl000686","iti","img/motor_blank.png","null","75","motor","","","","","","",""
"373","","130309","HierDycka5bq6n","zxjkr193f7","msl000686","motor","img/motor_4.png","83","70","motor","4","114","0","1","0","",""
"473","","130787","HierDycka5bq6n","zxjkr193f7","msl000686","motorRepeat","img/motor_4.png","72","70","motor","4","114","0","1","0","",""
"266","","131058","HierDycka5bq6n","zxjkr193f7","msl000686","motorRepeat","img/motor_4.png","70","70","motor","4","114","1","0","0","",""
"null","","131164","HierDycka5bq6n","zxjkr193f7","msl000686","iti","img/motor_blank.png","null","70","motor","","","","","","",""
"400","","131570","HierDycka5bq6n","zxjkr193f7","msl000686","motor","img/motor_4.png","70","70","motor","4","115","1","0","0","",""
"null","","131676","HierDycka5bq6n","zxjkr193f7","msl000686","iti","img/motor_blank.png","null","70","motor","","","","","","",""
"662","","132343","HierDycka5bq6n","zxjkr193f7","msl000686","motor","img/motor_3.png","68","68","motor","3","116","1","0","0","",""
"null","","132449","HierDycka5bq6n","zxjkr193f7","msl000686","iti","img/motor_blank.png","null","68","motor","","","","","","",""
"366","","132823","HierDycka5bq6n","zxjkr193f7","msl000686","motor","img/motor_3.png","68","68","motor","3","117","1","0","0","",""
"null","","132931","HierDycka5bq6n","zxjkr193f7","msl000686","iti","img/motor_blank.png","null","68","motor","","","","","","",""
"587","","133526","HierDycka5bq6n","zxjkr193f7","msl000686","motor","img/motor_6.png","74","74","motor","6","118","1","0","0","",""
"null","","133633","HierDycka5bq6n","zxjkr193f7","msl000686","iti","img/motor_blank.png","null","74","motor","","","","","","",""
"73","","133712","HierDycka5bq6n","zxjkr193f7","msl000686","motor","img/motor_3.png","74","68","motor","3","119","0","1","0","",""
"402","","134121","HierDycka5bq6n","zxjkr193f7","msl000686","motorRepeat","img/motor_3.png","68","68","motor","3","119","1","0","0","",""
"null","","134229","HierDycka5bq6n","zxjkr193f7","msl000686","iti","img/motor_blank.png","null","68","motor","","","","","","",""
"482","","134718","HierDycka5bq6n","zxjkr193f7","msl000686","motor","img/motor_6.png","74","74","motor","6","120","1","0","0","",""
"null","","134826","HierDycka5bq6n","zxjkr193f7","msl000686","iti","img/motor_blank.png","null","74","motor","","","","","","",""
"580","","135414","HierDycka5bq6n","zxjkr193f7","msl000686","motor","img/motor_5.png","72","72","motor","5","121","1","0","0","",""
"null","","135521","HierDycka5bq6n","zxjkr193f7","msl000686","iti","img/motor_blank.png","null","72","motor","","","","","","",""
"451","","135981","HierDycka5bq6n","zxjkr193f7","msl000686","motor","img/motor_5.png","72","72","motor","5","122","1","0","0","",""
"null","","136090","HierDycka5bq6n","zxjkr193f7","msl000686","iti","img/motor_blank.png","null","72","motor","","","","","","",""
"594","","136691","HierDycka5bq6n","zxjkr193f7","msl000686","motor","img/motor_2.png","68","83","motor","2","123","0","1","0","",""
"337","","137038","HierDycka5bq6n","zxjkr193f7","msl000686","motorRepeat","img/motor_2.png","83","83","motor","2","123","1","0","0","",""
"null","","137145","HierDycka5bq6n","zxjkr193f7","msl000686","iti","img/motor_blank.png","null","83","motor","","","","","","",""
"634","","137786","HierDycka5bq6n","zxjkr193f7","msl000686","motor","img/motor_6.png","75","74","motor","6","124","0","1","0","",""
"359","","138151","HierDycka5bq6n","zxjkr193f7","msl000686","motorRepeat","img/motor_6.png","74","74","motor","6","124","1","0","0","",""
"null","","138258","HierDycka5bq6n","zxjkr193f7","msl000686","iti","img/motor_blank.png","null","74","motor","","","","","","",""
"740","","139005","HierDycka5bq6n","zxjkr193f7","msl000686","motor","img/motor_2.png","83","83","motor","2","125","1","0","0","",""
"null","","139110","HierDycka5bq6n","zxjkr193f7","msl000686","iti","img/motor_blank.png","null","83","motor","","","","","","",""
"621","","139737","HierDycka5bq6n","zxjkr193f7","msl000686","motor","img/motor_1.png","65","65","motor","1","126","1","0","0","",""
"null","","139843","HierDycka5bq6n","zxjkr193f7","msl000686","iti","img/motor_blank.png","null","65","motor","","","","","","",""
"473","","140323","HierDycka5bq6n","zxjkr193f7","msl000686","motor","img/motor_8.png","76","76","motor","8","127","1","0","0","",""
"null","","140430","HierDycka5bq6n","zxjkr193f7","msl000686","iti","img/motor_blank.png","null","76","motor","","","","","","",""
"478","","140913","HierDycka5bq6n","zxjkr193f7","msl000686","motor","img/motor_5.png","72","72","motor","5","128","1","0","0","",""
"null","","141020","HierDycka5bq6n","zxjkr193f7","msl000686","iti","img/motor_blank.png","null","72","motor","","","","","","",""
"654","","141680","HierDycka5bq6n","zxjkr193f7","msl000686","motor","img/motor_7.png","75","75","motor","7","129","1","0","0","",""
"null","","141789","HierDycka5bq6n","zxjkr193f7","msl000686","iti","img/motor_blank.png","null","75","motor","","","","","","",""
"609","","142404","HierDycka5bq6n","zxjkr193f7","msl000686","motor","img/motor_4.png","70","70","motor","4","130","1","0","0","",""
"null","","142512","HierDycka5bq6n","zxjkr193f7","msl000686","iti","img/motor_blank.png","null","70","motor","","","","","","",""
"1026","","143547","HierDycka5bq6n","zxjkr193f7","msl000686","motor","img/motor_1.png","65","65","motor","1","131","1","0","0","",""
"12","","143657","HierDycka5bq6n","zxjkr193f7","msl000686","iti","img/motor_blank.png","83","65","motor","","","","","","",""
"711","","144376","HierDycka5bq6n","zxjkr193f7","msl000686","motor","img/motor_5.png","72","72","motor","5","132","1","0","0","",""
"null","","144484","HierDycka5bq6n","zxjkr193f7","msl000686","iti","img/motor_blank.png","null","72","motor","","","","","","",""
"1037","","145528","HierDycka5bq6n","zxjkr193f7","msl000686","motor","img/motor_6.png","68","74","motor","6","133","0","1","0","",""
"513","","146048","HierDycka5bq6n","zxjkr193f7","msl000686","motorRepeat","img/motor_6.png","70","74","motor","6","133","0","1","0","",""
"265","","146320","HierDycka5bq6n","zxjkr193f7","msl000686","motorRepeat","img/motor_6.png","74","74","motor","6","133","1","0","0","",""
"null","","146428","HierDycka5bq6n","zxjkr193f7","msl000686","iti","img/motor_blank.png","null","74","motor","","","","","","",""
"591","","147027","HierDycka5bq6n","zxjkr193f7","msl000686","motor","img/motor_5.png","72","72","motor","5","134","1","0","0","",""
"null","","147134","HierDycka5bq6n","zxjkr193f7","msl000686","iti","img/motor_blank.png","null","72","motor","","","","","","",""
"584","","147725","HierDycka5bq6n","zxjkr193f7","msl000686","motor","img/motor_1.png","65","65","motor","1","135","1","0","0","",""
"null","","147832","HierDycka5bq6n","zxjkr193f7","msl000686","iti","img/motor_blank.png","null","65","motor","","","","","","",""
"663","","148503","HierDycka5bq6n","zxjkr193f7","msl000686","motor","img/motor_3.png","68","68","motor","3","136","1","0","0","",""
"null","","148611","HierDycka5bq6n","zxjkr193f7","msl000686","iti","img/motor_blank.png","null","68","motor","","","","","","",""
"601","","149219","HierDycka5bq6n","zxjkr193f7","msl000686","motor","img/motor_1.png","65","65","motor","1","137","1","0","0","",""
"null","","149327","HierDycka5bq6n","zxjkr193f7","msl000686","iti","img/motor_blank.png","null","65","motor","","","","","","",""
"454","","149789","HierDycka5bq6n","zxjkr193f7","msl000686","motor","img/motor_4.png","70","70","motor","4","138","1","0","0","",""
"null","","149896","HierDycka5bq6n","zxjkr193f7","msl000686","iti","img/motor_blank.png","null","70","motor","","","","","","",""
"665","","150569","HierDycka5bq6n","zxjkr193f7","msl000686","motor","img/motor_7.png","75","75","motor","7","139","1","0","0","",""
"null","","150677","HierDycka5bq6n","zxjkr193f7","msl000686","iti","img/motor_blank.png","null","75","motor","","","","","","",""
"623","","151308","HierDycka5bq6n","zxjkr193f7","msl000686","motor","img/motor_3.png","70","68","motor","3","140","0","1","0","",""
"153","","151468","HierDycka5bq6n","zxjkr193f7","msl000686","motorRepeat","img/motor_3.png","68","68","motor","3","140","1","0","0","",""
"null","","151575","HierDycka5bq6n","zxjkr193f7","msl000686","iti","img/motor_blank.png","null","68","motor","","","","","","",""
"529","","152111","HierDycka5bq6n","zxjkr193f7","msl000686","motor","img/motor_2.png","83","83","motor","2","141","1","0","0","",""
"null","","152217","HierDycka5bq6n","zxjkr193f7","msl000686","iti","img/motor_blank.png","null","83","motor","","","","","","",""
"504","","152729","HierDycka5bq6n","zxjkr193f7","msl000686","motor","img/motor_4.png","70","70","motor","4","142","1","0","0","",""
"null","","152834","HierDycka5bq6n","zxjkr193f7","msl000686","iti","img/motor_blank.png","null","70","motor","","","","","","",""
"529","","153371","HierDycka5bq6n","zxjkr193f7","msl000686","motor","img/motor_1.png","65","65","motor","1","143","1","0","0","",""
"null","","153476","HierDycka5bq6n","zxjkr193f7","msl000686","iti","img/motor_blank.png","null","65","motor","","","","","","",""
"512","","153994","HierDycka5bq6n","zxjkr193f7","msl000686","motor","img/motor_2.png","83","83","motor","2","144","1","0","0","",""
"null","","154101","HierDycka5bq6n","zxjkr193f7","msl000686","iti","img/motor_blank.png","null","83","motor","","","","","","",""
"463","","154570","HierDycka5bq6n","zxjkr193f7","msl000686","motor","img/motor_4.png","70","70","motor","4","145","1","0","0","",""
"null","","154677","HierDycka5bq6n","zxjkr193f7","msl000686","iti","img/motor_blank.png","null","70","motor","","","","","","",""
"574","","155258","HierDycka5bq6n","zxjkr193f7","msl000686","motor","img/motor_7.png","75","75","motor","7","146","1","0","0","",""
"null","","155366","HierDycka5bq6n","zxjkr193f7","msl000686","iti","img/motor_blank.png","null","75","motor","","","","","","",""
"753","","156127","HierDycka5bq6n","zxjkr193f7","msl000686","motor","img/motor_2.png","83","83","motor","2","147","1","0","0","",""
"null","","156234","HierDycka5bq6n","zxjkr193f7","msl000686","iti","img/motor_blank.png","null","83","motor","","","","","","",""
"485","","156725","HierDycka5bq6n","zxjkr193f7","msl000686","motor","img/motor_7.png","75","75","motor","7","148","1","0","0","",""
"null","","156831","HierDycka5bq6n","zxjkr193f7","msl000686","iti","img/motor_blank.png","null","75","motor","","","","","","",""
"413","","157252","HierDycka5bq6n","zxjkr193f7","msl000686","motor","img/motor_2.png","83","83","motor","2","149","1","0","0","",""
"null","","157358","HierDycka5bq6n","zxjkr193f7","msl000686","iti","img/motor_blank.png","null","83","motor","","","","","","",""
"563","","157929","HierDycka5bq6n","zxjkr193f7","msl000686","motor","img/motor_8.png","76","76","motor","8","150","1","0","0","",""
"null","","158036","HierDycka5bq6n","zxjkr193f7","msl000686","iti","img/motor_blank.png","null","76","motor","","","","","","",""
"731","","158773","HierDycka5bq6n","zxjkr193f7","msl000686","motor","img/motor_3.png","68","68","motor","3","151","1","0","0","",""
"null","","158882","HierDycka5bq6n","zxjkr193f7","msl000686","iti","img/motor_blank.png","null","68","motor","","","","","","",""
"656","","159545","HierDycka5bq6n","zxjkr193f7","msl000686","motor","img/motor_8.png","76","76","motor","8","152","1","0","0","",""
"null","","159653","HierDycka5bq6n","zxjkr193f7","msl000686","iti","img/motor_blank.png","null","76","motor","","","","","","",""
"583","","160243","HierDycka5bq6n","zxjkr193f7","msl000686","motor","img/motor_3.png","68","68","motor","3","153","1","0","0","",""
"null","","160350","HierDycka5bq6n","zxjkr193f7","msl000686","iti","img/motor_blank.png","null","68","motor","","","","","","",""
"573","","160931","HierDycka5bq6n","zxjkr193f7","msl000686","motor","img/motor_1.png","65","65","motor","1","154","1","0","0","",""
"null","","161039","HierDycka5bq6n","zxjkr193f7","msl000686","iti","img/motor_blank.png","null","65","motor","","","","","","",""
"698","","161745","HierDycka5bq6n","zxjkr193f7","msl000686","motor","img/motor_6.png","74","74","motor","6","155","1","0","0","",""
"null","","161852","HierDycka5bq6n","zxjkr193f7","msl000686","iti","img/motor_blank.png","null","74","motor","","","","","","",""
"795","","162654","HierDycka5bq6n","zxjkr193f7","msl000686","motor","img/motor_2.png","83","83","motor","2","156","1","0","0","",""
"null","","162762","HierDycka5bq6n","zxjkr193f7","msl000686","iti","img/motor_blank.png","null","83","motor","","","","","","",""
"436","","163205","HierDycka5bq6n","zxjkr193f7","msl000686","motor","img/motor_3.png","68","68","motor","3","157","1","0","0","",""
"null","","163311","HierDycka5bq6n","zxjkr193f7","msl000686","iti","img/motor_blank.png","null","68","motor","","","","","","",""
"463","","163781","HierDycka5bq6n","zxjkr193f7","msl000686","motor","img/motor_5.png","72","72","motor","5","158","1","0","0","",""
"null","","163888","HierDycka5bq6n","zxjkr193f7","msl000686","iti","img/motor_blank.png","null","72","motor","","","","","","",""
"484","","164379","HierDycka5bq6n","zxjkr193f7","msl000686","motor","img/motor_1.png","65","65","motor","1","159","1","0","0","",""
"null","","164487","HierDycka5bq6n","zxjkr193f7","msl000686","iti","img/motor_blank.png","null","65","motor","","","","","","",""
"715","","165208","HierDycka5bq6n","zxjkr193f7","msl000686","motor","img/motor_4.png","70","70","motor","4","160","1","0","0","",""
"null","","165314","HierDycka5bq6n","zxjkr193f7","msl000686","iti","img/motor_blank.png","null","70","motor","","","","","","",""
"573","","165893","HierDycka5bq6n","zxjkr193f7","msl000686","motor","img/motor_5.png","72","72","motor","5","161","1","0","0","",""
"null","","165999","HierDycka5bq6n","zxjkr193f7","msl000686","iti","img/motor_blank.png","null","72","motor","","","","","","",""
"690","","166693","HierDycka5bq6n","zxjkr193f7","msl000686","motor","img/motor_2.png","83","83","motor","2","162","1","0","0","",""
"null","","166800","HierDycka5bq6n","zxjkr193f7","msl000686","iti","img/motor_blank.png","null","83","motor","","","","","","",""
"799","","167606","HierDycka5bq6n","zxjkr193f7","msl000686","motor","img/motor_5.png","70","72","motor","5","163","0","1","0","",""
"382","","167995","HierDycka5bq6n","zxjkr193f7","msl000686","motorRepeat","img/motor_5.png","72","72","motor","5","163","1","0","0","",""
"null","","168101","HierDycka5bq6n","zxjkr193f7","msl000686","iti","img/motor_blank.png","null","72","motor","","","","","","",""
"809","","168917","HierDycka5bq6n","zxjkr193f7","msl000686","motor","img/motor_1.png","65","65","motor","1","164","1","0","0","",""
"null","","169026","HierDycka5bq6n","zxjkr193f7","msl000686","iti","img/motor_blank.png","null","65","motor","","","","","","",""
"740","","169774","HierDycka5bq6n","zxjkr193f7","msl000686","motor","img/motor_6.png","74","74","motor","6","165","1","0","0","",""
"null","","169881","HierDycka5bq6n","zxjkr193f7","msl000686","iti","img/motor_blank.png","null","74","motor","","","","","","",""
"764","","170652","HierDycka5bq6n","zxjkr193f7","msl000686","motor","img/motor_4.png","70","70","motor","4","166","1","0","0","",""
"null","","170758","HierDycka5bq6n","zxjkr193f7","msl000686","iti","img/motor_blank.png","null","70","motor","","","","","","",""
"486","","171251","HierDycka5bq6n","zxjkr193f7","msl000686","motor","img/motor_4.png","70","70","motor","4","167","1","0","0","",""
"null","","171357","HierDycka5bq6n","zxjkr193f7","msl000686","iti","img/motor_blank.png","null","70","motor","","","","","","",""
"635","","171999","HierDycka5bq6n","zxjkr193f7","msl000686","motor","img/motor_5.png","72","72","motor","5","168","1","0","0","",""
"null","","172106","HierDycka5bq6n","zxjkr193f7","msl000686","iti","img/motor_blank.png","null","72","motor","","","","","","",""
"576","","172691","HierDycka5bq6n","zxjkr193f7","msl000686","motor","img/motor_1.png","65","65","motor","1","169","1","0","0","",""
"null","","172798","HierDycka5bq6n","zxjkr193f7","msl000686","iti","img/motor_blank.png","null","65","motor","","","","","","",""
"557","","173362","HierDycka5bq6n","zxjkr193f7","msl000686","motor","img/motor_5.png","72","72","motor","5","170","1","0","0","",""
"null","","173470","HierDycka5bq6n","zxjkr193f7","msl000686","iti","img/motor_blank.png","null","72","motor","","","","","","",""
"714","","174192","HierDycka5bq6n","zxjkr193f7","msl000686","motor","img/motor_4.png","70","70","motor","4","171","1","0","0","",""
"null","","174299","HierDycka5bq6n","zxjkr193f7","msl000686","iti","img/motor_blank.png","null","70","motor","","","","","","",""
"575","","174880","HierDycka5bq6n","zxjkr193f7","msl000686","motor","img/motor_6.png","74","74","motor","6","172","1","0","0","",""
"null","","174988","HierDycka5bq6n","zxjkr193f7","msl000686","iti","img/motor_blank.png","null","74","motor","","","","","","",""
"516","","175512","HierDycka5bq6n","zxjkr193f7","msl000686","motor","img/motor_7.png","75","75","motor","7","173","1","0","0","",""
"null","","175618","HierDycka5bq6n","zxjkr193f7","msl000686","iti","img/motor_blank.png","null","75","motor","","","","","","",""
"478","","176103","HierDycka5bq6n","zxjkr193f7","msl000686","motor","img/motor_1.png","65","65","motor","1","174","1","0","0","",""
"null","","176211","HierDycka5bq6n","zxjkr193f7","msl000686","iti","img/motor_blank.png","null","65","motor","","","","","","",""
"939","","177159","HierDycka5bq6n","zxjkr193f7","msl000686","motor","img/motor_6.png","74","74","motor","6","175","1","0","0","",""
"null","","177267","HierDycka5bq6n","zxjkr193f7","msl000686","iti","img/motor_blank.png","null","74","motor","","","","","","",""
"491","","177765","HierDycka5bq6n","zxjkr193f7","msl000686","motor","img/motor_4.png","70","70","motor","4","176","1","0","0","",""
"null","","177870","HierDycka5bq6n","zxjkr193f7","msl000686","iti","img/motor_blank.png","null","70","motor","","","","","","",""
"465","","178341","HierDycka5bq6n","zxjkr193f7","msl000686","motor","img/motor_8.png","76","76","motor","8","177","1","0","0","",""
"null","","178448","HierDycka5bq6n","zxjkr193f7","msl000686","iti","img/motor_blank.png","null","76","motor","","","","","","",""
"686","","179139","HierDycka5bq6n","zxjkr193f7","msl000686","motor","img/motor_4.png","70","70","motor","4","178","1","0","0","",""
"null","","179244","HierDycka5bq6n","zxjkr193f7","msl000686","iti","img/motor_blank.png","null","70","motor","","","","","","",""
"594","","179844","HierDycka5bq6n","zxjkr193f7","msl000686","motor","img/motor_2.png","83","83","motor","2","179","1","0","0","",""
"null","","179950","HierDycka5bq6n","zxjkr193f7","msl000686","iti","img/motor_blank.png","null","83","motor","","","","","","",""
"528","","180486","HierDycka5bq6n","zxjkr193f7","msl000686","motor","img/motor_7.png","75","75","motor","7","180","1","0","0","",""
"null","","180592","HierDycka5bq6n","zxjkr193f7","msl000686","iti","img/motor_blank.png","null","75","motor","","","","","","",""
"521","","181119","HierDycka5bq6n","zxjkr193f7","msl000686","motor","img/motor_3.png","68","68","motor","3","181","1","0","0","",""
"null","","181226","HierDycka5bq6n","zxjkr193f7","msl000686","iti","img/motor_blank.png","null","68","motor","","","","","","",""
"507","","181742","HierDycka5bq6n","zxjkr193f7","msl000686","motor","img/motor_7.png","75","75","motor","7","182","1","0","0","",""
"null","","181850","HierDycka5bq6n","zxjkr193f7","msl000686","iti","img/motor_blank.png","null","75","motor","","","","","","",""
"511","","182369","HierDycka5bq6n","zxjkr193f7","msl000686","motor","img/motor_1.png","65","65","motor","1","183","1","0","0","",""
"null","","182477","HierDycka5bq6n","zxjkr193f7","msl000686","iti","img/motor_blank.png","null","65","motor","","","","","","",""
"497","","182980","HierDycka5bq6n","zxjkr193f7","msl000686","motor","img/motor_8.png","76","76","motor","8","184","1","0","0","",""
"null","","183087","HierDycka5bq6n","zxjkr193f7","msl000686","iti","img/motor_blank.png","null","76","motor","","","","","","",""
"831","","183925","HierDycka5bq6n","zxjkr193f7","msl000686","motor","img/motor_6.png","74","74","motor","6","185","1","0","0","",""
"null","","184033","HierDycka5bq6n","zxjkr193f7","msl000686","iti","img/motor_blank.png","null","74","motor","","","","","","",""
"639","","184679","HierDycka5bq6n","zxjkr193f7","msl000686","motor","img/motor_4.png","70","70","motor","4","186","1","0","0","",""
"null","","184785","HierDycka5bq6n","zxjkr193f7","msl000686","iti","img/motor_blank.png","null","70","motor","","","","","","",""
"383","","185176","HierDycka5bq6n","zxjkr193f7","msl000686","motor","img/motor_8.png","76","76","motor","8","187","1","0","0","",""
"null","","185281","HierDycka5bq6n","zxjkr193f7","msl000686","iti","img/motor_blank.png","null","76","motor","","","","","","",""
"580","","185868","HierDycka5bq6n","zxjkr193f7","msl000686","motor","img/motor_2.png","83","83","motor","2","188","1","0","0","",""
"null","","185975","HierDycka5bq6n","zxjkr193f7","msl000686","iti","img/motor_blank.png","null","83","motor","","","","","","",""
"509","","186491","HierDycka5bq6n","zxjkr193f7","msl000686","motor","img/motor_1.png","65","65","motor","1","189","1","0","0","",""
"null","","186599","HierDycka5bq6n","zxjkr193f7","msl000686","iti","img/motor_blank.png","null","65","motor","","","","","","",""
"551","","187158","HierDycka5bq6n","zxjkr193f7","msl000686","motor","img/motor_8.png","76","76","motor","8","190","1","0","0","",""
"null","","187266","HierDycka5bq6n","zxjkr193f7","msl000686","iti","img/motor_blank.png","null","76","motor","","","","","","",""
"708","","187981","HierDycka5bq6n","zxjkr193f7","msl000686","motor","img/motor_5.png","74","72","motor","5","191","0","1","0","",""
"409","","188397","HierDycka5bq6n","zxjkr193f7","msl000686","motorRepeat","img/motor_5.png","72","72","motor","5","191","1","0","0","",""
"null","","188505","HierDycka5bq6n","zxjkr193f7","msl000686","iti","img/motor_blank.png","null","72","motor","","","","","","",""
"523","","189035","HierDycka5bq6n","zxjkr193f7","msl000686","motor","img/motor_6.png","74","74","motor","6","192","1","0","0","",""
"null","","189144","HierDycka5bq6n","zxjkr193f7","msl000686","iti","img/motor_blank.png","null","74","motor","","","","","","",""
"621","","189773","HierDycka5bq6n","zxjkr193f7","msl000686","motor","img/motor_3.png","83","68","motor","3","193","0","1","0","",""
"383","","190163","HierDycka5bq6n","zxjkr193f7","msl000686","motorRepeat","img/motor_3.png","68","68","motor","3","193","1","0","0","",""
"null","","190272","HierDycka5bq6n","zxjkr193f7","msl000686","iti","img/motor_blank.png","null","68","motor","","","","","","",""
"577","","190856","HierDycka5bq6n","zxjkr193f7","msl000686","motor","img/motor_1.png","65","65","motor","1","194","1","0","0","",""
"null","","190963","HierDycka5bq6n","zxjkr193f7","msl000686","iti","img/motor_blank.png","null","65","motor","","","","","","",""
"510","","191480","HierDycka5bq6n","zxjkr193f7","msl000686","motor","img/motor_7.png","74","75","motor","7","195","0","1","0","",""
"337","","191826","HierDycka5bq6n","zxjkr193f7","msl000686","motorRepeat","img/motor_7.png","75","75","motor","7","195","1","0","0","",""
"null","","191933","HierDycka5bq6n","zxjkr193f7","msl000686","iti","img/motor_blank.png","null","75","motor","","","","","","",""
"644","","192585","HierDycka5bq6n","zxjkr193f7","msl000686","motor","img/motor_4.png","68","70","motor","4","196","0","1","0","",""
"394","","192986","HierDycka5bq6n","zxjkr193f7","msl000686","motorRepeat","img/motor_4.png","70","70","motor","4","196","1","0","0","",""
"null","","193094","HierDycka5bq6n","zxjkr193f7","msl000686","iti","img/motor_blank.png","null","70","motor","","","","","","",""
"606","","193708","HierDycka5bq6n","zxjkr193f7","msl000686","motor","img/motor_2.png","83","83","motor","2","197","1","0","0","",""
"null","","193815","HierDycka5bq6n","zxjkr193f7","msl000686","iti","img/motor_blank.png","null","83","motor","","","","","","",""
"759","","194581","HierDycka5bq6n","zxjkr193f7","msl000686","motor","img/motor_4.png","70","70","motor","4","198","1","0","0","",""
"null","","194689","HierDycka5bq6n","zxjkr193f7","msl000686","iti","img/motor_blank.png","null","70","motor","","","","","","",""
"492","","195189","HierDycka5bq6n","zxjkr193f7","msl000686","motor","img/motor_4.png","70","70","motor","4","199","1","0","0","",""
"null","","195295","HierDycka5bq6n","zxjkr193f7","msl000686","iti","img/motor_blank.png","null","70","motor","","","","","","",""
"625","","195926","HierDycka5bq6n","zxjkr193f7","msl000686","motor","img/motor_1.png","65","65","motor","1","200","1","0","0","",""
"null","","196034","HierDycka5bq6n","zxjkr193f7","msl000686","iti","img/motor_blank.png","null","65","motor","","","","","","",""
"577","","196618","HierDycka5bq6n","zxjkr193f7","msl000686","motor","img/motor_2.png","68","83","motor","2","201","0","1","0","",""
"94","","196720","HierDycka5bq6n","zxjkr193f7","msl000686","motorRepeat","img/motor_2.png","83","83","motor","2","201","1","0","0","",""
"null","","196829","HierDycka5bq6n","zxjkr193f7","msl000686","iti","img/motor_blank.png","null","83","motor","","","","","","",""
"521","","197358","HierDycka5bq6n","zxjkr193f7","msl000686","motor","img/motor_8.png","76","76","motor","8","202","1","0","0","",""
"null","","197466","HierDycka5bq6n","zxjkr193f7","msl000686","iti","img/motor_blank.png","null","76","motor","","","","","","",""
"653","","198127","HierDycka5bq6n","zxjkr193f7","msl000686","motor","img/motor_7.png","75","75","motor","7","203","1","0","0","",""
"null","","198235","HierDycka5bq6n","zxjkr193f7","msl000686","iti","img/motor_blank.png","null","75","motor","","","","","","",""
"613","","198856","HierDycka5bq6n","zxjkr193f7","msl000686","motor","img/motor_5.png","72","72","motor","5","204","1","0","0","",""
"null","","198963","HierDycka5bq6n","zxjkr193f7","msl000686","iti","img/motor_blank.png","null","72","motor","","","","","","",""
"472","","199442","HierDycka5bq6n","zxjkr193f7","msl000686","motor","img/motor_8.png","76","76","motor","8","205","1","0","0","",""
"null","","199549","HierDycka5bq6n","zxjkr193f7","msl000686","iti","img/motor_blank.png","null","76","motor","","","","","","",""
"570","","200129","HierDycka5bq6n","zxjkr193f7","msl000686","motor","img/motor_1.png","65","65","motor","1","206","1","0","0","",""
"null","","200238","HierDycka5bq6n","zxjkr193f7","msl000686","iti","img/motor_blank.png","null","65","motor","","","","","","",""
"600","","200849","HierDycka5bq6n","zxjkr193f7","msl000686","motor","img/motor_8.png","76","76","motor","8","207","1","0","0","",""
"null","","200958","HierDycka5bq6n","zxjkr193f7","msl000686","iti","img/motor_blank.png","null","76","motor","","","","","","",""
"491","","201458","HierDycka5bq6n","zxjkr193f7","msl000686","motor","img/motor_1.png","65","65","motor","1","208","1","0","0","",""
"null","","201566","HierDycka5bq6n","zxjkr193f7","msl000686","iti","img/motor_blank.png","null","65","motor","","","","","","",""
"346","","201921","HierDycka5bq6n","zxjkr193f7","msl000686","motor","img/motor_8.png","76","76","motor","8","209","1","0","0","",""
"null","","202028","HierDycka5bq6n","zxjkr193f7","msl000686","iti","img/motor_blank.png","null","76","motor","","","","","","",""
"677","","202714","HierDycka5bq6n","zxjkr193f7","msl000686","motor","img/motor_7.png","75","75","motor","7","210","1","0","0","",""
"null","","202823","HierDycka5bq6n","zxjkr193f7","msl000686","iti","img/motor_blank.png","null","75","motor","","","","","","",""
"798","","203628","HierDycka5bq6n","zxjkr193f7","msl000686","motor","img/motor_4.png","68","70","motor","4","211","0","1","0","",""
"376","","204013","HierDycka5bq6n","zxjkr193f7","msl000686","motorRepeat","img/motor_4.png","74","70","motor","4","211","0","1","0","",""
"592","","204614","HierDycka5bq6n","zxjkr193f7","msl000686","motorRepeat","img/motor_4.png","70","70","motor","4","211","1","0","0","",""
"null","","204726","HierDycka5bq6n","zxjkr193f7","msl000686","iti","img/motor_blank.png","null","70","motor","","","","","","",""
"490","","205225","HierDycka5bq6n","zxjkr193f7","msl000686","motor","img/motor_8.png","76","76","motor","8","212","1","0","0","",""
"null","","205334","HierDycka5bq6n","zxjkr193f7","msl000686","iti","img/motor_blank.png","null","76","motor","","","","","","",""
"867","","206208","HierDycka5bq6n","zxjkr193f7","msl000686","motor","img/motor_1.png","65","65","motor","1","213","1","0","0","",""
"null","","206317","HierDycka5bq6n","zxjkr193f7","msl000686","iti","img/motor_blank.png","null","65","motor","","","","","","",""
"624","","206948","HierDycka5bq6n","zxjkr193f7","msl000686","motor","img/motor_7.png","75","75","motor","7","214","1","0","0","",""
"null","","207055","HierDycka5bq6n","zxjkr193f7","msl000686","iti","img/motor_blank.png","null","75","motor","","","","","","",""
"590","","207654","HierDycka5bq6n","zxjkr193f7","msl000686","motor","img/motor_3.png","68","68","motor","3","215","1","0","0","",""
"null","","207762","HierDycka5bq6n","zxjkr193f7","msl000686","iti","img/motor_blank.png","null","68","motor","","","","","","",""
"629","","208398","HierDycka5bq6n","zxjkr193f7","msl000686","motor","img/motor_7.png","75","75","motor","7","216","1","0","0","",""
"null","","208508","HierDycka5bq6n","zxjkr193f7","msl000686","iti","img/motor_blank.png","null","75","motor","","","","","","",""
"784","","209300","HierDycka5bq6n","zxjkr193f7","msl000686","motor","img/motor_2.png","83","83","motor","2","217","1","0","0","",""
"null","","209409","HierDycka5bq6n","zxjkr193f7","msl000686","iti","img/motor_blank.png","null","83","motor","","","","","","",""
"691","","210108","HierDycka5bq6n","zxjkr193f7","msl000686","motor","img/motor_6.png","74","74","motor","6","218","1","0","0","",""
"null","","210216","HierDycka5bq6n","zxjkr193f7","msl000686","iti","img/motor_blank.png","null","74","motor","","","","","","",""
"752","","210977","HierDycka5bq6n","zxjkr193f7","msl000686","motor","img/motor_1.png","70","65","motor","1","219","0","1","0","",""
"438","","211422","HierDycka5bq6n","zxjkr193f7","msl000686","motorRepeat","img/motor_1.png","65","65","motor","1","219","1","0","0","",""
"null","","211531","HierDycka5bq6n","zxjkr193f7","msl000686","iti","img/motor_blank.png","null","65","motor","","","","","","",""
"609","","212147","HierDycka5bq6n","zxjkr193f7","msl000686","motor","img/motor_2.png","83","83","motor","2","220","1","0","0","",""
"null","","212255","HierDycka5bq6n","zxjkr193f7","msl000686","iti","img/motor_blank.png","null","83","motor","","","","","","",""
"490","","212753","HierDycka5bq6n","zxjkr193f7","msl000686","motor","img/motor_8.png","76","76","motor","8","221","1","0","0","",""
"null","","212860","HierDycka5bq6n","zxjkr193f7","msl000686","iti","img/motor_blank.png","null","76","motor","","","","","","",""
"563","","213433","HierDycka5bq6n","zxjkr193f7","msl000686","motor","img/motor_8.png","76","76","motor","8","222","1","0","0","",""
"null","","213541","HierDycka5bq6n","zxjkr193f7","msl000686","iti","img/motor_blank.png","null","76","motor","","","","","","",""
"591","","214142","HierDycka5bq6n","zxjkr193f7","msl000686","motor","img/motor_1.png","65","65","motor","1","223","1","0","0","",""
"null","","214250","HierDycka5bq6n","zxjkr193f7","msl000686","iti","img/motor_blank.png","null","65","motor","","","","","","",""
"904","","215162","HierDycka5bq6n","zxjkr193f7","msl000686","motor","img/motor_6.png","74","74","motor","6","224","1","0","0","",""
"null","","215270","HierDycka5bq6n","zxjkr193f7","msl000686","iti","img/motor_blank.png","null","74","motor","","","","","","",""
"1470","","216749","HierDycka5bq6n","zxjkr193f7","msl000686","motor","img/motor_2.png","68","83","motor","2","225","0","1","0","",""
"342","","217099","HierDycka5bq6n","zxjkr193f7","msl000686","motorRepeat","img/motor_2.png","83","83","motor","2","225","1","0","0","",""
"null","","217208","HierDycka5bq6n","zxjkr193f7","msl000686","iti","img/motor_blank.png","null","83","motor","","","","","","",""
"502","","217717","HierDycka5bq6n","zxjkr193f7","msl000686","motor","img/motor_1.png","65","65","motor","1","226","1","0","0","",""
"null","","217825","HierDycka5bq6n","zxjkr193f7","msl000686","iti","img/motor_blank.png","null","65","motor","","","","","","",""
"471","","218304","HierDycka5bq6n","zxjkr193f7","msl000686","motor","img/motor_8.png","76","76","motor","8","227","1","0","0","",""
"null","","218412","HierDycka5bq6n","zxjkr193f7","msl000686","iti","img/motor_blank.png","null","76","motor","","","","","","",""
"687","","219107","HierDycka5bq6n","zxjkr193f7","msl000686","motor","img/motor_4.png","70","70","motor","4","228","1","0","0","",""
"null","","219214","HierDycka5bq6n","zxjkr193f7","msl000686","iti","img/motor_blank.png","null","70","motor","","","","","","",""
"428","","219650","HierDycka5bq6n","zxjkr193f7","msl000686","motor","img/motor_8.png","76","76","motor","8","229","1","0","0","",""
"null","","219758","HierDycka5bq6n","zxjkr193f7","msl000686","iti","img/motor_blank.png","null","76","motor","","","","","","",""
"527","","220292","HierDycka5bq6n","zxjkr193f7","msl000686","motor","img/motor_6.png","75","74","motor","6","230","0","1","0","",""
"293","","220592","HierDycka5bq6n","zxjkr193f7","msl000686","motorRepeat","img/motor_6.png","74","74","motor","6","230","1","0","0","",""
"null","","220700","HierDycka5bq6n","zxjkr193f7","msl000686","iti","img/motor_blank.png","null","74","motor","","","","","","",""
"404","","221111","HierDycka5bq6n","zxjkr193f7","msl000686","motor","img/motor_8.png","76","76","motor","8","231","1","0","0","",""
"null","","221219","HierDycka5bq6n","zxjkr193f7","msl000686","iti","img/motor_blank.png","null","76","motor","","","","","","",""
"560","","221787","HierDycka5bq6n","zxjkr193f7","msl000686","motor","img/motor_4.png","70","70","motor","4","232","1","0","0","",""
"null","","221895","HierDycka5bq6n","zxjkr193f7","msl000686","iti","img/motor_blank.png","null","70","motor","","","","","","",""
"736","","222638","HierDycka5bq6n","zxjkr193f7","msl000686","motor","img/motor_5.png","72","72","motor","5","233","1","0","0","",""
"null","","222747","HierDycka5bq6n","zxjkr193f7","msl000686","iti","img/motor_blank.png","null","72","motor","","","","","","",""
"434","","223190","HierDycka5bq6n","zxjkr193f7","msl000686","motor","img/motor_4.png","70","70","motor","4","234","1","0","0","",""
"null","","223298","HierDycka5bq6n","zxjkr193f7","msl000686","iti","img/motor_blank.png","null","70","motor","","","","","","",""
"435","","223741","HierDycka5bq6n","zxjkr193f7","msl000686","motor","img/motor_5.png","72","72","motor","5","235","1","0","0","",""
"null","","223849","HierDycka5bq6n","zxjkr193f7","msl000686","iti","img/motor_blank.png","null","72","motor","","","","","","",""
"637","","224494","HierDycka5bq6n","zxjkr193f7","msl000686","motor","img/motor_2.png","83","83","motor","2","236","1","0","0","",""
"null","","224601","HierDycka5bq6n","zxjkr193f7","msl000686","iti","img/motor_blank.png","null","83","motor","","","","","","",""
"447","","225056","HierDycka5bq6n","zxjkr193f7","msl000686","motor","img/motor_3.png","68","68","motor","3","237","1","0","0","",""
"null","","225164","HierDycka5bq6n","zxjkr193f7","msl000686","iti","img/motor_blank.png","null","68","motor","","","","","","",""
"426","","225598","HierDycka5bq6n","zxjkr193f7","msl000686","motor","img/motor_2.png","83","83","motor","2","238","1","0","0","",""
"null","","225707","HierDycka5bq6n","zxjkr193f7","msl000686","iti","img/motor_blank.png","null","83","motor","","","","","","",""
"460","","226175","HierDycka5bq6n","zxjkr193f7","msl000686","motor","img/motor_8.png","76","76","motor","8","239","1","0","0","",""
"null","","226283","HierDycka5bq6n","zxjkr193f7","msl000686","iti","img/motor_blank.png","null","76","motor","","","","","","",""
"527","","226818","HierDycka5bq6n","zxjkr193f7","msl000686","motor","img/motor_6.png","75","74","motor","6","240","0","1","0","",""
"345","","227170","HierDycka5bq6n","zxjkr193f7","msl000686","motorRepeat","img/motor_6.png","74","74","motor","6","240","1","0","0","",""
"null","","227278","HierDycka5bq6n","zxjkr193f7","msl000686","iti","img/motor_blank.png","null","74","motor","","","","","","",""
"592","","227877","HierDycka5bq6n","zxjkr193f7","msl000686","motor","img/motor_5.png","72","72","motor","5","241","1","0","0","",""
"null","","227984","HierDycka5bq6n","zxjkr193f7","msl000686","iti","img/motor_blank.png","null","72","motor","","","","","","",""
"427","","228419","HierDycka5bq6n","zxjkr193f7","msl000686","motor","img/motor_5.png","72","72","motor","5","242","1","0","0","",""
"null","","228526","HierDycka5bq6n","zxjkr193f7","msl000686","iti","img/motor_blank.png","null","72","motor","","","","","","",""
"404","","228937","HierDycka5bq6n","zxjkr193f7","msl000686","motor","img/motor_6.png","74","74","motor","6","243","1","0","0","",""
"null","","229045","HierDycka5bq6n","zxjkr193f7","msl000686","iti","img/motor_blank.png","null","74","motor","","","","","","",""
"362","","229413","HierDycka5bq6n","zxjkr193f7","msl000686","motor","img/motor_7.png","75","75","motor","7","244","1","0","0","",""
"null","","229522","HierDycka5bq6n","zxjkr193f7","msl000686","iti","img/motor_blank.png","null","75","motor","","","","","","",""
"451","","229981","HierDycka5bq6n","zxjkr193f7","msl000686","motor","img/motor_5.png","72","72","motor","5","245","1","0","0","",""
"null","","230089","HierDycka5bq6n","zxjkr193f7","msl000686","iti","img/motor_blank.png","null","72","motor","","","","","","",""
"669","","230765","HierDycka5bq6n","zxjkr193f7","msl000686","motor","img/motor_1.png","65","65","motor","1","246","1","0","0","",""
"null","","230873","HierDycka5bq6n","zxjkr193f7","msl000686","iti","img/motor_blank.png","null","65","motor","","","","","","",""
"626","","231507","HierDycka5bq6n","zxjkr193f7","msl000686","motor","img/motor_7.png","75","75","motor","7","247","1","0","0","",""
"null","","231614","HierDycka5bq6n","zxjkr193f7","msl000686","iti","img/motor_blank.png","null","75","motor","","","","","","",""
"458","","232079","HierDycka5bq6n","zxjkr193f7","msl000686","motor","img/motor_8.png","76","76","motor","8","248","1","0","0","",""
"null","","232187","HierDycka5bq6n","zxjkr193f7","msl000686","iti","img/motor_blank.png","null","76","motor","","","","","","",""
"451","","232646","HierDycka5bq6n","zxjkr193f7","msl000686","motor","img/motor_8.png","76","76","motor","8","249","1","0","0","",""
"null","","232754","HierDycka5bq6n","zxjkr193f7","msl000686","iti","img/motor_blank.png","null","76","motor","","","","","","",""
"598","","233360","HierDycka5bq6n","zxjkr193f7","msl000686","motor","img/motor_5.png","72","72","motor","5","250","1","0","0","",""
"null","","233468","HierDycka5bq6n","zxjkr193f7","msl000686","iti","img/motor_blank.png","null","72","motor","","","","","","",""
"689","","234165","HierDycka5bq6n","zxjkr193f7","msl000686","motor","img/motor_3.png","68","68","motor","3","251","1","0","0","",""
"null","","234272","HierDycka5bq6n","zxjkr193f7","msl000686","iti","img/motor_blank.png","null","68","motor","","","","","","",""
"541","","234821","HierDycka5bq6n","zxjkr193f7","msl000686","motor","img/motor_5.png","72","72","motor","5","252","1","0","0","",""
"null","","234929","HierDycka5bq6n","zxjkr193f7","msl000686","iti","img/motor_blank.png","null","72","motor","","","","","","",""
"551","","235488","HierDycka5bq6n","zxjkr193f7","msl000686","motor","img/motor_3.png","68","68","motor","3","253","1","0","0","",""
"null","","235596","HierDycka5bq6n","zxjkr193f7","msl000686","iti","img/motor_blank.png","null","68","motor","","","","","","",""
"482","","236086","HierDycka5bq6n","zxjkr193f7","msl000686","motor","img/motor_8.png","76","76","motor","8","254","1","0","0","",""
"null","","236194","HierDycka5bq6n","zxjkr193f7","msl000686","iti","img/motor_blank.png","null","76","motor","","","","","","",""
"558","","236758","HierDycka5bq6n","zxjkr193f7","msl000686","motor","img/motor_7.png","75","75","motor","7","255","1","0","0","",""
"82","","236867","HierDycka5bq6n","zxjkr193f7","msl000686","iti","img/motor_blank.png","65","75","motor","","","","","","",""
"600","","237475","HierDycka5bq6n","zxjkr193f7","msl000686","motor","img/motor_5.png","72","72","motor","5","256","1","0","0","",""
"null","","237583","HierDycka5bq6n","zxjkr193f7","msl000686","iti","img/motor_blank.png","null","72","motor","","","","","","",""
"605","","238194","HierDycka5bq6n","zxjkr193f7","msl000686","motor","img/motor_3.png","68","68","motor","3","257","1","0","0","",""
"null","","238303","HierDycka5bq6n","zxjkr193f7","msl000686","iti","img/motor_blank.png","null","68","motor","","","","","","",""
"497","","238806","HierDycka5bq6n","zxjkr193f7","msl000686","motor","img/motor_2.png","83","83","motor","2","258","1","0","0","",""
"null","","238915","HierDycka5bq6n","zxjkr193f7","msl000686","iti","img/motor_blank.png","null","83","motor","","","","","","",""
"496","","239420","HierDycka5bq6n","zxjkr193f7","msl000686","motor","img/motor_6.png","75","74","motor","6","259","0","1","0","",""
"294","","239721","HierDycka5bq6n","zxjkr193f7","msl000686","motorRepeat","img/motor_6.png","74","74","motor","6","259","1","0","0","",""
"null","","239828","HierDycka5bq6n","zxjkr193f7","msl000686","iti","img/motor_blank.png","null","74","motor","","","","","","",""
"456","","240292","HierDycka5bq6n","zxjkr193f7","msl000686","motor","img/motor_4.png","83","70","motor","4","260","0","1","0","",""
"296","","240597","HierDycka5bq6n","zxjkr193f7","msl000686","motorRepeat","img/motor_4.png","70","70","motor","4","260","1","0","0","",""
"null","","240704","HierDycka5bq6n","zxjkr193f7","msl000686","iti","img/motor_blank.png","null","70","motor","","","","","","",""
"618","","241330","HierDycka5bq6n","zxjkr193f7","msl000686","motor","img/motor_7.png","75","75","motor","7","261","1","0","0","",""
"null","","241438","HierDycka5bq6n","zxjkr193f7","msl000686","iti","img/motor_blank.png","null","75","motor","","","","","","",""
"536","","241982","HierDycka5bq6n","zxjkr193f7","msl000686","motor","img/motor_7.png","75","75","motor","7","262","1","0","0","",""
"null","","242090","HierDycka5bq6n","zxjkr193f7","msl000686","iti","img/motor_blank.png","null","75","motor","","","","","","",""
"547","","242645","HierDycka5bq6n","zxjkr193f7","msl000686","motor","img/motor_6.png","74","74","motor","6","263","1","0","0","",""
"null","","242753","HierDycka5bq6n","zxjkr193f7","msl000686","iti","img/motor_blank.png","null","74","motor","","","","","","",""
"411","","243172","HierDycka5bq6n","zxjkr193f7","msl000686","motor","img/motor_8.png","76","76","motor","8","264","1","0","0","",""
"null","","243279","HierDycka5bq6n","zxjkr193f7","msl000686","iti","img/motor_blank.png","null","76","motor","","","","","","",""
"790","","244077","HierDycka5bq6n","zxjkr193f7","msl000686","motor","img/motor_8.png","76","76","motor","8","265","1","0","0","",""
"null","","244186","HierDycka5bq6n","zxjkr193f7","msl000686","iti","img/motor_blank.png","null","76","motor","","","","","","",""
"514","","244708","HierDycka5bq6n","zxjkr193f7","msl000686","motor","img/motor_6.png","74","74","motor","6","266","1","0","0","",""
"98","","244815","HierDycka5bq6n","zxjkr193f7","msl000686","iti","img/motor_blank.png","75","74","motor","","","","","","",""
"688","","245511","HierDycka5bq6n","zxjkr193f7","msl000686","motor","img/motor_1.png","65","65","motor","1","267","1","0","0","",""
"null","","245619","HierDycka5bq6n","zxjkr193f7","msl000686","iti","img/motor_blank.png","null","65","motor","","","","","","",""
"570","","246196","HierDycka5bq6n","zxjkr193f7","msl000686","motor","img/motor_2.png","83","83","motor","2","268","1","0","0","",""
"null","","246303","HierDycka5bq6n","zxjkr193f7","msl000686","iti","img/motor_blank.png","null","83","motor","","","","","","",""
"862","","247173","HierDycka5bq6n","zxjkr193f7","msl000686","motor","img/motor_5.png","72","72","motor","5","269","1","0","0","",""
"null","","247282","HierDycka5bq6n","zxjkr193f7","msl000686","iti","img/motor_blank.png","null","72","motor","","","","","","",""
"466","","247755","HierDycka5bq6n","zxjkr193f7","msl000686","motor","img/motor_6.png","72","74","motor","6","270","0","1","0","",""
"263","","248026","HierDycka5bq6n","zxjkr193f7","msl000686","motorRepeat","img/motor_6.png","74","74","motor","6","270","1","0","0","",""
"null","","248134","HierDycka5bq6n","zxjkr193f7","msl000686","iti","img/motor_blank.png","null","74","motor","","","","","","",""
"888","","249030","HierDycka5bq6n","zxjkr193f7","msl000686","motor","img/motor_7.png","75","75","motor","7","271","1","0","0","",""
"null","","249139","HierDycka5bq6n","zxjkr193f7","msl000686","iti","img/motor_blank.png","null","75","motor","","","","","","",""
"828","","249976","HierDycka5bq6n","zxjkr193f7","msl000686","motor","img/motor_2.png","83","83","motor","2","272","1","0","0","",""
"null","","250087","HierDycka5bq6n","zxjkr193f7","msl000686","iti","img/motor_blank.png","null","83","motor","","","","","","",""
"581","","250676","HierDycka5bq6n","zxjkr193f7","msl000686","motor","img/motor_4.png","70","70","motor","4","273","1","0","0","",""
"null","","250785","HierDycka5bq6n","zxjkr193f7","msl000686","iti","img/motor_blank.png","null","70","motor","","","","","","",""
"513","","251306","HierDycka5bq6n","zxjkr193f7","msl000686","motor","img/motor_1.png","65","65","motor","1","274","1","0","0","",""
"null","","251415","HierDycka5bq6n","zxjkr193f7","msl000686","iti","img/motor_blank.png","null","65","motor","","","","","","",""
"432","","251856","HierDycka5bq6n","zxjkr193f7","msl000686","motor","img/motor_8.png","76","76","motor","8","275","1","0","0","",""
"null","","251964","HierDycka5bq6n","zxjkr193f7","msl000686","iti","img/motor_blank.png","null","76","motor","","","","","","",""
"662","","252634","HierDycka5bq6n","zxjkr193f7","msl000686","motor","img/motor_5.png","72","72","motor","5","276","1","0","0","",""
"null","","252742","HierDycka5bq6n","zxjkr193f7","msl000686","iti","img/motor_blank.png","null","72","motor","","","","","","",""
"406","","253156","HierDycka5bq6n","zxjkr193f7","msl000686","motor","img/motor_8.png","76","76","motor","8","277","1","0","0","",""
"null","","253264","HierDycka5bq6n","zxjkr193f7","msl000686","iti","img/motor_blank.png","null","76","motor","","","","","","",""
"391","","253662","HierDycka5bq6n","zxjkr193f7","msl000686","motor","img/motor_5.png","72","72","motor","5","278","1","0","0","",""
"null","","253771","HierDycka5bq6n","zxjkr193f7","msl000686","iti","img/motor_blank.png","null","72","motor","","","","","","",""
"523","","254301","HierDycka5bq6n","zxjkr193f7","msl000686","motor","img/motor_2.png","68","83","motor","2","279","0","1","0","",""
"364","","254674","HierDycka5bq6n","zxjkr193f7","msl000686","motorRepeat","img/motor_2.png","83","83","motor","2","279","1","0","0","",""
"null","","254783","HierDycka5bq6n","zxjkr193f7","msl000686","iti","img/motor_blank.png","null","83","motor","","","","","","",""
"511","","255302","HierDycka5bq6n","zxjkr193f7","msl000686","motor","img/motor_5.png","72","72","motor","5","280","1","0","0","",""
"null","","255410","HierDycka5bq6n","zxjkr193f7","msl000686","iti","img/motor_blank.png","null","72","motor","","","","","","",""
"664","","256084","HierDycka5bq6n","zxjkr193f7","msl000686","motor","img/motor_6.png","74","74","motor","6","281","1","0","0","",""
"null","","256194","HierDycka5bq6n","zxjkr193f7","msl000686","iti","img/motor_blank.png","null","74","motor","","","","","","",""
"496","","256699","HierDycka5bq6n","zxjkr193f7","msl000686","motor","img/motor_8.png","76","76","motor","8","282","1","0","0","",""
"null","","256806","HierDycka5bq6n","zxjkr193f7","msl000686","iti","img/motor_blank.png","null","76","motor","","","","","","",""
"558","","257375","HierDycka5bq6n","zxjkr193f7","msl000686","motor","img/motor_2.png","83","83","motor","2","283","1","0","0","",""
"null","","257483","HierDycka5bq6n","zxjkr193f7","msl000686","iti","img/motor_blank.png","null","83","motor","","","","","","",""
"415","","257906","HierDycka5bq6n","zxjkr193f7","msl000686","motor","img/motor_2.png","83","83","motor","2","284","1","0","0","",""
"null","","258015","HierDycka5bq6n","zxjkr193f7","msl000686","iti","img/motor_blank.png","null","83","motor","","","","","","",""
"536","","258559","HierDycka5bq6n","zxjkr193f7","msl000686","motor","img/motor_1.png","65","65","motor","1","285","1","0","0","",""
"null","","258668","HierDycka5bq6n","zxjkr193f7","msl000686","iti","img/motor_blank.png","null","65","motor","","","","","","",""
"390","","259066","HierDycka5bq6n","zxjkr193f7","msl000686","motor","img/motor_1.png","65","65","motor","1","286","1","0","0","",""
"null","","259175","HierDycka5bq6n","zxjkr193f7","msl000686","iti","img/motor_blank.png","null","65","motor","","","","","","",""
"515","","259698","HierDycka5bq6n","zxjkr193f7","msl000686","motor","img/motor_3.png","68","68","motor","3","287","1","0","0","",""
"null","","259808","HierDycka5bq6n","zxjkr193f7","msl000686","iti","img/motor_blank.png","null","68","motor","","","","","","",""
"487","","260302","HierDycka5bq6n","zxjkr193f7","msl000686","motor","img/motor_2.png","83","83","motor","2","288","1","0","0","",""
"null","","260410","HierDycka5bq6n","zxjkr193f7","msl000686","iti","img/motor_blank.png","null","83","motor","","","","","","",""
"455","","260874","HierDycka5bq6n","zxjkr193f7","msl000686","motor","img/motor_7.png","76","75","motor","7","289","0","1","0","",""
"514","","261397","HierDycka5bq6n","zxjkr193f7","msl000686","motorRepeat","img/motor_7.png","75","75","motor","7","289","1","0","0","",""
"null","","261506","HierDycka5bq6n","zxjkr193f7","msl000686","iti","img/motor_blank.png","null","75","motor","","","","","","",""
"487","","262002","HierDycka5bq6n","zxjkr193f7","msl000686","motor","img/motor_1.png","65","65","motor","1","290","1","0","0","",""
"32","","262111","HierDycka5bq6n","zxjkr193f7","msl000686","iti","img/motor_blank.png","83","65","motor","","","","","","",""
"593","","262711","HierDycka5bq6n","zxjkr193f7","msl000686","motor","img/motor_5.png","72","72","motor","5","291","1","0","0","",""
"null","","262821","HierDycka5bq6n","zxjkr193f7","msl000686","iti","img/motor_blank.png","null","72","motor","","","","","","",""
"558","","263387","HierDycka5bq6n","zxjkr193f7","msl000686","motor","img/motor_7.png","75","75","motor","7","292","1","0","0","",""
"null","","263496","HierDycka5bq6n","zxjkr193f7","msl000686","iti","img/motor_blank.png","null","75","motor","","","","","","",""
"741","","264246","HierDycka5bq6n","zxjkr193f7","msl000686","motor","img/motor_3.png","68","68","motor","3","293","1","0","0","",""
"null","","264355","HierDycka5bq6n","zxjkr193f7","msl000686","iti","img/motor_blank.png","null","68","motor","","","","","","",""
"438","","264803","HierDycka5bq6n","zxjkr193f7","msl000686","motor","img/motor_3.png","68","68","motor","3","294","1","0","0","",""
"null","","264914","HierDycka5bq6n","zxjkr193f7","msl000686","iti","img/motor_blank.png","null","68","motor","","","","","","",""
"524","","265449","HierDycka5bq6n","zxjkr193f7","msl000686","motor","img/motor_6.png","74","74","motor","6","295","1","0","0","",""
"null","","265558","HierDycka5bq6n","zxjkr193f7","msl000686","iti","img/motor_blank.png","null","74","motor","","","","","","",""
"472","","266038","HierDycka5bq6n","zxjkr193f7","msl000686","motor","img/motor_2.png","68","83","motor","2","296","0","1","0","",""
"332","","266383","HierDycka5bq6n","zxjkr193f7","msl000686","motorRepeat","img/motor_2.png","83","83","motor","2","296","1","0","0","",""
"null","","266492","HierDycka5bq6n","zxjkr193f7","msl000686","iti","img/motor_blank.png","null","83","motor","","","","","","",""
"552","","267053","HierDycka5bq6n","zxjkr193f7","msl000686","motor","img/motor_3.png","68","68","motor","3","297","1","0","0","",""
"null","","267162","HierDycka5bq6n","zxjkr193f7","msl000686","iti","img/motor_blank.png","null","68","motor","","","","","","",""
"476","","267645","HierDycka5bq6n","zxjkr193f7","msl000686","motor","img/motor_8.png","76","76","motor","8","298","1","0","0","",""
"null","","267755","HierDycka5bq6n","zxjkr193f7","msl000686","iti","img/motor_blank.png","null","76","motor","","","","","","",""
"654","","268419","HierDycka5bq6n","zxjkr193f7","msl000686","motor","img/motor_7.png","74","75","motor","7","299","0","1","0","",""
"67","","268497","HierDycka5bq6n","zxjkr193f7","msl000686","motorRepeat","img/motor_7.png","75","75","motor","7","299","1","0","0","",""
"null","","268608","HierDycka5bq6n","zxjkr193f7","msl000686","iti","img/motor_blank.png","null","75","motor","","","","","","",""
"414","","269034","HierDycka5bq6n","zxjkr193f7","msl000686","motor","img/motor_4.png","83","70","motor","4","300","0","1","0","",""
"73","","269118","HierDycka5bq6n","zxjkr193f7","msl000686","motorRepeat","img/motor_4.png","68","70","motor","4","300","0","1","0","",""
"244","","269370","HierDycka5bq6n","zxjkr193f7","msl000686","motorRepeat","img/motor_4.png","68","70","motor","4","300","0","1","0","",""
"495","","269873","HierDycka5bq6n","zxjkr193f7","msl000686","motorRepeat","img/motor_4.png","70","70","motor","4","300","1","0","0","",""
"null","","269983","HierDycka5bq6n","zxjkr193f7","msl000686","iti","img/motor_blank.png","null","70","motor","","","","","","",""
"565","","270558","HierDycka5bq6n","zxjkr193f7","msl000686","motor","img/motor_6.png","74","74","motor","6","301","1","0","0","",""
"null","","270671","HierDycka5bq6n","zxjkr193f7","msl000686","iti","img/motor_blank.png","null","74","motor","","","","","","",""
"812","","271490","HierDycka5bq6n","zxjkr193f7","msl000686","motor","img/motor_7.png","75","75","motor","7","302","1","0","0","",""
"null","","271599","HierDycka5bq6n","zxjkr193f7","msl000686","iti","img/motor_blank.png","null","75","motor","","","","","","",""
"600","","272207","HierDycka5bq6n","zxjkr193f7","msl000686","motor","img/motor_5.png","72","72","motor","5","303","1","0","0","",""
"null","","272316","HierDycka5bq6n","zxjkr193f7","msl000686","iti","img/motor_blank.png","null","72","motor","","","","","","",""
"437","","272761","HierDycka5bq6n","zxjkr193f7","msl000686","motor","img/motor_8.png","76","76","motor","8","304","1","0","0","",""
"null","","272869","HierDycka5bq6n","zxjkr193f7","msl000686","iti","img/motor_blank.png","null","76","motor","","","","","","",""
"826","","273706","HierDycka5bq6n","zxjkr193f7","msl000686","motor","img/motor_3.png","68","68","motor","3","305","1","0","0","",""
"0","","273818","HierDycka5bq6n","zxjkr193f7","msl000686","iti","img/motor_blank.png","70","68","motor","","","","","","",""
"475","","274301","HierDycka5bq6n","zxjkr193f7","msl000686","motor","img/motor_8.png","76","76","motor","8","306","1","0","0","",""
"null","","274408","HierDycka5bq6n","zxjkr193f7","msl000686","iti","img/motor_blank.png","null","76","motor","","","","","","",""
"672","","275089","HierDycka5bq6n","zxjkr193f7","msl000686","motor","img/motor_6.png","74","74","motor","6","307","1","0","0","",""
"null","","275197","HierDycka5bq6n","zxjkr193f7","msl000686","iti","img/motor_blank.png","null","74","motor","","","","","","",""
"697","","275902","HierDycka5bq6n","zxjkr193f7","msl000686","motor","img/motor_5.png","72","72","motor","5","308","1","0","0","",""
"null","","276010","HierDycka5bq6n","zxjkr193f7","msl000686","iti","img/motor_blank.png","null","72","motor","","","","","","",""
"638","","276656","HierDycka5bq6n","zxjkr193f7","msl000686","motor","img/motor_7.png","75","75","motor","7","309","1","0","0","",""
"null","","276765","HierDycka5bq6n","zxjkr193f7","msl000686","iti","img/motor_blank.png","null","75","motor","","","","","","",""
"515","","277288","HierDycka5bq6n","zxjkr193f7","msl000686","motor","img/motor_1.png","65","65","motor","1","310","1","0","0","",""
"null","","277396","HierDycka5bq6n","zxjkr193f7","msl000686","iti","img/motor_blank.png","null","65","motor","","","","","","",""
"540","","277944","HierDycka5bq6n","zxjkr193f7","msl000686","motor","img/motor_5.png","72","72","motor","5","311","1","0","0","",""
"null","","278052","HierDycka5bq6n","zxjkr193f7","msl000686","iti","img/motor_blank.png","null","72","motor","","","","","","",""
"526","","278586","HierDycka5bq6n","zxjkr193f7","msl000686","motor","img/motor_3.png","68","68","motor","3","312","1","0","0","",""
"null","","278695","HierDycka5bq6n","zxjkr193f7","msl000686","iti","img/motor_blank.png","null","68","motor","","","","","","",""
"576","","279279","HierDycka5bq6n","zxjkr193f7","msl000686","motor","img/motor_1.png","65","65","motor","1","313","1","0","0","",""
"null","","279387","HierDycka5bq6n","zxjkr193f7","msl000686","iti","img/motor_blank.png","null","65","motor","","","","","","",""
"580","","279977","HierDycka5bq6n","zxjkr193f7","msl000686","motor","img/motor_6.png","74","74","motor","6","314","1","0","0","",""
"null","","280084","HierDycka5bq6n","zxjkr193f7","msl000686","iti","img/motor_blank.png","null","74","motor","","","","","","",""
"466","","280559","HierDycka5bq6n","zxjkr193f7","msl000686","motor","img/motor_6.png","74","74","motor","6","315","1","0","0","",""
"null","","280666","HierDycka5bq6n","zxjkr193f7","msl000686","iti","img/motor_blank.png","null","74","motor","","","","","","",""
"488","","281163","HierDycka5bq6n","zxjkr193f7","msl000686","motor","img/motor_1.png","65","65","motor","1","316","1","0","0","",""
"null","","281272","HierDycka5bq6n","zxjkr193f7","msl000686","iti","img/motor_blank.png","null","65","motor","","","","","","",""
"503","","281783","HierDycka5bq6n","zxjkr193f7","msl000686","motor","img/motor_5.png","72","72","motor","5","317","1","0","0","",""
"null","","281891","HierDycka5bq6n","zxjkr193f7","msl000686","iti","img/motor_blank.png","null","72","motor","","","","","","",""
"572","","282471","HierDycka5bq6n","zxjkr193f7","msl000686","motor","img/motor_3.png","68","68","motor","3","318","1","0","0","",""
"null","","282579","HierDycka5bq6n","zxjkr193f7","msl000686","iti","img/motor_blank.png","null","68","motor","","","","","","",""
"533","","283120","HierDycka5bq6n","zxjkr193f7","msl000686","motor","img/motor_6.png","74","74","motor","6","319","1","0","0","",""
"null","","283229","HierDycka5bq6n","zxjkr193f7","msl000686","iti","img/motor_blank.png","null","74","motor","","","","","","",""
"400","","283637","HierDycka5bq6n","zxjkr193f7","msl000686","motor","img/motor_7.png","75","75","motor","7","320","1","0","0","",""
"null","","283746","HierDycka5bq6n","zxjkr193f7","msl000686","iti","img/motor_blank.png","null","75","motor","","","","","","",""
"814","","284567","HierDycka5bq6n","zxjkr193f7","msl000686","motor","img/motor_3.png","68","68","motor","3","321","1","0","0","",""
"null","","284675","HierDycka5bq6n","zxjkr193f7","msl000686","iti","img/motor_blank.png","null","68","motor","","","","","","",""
"435","","285118","HierDycka5bq6n","zxjkr193f7","msl000686","motor","img/motor_8.png","76","76","motor","8","322","1","0","0","",""
"null","","285226","HierDycka5bq6n","zxjkr193f7","msl000686","iti","img/motor_blank.png","null","76","motor","","","","","","",""
"734","","285969","HierDycka5bq6n","zxjkr193f7","msl000686","motor","img/motor_2.png","83","83","motor","2","323","1","0","0","",""
"null","","286079","HierDycka5bq6n","zxjkr193f7","msl000686","iti","img/motor_blank.png","null","83","motor","","","","","","",""
"550","","286637","HierDycka5bq6n","zxjkr193f7","msl000686","motor","img/motor_4.png","68","70","motor","4","324","0","1","0","",""
"342","","286987","HierDycka5bq6n","zxjkr193f7","msl000686","motorRepeat","img/motor_4.png","75","70","motor","4","324","0","1","0","",""
"285","","287280","HierDycka5bq6n","zxjkr193f7","msl000686","motorRepeat","img/motor_4.png","74","70","motor","4","324","0","1","0","",""
"276","","287563","HierDycka5bq6n","zxjkr193f7","msl000686","motorRepeat","img/motor_4.png","70","70","motor","4","324","1","0","0","",""
"null","","287670","HierDycka5bq6n","zxjkr193f7","msl000686","iti","img/motor_blank.png","null","70","motor","","","","","","",""
"590","","288266","HierDycka5bq6n","zxjkr193f7","msl000686","motor","img/motor_3.png","68","68","motor","3","325","1","0","0","",""
"null","","288375","HierDycka5bq6n","zxjkr193f7","msl000686","iti","img/motor_blank.png","null","68","motor","","","","","","",""
"447","","288830","HierDycka5bq6n","zxjkr193f7","msl000686","motor","img/motor_6.png","74","74","motor","6","326","1","0","0","",""
"null","","288938","HierDycka5bq6n","zxjkr193f7","msl000686","iti","img/motor_blank.png","null","74","motor","","","","","","",""
"554","","289499","HierDycka5bq6n","zxjkr193f7","msl000686","motor","img/motor_3.png","83","68","motor","3","327","0","1","0","",""
"287","","289792","HierDycka5bq6n","zxjkr193f7","msl000686","motorRepeat","img/motor_3.png","74","68","motor","3","327","0","1","0","",""
"396","","290194","HierDycka5bq6n","zxjkr193f7","msl000686","motorRepeat","img/motor_3.png","68","68","motor","3","327","1","0","0","",""
"null","","290302","HierDycka5bq6n","zxjkr193f7","msl000686","iti","img/motor_blank.png","null","68","motor","","","","","","",""
"525","","290833","HierDycka5bq6n","zxjkr193f7","msl000686","motor","img/motor_2.png","68","83","motor","2","328","0","1","0","",""
"629","","291469","HierDycka5bq6n","zxjkr193f7","msl000686","motorRepeat","img/motor_2.png","83","83","motor","2","328","1","0","0","",""
"null","","291578","HierDycka5bq6n","zxjkr193f7","msl000686","iti","img/motor_blank.png","null","83","motor","","","","","","",""
"637","","292222","HierDycka5bq6n","zxjkr193f7","msl000686","motor","img/motor_3.png","68","68","motor","3","329","1","0","0","",""
"null","","292330","HierDycka5bq6n","zxjkr193f7","msl000686","iti","img/motor_blank.png","null","68","motor","","","","","","",""
"516","","292855","HierDycka5bq6n","zxjkr193f7","msl000686","motor","img/motor_1.png","65","65","motor","1","330","1","0","0","",""
"null","","292964","HierDycka5bq6n","zxjkr193f7","msl000686","iti","img/motor_blank.png","null","65","motor","","","","","","",""
"596","","293568","HierDycka5bq6n","zxjkr193f7","msl000686","motor","img/motor_5.png","70","72","motor","5","331","0","1","0","",""
"344","","293920","HierDycka5bq6n","zxjkr193f7","msl000686","motorRepeat","img/motor_5.png","72","72","motor","5","331","1","0","0","",""
"null","","294028","HierDycka5bq6n","zxjkr193f7","msl000686","iti","img/motor_blank.png","null","72","motor","","","","","","",""
"746","","294783","HierDycka5bq6n","zxjkr193f7","msl000686","motor","img/motor_2.png","83","83","motor","2","332","1","0","0","",""
"null","","294892","HierDycka5bq6n","zxjkr193f7","msl000686","iti","img/motor_blank.png","null","83","motor","","","","","","",""
"392","","295291","HierDycka5bq6n","zxjkr193f7","msl000686","motor","img/motor_8.png","76","76","motor","8","333","1","0","0","",""
"null","","295400","HierDycka5bq6n","zxjkr193f7","msl000686","iti","img/motor_blank.png","null","76","motor","","","","","","",""
"555","","295961","HierDycka5bq6n","zxjkr193f7","msl000686","motor","img/motor_6.png","74","74","motor","6","334","1","0","0","",""
"null","","296069","HierDycka5bq6n","zxjkr193f7","msl000686","iti","img/motor_blank.png","null","74","motor","","","","","","",""
"507","","296584","HierDycka5bq6n","zxjkr193f7","msl000686","motor","img/motor_8.png","76","76","motor","8","335","1","0","0","",""
"null","","296692","HierDycka5bq6n","zxjkr193f7","msl000686","iti","img/motor_blank.png","null","76","motor","","","","","","",""
"648","","297350","HierDycka5bq6n","zxjkr193f7","msl000686","motor","img/motor_2.png","83","83","motor","2","336","1","0","0","",""
"null","","297458","HierDycka5bq6n","zxjkr193f7","msl000686","iti","img/motor_blank.png","null","83","motor","","","","","","",""
"515","","297980","HierDycka5bq6n","zxjkr193f7","msl000686","motor","img/motor_5.png","72","72","motor","5","337","1","0","0","",""
"null","","298089","HierDycka5bq6n","zxjkr193f7","msl000686","iti","img/motor_blank.png","null","72","motor","","","","","","",""
"456","","298551","HierDycka5bq6n","zxjkr193f7","msl000686","motor","img/motor_5.png","72","72","motor","5","338","1","0","0","",""
"null","","298660","HierDycka5bq6n","zxjkr193f7","msl000686","iti","img/motor_blank.png","null","72","motor","","","","","","",""
"470","","299138","HierDycka5bq6n","zxjkr193f7","msl000686","motor","img/motor_4.png","70","70","motor","4","339","1","0","0","",""
"null","","299247","HierDycka5bq6n","zxjkr193f7","msl000686","iti","img/motor_blank.png","null","70","motor","","","","","","",""
"627","","299882","HierDycka5bq6n","zxjkr193f7","msl000686","motor","img/motor_6.png","74","74","motor","6","340","1","0","0","",""
"null","","299990","HierDycka5bq6n","zxjkr193f7","msl000686","iti","img/motor_blank.png","null","74","motor","","","","","","",""
"576","","300574","HierDycka5bq6n","zxjkr193f7","msl000686","motor","img/motor_2.png","83","83","motor","2","341","1","0","0","",""
"null","","300682","HierDycka5bq6n","zxjkr193f7","msl000686","iti","img/motor_blank.png","null","83","motor","","","","","","",""
"829","","301519","HierDycka5bq6n","zxjkr193f7","msl000686","motor","img/motor_4.png","70","70","motor","4","342","1","0","0","",""
"null","","301630","HierDycka5bq6n","zxjkr193f7","msl000686","iti","img/motor_blank.png","null","70","motor","","","","","","",""
"417","","302056","HierDycka5bq6n","zxjkr193f7","msl000686","motor","img/motor_1.png","65","65","motor","1","343","1","0","0","",""
"null","","302166","HierDycka5bq6n","zxjkr193f7","msl000686","iti","img/motor_blank.png","null","65","motor","","","","","","",""
"460","","302635","HierDycka5bq6n","zxjkr193f7","msl000686","motor","img/motor_4.png","70","70","motor","4","344","1","0","0","",""
"null","","302744","HierDycka5bq6n","zxjkr193f7","msl000686","iti","img/motor_blank.png","null","70","motor","","","","","","",""
"452","","303206","HierDycka5bq6n","zxjkr193f7","msl000686","motor","img/motor_8.png","76","76","motor","8","345","1","0","0","",""
"null","","303314","HierDycka5bq6n","zxjkr193f7","msl000686","iti","img/motor_blank.png","null","76","motor","","","","","","",""
"461","","303782","HierDycka5bq6n","zxjkr193f7","msl000686","motor","img/motor_4.png","70","70","motor","4","346","1","0","0","",""
"null","","303890","HierDycka5bq6n","zxjkr193f7","msl000686","iti","img/motor_blank.png","null","70","motor","","","","","","",""
"441","","304339","HierDycka5bq6n","zxjkr193f7","msl000686","motor","img/motor_1.png","65","65","motor","1","347","1","0","0","",""
"null","","304447","HierDycka5bq6n","zxjkr193f7","msl000686","iti","img/motor_blank.png","null","65","motor","","","","","","",""
"542","","304997","HierDycka5bq6n","zxjkr193f7","msl000686","motor","img/motor_7.png","74","75","motor","7","348","0","1","0","",""
"232","","305237","HierDycka5bq6n","zxjkr193f7","msl000686","motorRepeat","img/motor_7.png","75","75","motor","7","348","1","0","0","",""
"null","","305344","HierDycka5bq6n","zxjkr193f7","msl000686","iti","img/motor_blank.png","null","75","motor","","","","","","",""
"437","","305788","HierDycka5bq6n","zxjkr193f7","msl000686","motor","img/motor_6.png","74","74","motor","6","349","1","0","0","",""
"null","","305897","HierDycka5bq6n","zxjkr193f7","msl000686","iti","img/motor_blank.png","null","74","motor","","","","","","",""
"582","","306486","HierDycka5bq6n","zxjkr193f7","msl000686","motor","img/motor_7.png","75","75","motor","7","350","1","0","0","",""
"null","","306596","HierDycka5bq6n","zxjkr193f7","msl000686","iti","img/motor_blank.png","null","75","motor","","","","","","",""
"535","","307140","HierDycka5bq6n","zxjkr193f7","msl000686","motor","img/motor_1.png","65","65","motor","1","351","1","0","0","",""
"null","","307249","HierDycka5bq6n","zxjkr193f7","msl000686","iti","img/motor_blank.png","null","65","motor","","","","","","",""
"364","","307621","HierDycka5bq6n","zxjkr193f7","msl000686","motor","img/motor_4.png","70","70","motor","4","352","1","0","0","",""
"null","","307731","HierDycka5bq6n","zxjkr193f7","msl000686","iti","img/motor_blank.png","null","70","motor","","","","","","",""
"542","","308279","HierDycka5bq6n","zxjkr193f7","msl000686","motor","img/motor_5.png","72","72","motor","5","353","1","0","0","",""
