"rt","responses","time_elapsed","subject","prolificID","demoID","trialType","stimulus","key_press","corrresp","phase","stimNum","trialNum","corr","repeatTrial","motorSwitch","pracCounter","hierarchy"
"6143","{""Q0"":""msl000632""}","6166","HierDyldyrp8c3","lsn46nza6b","msl000632","","","","","","","","","","","",""
"2440","","8615","HierDyldyrp8c3","lsn46nza6b","msl000632","","","","","","","","","","","",""
"","","10645","HierDyldyrp8c3","lsn46nza6b","msl000632","fullscreen","","","","","","","","","","",""
"49316","","59972","HierDyldyrp8c3","lsn46nza6b","msl000632","","","","","","","","","","","",""
"783","","60765","HierDyldyrp8c3","lsn46nza6b","msl000632","motor","img/motor_5.png","72","72","motor","5","1","1","0","0","",""
"null","","60874","HierDyldyrp8c3","lsn46nza6b","msl000632","iti","img/motor_blank.png","null","72","motor","","","","","","",""
"588","","61471","HierDyldyrp8c3","lsn46nza6b","msl000632","motor","img/motor_3.png","68","68","motor","3","2","1","0","0","",""
"null","","61581","HierDyldyrp8c3","lsn46nza6b","msl000632","iti","img/motor_blank.png","null","68","motor","","","","","","",""
"755","","62343","HierDyldyrp8c3","lsn46nza6b","msl000632","motor","img/motor_8.png","75","76","motor","8","3","0","1","0","",""
"1058","","63409","HierDyldyrp8c3","lsn46nza6b","msl000632","motorRepeat","img/motor_8.png","76","76","motor","8","3","1","0","0","",""
"null","","63516","HierDyldyrp8c3","lsn46nza6b","msl000632","iti","img/motor_blank.png","null","76","motor","","","","","","",""
"607","","64130","HierDyldyrp8c3","lsn46nza6b","msl000632","motor","img/motor_7.png","75","75","motor","7","4","1","0","0","",""
"null","","64237","HierDyldyrp8c3","lsn46nza6b","msl000632","iti","img/motor_blank.png","null","75","motor","","","","","","",""
"581","","64825","HierDyldyrp8c3","lsn46nza6b","msl000632","motor","img/motor_2.png","83","83","motor","2","5","1","0","0","",""
"null","","64932","HierDyldyrp8c3","lsn46nza6b","msl000632","iti","img/motor_blank.png","null","83","motor","","","","","","",""
"441","","65380","HierDyldyrp8c3","lsn46nza6b","msl000632","motor","img/motor_2.png","83","83","motor","2","6","1","0","0","",""
"null","","65488","HierDyldyrp8c3","lsn46nza6b","msl000632","iti","img/motor_blank.png","null","83","motor","","","","","","",""
"627","","66120","HierDyldyrp8c3","lsn46nza6b","msl000632","motor","img/motor_6.png","74","74","motor","6","7","1","0","0","",""
"null","","66227","HierDyldyrp8c3","lsn46nza6b","msl000632","iti","img/motor_blank.png","null","74","motor","","","","","","",""
"496","","66730","HierDyldyrp8c3","lsn46nza6b","msl000632","motor","img/motor_5.png","72","72","motor","5","8","1","0","0","",""
"null","","66837","HierDyldyrp8c3","lsn46nza6b","msl000632","iti","img/motor_blank.png","null","72","motor","","","","","","",""
"493","","67337","HierDyldyrp8c3","lsn46nza6b","msl000632","motor","img/motor_7.png","75","75","motor","7","9","1","0","0","",""
"null","","67444","HierDyldyrp8c3","lsn46nza6b","msl000632","iti","img/motor_blank.png","null","75","motor","","","","","","",""
"594","","68045","HierDyldyrp8c3","lsn46nza6b","msl000632","motor","img/motor_2.png","83","83","motor","2","10","1","0","0","",""
"null","","68152","HierDyldyrp8c3","lsn46nza6b","msl000632","iti","img/motor_blank.png","null","83","motor","","","","","","",""
"475","","68633","HierDyldyrp8c3","lsn46nza6b","msl000632","motor","img/motor_6.png","75","74","motor","6","11","0","1","0","",""
"301","","68940","HierDyldyrp8c3","lsn46nza6b","msl000632","motorRepeat","img/motor_6.png","74","74","motor","6","11","1","0","0","",""
"null","","69047","HierDyldyrp8c3","lsn46nza6b","msl000632","iti","img/motor_blank.png","null","74","motor","","","","","","",""
"517","","69571","HierDyldyrp8c3","lsn46nza6b","msl000632","motor","img/motor_3.png","68","68","motor","3","12","1","0","0","",""
"null","","69678","HierDyldyrp8c3","lsn46nza6b","msl000632","iti","img/motor_blank.png","null","68","motor","","","","","","",""
"780","","70464","HierDyldyrp8c3","lsn46nza6b","msl000632","motor","img/motor_7.png","75","75","motor","7","13","1","0","0","",""
"null","","70572","HierDyldyrp8c3","lsn46nza6b","msl000632","iti","img/motor_blank.png","null","75","motor","","","","","","",""
"578","","71156","HierDyldyrp8c3","lsn46nza6b","msl000632","motor","img/motor_4.png","70","70","motor","4","14","1","0","0","",""
"null","","71263","HierDyldyrp8c3","lsn46nza6b","msl000632","iti","img/motor_blank.png","null","70","motor","","","","","","",""
"578","","71852","HierDyldyrp8c3","lsn46nza6b","msl000632","motor","img/motor_1.png","65","65","motor","1","15","1","0","0","",""
"null","","71959","HierDyldyrp8c3","lsn46nza6b","msl000632","iti","img/motor_blank.png","null","65","motor","","","","","","",""
"661","","72629","HierDyldyrp8c3","lsn46nza6b","msl000632","motor","img/motor_2.png","83","83","motor","2","16","1","0","0","",""
"null","","72736","HierDyldyrp8c3","lsn46nza6b","msl000632","iti","img/motor_blank.png","null","83","motor","","","","","","",""
"522","","73266","HierDyldyrp8c3","lsn46nza6b","msl000632","motor","img/motor_7.png","75","75","motor","7","17","1","0","0","",""
"null","","73374","HierDyldyrp8c3","lsn46nza6b","msl000632","iti","img/motor_blank.png","null","75","motor","","","","","","",""
"412","","73792","HierDyldyrp8c3","lsn46nza6b","msl000632","motor","img/motor_1.png","83","65","motor","1","18","0","1","0","",""
"354","","74154","HierDyldyrp8c3","lsn46nza6b","msl000632","motorRepeat","img/motor_1.png","65","65","motor","1","18","1","0","0","",""
"null","","74262","HierDyldyrp8c3","lsn46nza6b","msl000632","iti","img/motor_blank.png","null","65","motor","","","","","","",""
"597","","74866","HierDyldyrp8c3","lsn46nza6b","msl000632","motor","img/motor_2.png","83","83","motor","2","19","1","0","0","",""
"null","","74974","HierDyldyrp8c3","lsn46nza6b","msl000632","iti","img/motor_blank.png","null","83","motor","","","","","","",""
"637","","75618","HierDyldyrp8c3","lsn46nza6b","msl000632","motor","img/motor_7.png","75","75","motor","7","20","1","0","0","",""
"null","","75724","HierDyldyrp8c3","lsn46nza6b","msl000632","iti","img/motor_blank.png","null","75","motor","","","","","","",""
"596","","76329","HierDyldyrp8c3","lsn46nza6b","msl000632","motor","img/motor_7.png","75","75","motor","7","21","1","0","0","",""
"null","","76437","HierDyldyrp8c3","lsn46nza6b","msl000632","iti","img/motor_blank.png","null","75","motor","","","","","","",""
"647","","77091","HierDyldyrp8c3","lsn46nza6b","msl000632","motor","img/motor_5.png","72","72","motor","5","22","1","0","0","",""
"null","","77199","HierDyldyrp8c3","lsn46nza6b","msl000632","iti","img/motor_blank.png","null","72","motor","","","","","","",""
"511","","77716","HierDyldyrp8c3","lsn46nza6b","msl000632","motor","img/motor_2.png","70","83","motor","2","23","0","1","0","",""
"260","","77984","HierDyldyrp8c3","lsn46nza6b","msl000632","motorRepeat","img/motor_2.png","83","83","motor","2","23","1","0","0","",""
"null","","78092","HierDyldyrp8c3","lsn46nza6b","msl000632","iti","img/motor_blank.png","null","83","motor","","","","","","",""
"516","","78614","HierDyldyrp8c3","lsn46nza6b","msl000632","motor","img/motor_4.png","70","70","motor","4","24","1","0","0","",""
"null","","78722","HierDyldyrp8c3","lsn46nza6b","msl000632","iti","img/motor_blank.png","null","70","motor","","","","","","",""
"584","","79314","HierDyldyrp8c3","lsn46nza6b","msl000632","motor","img/motor_1.png","65","65","motor","1","25","1","0","0","",""
"null","","79423","HierDyldyrp8c3","lsn46nza6b","msl000632","iti","img/motor_blank.png","null","65","motor","","","","","","",""
"419","","79849","HierDyldyrp8c3","lsn46nza6b","msl000632","motor","img/motor_1.png","65","65","motor","1","26","1","0","0","",""
"null","","79956","HierDyldyrp8c3","lsn46nza6b","msl000632","iti","img/motor_blank.png","null","65","motor","","","","","","",""
"538","","80501","HierDyldyrp8c3","lsn46nza6b","msl000632","motor","img/motor_7.png","75","75","motor","7","27","1","0","0","",""
"null","","80607","HierDyldyrp8c3","lsn46nza6b","msl000632","iti","img/motor_blank.png","null","75","motor","","","","","","",""
"575","","81188","HierDyldyrp8c3","lsn46nza6b","msl000632","motor","img/motor_3.png","68","68","motor","3","28","1","0","0","",""
"null","","81295","HierDyldyrp8c3","lsn46nza6b","msl000632","iti","img/motor_blank.png","null","68","motor","","","","","","",""
"399","","81700","HierDyldyrp8c3","lsn46nza6b","msl000632","motor","img/motor_3.png","68","68","motor","3","29","1","0","0","",""
"null","","81807","HierDyldyrp8c3","lsn46nza6b","msl000632","iti","img/motor_blank.png","null","68","motor","","","","","","",""
"581","","82394","HierDyldyrp8c3","lsn46nza6b","msl000632","motor","img/motor_6.png","75","74","motor","6","30","0","1","0","",""
"176","","82579","HierDyldyrp8c3","lsn46nza6b","msl000632","motorRepeat","img/motor_6.png","74","74","motor","6","30","1","0","0","",""
"null","","82686","HierDyldyrp8c3","lsn46nza6b","msl000632","iti","img/motor_blank.png","null","74","motor","","","","","","",""
"516","","83208","HierDyldyrp8c3","lsn46nza6b","msl000632","motor","img/motor_1.png","65","65","motor","1","31","1","0","0","",""
"null","","83315","HierDyldyrp8c3","lsn46nza6b","msl000632","iti","img/motor_blank.png","null","65","motor","","","","","","",""
"568","","83890","HierDyldyrp8c3","lsn46nza6b","msl000632","motor","img/motor_7.png","75","75","motor","7","32","1","0","0","",""
"null","","83997","HierDyldyrp8c3","lsn46nza6b","msl000632","iti","img/motor_blank.png","null","75","motor","","","","","","",""
"392","","84396","HierDyldyrp8c3","lsn46nza6b","msl000632","motor","img/motor_7.png","75","75","motor","7","33","1","0","0","",""
"null","","84503","HierDyldyrp8c3","lsn46nza6b","msl000632","iti","img/motor_blank.png","null","75","motor","","","","","","",""
"488","","84997","HierDyldyrp8c3","lsn46nza6b","msl000632","motor","img/motor_1.png","65","65","motor","1","34","1","0","0","",""
"null","","85104","HierDyldyrp8c3","lsn46nza6b","msl000632","iti","img/motor_blank.png","null","65","motor","","","","","","",""
"334","","85446","HierDyldyrp8c3","lsn46nza6b","msl000632","motor","img/motor_2.png","65","83","motor","2","35","0","1","0","",""
"302","","85755","HierDyldyrp8c3","lsn46nza6b","msl000632","motorRepeat","img/motor_2.png","83","83","motor","2","35","1","0","0","",""
"null","","85862","HierDyldyrp8c3","lsn46nza6b","msl000632","iti","img/motor_blank.png","null","83","motor","","","","","","",""
"727","","86593","HierDyldyrp8c3","lsn46nza6b","msl000632","motor","img/motor_8.png","76","76","motor","8","36","1","0","0","",""
"null","","86700","HierDyldyrp8c3","lsn46nza6b","msl000632","iti","img/motor_blank.png","null","76","motor","","","","","","",""
"665","","87371","HierDyldyrp8c3","lsn46nza6b","msl000632","motor","img/motor_2.png","83","83","motor","2","37","1","0","0","",""
"null","","87480","HierDyldyrp8c3","lsn46nza6b","msl000632","iti","img/motor_blank.png","null","83","motor","","","","","","",""
"452","","87938","HierDyldyrp8c3","lsn46nza6b","msl000632","motor","img/motor_6.png","74","74","motor","6","38","1","0","0","",""
"null","","88047","HierDyldyrp8c3","lsn46nza6b","msl000632","iti","img/motor_blank.png","null","74","motor","","","","","","",""
"705","","88759","HierDyldyrp8c3","lsn46nza6b","msl000632","motor","img/motor_2.png","68","83","motor","2","39","0","1","0","",""
"343","","89108","HierDyldyrp8c3","lsn46nza6b","msl000632","motorRepeat","img/motor_2.png","83","83","motor","2","39","1","0","0","",""
"null","","89217","HierDyldyrp8c3","lsn46nza6b","msl000632","iti","img/motor_blank.png","null","83","motor","","","","","","",""
"482","","89706","HierDyldyrp8c3","lsn46nza6b","msl000632","motor","img/motor_7.png","75","75","motor","7","40","1","0","0","",""
"null","","89812","HierDyldyrp8c3","lsn46nza6b","msl000632","iti","img/motor_blank.png","null","75","motor","","","","","","",""
"512","","90331","HierDyldyrp8c3","lsn46nza6b","msl000632","motor","img/motor_6.png","74","74","motor","6","41","1","0","0","",""
"null","","90438","HierDyldyrp8c3","lsn46nza6b","msl000632","iti","img/motor_blank.png","null","74","motor","","","","","","",""
"579","","91024","HierDyldyrp8c3","lsn46nza6b","msl000632","motor","img/motor_2.png","83","83","motor","2","42","1","0","0","",""
"null","","91131","HierDyldyrp8c3","lsn46nza6b","msl000632","iti","img/motor_blank.png","null","83","motor","","","","","","",""
"515","","91653","HierDyldyrp8c3","lsn46nza6b","msl000632","motor","img/motor_7.png","75","75","motor","7","43","1","0","0","",""
"null","","91759","HierDyldyrp8c3","lsn46nza6b","msl000632","iti","img/motor_blank.png","null","75","motor","","","","","","",""
"605","","92370","HierDyldyrp8c3","lsn46nza6b","msl000632","motor","img/motor_4.png","70","70","motor","4","44","1","0","0","",""
"null","","92478","HierDyldyrp8c3","lsn46nza6b","msl000632","iti","img/motor_blank.png","null","70","motor","","","","","","",""
"439","","92923","HierDyldyrp8c3","lsn46nza6b","msl000632","motor","img/motor_1.png","65","65","motor","1","45","1","0","0","",""
"null","","93031","HierDyldyrp8c3","lsn46nza6b","msl000632","iti","img/motor_blank.png","null","65","motor","","","","","","",""
"537","","93575","HierDyldyrp8c3","lsn46nza6b","msl000632","motor","img/motor_6.png","74","74","motor","6","46","1","0","0","",""
"null","","93683","HierDyldyrp8c3","lsn46nza6b","msl000632","iti","img/motor_blank.png","null","74","motor","","","","","","",""
"383","","94071","HierDyldyrp8c3","lsn46nza6b","msl000632","motor","img/motor_7.png","75","75","motor","7","47","1","0","0","",""
"null","","94179","HierDyldyrp8c3","lsn46nza6b","msl000632","iti","img/motor_blank.png","null","75","motor","","","","","","",""
"350","","94535","HierDyldyrp8c3","lsn46nza6b","msl000632","motor","img/motor_7.png","75","75","motor","7","48","1","0","0","",""
"null","","94643","HierDyldyrp8c3","lsn46nza6b","msl000632","iti","img/motor_blank.png","null","75","motor","","","","","","",""
"586","","95237","HierDyldyrp8c3","lsn46nza6b","msl000632","motor","img/motor_3.png","83","68","motor","3","49","0","1","0","",""
"268","","95512","HierDyldyrp8c3","lsn46nza6b","msl000632","motorRepeat","img/motor_3.png","68","68","motor","3","49","1","0","0","",""
"null","","95620","HierDyldyrp8c3","lsn46nza6b","msl000632","iti","img/motor_blank.png","null","68","motor","","","","","","",""
"467","","96094","HierDyldyrp8c3","lsn46nza6b","msl000632","motor","img/motor_4.png","70","70","motor","4","50","1","0","0","",""
"null","","96201","HierDyldyrp8c3","lsn46nza6b","msl000632","iti","img/motor_blank.png","null","70","motor","","","","","","",""
"635","","96842","HierDyldyrp8c3","lsn46nza6b","msl000632","motor","img/motor_2.png","83","83","motor","2","51","1","0","0","",""
"null","","96949","HierDyldyrp8c3","lsn46nza6b","msl000632","iti","img/motor_blank.png","null","83","motor","","","","","","",""
"453","","97408","HierDyldyrp8c3","lsn46nza6b","msl000632","motor","img/motor_7.png","75","75","motor","7","52","1","0","0","",""
"null","","97516","HierDyldyrp8c3","lsn46nza6b","msl000632","iti","img/motor_blank.png","null","75","motor","","","","","","",""
"666","","98189","HierDyldyrp8c3","lsn46nza6b","msl000632","motor","img/motor_2.png","83","83","motor","2","53","1","0","0","",""
"null","","98296","HierDyldyrp8c3","lsn46nza6b","msl000632","iti","img/motor_blank.png","null","83","motor","","","","","","",""
"473","","98774","HierDyldyrp8c3","lsn46nza6b","msl000632","motor","img/motor_4.png","68","70","motor","4","54","0","1","0","",""
"340","","99120","HierDyldyrp8c3","lsn46nza6b","msl000632","motorRepeat","img/motor_4.png","70","70","motor","4","54","1","0","0","",""
"null","","99228","HierDyldyrp8c3","lsn46nza6b","msl000632","iti","img/motor_blank.png","null","70","motor","","","","","","",""
"419","","99653","HierDyldyrp8c3","lsn46nza6b","msl000632","motor","img/motor_6.png","75","74","motor","6","55","0","1","0","",""
"351","","100010","HierDyldyrp8c3","lsn46nza6b","msl000632","motorRepeat","img/motor_6.png","74","74","motor","6","55","1","0","0","",""
"null","","100118","HierDyldyrp8c3","lsn46nza6b","msl000632","iti","img/motor_blank.png","null","74","motor","","","","","","",""
"498","","100622","HierDyldyrp8c3","lsn46nza6b","msl000632","motor","img/motor_6.png","74","74","motor","6","56","1","0","0","",""
"null","","100729","HierDyldyrp8c3","lsn46nza6b","msl000632","iti","img/motor_blank.png","null","74","motor","","","","","","",""
"458","","101194","HierDyldyrp8c3","lsn46nza6b","msl000632","motor","img/motor_1.png","65","65","motor","1","57","1","0","0","",""
"null","","101301","HierDyldyrp8c3","lsn46nza6b","msl000632","iti","img/motor_blank.png","null","65","motor","","","","","","",""
"499","","101807","HierDyldyrp8c3","lsn46nza6b","msl000632","motor","img/motor_2.png","83","83","motor","2","58","1","0","0","",""
"null","","101914","HierDyldyrp8c3","lsn46nza6b","msl000632","iti","img/motor_blank.png","null","83","motor","","","","","","",""
"542","","102463","HierDyldyrp8c3","lsn46nza6b","msl000632","motor","img/motor_8.png","76","76","motor","8","59","1","0","0","",""
"null","","102570","HierDyldyrp8c3","lsn46nza6b","msl000632","iti","img/motor_blank.png","null","76","motor","","","","","","",""
"415","","102991","HierDyldyrp8c3","lsn46nza6b","msl000632","motor","img/motor_7.png","74","75","motor","7","60","0","1","0","",""
"190","","103187","HierDyldyrp8c3","lsn46nza6b","msl000632","motorRepeat","img/motor_7.png","75","75","motor","7","60","1","0","0","",""
"null","","103296","HierDyldyrp8c3","lsn46nza6b","msl000632","iti","img/motor_blank.png","null","75","motor","","","","","","",""
"376","","103677","HierDyldyrp8c3","lsn46nza6b","msl000632","motor","img/motor_1.png","65","65","motor","1","61","1","0","0","",""
"null","","103784","HierDyldyrp8c3","lsn46nza6b","msl000632","iti","img/motor_blank.png","null","65","motor","","","","","","",""
"579","","104370","HierDyldyrp8c3","lsn46nza6b","msl000632","motor","img/motor_6.png","74","74","motor","6","62","1","0","0","",""
"null","","104476","HierDyldyrp8c3","lsn46nza6b","msl000632","iti","img/motor_blank.png","null","74","motor","","","","","","",""
"498","","104982","HierDyldyrp8c3","lsn46nza6b","msl000632","motor","img/motor_8.png","76","76","motor","8","63","1","0","0","",""
"null","","105089","HierDyldyrp8c3","lsn46nza6b","msl000632","iti","img/motor_blank.png","null","76","motor","","","","","","",""
"546","","105640","HierDyldyrp8c3","lsn46nza6b","msl000632","motor","img/motor_2.png","83","83","motor","2","64","1","0","0","",""
"null","","105748","HierDyldyrp8c3","lsn46nza6b","msl000632","iti","img/motor_blank.png","null","83","motor","","","","","","",""
"542","","106297","HierDyldyrp8c3","lsn46nza6b","msl000632","motor","img/motor_5.png","74","72","motor","5","65","0","1","0","",""
"194","","106497","HierDyldyrp8c3","lsn46nza6b","msl000632","motorRepeat","img/motor_5.png","72","72","motor","5","65","1","0","0","",""
"null","","106604","HierDyldyrp8c3","lsn46nza6b","msl000632","iti","img/motor_blank.png","null","72","motor","","","","","","",""
"595","","107204","HierDyldyrp8c3","lsn46nza6b","msl000632","motor","img/motor_6.png","74","74","motor","6","66","1","0","0","",""
"null","","107310","HierDyldyrp8c3","lsn46nza6b","msl000632","iti","img/motor_blank.png","null","74","motor","","","","","","",""
"500","","107816","HierDyldyrp8c3","lsn46nza6b","msl000632","motor","img/motor_5.png","72","72","motor","5","67","1","0","0","",""
"null","","107922","HierDyldyrp8c3","lsn46nza6b","msl000632","iti","img/motor_blank.png","null","72","motor","","","","","","",""
"410","","108338","HierDyldyrp8c3","lsn46nza6b","msl000632","motor","img/motor_6.png","74","74","motor","6","68","1","0","0","",""
"null","","108446","HierDyldyrp8c3","lsn46nza6b","msl000632","iti","img/motor_blank.png","null","74","motor","","","","","","",""
"674","","109126","HierDyldyrp8c3","lsn46nza6b","msl000632","motor","img/motor_2.png","83","83","motor","2","69","1","0","0","",""
"null","","109233","HierDyldyrp8c3","lsn46nza6b","msl000632","iti","img/motor_blank.png","null","83","motor","","","","","","",""
"594","","109835","HierDyldyrp8c3","lsn46nza6b","msl000632","motor","img/motor_8.png","76","76","motor","8","70","1","0","0","",""
"null","","109942","HierDyldyrp8c3","lsn46nza6b","msl000632","iti","img/motor_blank.png","null","76","motor","","","","","","",""
"408","","110356","HierDyldyrp8c3","lsn46nza6b","msl000632","motor","img/motor_1.png","65","65","motor","1","71","1","0","0","",""
"null","","110463","HierDyldyrp8c3","lsn46nza6b","msl000632","iti","img/motor_blank.png","null","65","motor","","","","","","",""
"389","","110857","HierDyldyrp8c3","lsn46nza6b","msl000632","motor","img/motor_8.png","76","76","motor","8","72","1","0","0","",""
"null","","110964","HierDyldyrp8c3","lsn46nza6b","msl000632","iti","img/motor_blank.png","null","76","motor","","","","","","",""
"455","","111425","HierDyldyrp8c3","lsn46nza6b","msl000632","motor","img/motor_4.png","70","70","motor","4","73","1","0","0","",""
"null","","111530","HierDyldyrp8c3","lsn46nza6b","msl000632","iti","img/motor_blank.png","null","70","motor","","","","","","",""
"481","","112018","HierDyldyrp8c3","lsn46nza6b","msl000632","motor","img/motor_5.png","72","72","motor","5","74","1","0","0","",""
"null","","112126","HierDyldyrp8c3","lsn46nza6b","msl000632","iti","img/motor_blank.png","null","72","motor","","","","","","",""
"505","","112636","HierDyldyrp8c3","lsn46nza6b","msl000632","motor","img/motor_4.png","70","70","motor","4","75","1","0","0","",""
"null","","112743","HierDyldyrp8c3","lsn46nza6b","msl000632","iti","img/motor_blank.png","null","70","motor","","","","","","",""
"316","","113066","HierDyldyrp8c3","lsn46nza6b","msl000632","motor","img/motor_2.png","65","83","motor","2","76","0","1","0","",""
"292","","113362","HierDyldyrp8c3","lsn46nza6b","msl000632","motorRepeat","img/motor_2.png","83","83","motor","2","76","1","0","0","",""
"null","","113468","HierDyldyrp8c3","lsn46nza6b","msl000632","iti","img/motor_blank.png","null","83","motor","","","","","","",""
"402","","113877","HierDyldyrp8c3","lsn46nza6b","msl000632","motor","img/motor_2.png","83","83","motor","2","77","1","0","0","",""
"null","","113984","HierDyldyrp8c3","lsn46nza6b","msl000632","iti","img/motor_blank.png","null","83","motor","","","","","","",""
"445","","114437","HierDyldyrp8c3","lsn46nza6b","msl000632","motor","img/motor_4.png","70","70","motor","4","78","1","0","0","",""
"null","","114544","HierDyldyrp8c3","lsn46nza6b","msl000632","iti","img/motor_blank.png","null","70","motor","","","","","","",""
"431","","114980","HierDyldyrp8c3","lsn46nza6b","msl000632","motor","img/motor_7.png","75","75","motor","7","79","1","0","0","",""
"null","","115088","HierDyldyrp8c3","lsn46nza6b","msl000632","iti","img/motor_blank.png","null","75","motor","","","","","","",""
"739","","115833","HierDyldyrp8c3","lsn46nza6b","msl000632","motor","img/motor_3.png","68","68","motor","3","80","1","0","0","",""
"null","","115940","HierDyldyrp8c3","lsn46nza6b","msl000632","iti","img/motor_blank.png","null","68","motor","","","","","","",""
"763","","116710","HierDyldyrp8c3","lsn46nza6b","msl000632","motor","img/motor_7.png","75","75","motor","7","81","1","0","0","",""
"null","","116815","HierDyldyrp8c3","lsn46nza6b","msl000632","iti","img/motor_blank.png","null","75","motor","","","","","","",""
"650","","117472","HierDyldyrp8c3","lsn46nza6b","msl000632","motor","img/motor_4.png","70","70","motor","4","82","1","0","0","",""
"null","","117579","HierDyldyrp8c3","lsn46nza6b","msl000632","iti","img/motor_blank.png","null","70","motor","","","","","","",""
"458","","118044","HierDyldyrp8c3","lsn46nza6b","msl000632","motor","img/motor_2.png","65","83","motor","2","83","0","1","0","",""
"219","","118271","HierDyldyrp8c3","lsn46nza6b","msl000632","motorRepeat","img/motor_2.png","83","83","motor","2","83","1","0","0","",""
"null","","118378","HierDyldyrp8c3","lsn46nza6b","msl000632","iti","img/motor_blank.png","null","83","motor","","","","","","",""
"609","","118993","HierDyldyrp8c3","lsn46nza6b","msl000632","motor","img/motor_1.png","65","65","motor","1","84","1","0","0","",""
"null","","119100","HierDyldyrp8c3","lsn46nza6b","msl000632","iti","img/motor_blank.png","null","65","motor","","","","","","",""
"407","","119515","HierDyldyrp8c3","lsn46nza6b","msl000632","motor","img/motor_5.png","75","72","motor","5","85","0","1","0","",""
"234","","119755","HierDyldyrp8c3","lsn46nza6b","msl000632","motorRepeat","img/motor_5.png","72","72","motor","5","85","1","0","0","",""
"null","","119862","HierDyldyrp8c3","lsn46nza6b","msl000632","iti","img/motor_blank.png","null","72","motor","","","","","","",""
"458","","120328","HierDyldyrp8c3","lsn46nza6b","msl000632","motor","img/motor_3.png","68","68","motor","3","86","1","0","0","",""
"null","","120435","HierDyldyrp8c3","lsn46nza6b","msl000632","iti","img/motor_blank.png","null","68","motor","","","","","","",""
"460","","120902","HierDyldyrp8c3","lsn46nza6b","msl000632","motor","img/motor_1.png","65","65","motor","1","87","1","0","0","",""
"null","","121008","HierDyldyrp8c3","lsn46nza6b","msl000632","iti","img/motor_blank.png","null","65","motor","","","","","","",""
"467","","121482","HierDyldyrp8c3","lsn46nza6b","msl000632","motor","img/motor_4.png","70","70","motor","4","88","1","0","0","",""
"null","","121590","HierDyldyrp8c3","lsn46nza6b","msl000632","iti","img/motor_blank.png","null","70","motor","","","","","","",""
"389","","121986","HierDyldyrp8c3","lsn46nza6b","msl000632","motor","img/motor_8.png","76","76","motor","8","89","1","0","0","",""
"null","","122093","HierDyldyrp8c3","lsn46nza6b","msl000632","iti","img/motor_blank.png","null","76","motor","","","","","","",""
"374","","122472","HierDyldyrp8c3","lsn46nza6b","msl000632","motor","img/motor_1.png","65","65","motor","1","90","1","0","0","",""
"null","","122580","HierDyldyrp8c3","lsn46nza6b","msl000632","iti","img/motor_blank.png","null","65","motor","","","","","","",""
"422","","123008","HierDyldyrp8c3","lsn46nza6b","msl000632","motor","img/motor_8.png","76","76","motor","8","91","1","0","0","",""
"null","","123115","HierDyldyrp8c3","lsn46nza6b","msl000632","iti","img/motor_blank.png","null","76","motor","","","","","","",""
"299","","123420","HierDyldyrp8c3","lsn46nza6b","msl000632","motor","img/motor_8.png","76","76","motor","8","92","1","0","0","",""
"null","","123527","HierDyldyrp8c3","lsn46nza6b","msl000632","iti","img/motor_blank.png","null","76","motor","","","","","","",""
"494","","124027","HierDyldyrp8c3","lsn46nza6b","msl000632","motor","img/motor_2.png","83","83","motor","2","93","1","0","0","",""
"null","","124134","HierDyldyrp8c3","lsn46nza6b","msl000632","iti","img/motor_blank.png","null","83","motor","","","","","","",""
"416","","124557","HierDyldyrp8c3","lsn46nza6b","msl000632","motor","img/motor_5.png","72","72","motor","5","94","1","0","0","",""
"null","","124664","HierDyldyrp8c3","lsn46nza6b","msl000632","iti","img/motor_blank.png","null","72","motor","","","","","","",""
"506","","125176","HierDyldyrp8c3","lsn46nza6b","msl000632","motor","img/motor_3.png","68","68","motor","3","95","1","0","0","",""
"null","","125284","HierDyldyrp8c3","lsn46nza6b","msl000632","iti","img/motor_blank.png","null","68","motor","","","","","","",""
"372","","125663","HierDyldyrp8c3","lsn46nza6b","msl000632","motor","img/motor_7.png","75","75","motor","7","96","1","0","0","",""
"null","","125769","HierDyldyrp8c3","lsn46nza6b","msl000632","iti","img/motor_blank.png","null","75","motor","","","","","","",""
"429","","126205","HierDyldyrp8c3","lsn46nza6b","msl000632","motor","img/motor_8.png","76","76","motor","8","97","1","0","0","",""
"null","","126312","HierDyldyrp8c3","lsn46nza6b","msl000632","iti","img/motor_blank.png","null","76","motor","","","","","","",""
"509","","126827","HierDyldyrp8c3","lsn46nza6b","msl000632","motor","img/motor_3.png","83","68","motor","3","98","0","1","0","",""
"401","","127235","HierDyldyrp8c3","lsn46nza6b","msl000632","motorRepeat","img/motor_3.png","68","68","motor","3","98","1","0","0","",""
"null","","127341","HierDyldyrp8c3","lsn46nza6b","msl000632","iti","img/motor_blank.png","null","68","motor","","","","","","",""
"584","","127933","HierDyldyrp8c3","lsn46nza6b","msl000632","motor","img/motor_4.png","70","70","motor","4","99","1","0","0","",""
"null","","128040","HierDyldyrp8c3","lsn46nza6b","msl000632","iti","img/motor_blank.png","null","70","motor","","","","","","",""
"764","","128811","HierDyldyrp8c3","lsn46nza6b","msl000632","motor","img/motor_3.png","83","68","motor","3","100","0","1","0","",""
"273","","129090","HierDyldyrp8c3","lsn46nza6b","msl000632","motorRepeat","img/motor_3.png","68","68","motor","3","100","1","0","0","",""
"null","","129197","HierDyldyrp8c3","lsn46nza6b","msl000632","iti","img/motor_blank.png","null","68","motor","","","","","","",""
"581","","129786","HierDyldyrp8c3","lsn46nza6b","msl000632","motor","img/motor_7.png","75","75","motor","7","101","1","0","0","",""
"null","","129892","HierDyldyrp8c3","lsn46nza6b","msl000632","iti","img/motor_blank.png","null","75","motor","","","","","","",""
"411","","130311","HierDyldyrp8c3","lsn46nza6b","msl000632","motor","img/motor_1.png","65","65","motor","1","102","1","0","0","",""
"null","","130418","HierDyldyrp8c3","lsn46nza6b","msl000632","iti","img/motor_blank.png","null","65","motor","","","","","","",""
"428","","130853","HierDyldyrp8c3","lsn46nza6b","msl000632","motor","img/motor_3.png","68","68","motor","3","103","1","0","0","",""
"null","","130961","HierDyldyrp8c3","lsn46nza6b","msl000632","iti","img/motor_blank.png","null","68","motor","","","","","","",""
"508","","131476","HierDyldyrp8c3","lsn46nza6b","msl000632","motor","img/motor_5.png","74","72","motor","5","104","0","1","0","",""
"316","","131800","HierDyldyrp8c3","lsn46nza6b","msl000632","motorRepeat","img/motor_5.png","72","72","motor","5","104","1","0","0","",""
"null","","131906","HierDyldyrp8c3","lsn46nza6b","msl000632","iti","img/motor_blank.png","null","72","motor","","","","","","",""
"647","","132560","HierDyldyrp8c3","lsn46nza6b","msl000632","motor","img/motor_2.png","83","83","motor","2","105","1","0","0","",""
"null","","132666","HierDyldyrp8c3","lsn46nza6b","msl000632","iti","img/motor_blank.png","null","83","motor","","","","","","",""
"380","","133053","HierDyldyrp8c3","lsn46nza6b","msl000632","motor","img/motor_1.png","65","65","motor","1","106","1","0","0","",""
"null","","133158","HierDyldyrp8c3","lsn46nza6b","msl000632","iti","img/motor_blank.png","null","65","motor","","","","","","",""
"585","","133750","HierDyldyrp8c3","lsn46nza6b","msl000632","motor","img/motor_5.png","74","72","motor","5","107","0","1","0","",""
"258","","134016","HierDyldyrp8c3","lsn46nza6b","msl000632","motorRepeat","img/motor_5.png","72","72","motor","5","107","1","0","0","",""
"null","","134123","HierDyldyrp8c3","lsn46nza6b","msl000632","iti","img/motor_blank.png","null","72","motor","","","","","","",""
"371","","134502","HierDyldyrp8c3","lsn46nza6b","msl000632","motor","img/motor_8.png","75","76","motor","8","108","0","1","0","",""
"183","","134691","HierDyldyrp8c3","lsn46nza6b","msl000632","motorRepeat","img/motor_8.png","76","76","motor","8","108","1","0","0","",""
"null","","134797","HierDyldyrp8c3","lsn46nza6b","msl000632","iti","img/motor_blank.png","null","76","motor","","","","","","",""
"692","","135494","HierDyldyrp8c3","lsn46nza6b","msl000632","motor","img/motor_5.png","72","72","motor","5","109","1","0","0","",""
"null","","135601","HierDyldyrp8c3","lsn46nza6b","msl000632","iti","img/motor_blank.png","null","72","motor","","","","","","",""
"380","","135989","HierDyldyrp8c3","lsn46nza6b","msl000632","motor","img/motor_8.png","76","76","motor","8","110","1","0","0","",""
"null","","136099","HierDyldyrp8c3","lsn46nza6b","msl000632","iti","img/motor_blank.png","null","76","motor","","","","","","",""
"401","","136508","HierDyldyrp8c3","lsn46nza6b","msl000632","motor","img/motor_6.png","72","74","motor","6","111","0","1","0","",""
"149","","136665","HierDyldyrp8c3","lsn46nza6b","msl000632","motorRepeat","img/motor_6.png","74","74","motor","6","111","1","0","0","",""
"null","","136773","HierDyldyrp8c3","lsn46nza6b","msl000632","iti","img/motor_blank.png","null","74","motor","","","","","","",""
"691","","137473","HierDyldyrp8c3","lsn46nza6b","msl000632","motor","img/motor_4.png","70","70","motor","4","112","1","0","0","",""
"null","","137580","HierDyldyrp8c3","lsn46nza6b","msl000632","iti","img/motor_blank.png","null","70","motor","","","","","","",""
"333","","137920","HierDyldyrp8c3","lsn46nza6b","msl000632","motor","img/motor_3.png","68","68","motor","3","113","1","0","0","",""
"null","","138027","HierDyldyrp8c3","lsn46nza6b","msl000632","iti","img/motor_blank.png","null","68","motor","","","","","","",""
"380","","138415","HierDyldyrp8c3","lsn46nza6b","msl000632","motor","img/motor_4.png","70","70","motor","4","114","1","0","0","",""
"null","","138522","HierDyldyrp8c3","lsn46nza6b","msl000632","iti","img/motor_blank.png","null","70","motor","","","","","","",""
"287","","138816","HierDyldyrp8c3","lsn46nza6b","msl000632","motor","img/motor_3.png","68","68","motor","3","115","1","0","0","",""
"null","","138922","HierDyldyrp8c3","lsn46nza6b","msl000632","iti","img/motor_blank.png","null","68","motor","","","","","","",""
"615","","139544","HierDyldyrp8c3","lsn46nza6b","msl000632","motor","img/motor_6.png","75","74","motor","6","116","0","1","0","",""
"426","","139977","HierDyldyrp8c3","lsn46nza6b","msl000632","motorRepeat","img/motor_6.png","74","74","motor","6","116","1","0","0","",""
"null","","140085","HierDyldyrp8c3","lsn46nza6b","msl000632","iti","img/motor_blank.png","null","74","motor","","","","","","",""
"556","","140650","HierDyldyrp8c3","lsn46nza6b","msl000632","motor","img/motor_8.png","76","76","motor","8","117","1","0","0","",""
"null","","140759","HierDyldyrp8c3","lsn46nza6b","msl000632","iti","img/motor_blank.png","null","76","motor","","","","","","",""
"784","","141551","HierDyldyrp8c3","lsn46nza6b","msl000632","motor","img/motor_3.png","68","68","motor","3","118","1","0","0","",""
"null","","141659","HierDyldyrp8c3","lsn46nza6b","msl000632","iti","img/motor_blank.png","null","68","motor","","","","","","",""
"473","","142140","HierDyldyrp8c3","lsn46nza6b","msl000632","motor","img/motor_8.png","76","76","motor","8","119","1","0","0","",""
"null","","142248","HierDyldyrp8c3","lsn46nza6b","msl000632","iti","img/motor_blank.png","null","76","motor","","","","","","",""
"466","","142720","HierDyldyrp8c3","lsn46nza6b","msl000632","motor","img/motor_7.png","74","75","motor","7","120","0","1","0","",""
"228","","142956","HierDyldyrp8c3","lsn46nza6b","msl000632","motorRepeat","img/motor_7.png","75","75","motor","7","120","1","0","0","",""
"null","","143063","HierDyldyrp8c3","lsn46nza6b","msl000632","iti","img/motor_blank.png","null","75","motor","","","","","","",""
"465","","143534","HierDyldyrp8c3","lsn46nza6b","msl000632","motor","img/motor_5.png","72","72","motor","5","121","1","0","0","",""
"null","","143641","HierDyldyrp8c3","lsn46nza6b","msl000632","iti","img/motor_blank.png","null","72","motor","","","","","","",""
"322","","143968","HierDyldyrp8c3","lsn46nza6b","msl000632","motor","img/motor_5.png","72","72","motor","5","122","1","0","0","",""
"null","","144074","HierDyldyrp8c3","lsn46nza6b","msl000632","iti","img/motor_blank.png","null","72","motor","","","","","","",""
"407","","144488","HierDyldyrp8c3","lsn46nza6b","msl000632","motor","img/motor_4.png","68","70","motor","4","123","0","1","0","",""
"375","","144869","HierDyldyrp8c3","lsn46nza6b","msl000632","motorRepeat","img/motor_4.png","70","70","motor","4","123","1","0","0","",""
"null","","144974","HierDyldyrp8c3","lsn46nza6b","msl000632","iti","img/motor_blank.png","null","70","motor","","","","","","",""
"424","","145405","HierDyldyrp8c3","lsn46nza6b","msl000632","motor","img/motor_4.png","70","70","motor","4","124","1","0","0","",""
"null","","145511","HierDyldyrp8c3","lsn46nza6b","msl000632","iti","img/motor_blank.png","null","70","motor","","","","","","",""
"521","","146038","HierDyldyrp8c3","lsn46nza6b","msl000632","motor","img/motor_6.png","74","74","motor","6","125","1","0","0","",""
"null","","146145","HierDyldyrp8c3","lsn46nza6b","msl000632","iti","img/motor_blank.png","null","74","motor","","","","","","",""
"575","","146726","HierDyldyrp8c3","lsn46nza6b","msl000632","motor","img/motor_2.png","83","83","motor","2","126","1","0","0","",""
"null","","146833","HierDyldyrp8c3","lsn46nza6b","msl000632","iti","img/motor_blank.png","null","83","motor","","","","","","",""
"477","","147317","HierDyldyrp8c3","lsn46nza6b","msl000632","motor","img/motor_1.png","65","65","motor","1","127","1","0","0","",""
"null","","147424","HierDyldyrp8c3","lsn46nza6b","msl000632","iti","img/motor_blank.png","null","65","motor","","","","","","",""
"610","","148041","HierDyldyrp8c3","lsn46nza6b","msl000632","motor","img/motor_3.png","70","68","motor","3","128","0","1","0","",""
"255","","148303","HierDyldyrp8c3","lsn46nza6b","msl000632","motorRepeat","img/motor_3.png","68","68","motor","3","128","1","0","0","",""
"null","","148410","HierDyldyrp8c3","lsn46nza6b","msl000632","iti","img/motor_blank.png","null","68","motor","","","","","","",""
"452","","148869","HierDyldyrp8c3","lsn46nza6b","msl000632","motor","img/motor_4.png","70","70","motor","4","129","1","0","0","",""
"null","","148976","HierDyldyrp8c3","lsn46nza6b","msl000632","iti","img/motor_blank.png","null","70","motor","","","","","","",""
"367","","149350","HierDyldyrp8c3","lsn46nza6b","msl000632","motor","img/motor_4.png","70","70","motor","4","130","1","0","0","",""
"null","","149457","HierDyldyrp8c3","lsn46nza6b","msl000632","iti","img/motor_blank.png","null","70","motor","","","","","","",""
"596","","150059","HierDyldyrp8c3","lsn46nza6b","msl000632","motor","img/motor_7.png","75","75","motor","7","131","1","0","0","",""
"null","","150167","HierDyldyrp8c3","lsn46nza6b","msl000632","iti","img/motor_blank.png","null","75","motor","","","","","","",""
"624","","150798","HierDyldyrp8c3","lsn46nza6b","msl000632","motor","img/motor_2.png","83","83","motor","2","132","1","0","0","",""
"null","","150907","HierDyldyrp8c3","lsn46nza6b","msl000632","iti","img/motor_blank.png","null","83","motor","","","","","","",""
"679","","151593","HierDyldyrp8c3","lsn46nza6b","msl000632","motor","img/motor_4.png","70","70","motor","4","133","1","0","0","",""
"null","","151700","HierDyldyrp8c3","lsn46nza6b","msl000632","iti","img/motor_blank.png","null","70","motor","","","","","","",""
"601","","152308","HierDyldyrp8c3","lsn46nza6b","msl000632","motor","img/motor_3.png","68","68","motor","3","134","1","0","0","",""
"null","","152415","HierDyldyrp8c3","lsn46nza6b","msl000632","iti","img/motor_blank.png","null","68","motor","","","","","","",""
"487","","152909","HierDyldyrp8c3","lsn46nza6b","msl000632","motor","img/motor_5.png","72","72","motor","5","135","1","0","0","",""
"null","","153016","HierDyldyrp8c3","lsn46nza6b","msl000632","iti","img/motor_blank.png","null","72","motor","","","","","","",""
"885","","153908","HierDyldyrp8c3","lsn46nza6b","msl000632","motor","img/motor_7.png","75","75","motor","7","136","1","0","0","",""
"null","","154016","HierDyldyrp8c3","lsn46nza6b","msl000632","iti","img/motor_blank.png","null","75","motor","","","","","","",""
"293","","154314","HierDyldyrp8c3","lsn46nza6b","msl000632","motor","img/motor_7.png","75","75","motor","7","137","1","0","0","",""
"null","","154421","HierDyldyrp8c3","lsn46nza6b","msl000632","iti","img/motor_blank.png","null","75","motor","","","","","","",""
"434","","154861","HierDyldyrp8c3","lsn46nza6b","msl000632","motor","img/motor_2.png","83","83","motor","2","138","1","0","0","",""
"null","","154966","HierDyldyrp8c3","lsn46nza6b","msl000632","iti","img/motor_blank.png","null","83","motor","","","","","","",""
"636","","155610","HierDyldyrp8c3","lsn46nza6b","msl000632","motor","img/motor_7.png","75","75","motor","7","139","1","0","0","",""
"null","","155717","HierDyldyrp8c3","lsn46nza6b","msl000632","iti","img/motor_blank.png","null","75","motor","","","","","","",""
"482","","156206","HierDyldyrp8c3","lsn46nza6b","msl000632","motor","img/motor_1.png","65","65","motor","1","140","1","0","0","",""
"null","","156313","HierDyldyrp8c3","lsn46nza6b","msl000632","iti","img/motor_blank.png","null","65","motor","","","","","","",""
"325","","156644","HierDyldyrp8c3","lsn46nza6b","msl000632","motor","img/motor_8.png","75","76","motor","8","141","0","1","0","",""
"203","","156854","HierDyldyrp8c3","lsn46nza6b","msl000632","motorRepeat","img/motor_8.png","76","76","motor","8","141","1","0","0","",""
"null","","156961","HierDyldyrp8c3","lsn46nza6b","msl000632","iti","img/motor_blank.png","null","76","motor","","","","","","",""
"452","","157420","HierDyldyrp8c3","lsn46nza6b","msl000632","motor","img/motor_2.png","83","83","motor","2","142","1","0","0","",""
"null","","157527","HierDyldyrp8c3","lsn46nza6b","msl000632","iti","img/motor_blank.png","null","83","motor","","","","","","",""
"378","","157912","HierDyldyrp8c3","lsn46nza6b","msl000632","motor","img/motor_8.png","76","76","motor","8","143","1","0","0","",""
"null","","158020","HierDyldyrp8c3","lsn46nza6b","msl000632","iti","img/motor_blank.png","null","76","motor","","","","","","",""
"655","","158682","HierDyldyrp8c3","lsn46nza6b","msl000632","motor","img/motor_2.png","83","83","motor","2","144","1","0","0","",""
"null","","158790","HierDyldyrp8c3","lsn46nza6b","msl000632","iti","img/motor_blank.png","null","83","motor","","","","","","",""
"678","","159474","HierDyldyrp8c3","lsn46nza6b","msl000632","motor","img/motor_6.png","75","74","motor","6","145","0","1","0","",""
"510","","159990","HierDyldyrp8c3","lsn46nza6b","msl000632","motorRepeat","img/motor_6.png","72","74","motor","6","145","0","1","0","",""
"285","","160282","HierDyldyrp8c3","lsn46nza6b","msl000632","motorRepeat","img/motor_6.png","74","74","motor","6","145","1","0","0","",""
"null","","160389","HierDyldyrp8c3","lsn46nza6b","msl000632","iti","img/motor_blank.png","null","74","motor","","","","","","",""
"498","","160893","HierDyldyrp8c3","lsn46nza6b","msl000632","motor","img/motor_5.png","70","72","motor","5","146","0","1","0","",""
"325","","161224","HierDyldyrp8c3","lsn46nza6b","msl000632","motorRepeat","img/motor_5.png","72","72","motor","5","146","1","0","0","",""
"null","","161331","HierDyldyrp8c3","lsn46nza6b","msl000632","iti","img/motor_blank.png","null","72","motor","","","","","","",""
"534","","161872","HierDyldyrp8c3","lsn46nza6b","msl000632","motor","img/motor_8.png","76","76","motor","8","147","1","0","0","",""
"null","","161979","HierDyldyrp8c3","lsn46nza6b","msl000632","iti","img/motor_blank.png","null","76","motor","","","","","","",""
"504","","162490","HierDyldyrp8c3","lsn46nza6b","msl000632","motor","img/motor_7.png","75","75","motor","7","148","1","0","0","",""
"null","","162597","HierDyldyrp8c3","lsn46nza6b","msl000632","iti","img/motor_blank.png","null","75","motor","","","","","","",""
"282","","162886","HierDyldyrp8c3","lsn46nza6b","msl000632","motor","img/motor_8.png","74","76","motor","8","149","0","1","0","",""
"200","","163091","HierDyldyrp8c3","lsn46nza6b","msl000632","motorRepeat","img/motor_8.png","76","76","motor","8","149","1","0","0","",""
"null","","163197","HierDyldyrp8c3","lsn46nza6b","msl000632","iti","img/motor_blank.png","null","76","motor","","","","","","",""
"582","","163784","HierDyldyrp8c3","lsn46nza6b","msl000632","motor","img/motor_5.png","72","72","motor","5","150","1","0","0","",""
"null","","163890","HierDyldyrp8c3","lsn46nza6b","msl000632","iti","img/motor_blank.png","null","72","motor","","","","","","",""
"460","","164356","HierDyldyrp8c3","lsn46nza6b","msl000632","motor","img/motor_4.png","70","70","motor","4","151","1","0","0","",""
"null","","164462","HierDyldyrp8c3","lsn46nza6b","msl000632","iti","img/motor_blank.png","null","70","motor","","","","","","",""
"339","","164807","HierDyldyrp8c3","lsn46nza6b","msl000632","motor","img/motor_8.png","76","76","motor","8","152","1","0","0","",""
"null","","164914","HierDyldyrp8c3","lsn46nza6b","msl000632","iti","img/motor_blank.png","null","76","motor","","","","","","",""
"400","","165320","HierDyldyrp8c3","lsn46nza6b","msl000632","motor","img/motor_4.png","70","70","motor","4","153","1","0","0","",""
"null","","165428","HierDyldyrp8c3","lsn46nza6b","msl000632","iti","img/motor_blank.png","null","70","motor","","","","","","",""
"296","","165730","HierDyldyrp8c3","lsn46nza6b","msl000632","motor","img/motor_4.png","70","70","motor","4","154","1","0","0","",""
"null","","165838","HierDyldyrp8c3","lsn46nza6b","msl000632","iti","img/motor_blank.png","null","70","motor","","","","","","",""
"424","","166269","HierDyldyrp8c3","lsn46nza6b","msl000632","motor","img/motor_5.png","72","72","motor","5","155","1","0","0","",""
"null","","166376","HierDyldyrp8c3","lsn46nza6b","msl000632","iti","img/motor_blank.png","null","72","motor","","","","","","",""
"494","","166876","HierDyldyrp8c3","lsn46nza6b","msl000632","motor","img/motor_7.png","75","75","motor","7","156","1","0","0","",""
"null","","166983","HierDyldyrp8c3","lsn46nza6b","msl000632","iti","img/motor_blank.png","null","75","motor","","","","","","",""
"364","","167353","HierDyldyrp8c3","lsn46nza6b","msl000632","motor","img/motor_8.png","76","76","motor","8","157","1","0","0","",""
"null","","167458","HierDyldyrp8c3","lsn46nza6b","msl000632","iti","img/motor_blank.png","null","76","motor","","","","","","",""
"350","","167815","HierDyldyrp8c3","lsn46nza6b","msl000632","motor","img/motor_6.png","75","74","motor","6","158","0","1","0","",""
"348","","168170","HierDyldyrp8c3","lsn46nza6b","msl000632","motorRepeat","img/motor_6.png","74","74","motor","6","158","1","0","0","",""
"null","","168278","HierDyldyrp8c3","lsn46nza6b","msl000632","iti","img/motor_blank.png","null","74","motor","","","","","","",""
"659","","168941","HierDyldyrp8c3","lsn46nza6b","msl000632","motor","img/motor_3.png","68","68","motor","3","159","1","0","0","",""
"null","","169048","HierDyldyrp8c3","lsn46nza6b","msl000632","iti","img/motor_blank.png","null","68","motor","","","","","","",""
"476","","169532","HierDyldyrp8c3","lsn46nza6b","msl000632","motor","img/motor_6.png","74","74","motor","6","160","1","0","0","",""
"null","","169639","HierDyldyrp8c3","lsn46nza6b","msl000632","iti","img/motor_blank.png","null","74","motor","","","","","","",""
"472","","170116","HierDyldyrp8c3","lsn46nza6b","msl000632","motor","img/motor_3.png","68","68","motor","3","161","1","0","0","",""
"null","","170223","HierDyldyrp8c3","lsn46nza6b","msl000632","iti","img/motor_blank.png","null","68","motor","","","","","","",""
"295","","170527","HierDyldyrp8c3","lsn46nza6b","msl000632","motor","img/motor_5.png","74","72","motor","5","162","0","1","0","",""
"253","","170786","HierDyldyrp8c3","lsn46nza6b","msl000632","motorRepeat","img/motor_5.png","72","72","motor","5","162","1","0","0","",""
"null","","170894","HierDyldyrp8c3","lsn46nza6b","msl000632","iti","img/motor_blank.png","null","72","motor","","","","","","",""
"477","","171377","HierDyldyrp8c3","lsn46nza6b","msl000632","motor","img/motor_7.png","75","75","motor","7","163","1","0","0","",""
"null","","171484","HierDyldyrp8c3","lsn46nza6b","msl000632","iti","img/motor_blank.png","null","75","motor","","","","","","",""
"493","","171985","HierDyldyrp8c3","lsn46nza6b","msl000632","motor","img/motor_4.png","68","70","motor","4","164","0","1","0","",""
"341","","172332","HierDyldyrp8c3","lsn46nza6b","msl000632","motorRepeat","img/motor_4.png","70","70","motor","4","164","1","0","0","",""
"null","","172440","HierDyldyrp8c3","lsn46nza6b","msl000632","iti","img/motor_blank.png","null","70","motor","","","","","","",""
"448","","172895","HierDyldyrp8c3","lsn46nza6b","msl000632","motor","img/motor_8.png","76","76","motor","8","165","1","0","0","",""
"null","","173003","HierDyldyrp8c3","lsn46nza6b","msl000632","iti","img/motor_blank.png","null","76","motor","","","","","","",""
"320","","173329","HierDyldyrp8c3","lsn46nza6b","msl000632","motor","img/motor_2.png","65","83","motor","2","166","0","1","0","",""
"314","","173651","HierDyldyrp8c3","lsn46nza6b","msl000632","motorRepeat","img/motor_2.png","83","83","motor","2","166","1","0","0","",""
"null","","173758","HierDyldyrp8c3","lsn46nza6b","msl000632","iti","img/motor_blank.png","null","83","motor","","","","","","",""
"364","","174130","HierDyldyrp8c3","lsn46nza6b","msl000632","motor","img/motor_2.png","83","83","motor","2","167","1","0","0","",""
"null","","174236","HierDyldyrp8c3","lsn46nza6b","msl000632","iti","img/motor_blank.png","null","83","motor","","","","","","",""
"579","","174821","HierDyldyrp8c3","lsn46nza6b","msl000632","motor","img/motor_3.png","68","68","motor","3","168","1","0","0","",""
"null","","174928","HierDyldyrp8c3","lsn46nza6b","msl000632","iti","img/motor_blank.png","null","68","motor","","","","","","",""
"369","","175304","HierDyldyrp8c3","lsn46nza6b","msl000632","motor","img/motor_4.png","70","70","motor","4","169","1","0","0","",""
"null","","175412","HierDyldyrp8c3","lsn46nza6b","msl000632","iti","img/motor_blank.png","null","70","motor","","","","","","",""
"395","","175814","HierDyldyrp8c3","lsn46nza6b","msl000632","motor","img/motor_4.png","70","70","motor","4","170","1","0","0","",""
"null","","175921","HierDyldyrp8c3","lsn46nza6b","msl000632","iti","img/motor_blank.png","null","70","motor","","","","","","",""
"413","","176341","HierDyldyrp8c3","lsn46nza6b","msl000632","motor","img/motor_7.png","75","75","motor","7","171","1","0","0","",""
"null","","176447","HierDyldyrp8c3","lsn46nza6b","msl000632","iti","img/motor_blank.png","null","75","motor","","","","","","",""
"373","","176828","HierDyldyrp8c3","lsn46nza6b","msl000632","motor","img/motor_6.png","74","74","motor","6","172","1","0","0","",""
"null","","176935","HierDyldyrp8c3","lsn46nza6b","msl000632","iti","img/motor_blank.png","null","74","motor","","","","","","",""
"282","","177223","HierDyldyrp8c3","lsn46nza6b","msl000632","motor","img/motor_4.png","72","70","motor","4","173","0","1","0","",""
"190","","177421","HierDyldyrp8c3","lsn46nza6b","msl000632","motorRepeat","img/motor_4.png","70","70","motor","4","173","1","0","0","",""
"null","","177529","HierDyldyrp8c3","lsn46nza6b","msl000632","iti","img/motor_blank.png","null","70","motor","","","","","","",""
"573","","178109","HierDyldyrp8c3","lsn46nza6b","msl000632","motor","img/motor_6.png","74","74","motor","6","174","1","0","0","",""
"null","","178216","HierDyldyrp8c3","lsn46nza6b","msl000632","iti","img/motor_blank.png","null","74","motor","","","","","","",""
"566","","178790","HierDyldyrp8c3","lsn46nza6b","msl000632","motor","img/motor_7.png","75","75","motor","7","175","1","0","0","",""
"null","","178898","HierDyldyrp8c3","lsn46nza6b","msl000632","iti","img/motor_blank.png","null","75","motor","","","","","","",""
"585","","179489","HierDyldyrp8c3","lsn46nza6b","msl000632","motor","img/motor_1.png","65","65","motor","1","176","1","0","0","",""
"null","","179596","HierDyldyrp8c3","lsn46nza6b","msl000632","iti","img/motor_blank.png","null","65","motor","","","","","","",""
"445","","180051","HierDyldyrp8c3","lsn46nza6b","msl000632","motor","img/motor_8.png","76","76","motor","8","177","1","0","0","",""
"null","","180158","HierDyldyrp8c3","lsn46nza6b","msl000632","iti","img/motor_blank.png","null","76","motor","","","","","","",""
"662","","180827","HierDyldyrp8c3","lsn46nza6b","msl000632","motor","img/motor_2.png","83","83","motor","2","178","1","0","0","",""
"null","","180934","HierDyldyrp8c3","lsn46nza6b","msl000632","iti","img/motor_blank.png","null","83","motor","","","","","","",""
"375","","181316","HierDyldyrp8c3","lsn46nza6b","msl000632","motor","img/motor_5.png","72","72","motor","5","179","1","0","0","",""
"null","","181423","HierDyldyrp8c3","lsn46nza6b","msl000632","iti","img/motor_blank.png","null","72","motor","","","","","","",""
"6","","181436","HierDyldyrp8c3","lsn46nza6b","msl000632","motor","img/motor_7.png","74","75","motor","7","180","0","1","0","",""
"819","","182262","HierDyldyrp8c3","lsn46nza6b","msl000632","motorRepeat","img/motor_7.png","75","75","motor","7","180","1","0","0","",""
"null","","182370","HierDyldyrp8c3","lsn46nza6b","msl000632","iti","img/motor_blank.png","null","75","motor","","","","","","",""
"398","","182775","HierDyldyrp8c3","lsn46nza6b","msl000632","motor","img/motor_4.png","70","70","motor","4","181","1","0","0","",""
"null","","182882","HierDyldyrp8c3","lsn46nza6b","msl000632","iti","img/motor_blank.png","null","70","motor","","","","","","",""
"397","","183286","HierDyldyrp8c3","lsn46nza6b","msl000632","motor","img/motor_5.png","72","72","motor","5","182","1","0","0","",""
"null","","183393","HierDyldyrp8c3","lsn46nza6b","msl000632","iti","img/motor_blank.png","null","72","motor","","","","","","",""
"439","","183840","HierDyldyrp8c3","lsn46nza6b","msl000632","motor","img/motor_6.png","74","74","motor","6","183","1","0","0","",""
"null","","183947","HierDyldyrp8c3","lsn46nza6b","msl000632","iti","img/motor_blank.png","null","74","motor","","","","","","",""
"411","","184366","HierDyldyrp8c3","lsn46nza6b","msl000632","motor","img/motor_4.png","70","70","motor","4","184","1","0","0","",""
"null","","184473","HierDyldyrp8c3","lsn46nza6b","msl000632","iti","img/motor_blank.png","null","70","motor","","","","","","",""
"518","","184999","HierDyldyrp8c3","lsn46nza6b","msl000632","motor","img/motor_1.png","83","65","motor","1","185","0","1","0","",""
"214","","185220","HierDyldyrp8c3","lsn46nza6b","msl000632","motorRepeat","img/motor_1.png","65","65","motor","1","185","1","0","0","",""
"null","","185328","HierDyldyrp8c3","lsn46nza6b","msl000632","iti","img/motor_blank.png","null","65","motor","","","","","","",""
"470","","185805","HierDyldyrp8c3","lsn46nza6b","msl000632","motor","img/motor_6.png","75","74","motor","6","186","0","1","0","",""
"326","","186139","HierDyldyrp8c3","lsn46nza6b","msl000632","motorRepeat","img/motor_6.png","74","74","motor","6","186","1","0","0","",""
"null","","186245","HierDyldyrp8c3","lsn46nza6b","msl000632","iti","img/motor_blank.png","null","74","motor","","","","","","",""
"567","","186819","HierDyldyrp8c3","lsn46nza6b","msl000632","motor","img/motor_8.png","76","76","motor","8","187","1","0","0","",""
"null","","186927","HierDyldyrp8c3","lsn46nza6b","msl000632","iti","img/motor_blank.png","null","76","motor","","","","","","",""
"413","","187347","HierDyldyrp8c3","lsn46nza6b","msl000632","motor","img/motor_4.png","70","70","motor","4","188","1","0","0","",""
"null","","187454","HierDyldyrp8c3","lsn46nza6b","msl000632","iti","img/motor_blank.png","null","70","motor","","","","","","",""
"660","","188120","HierDyldyrp8c3","lsn46nza6b","msl000632","motor","img/motor_2.png","83","83","motor","2","189","1","0","0","",""
"null","","188227","HierDyldyrp8c3","lsn46nza6b","msl000632","iti","img/motor_blank.png","null","83","motor","","","","","","",""
"622","","188856","HierDyldyrp8c3","lsn46nza6b","msl000632","motor","img/motor_5.png","72","72","motor","5","190","1","0","0","",""
"69","","188963","HierDyldyrp8c3","lsn46nza6b","msl000632","iti","img/motor_blank.png","74","72","motor","","","","","","",""
"417","","189388","HierDyldyrp8c3","lsn46nza6b","msl000632","motor","img/motor_8.png","75","76","motor","8","191","0","1","0","",""
"366","","189760","HierDyldyrp8c3","lsn46nza6b","msl000632","motorRepeat","img/motor_8.png","76","76","motor","8","191","1","0","0","",""
"null","","189868","HierDyldyrp8c3","lsn46nza6b","msl000632","iti","img/motor_blank.png","null","76","motor","","","","","","",""
"513","","190386","HierDyldyrp8c3","lsn46nza6b","msl000632","motor","img/motor_3.png","68","68","motor","3","192","1","0","0","",""
"null","","190493","HierDyldyrp8c3","lsn46nza6b","msl000632","iti","img/motor_blank.png","null","68","motor","","","","","","",""
"671","","191170","HierDyldyrp8c3","lsn46nza6b","msl000632","motor","img/motor_8.png","76","76","motor","8","193","1","0","0","",""
"null","","191276","HierDyldyrp8c3","lsn46nza6b","msl000632","iti","img/motor_blank.png","null","76","motor","","","","","","",""
"380","","191662","HierDyldyrp8c3","lsn46nza6b","msl000632","motor","img/motor_5.png","72","72","motor","5","194","1","0","0","",""
"null","","191769","HierDyldyrp8c3","lsn46nza6b","msl000632","iti","img/motor_blank.png","null","72","motor","","","","","","",""
"326","","192099","HierDyldyrp8c3","lsn46nza6b","msl000632","motor","img/motor_5.png","72","72","motor","5","195","1","0","0","",""
"null","","192205","HierDyldyrp8c3","lsn46nza6b","msl000632","iti","img/motor_blank.png","null","72","motor","","","","","","",""
"584","","192795","HierDyldyrp8c3","lsn46nza6b","msl000632","motor","img/motor_3.png","68","68","motor","3","196","1","0","0","",""
"null","","192901","HierDyldyrp8c3","lsn46nza6b","msl000632","iti","img/motor_blank.png","null","68","motor","","","","","","",""
"422","","193328","HierDyldyrp8c3","lsn46nza6b","msl000632","motor","img/motor_2.png","83","83","motor","2","197","1","0","0","",""
"null","","193433","HierDyldyrp8c3","lsn46nza6b","msl000632","iti","img/motor_blank.png","null","83","motor","","","","","","",""
"320","","193760","HierDyldyrp8c3","lsn46nza6b","msl000632","motor","img/motor_3.png","68","68","motor","3","198","1","0","0","",""
"null","","193866","HierDyldyrp8c3","lsn46nza6b","msl000632","iti","img/motor_blank.png","null","68","motor","","","","","","",""
"465","","194338","HierDyldyrp8c3","lsn46nza6b","msl000632","motor","img/motor_5.png","75","72","motor","5","199","0","1","0","",""
"73","","194418","HierDyldyrp8c3","lsn46nza6b","msl000632","motorRepeat","img/motor_5.png","74","72","motor","5","199","0","1","0","",""
"145","","194569","HierDyldyrp8c3","lsn46nza6b","msl000632","motorRepeat","img/motor_5.png","72","72","motor","5","199","1","0","0","",""
"null","","194676","HierDyldyrp8c3","lsn46nza6b","msl000632","iti","img/motor_blank.png","null","72","motor","","","","","","",""
"484","","195167","HierDyldyrp8c3","lsn46nza6b","msl000632","motor","img/motor_1.png","65","65","motor","1","200","1","0","0","",""
"null","","195274","HierDyldyrp8c3","lsn46nza6b","msl000632","iti","img/motor_blank.png","null","65","motor","","","","","","",""
"488","","195769","HierDyldyrp8c3","lsn46nza6b","msl000632","motor","img/motor_4.png","70","70","motor","4","201","1","0","0","",""
"null","","195877","HierDyldyrp8c3","lsn46nza6b","msl000632","iti","img/motor_blank.png","null","70","motor","","","","","","",""
"452","","196335","HierDyldyrp8c3","lsn46nza6b","msl000632","motor","img/motor_5.png","72","72","motor","5","202","1","0","0","",""
"null","","196443","HierDyldyrp8c3","lsn46nza6b","msl000632","iti","img/motor_blank.png","null","72","motor","","","","","","",""
"359","","196806","HierDyldyrp8c3","lsn46nza6b","msl000632","motor","img/motor_6.png","74","74","motor","6","203","1","0","0","",""
"null","","196912","HierDyldyrp8c3","lsn46nza6b","msl000632","iti","img/motor_blank.png","null","74","motor","","","","","","",""
"337","","197254","HierDyldyrp8c3","lsn46nza6b","msl000632","motor","img/motor_6.png","74","74","motor","6","204","1","0","0","",""
"null","","197359","HierDyldyrp8c3","lsn46nza6b","msl000632","iti","img/motor_blank.png","null","74","motor","","","","","","",""
"400","","197765","HierDyldyrp8c3","lsn46nza6b","msl000632","motor","img/motor_7.png","75","75","motor","7","205","1","0","0","",""
"null","","197872","HierDyldyrp8c3","lsn46nza6b","msl000632","iti","img/motor_blank.png","null","75","motor","","","","","","",""
"380","","198257","HierDyldyrp8c3","lsn46nza6b","msl000632","motor","img/motor_6.png","72","74","motor","6","206","0","1","0","",""
"189","","198451","HierDyldyrp8c3","lsn46nza6b","msl000632","motorRepeat","img/motor_6.png","74","74","motor","6","206","1","0","0","",""
"null","","198557","HierDyldyrp8c3","lsn46nza6b","msl000632","iti","img/motor_blank.png","null","74","motor","","","","","","",""
"496","","199059","HierDyldyrp8c3","lsn46nza6b","msl000632","motor","img/motor_7.png","75","75","motor","7","207","1","0","0","",""
"null","","199165","HierDyldyrp8c3","lsn46nza6b","msl000632","iti","img/motor_blank.png","null","75","motor","","","","","","",""
"1053","","200224","HierDyldyrp8c3","lsn46nza6b","msl000632","motor","img/motor_4.png","70","70","motor","4","208","1","0","0","",""
"null","","200330","HierDyldyrp8c3","lsn46nza6b","msl000632","iti","img/motor_blank.png","null","70","motor","","","","","","",""
"400","","200737","HierDyldyrp8c3","lsn46nza6b","msl000632","motor","img/motor_7.png","75","75","motor","7","209","1","0","0","",""
"null","","200844","HierDyldyrp8c3","lsn46nza6b","msl000632","iti","img/motor_blank.png","null","75","motor","","","","","","",""
"383","","201232","HierDyldyrp8c3","lsn46nza6b","msl000632","motor","img/motor_8.png","75","76","motor","8","210","0","1","0","",""
"235","","201473","HierDyldyrp8c3","lsn46nza6b","msl000632","motorRepeat","img/motor_8.png","76","76","motor","8","210","1","0","0","",""
"null","","201579","HierDyldyrp8c3","lsn46nza6b","msl000632","iti","img/motor_blank.png","null","76","motor","","","","","","",""
"432","","202018","HierDyldyrp8c3","lsn46nza6b","msl000632","motor","img/motor_7.png","75","75","motor","7","211","1","0","0","",""
"null","","202124","HierDyldyrp8c3","lsn46nza6b","msl000632","iti","img/motor_blank.png","null","75","motor","","","","","","",""
"296","","202426","HierDyldyrp8c3","lsn46nza6b","msl000632","motor","img/motor_5.png","74","72","motor","5","212","0","1","0","",""
"261","","202692","HierDyldyrp8c3","lsn46nza6b","msl000632","motorRepeat","img/motor_5.png","72","72","motor","5","212","1","0","0","",""
"null","","202800","HierDyldyrp8c3","lsn46nza6b","msl000632","iti","img/motor_blank.png","null","72","motor","","","","","","",""
"339","","203147","HierDyldyrp8c3","lsn46nza6b","msl000632","motor","img/motor_3.png","70","68","motor","3","213","0","1","0","",""
"367","","203522","HierDyldyrp8c3","lsn46nza6b","msl000632","motorRepeat","img/motor_3.png","68","68","motor","3","213","1","0","0","",""
"null","","203629","HierDyldyrp8c3","lsn46nza6b","msl000632","iti","img/motor_blank.png","null","68","motor","","","","","","",""
"534","","204171","HierDyldyrp8c3","lsn46nza6b","msl000632","motor","img/motor_5.png","72","72","motor","5","214","1","0","0","",""
"null","","204280","HierDyldyrp8c3","lsn46nza6b","msl000632","iti","img/motor_blank.png","null","72","motor","","","","","","",""
"436","","204725","HierDyldyrp8c3","lsn46nza6b","msl000632","motor","img/motor_1.png","65","65","motor","1","215","1","0","0","",""
"null","","204835","HierDyldyrp8c3","lsn46nza6b","msl000632","iti","img/motor_blank.png","null","65","motor","","","","","","",""
"436","","205280","HierDyldyrp8c3","lsn46nza6b","msl000632","motor","img/motor_3.png","68","68","motor","3","216","1","0","0","",""
"null","","205388","HierDyldyrp8c3","lsn46nza6b","msl000632","iti","img/motor_blank.png","null","68","motor","","","","","","",""
"507","","205902","HierDyldyrp8c3","lsn46nza6b","msl000632","motor","img/motor_1.png","65","65","motor","1","217","1","0","0","",""
"null","","206011","HierDyldyrp8c3","lsn46nza6b","msl000632","iti","img/motor_blank.png","null","65","motor","","","","","","",""
"425","","206444","HierDyldyrp8c3","lsn46nza6b","msl000632","motor","img/motor_5.png","72","72","motor","5","218","1","0","0","",""
"null","","206552","HierDyldyrp8c3","lsn46nza6b","msl000632","iti","img/motor_blank.png","null","72","motor","","","","","","",""
"291","","206850","HierDyldyrp8c3","lsn46nza6b","msl000632","motor","img/motor_6.png","74","74","motor","6","219","1","0","0","",""
"null","","206958","HierDyldyrp8c3","lsn46nza6b","msl000632","iti","img/motor_blank.png","null","74","motor","","","","","","",""
"336","","207301","HierDyldyrp8c3","lsn46nza6b","msl000632","motor","img/motor_8.png","75","76","motor","8","220","0","1","0","",""
"219","","207526","HierDyldyrp8c3","lsn46nza6b","msl000632","motorRepeat","img/motor_8.png","76","76","motor","8","220","1","0","0","",""
"null","","207632","HierDyldyrp8c3","lsn46nza6b","msl000632","iti","img/motor_blank.png","null","76","motor","","","","","","",""
"520","","208159","HierDyldyrp8c3","lsn46nza6b","msl000632","motor","img/motor_4.png","68","70","motor","4","221","0","1","0","",""
"296","","208461","HierDyldyrp8c3","lsn46nza6b","msl000632","motorRepeat","img/motor_4.png","70","70","motor","4","221","1","0","0","",""
"null","","208567","HierDyldyrp8c3","lsn46nza6b","msl000632","iti","img/motor_blank.png","null","70","motor","","","","","","",""
"415","","208987","HierDyldyrp8c3","lsn46nza6b","msl000632","motor","img/motor_1.png","65","65","motor","1","222","1","0","0","",""
"null","","209093","HierDyldyrp8c3","lsn46nza6b","msl000632","iti","img/motor_blank.png","null","65","motor","","","","","","",""
"491","","209590","HierDyldyrp8c3","lsn46nza6b","msl000632","motor","img/motor_6.png","72","74","motor","6","223","0","1","0","",""
"179","","209777","HierDyldyrp8c3","lsn46nza6b","msl000632","motorRepeat","img/motor_6.png","74","74","motor","6","223","1","0","0","",""
"null","","209884","HierDyldyrp8c3","lsn46nza6b","msl000632","iti","img/motor_blank.png","null","74","motor","","","","","","",""
"782","","210675","HierDyldyrp8c3","lsn46nza6b","msl000632","motor","img/motor_2.png","68","83","motor","2","224","0","1","0","",""
"275","","210957","HierDyldyrp8c3","lsn46nza6b","msl000632","motorRepeat","img/motor_2.png","83","83","motor","2","224","1","0","0","",""
"null","","211064","HierDyldyrp8c3","lsn46nza6b","msl000632","iti","img/motor_blank.png","null","83","motor","","","","","","",""
"499","","211570","HierDyldyrp8c3","lsn46nza6b","msl000632","motor","img/motor_3.png","70","68","motor","3","225","0","1","0","",""
"185","","211761","HierDyldyrp8c3","lsn46nza6b","msl000632","motorRepeat","img/motor_3.png","68","68","motor","3","225","1","0","0","",""
"null","","211869","HierDyldyrp8c3","lsn46nza6b","msl000632","iti","img/motor_blank.png","null","68","motor","","","","","","",""
"671","","212548","HierDyldyrp8c3","lsn46nza6b","msl000632","motor","img/motor_8.png","75","76","motor","8","226","0","1","0","",""
"183","","212737","HierDyldyrp8c3","lsn46nza6b","msl000632","motorRepeat","img/motor_8.png","76","76","motor","8","226","1","0","0","",""
"null","","212845","HierDyldyrp8c3","lsn46nza6b","msl000632","iti","img/motor_blank.png","null","76","motor","","","","","","",""
"645","","213497","HierDyldyrp8c3","lsn46nza6b","msl000632","motor","img/motor_8.png","76","76","motor","8","227","1","0","0","",""
"null","","213605","HierDyldyrp8c3","lsn46nza6b","msl000632","iti","img/motor_blank.png","null","76","motor","","","","","","",""
"607","","214219","HierDyldyrp8c3","lsn46nza6b","msl000632","motor","img/motor_7.png","75","75","motor","7","228","1","0","0","",""
"null","","214327","HierDyldyrp8c3","lsn46nza6b","msl000632","iti","img/motor_blank.png","null","75","motor","","","","","","",""
"342","","214676","HierDyldyrp8c3","lsn46nza6b","msl000632","motor","img/motor_6.png","74","74","motor","6","229","1","0","0","",""
"null","","214784","HierDyldyrp8c3","lsn46nza6b","msl000632","iti","img/motor_blank.png","null","74","motor","","","","","","",""
"407","","215197","HierDyldyrp8c3","lsn46nza6b","msl000632","motor","img/motor_5.png","72","72","motor","5","230","1","0","0","",""
"null","","215304","HierDyldyrp8c3","lsn46nza6b","msl000632","iti","img/motor_blank.png","null","72","motor","","","","","","",""
"566","","215877","HierDyldyrp8c3","lsn46nza6b","msl000632","motor","img/motor_2.png","83","83","motor","2","231","1","0","0","",""
"null","","215984","HierDyldyrp8c3","lsn46nza6b","msl000632","iti","img/motor_blank.png","null","83","motor","","","","","","",""
"394","","216386","HierDyldyrp8c3","lsn46nza6b","msl000632","motor","img/motor_4.png","70","70","motor","4","232","1","0","0","",""
"null","","216493","HierDyldyrp8c3","lsn46nza6b","msl000632","iti","img/motor_blank.png","null","70","motor","","","","","","",""
"414","","216914","HierDyldyrp8c3","lsn46nza6b","msl000632","motor","img/motor_1.png","65","65","motor","1","233","1","0","0","",""
"null","","217021","HierDyldyrp8c3","lsn46nza6b","msl000632","iti","img/motor_blank.png","null","65","motor","","","","","","",""
"384","","217411","HierDyldyrp8c3","lsn46nza6b","msl000632","motor","img/motor_4.png","70","70","motor","4","234","1","0","0","",""
"null","","217518","HierDyldyrp8c3","lsn46nza6b","msl000632","iti","img/motor_blank.png","null","70","motor","","","","","","",""
"422","","217947","HierDyldyrp8c3","lsn46nza6b","msl000632","motor","img/motor_8.png","76","76","motor","8","235","1","0","0","",""
"null","","218055","HierDyldyrp8c3","lsn46nza6b","msl000632","iti","img/motor_blank.png","null","76","motor","","","","","","",""
"345","","218409","HierDyldyrp8c3","lsn46nza6b","msl000632","motor","img/motor_8.png","76","76","motor","8","236","1","0","0","",""
"null","","218517","HierDyldyrp8c3","lsn46nza6b","msl000632","iti","img/motor_blank.png","null","76","motor","","","","","","",""
"671","","219194","HierDyldyrp8c3","lsn46nza6b","msl000632","motor","img/motor_3.png","68","68","motor","3","237","1","0","0","",""
"null","","219301","HierDyldyrp8c3","lsn46nza6b","msl000632","iti","img/motor_blank.png","null","68","motor","","","","","","",""
"506","","219813","HierDyldyrp8c3","lsn46nza6b","msl000632","motor","img/motor_5.png","72","72","motor","5","238","1","0","0","",""
"null","","219922","HierDyldyrp8c3","lsn46nza6b","msl000632","iti","img/motor_blank.png","null","72","motor","","","","","","",""
"483","","220412","HierDyldyrp8c3","lsn46nza6b","msl000632","motor","img/motor_1.png","65","65","motor","1","239","1","0","0","",""
"null","","220520","HierDyldyrp8c3","lsn46nza6b","msl000632","iti","img/motor_blank.png","null","65","motor","","","","","","",""
"397","","220924","HierDyldyrp8c3","lsn46nza6b","msl000632","motor","img/motor_7.png","75","75","motor","7","240","1","0","0","",""
"null","","221033","HierDyldyrp8c3","lsn46nza6b","msl000632","iti","img/motor_blank.png","null","75","motor","","","","","","",""
"410","","221451","HierDyldyrp8c3","lsn46nza6b","msl000632","motor","img/motor_5.png","74","72","motor","5","241","0","1","0","",""
"419","","221877","HierDyldyrp8c3","lsn46nza6b","msl000632","motorRepeat","img/motor_5.png","72","72","motor","5","241","1","0","0","",""
"null","","221984","HierDyldyrp8c3","lsn46nza6b","msl000632","iti","img/motor_blank.png","null","72","motor","","","","","","",""
"569","","222560","HierDyldyrp8c3","lsn46nza6b","msl000632","motor","img/motor_8.png","76","76","motor","8","242","1","0","0","",""
"null","","222666","HierDyldyrp8c3","lsn46nza6b","msl000632","iti","img/motor_blank.png","null","76","motor","","","","","","",""
"508","","223182","HierDyldyrp8c3","lsn46nza6b","msl000632","motor","img/motor_6.png","74","74","motor","6","243","1","0","0","",""
"null","","223290","HierDyldyrp8c3","lsn46nza6b","msl000632","iti","img/motor_blank.png","null","74","motor","","","","","","",""
"412","","223709","HierDyldyrp8c3","lsn46nza6b","msl000632","motor","img/motor_8.png","76","76","motor","8","244","1","0","0","",""
"null","","223817","HierDyldyrp8c3","lsn46nza6b","msl000632","iti","img/motor_blank.png","null","76","motor","","","","","","",""
"327","","224151","HierDyldyrp8c3","lsn46nza6b","msl000632","motor","img/motor_6.png","74","74","motor","6","245","1","0","0","",""
"null","","224259","HierDyldyrp8c3","lsn46nza6b","msl000632","iti","img/motor_blank.png","null","74","motor","","","","","","",""
"496","","224763","HierDyldyrp8c3","lsn46nza6b","msl000632","motor","img/motor_7.png","75","75","motor","7","246","1","0","0","",""
"null","","224871","HierDyldyrp8c3","lsn46nza6b","msl000632","iti","img/motor_blank.png","null","75","motor","","","","","","",""
"318","","225196","HierDyldyrp8c3","lsn46nza6b","msl000632","motor","img/motor_6.png","74","74","motor","6","247","1","0","0","",""
"null","","225304","HierDyldyrp8c3","lsn46nza6b","msl000632","iti","img/motor_blank.png","null","74","motor","","","","","","",""
"491","","225802","HierDyldyrp8c3","lsn46nza6b","msl000632","motor","img/motor_3.png","70","68","motor","3","248","0","1","0","",""
"233","","226043","HierDyldyrp8c3","lsn46nza6b","msl000632","motorRepeat","img/motor_3.png","68","68","motor","3","248","1","0","0","",""
"null","","226150","HierDyldyrp8c3","lsn46nza6b","msl000632","iti","img/motor_blank.png","null","68","motor","","","","","","",""
"367","","226524","HierDyldyrp8c3","lsn46nza6b","msl000632","motor","img/motor_3.png","68","68","motor","3","249","1","0","0","",""
"null","","226632","HierDyldyrp8c3","lsn46nza6b","msl000632","iti","img/motor_blank.png","null","68","motor","","","","","","",""
"458","","227096","HierDyldyrp8c3","lsn46nza6b","msl000632","motor","img/motor_2.png","83","83","motor","2","250","1","0","0","",""
"null","","227204","HierDyldyrp8c3","lsn46nza6b","msl000632","iti","img/motor_blank.png","null","83","motor","","","","","","",""
"438","","227650","HierDyldyrp8c3","lsn46nza6b","msl000632","motor","img/motor_1.png","65","65","motor","1","251","1","0","0","",""
"null","","227758","HierDyldyrp8c3","lsn46nza6b","msl000632","iti","img/motor_blank.png","null","65","motor","","","","","","",""
"433","","228197","HierDyldyrp8c3","lsn46nza6b","msl000632","motor","img/motor_4.png","70","70","motor","4","252","1","0","0","",""
"null","","228304","HierDyldyrp8c3","lsn46nza6b","msl000632","iti","img/motor_blank.png","null","70","motor","","","","","","",""
"386","","228698","HierDyldyrp8c3","lsn46nza6b","msl000632","motor","img/motor_8.png","76","76","motor","8","253","1","0","0","",""
"null","","228805","HierDyldyrp8c3","lsn46nza6b","msl000632","iti","img/motor_blank.png","null","76","motor","","","","","","",""
"449","","229262","HierDyldyrp8c3","lsn46nza6b","msl000632","motor","img/motor_6.png","74","74","motor","6","254","1","0","0","",""
"null","","229369","HierDyldyrp8c3","lsn46nza6b","msl000632","iti","img/motor_blank.png","null","74","motor","","","","","","",""
"435","","229811","HierDyldyrp8c3","lsn46nza6b","msl000632","motor","img/motor_4.png","68","70","motor","4","255","0","1","0","",""
"144","","229963","HierDyldyrp8c3","lsn46nza6b","msl000632","motorRepeat","img/motor_4.png","70","70","motor","4","255","1","0","0","",""
"null","","230071","HierDyldyrp8c3","lsn46nza6b","msl000632","iti","img/motor_blank.png","null","70","motor","","","","","","",""
"491","","230571","HierDyldyrp8c3","lsn46nza6b","msl000632","motor","img/motor_3.png","68","68","motor","3","256","1","0","0","",""
"null","","230679","HierDyldyrp8c3","lsn46nza6b","msl000632","iti","img/motor_blank.png","null","68","motor","","","","","","",""
"332","","231017","HierDyldyrp8c3","lsn46nza6b","msl000632","motor","img/motor_2.png","83","83","motor","2","257","1","0","0","",""
"null","","231126","HierDyldyrp8c3","lsn46nza6b","msl000632","iti","img/motor_blank.png","null","83","motor","","","","","","",""
"475","","231609","HierDyldyrp8c3","lsn46nza6b","msl000632","motor","img/motor_3.png","70","68","motor","3","258","0","1","0","",""
"57","","231674","HierDyldyrp8c3","lsn46nza6b","msl000632","motorRepeat","img/motor_3.png","68","68","motor","3","258","1","0","0","",""
"null","","231783","HierDyldyrp8c3","lsn46nza6b","msl000632","iti","img/motor_blank.png","null","68","motor","","","","","","",""
"441","","232231","HierDyldyrp8c3","lsn46nza6b","msl000632","motor","img/motor_3.png","68","68","motor","3","259","1","0","0","",""
"null","","232339","HierDyldyrp8c3","lsn46nza6b","msl000632","iti","img/motor_blank.png","null","68","motor","","","","","","",""
"493","","232839","HierDyldyrp8c3","lsn46nza6b","msl000632","motor","img/motor_2.png","83","83","motor","2","260","1","0","0","",""
"null","","232948","HierDyldyrp8c3","lsn46nza6b","msl000632","iti","img/motor_blank.png","null","83","motor","","","","","","",""
"291","","233247","HierDyldyrp8c3","lsn46nza6b","msl000632","motor","img/motor_3.png","68","68","motor","3","261","1","0","0","",""
"null","","233354","HierDyldyrp8c3","lsn46nza6b","msl000632","iti","img/motor_blank.png","null","68","motor","","","","","","",""
"475","","233838","HierDyldyrp8c3","lsn46nza6b","msl000632","motor","img/motor_8.png","76","76","motor","8","262","1","0","0","",""
"null","","233945","HierDyldyrp8c3","lsn46nza6b","msl000632","iti","img/motor_blank.png","null","76","motor","","","","","","",""
"403","","234356","HierDyldyrp8c3","lsn46nza6b","msl000632","motor","img/motor_6.png","74","74","motor","6","263","1","0","0","",""
"null","","234463","HierDyldyrp8c3","lsn46nza6b","msl000632","iti","img/motor_blank.png","null","74","motor","","","","","","",""
"367","","234838","HierDyldyrp8c3","lsn46nza6b","msl000632","motor","img/motor_8.png","76","76","motor","8","264","1","0","0","",""
"null","","234946","HierDyldyrp8c3","lsn46nza6b","msl000632","iti","img/motor_blank.png","null","76","motor","","","","","","",""
"424","","235378","HierDyldyrp8c3","lsn46nza6b","msl000632","motor","img/motor_1.png","65","65","motor","1","265","1","0","0","",""
"null","","235485","HierDyldyrp8c3","lsn46nza6b","msl000632","iti","img/motor_blank.png","null","65","motor","","","","","","",""
"428","","235921","HierDyldyrp8c3","lsn46nza6b","msl000632","motor","img/motor_5.png","72","72","motor","5","266","1","0","0","",""
"null","","236029","HierDyldyrp8c3","lsn46nza6b","msl000632","iti","img/motor_blank.png","null","72","motor","","","","","","",""
"328","","236363","HierDyldyrp8c3","lsn46nza6b","msl000632","motor","img/motor_7.png","74","75","motor","7","267","0","1","0","",""
"344","","236715","HierDyldyrp8c3","lsn46nza6b","msl000632","motorRepeat","img/motor_7.png","75","75","motor","7","267","1","0","0","",""
"null","","236823","HierDyldyrp8c3","lsn46nza6b","msl000632","iti","img/motor_blank.png","null","75","motor","","","","","","",""
"535","","237365","HierDyldyrp8c3","lsn46nza6b","msl000632","motor","img/motor_5.png","72","72","motor","5","268","1","0","0","",""
"null","","237473","HierDyldyrp8c3","lsn46nza6b","msl000632","iti","img/motor_blank.png","null","72","motor","","","","","","",""
"413","","237893","HierDyldyrp8c3","lsn46nza6b","msl000632","motor","img/motor_8.png","76","76","motor","8","269","1","0","0","",""
"null","","238000","HierDyldyrp8c3","lsn46nza6b","msl000632","iti","img/motor_blank.png","null","76","motor","","","","","","",""
"432","","238440","HierDyldyrp8c3","lsn46nza6b","msl000632","motor","img/motor_1.png","65","65","motor","1","270","1","0","0","",""
"null","","238547","HierDyldyrp8c3","lsn46nza6b","msl000632","iti","img/motor_blank.png","null","65","motor","","","","","","",""
"437","","238993","HierDyldyrp8c3","lsn46nza6b","msl000632","motor","img/motor_8.png","76","76","motor","8","271","1","0","0","",""
"null","","239101","HierDyldyrp8c3","lsn46nza6b","msl000632","iti","img/motor_blank.png","null","76","motor","","","","","","",""
"396","","239504","HierDyldyrp8c3","lsn46nza6b","msl000632","motor","img/motor_1.png","65","65","motor","1","272","1","0","0","",""
"null","","239612","HierDyldyrp8c3","lsn46nza6b","msl000632","iti","img/motor_blank.png","null","65","motor","","","","","","",""
"483","","240104","HierDyldyrp8c3","lsn46nza6b","msl000632","motor","img/motor_2.png","83","83","motor","2","273","1","0","0","",""
"null","","240212","HierDyldyrp8c3","lsn46nza6b","msl000632","iti","img/motor_blank.png","null","83","motor","","","","","","",""
"374","","240593","HierDyldyrp8c3","lsn46nza6b","msl000632","motor","img/motor_3.png","68","68","motor","3","274","1","0","0","",""
"null","","240701","HierDyldyrp8c3","lsn46nza6b","msl000632","iti","img/motor_blank.png","null","68","motor","","","","","","",""
"513","","241221","HierDyldyrp8c3","lsn46nza6b","msl000632","motor","img/motor_6.png","74","74","motor","6","275","1","0","0","",""
"null","","241329","HierDyldyrp8c3","lsn46nza6b","msl000632","iti","img/motor_blank.png","null","74","motor","","","","","","",""
"472","","241807","HierDyldyrp8c3","lsn46nza6b","msl000632","motor","img/motor_1.png","65","65","motor","1","276","1","0","0","",""
"null","","241915","HierDyldyrp8c3","lsn46nza6b","msl000632","iti","img/motor_blank.png","null","65","motor","","","","","","",""
"412","","242334","HierDyldyrp8c3","lsn46nza6b","msl000632","motor","img/motor_1.png","65","65","motor","1","277","1","0","0","",""
"null","","242442","HierDyldyrp8c3","lsn46nza6b","msl000632","iti","img/motor_blank.png","null","65","motor","","","","","","",""
"558","","243008","HierDyldyrp8c3","lsn46nza6b","msl000632","motor","img/motor_3.png","68","68","motor","3","278","1","0","0","",""
"null","","243115","HierDyldyrp8c3","lsn46nza6b","msl000632","iti","img/motor_blank.png","null","68","motor","","","","","","",""
"398","","243520","HierDyldyrp8c3","lsn46nza6b","msl000632","motor","img/motor_4.png","68","70","motor","4","279","0","1","0","",""
"259","","243786","HierDyldyrp8c3","lsn46nza6b","msl000632","motorRepeat","img/motor_4.png","70","70","motor","4","279","1","0","0","",""
"null","","243894","HierDyldyrp8c3","lsn46nza6b","msl000632","iti","img/motor_blank.png","null","70","motor","","","","","","",""
"503","","244404","HierDyldyrp8c3","lsn46nza6b","msl000632","motor","img/motor_6.png","75","74","motor","6","280","0","1","0","",""
"46","","244455","HierDyldyrp8c3","lsn46nza6b","msl000632","motorRepeat","img/motor_6.png","74","74","motor","6","280","1","0","0","",""
"null","","244563","HierDyldyrp8c3","lsn46nza6b","msl000632","iti","img/motor_blank.png","null","74","motor","","","","","","",""
"449","","245021","HierDyldyrp8c3","lsn46nza6b","msl000632","motor","img/motor_1.png","65","65","motor","1","281","1","0","0","",""
"null","","245129","HierDyldyrp8c3","lsn46nza6b","msl000632","iti","img/motor_blank.png","null","65","motor","","","","","","",""
"433","","245569","HierDyldyrp8c3","lsn46nza6b","msl000632","motor","img/motor_1.png","68","65","motor","1","282","0","1","0","",""
"303","","245880","HierDyldyrp8c3","lsn46nza6b","msl000632","motorRepeat","img/motor_1.png","65","65","motor","1","282","1","0","0","",""
"null","","245988","HierDyldyrp8c3","lsn46nza6b","msl000632","iti","img/motor_blank.png","null","65","motor","","","","","","",""
"470","","246465","HierDyldyrp8c3","lsn46nza6b","msl000632","motor","img/motor_7.png","75","75","motor","7","283","1","0","0","",""
"null","","246574","HierDyldyrp8c3","lsn46nza6b","msl000632","iti","img/motor_blank.png","null","75","motor","","","","","","",""
"624","","247205","HierDyldyrp8c3","lsn46nza6b","msl000632","motor","img/motor_2.png","68","83","motor","2","284","0","1","0","",""
"306","","247520","HierDyldyrp8c3","lsn46nza6b","msl000632","motorRepeat","img/motor_2.png","83","83","motor","2","284","1","0","0","",""
"null","","247627","HierDyldyrp8c3","lsn46nza6b","msl000632","iti","img/motor_blank.png","null","83","motor","","","","","","",""
"614","","248249","HierDyldyrp8c3","lsn46nza6b","msl000632","motor","img/motor_5.png","72","72","motor","5","285","1","0","0","",""
"null","","248357","HierDyldyrp8c3","lsn46nza6b","msl000632","iti","img/motor_blank.png","null","72","motor","","","","","","",""
"366","","248730","HierDyldyrp8c3","lsn46nza6b","msl000632","motor","img/motor_6.png","74","74","motor","6","286","1","0","0","",""
"null","","248839","HierDyldyrp8c3","lsn46nza6b","msl000632","iti","img/motor_blank.png","null","74","motor","","","","","","",""
"564","","249412","HierDyldyrp8c3","lsn46nza6b","msl000632","motor","img/motor_2.png","83","83","motor","2","287","1","0","0","",""
"null","","249520","HierDyldyrp8c3","lsn46nza6b","msl000632","iti","img/motor_blank.png","null","83","motor","","","","","","",""
"456","","249984","HierDyldyrp8c3","lsn46nza6b","msl000632","motor","img/motor_4.png","70","70","motor","4","288","1","0","0","",""
"null","","250092","HierDyldyrp8c3","lsn46nza6b","msl000632","iti","img/motor_blank.png","null","70","motor","","","","","","",""
"516","","250617","HierDyldyrp8c3","lsn46nza6b","msl000632","motor","img/motor_3.png","68","68","motor","3","289","1","0","0","",""
"null","","250725","HierDyldyrp8c3","lsn46nza6b","msl000632","iti","img/motor_blank.png","null","68","motor","","","","","","",""
"516","","251248","HierDyldyrp8c3","lsn46nza6b","msl000632","motor","img/motor_7.png","75","75","motor","7","290","1","0","0","",""
"null","","251357","HierDyldyrp8c3","lsn46nza6b","msl000632","iti","img/motor_blank.png","null","75","motor","","","","","","",""
"354","","251720","HierDyldyrp8c3","lsn46nza6b","msl000632","motor","img/motor_7.png","75","75","motor","7","291","1","0","0","",""
"null","","251828","HierDyldyrp8c3","lsn46nza6b","msl000632","iti","img/motor_blank.png","null","75","motor","","","","","","",""
"654","","252489","HierDyldyrp8c3","lsn46nza6b","msl000632","motor","img/motor_3.png","68","68","motor","3","292","1","0","0","",""
"null","","252596","HierDyldyrp8c3","lsn46nza6b","msl000632","iti","img/motor_blank.png","null","68","motor","","","","","","",""
"507","","253112","HierDyldyrp8c3","lsn46nza6b","msl000632","motor","img/motor_5.png","72","72","motor","5","293","1","0","0","",""
"null","","253220","HierDyldyrp8c3","lsn46nza6b","msl000632","iti","img/motor_blank.png","null","72","motor","","","","","","",""
"419","","253647","HierDyldyrp8c3","lsn46nza6b","msl000632","motor","img/motor_1.png","65","65","motor","1","294","1","0","0","",""
"null","","253756","HierDyldyrp8c3","lsn46nza6b","msl000632","iti","img/motor_blank.png","null","65","motor","","","","","","",""
"598","","254361","HierDyldyrp8c3","lsn46nza6b","msl000632","motor","img/motor_3.png","68","68","motor","3","295","1","0","0","",""
"null","","254469","HierDyldyrp8c3","lsn46nza6b","msl000632","iti","img/motor_blank.png","null","68","motor","","","","","","",""
"429","","254905","HierDyldyrp8c3","lsn46nza6b","msl000632","motor","img/motor_8.png","76","76","motor","8","296","1","0","0","",""
"null","","255013","HierDyldyrp8c3","lsn46nza6b","msl000632","iti","img/motor_blank.png","null","76","motor","","","","","","",""
"333","","255353","HierDyldyrp8c3","lsn46nza6b","msl000632","motor","img/motor_3.png","68","68","motor","3","297","1","0","0","",""
"null","","255459","HierDyldyrp8c3","lsn46nza6b","msl000632","iti","img/motor_blank.png","null","68","motor","","","","","","",""
"385","","255850","HierDyldyrp8c3","lsn46nza6b","msl000632","motor","img/motor_1.png","65","65","motor","1","298","1","0","0","",""
"null","","255956","HierDyldyrp8c3","lsn46nza6b","msl000632","iti","img/motor_blank.png","null","65","motor","","","","","","",""
"429","","256392","HierDyldyrp8c3","lsn46nza6b","msl000632","motor","img/motor_4.png","68","70","motor","4","299","0","1","0","",""
"278","","256676","HierDyldyrp8c3","lsn46nza6b","msl000632","motorRepeat","img/motor_4.png","70","70","motor","4","299","1","0","0","",""
"null","","256784","HierDyldyrp8c3","lsn46nza6b","msl000632","iti","img/motor_blank.png","null","70","motor","","","","","","",""
"411","","257202","HierDyldyrp8c3","lsn46nza6b","msl000632","motor","img/motor_6.png","75","74","motor","6","300","0","1","0","",""
"273","","257483","HierDyldyrp8c3","lsn46nza6b","msl000632","motorRepeat","img/motor_6.png","74","74","motor","6","300","1","0","0","",""
"null","","257591","HierDyldyrp8c3","lsn46nza6b","msl000632","iti","img/motor_blank.png","null","74","motor","","","","","","",""
"442","","258040","HierDyldyrp8c3","lsn46nza6b","msl000632","motor","img/motor_8.png","76","76","motor","8","301","1","0","0","",""
"null","","258147","HierDyldyrp8c3","lsn46nza6b","msl000632","iti","img/motor_blank.png","null","76","motor","","","","","","",""
"663","","258818","HierDyldyrp8c3","lsn46nza6b","msl000632","motor","img/motor_3.png","68","68","motor","3","302","1","0","0","",""
"null","","258925","HierDyldyrp8c3","lsn46nza6b","msl000632","iti","img/motor_blank.png","null","68","motor","","","","","","",""
"327","","259260","HierDyldyrp8c3","lsn46nza6b","msl000632","motor","img/motor_6.png","74","74","motor","6","303","1","0","0","",""
"null","","259367","HierDyldyrp8c3","lsn46nza6b","msl000632","iti","img/motor_blank.png","null","74","motor","","","","","","",""
"321","","259697","HierDyldyrp8c3","lsn46nza6b","msl000632","motor","img/motor_6.png","74","74","motor","6","304","1","0","0","",""
"null","","259804","HierDyldyrp8c3","lsn46nza6b","msl000632","iti","img/motor_blank.png","null","74","motor","","","","","","",""
"421","","260232","HierDyldyrp8c3","lsn46nza6b","msl000632","motor","img/motor_4.png","70","70","motor","4","305","1","0","0","",""
"null","","260341","HierDyldyrp8c3","lsn46nza6b","msl000632","iti","img/motor_blank.png","null","70","motor","","","","","","",""
"345","","260694","HierDyldyrp8c3","lsn46nza6b","msl000632","motor","img/motor_6.png","72","74","motor","6","306","0","1","0","",""
"184","","260884","HierDyldyrp8c3","lsn46nza6b","msl000632","motorRepeat","img/motor_6.png","74","74","motor","6","306","1","0","0","",""
"null","","260992","HierDyldyrp8c3","lsn46nza6b","msl000632","iti","img/motor_blank.png","null","74","motor","","","","","","",""
"303","","261303","HierDyldyrp8c3","lsn46nza6b","msl000632","motor","img/motor_7.png","75","75","motor","7","307","1","0","0","",""
"null","","261410","HierDyldyrp8c3","lsn46nza6b","msl000632","iti","img/motor_blank.png","null","75","motor","","","","","","",""
"351","","261768","HierDyldyrp8c3","lsn46nza6b","msl000632","motor","img/motor_8.png","76","76","motor","8","308","1","0","0","",""
"null","","261876","HierDyldyrp8c3","lsn46nza6b","msl000632","iti","img/motor_blank.png","null","76","motor","","","","","","",""
"413","","262296","HierDyldyrp8c3","lsn46nza6b","msl000632","motor","img/motor_5.png","74","72","motor","5","309","0","1","0","",""
"158","","262460","HierDyldyrp8c3","lsn46nza6b","msl000632","motorRepeat","img/motor_5.png","72","72","motor","5","309","1","0","0","",""
"null","","262567","HierDyldyrp8c3","lsn46nza6b","msl000632","iti","img/motor_blank.png","null","72","motor","","","","","","",""
"330","","262904","HierDyldyrp8c3","lsn46nza6b","msl000632","motor","img/motor_1.png","65","65","motor","1","310","1","0","0","",""
"null","","263011","HierDyldyrp8c3","lsn46nza6b","msl000632","iti","img/motor_blank.png","null","65","motor","","","","","","",""
"574","","263590","HierDyldyrp8c3","lsn46nza6b","msl000632","motor","img/motor_6.png","75","74","motor","6","311","0","1","0","",""
"190","","263788","HierDyldyrp8c3","lsn46nza6b","msl000632","motorRepeat","img/motor_6.png","74","74","motor","6","311","1","0","0","",""
"null","","263894","HierDyldyrp8c3","lsn46nza6b","msl000632","iti","img/motor_blank.png","null","74","motor","","","","","","",""
"403","","264302","HierDyldyrp8c3","lsn46nza6b","msl000632","motor","img/motor_4.png","70","70","motor","4","312","1","0","0","",""
"39","","264409","HierDyldyrp8c3","lsn46nza6b","msl000632","iti","img/motor_blank.png","68","70","motor","","","","","","",""
"706","","265126","HierDyldyrp8c3","lsn46nza6b","msl000632","motor","img/motor_2.png","83","83","motor","2","313","1","0","0","",""
"null","","265236","HierDyldyrp8c3","lsn46nza6b","msl000632","iti","img/motor_blank.png","null","83","motor","","","","","","",""
"585","","265830","HierDyldyrp8c3","lsn46nza6b","msl000632","motor","img/motor_6.png","72","74","motor","6","314","0","1","0","",""
"173","","266010","HierDyldyrp8c3","lsn46nza6b","msl000632","motorRepeat","img/motor_6.png","74","74","motor","6","314","1","0","0","",""
"null","","266119","HierDyldyrp8c3","lsn46nza6b","msl000632","iti","img/motor_blank.png","null","74","motor","","","","","","",""
"766","","266895","HierDyldyrp8c3","lsn46nza6b","msl000632","motor","img/motor_7.png","75","75","motor","7","315","1","0","0","",""
"null","","267004","HierDyldyrp8c3","lsn46nza6b","msl000632","iti","img/motor_blank.png","null","75","motor","","","","","","",""
"519","","267531","HierDyldyrp8c3","lsn46nza6b","msl000632","motor","img/motor_5.png","72","72","motor","5","316","1","0","0","",""
"null","","267638","HierDyldyrp8c3","lsn46nza6b","msl000632","iti","img/motor_blank.png","null","72","motor","","","","","","",""
"637","","268283","HierDyldyrp8c3","lsn46nza6b","msl000632","motor","img/motor_3.png","68","68","motor","3","317","1","0","0","",""
"null","","268391","HierDyldyrp8c3","lsn46nza6b","msl000632","iti","img/motor_blank.png","null","68","motor","","","","","","",""
"312","","268711","HierDyldyrp8c3","lsn46nza6b","msl000632","motor","img/motor_3.png","68","68","motor","3","318","1","0","0","",""
"null","","268819","HierDyldyrp8c3","lsn46nza6b","msl000632","iti","img/motor_blank.png","null","68","motor","","","","","","",""
"365","","269196","HierDyldyrp8c3","lsn46nza6b","msl000632","motor","img/motor_1.png","65","65","motor","1","319","1","0","0","",""
"null","","269305","HierDyldyrp8c3","lsn46nza6b","msl000632","iti","img/motor_blank.png","null","65","motor","","","","","","",""
"527","","269840","HierDyldyrp8c3","lsn46nza6b","msl000632","motor","img/motor_7.png","74","75","motor","7","320","0","1","0","",""
"328","","270175","HierDyldyrp8c3","lsn46nza6b","msl000632","motorRepeat","img/motor_7.png","75","75","motor","7","320","1","0","0","",""
"null","","270284","HierDyldyrp8c3","lsn46nza6b","msl000632","iti","img/motor_blank.png","null","75","motor","","","","","","",""
"639","","270931","HierDyldyrp8c3","lsn46nza6b","msl000632","motor","img/motor_3.png","68","68","motor","3","321","1","0","0","",""
"null","","271040","HierDyldyrp8c3","lsn46nza6b","msl000632","iti","img/motor_blank.png","null","68","motor","","","","","","",""
"498","","271545","HierDyldyrp8c3","lsn46nza6b","msl000632","motor","img/motor_2.png","83","83","motor","2","322","1","0","0","",""
"null","","271653","HierDyldyrp8c3","lsn46nza6b","msl000632","iti","img/motor_blank.png","null","83","motor","","","","","","",""
"486","","272147","HierDyldyrp8c3","lsn46nza6b","msl000632","motor","img/motor_5.png","74","72","motor","5","323","0","1","0","",""
"207","","272363","HierDyldyrp8c3","lsn46nza6b","msl000632","motorRepeat","img/motor_5.png","72","72","motor","5","323","1","0","0","",""
"null","","272472","HierDyldyrp8c3","lsn46nza6b","msl000632","iti","img/motor_blank.png","null","72","motor","","","","","","",""
"528","","273007","HierDyldyrp8c3","lsn46nza6b","msl000632","motor","img/motor_2.png","83","83","motor","2","324","1","0","0","",""
"null","","273116","HierDyldyrp8c3","lsn46nza6b","msl000632","iti","img/motor_blank.png","null","83","motor","","","","","","",""
"474","","273598","HierDyldyrp8c3","lsn46nza6b","msl000632","motor","img/motor_8.png","76","76","motor","8","325","1","0","0","",""
"null","","273706","HierDyldyrp8c3","lsn46nza6b","msl000632","iti","img/motor_blank.png","null","76","motor","","","","","","",""
"297","","274009","HierDyldyrp8c3","lsn46nza6b","msl000632","motor","img/motor_7.png","76","75","motor","7","326","0","1","0","",""
"280","","274296","HierDyldyrp8c3","lsn46nza6b","msl000632","motorRepeat","img/motor_7.png","75","75","motor","7","326","1","0","0","",""
"null","","274403","HierDyldyrp8c3","lsn46nza6b","msl000632","iti","img/motor_blank.png","null","75","motor","","","","","","",""
"477","","274889","HierDyldyrp8c3","lsn46nza6b","msl000632","motor","img/motor_8.png","76","76","motor","8","327","1","0","0","",""
"null","","274996","HierDyldyrp8c3","lsn46nza6b","msl000632","iti","img/motor_blank.png","null","76","motor","","","","","","",""
"493","","275498","HierDyldyrp8c3","lsn46nza6b","msl000632","motor","img/motor_4.png","70","70","motor","4","328","1","0","0","",""
"null","","275605","HierDyldyrp8c3","lsn46nza6b","msl000632","iti","img/motor_blank.png","null","70","motor","","","","","","",""
"605","","276218","HierDyldyrp8c3","lsn46nza6b","msl000632","motor","img/motor_2.png","83","83","motor","2","329","1","0","0","",""
"null","","276325","HierDyldyrp8c3","lsn46nza6b","msl000632","iti","img/motor_blank.png","null","83","motor","","","","","","",""
"390","","276722","HierDyldyrp8c3","lsn46nza6b","msl000632","motor","img/motor_1.png","65","65","motor","1","330","1","0","0","",""
"null","","276830","HierDyldyrp8c3","lsn46nza6b","msl000632","iti","img/motor_blank.png","null","65","motor","","","","","","",""
"587","","277424","HierDyldyrp8c3","lsn46nza6b","msl000632","motor","img/motor_5.png","72","72","motor","5","331","1","0","0","",""
"null","","277532","HierDyldyrp8c3","lsn46nza6b","msl000632","iti","img/motor_blank.png","null","72","motor","","","","","","",""
"465","","278005","HierDyldyrp8c3","lsn46nza6b","msl000632","motor","img/motor_4.png","68","70","motor","4","332","0","1","0","",""
"217","","278229","HierDyldyrp8c3","lsn46nza6b","msl000632","motorRepeat","img/motor_4.png","70","70","motor","4","332","1","0","0","",""
"null","","278335","HierDyldyrp8c3","lsn46nza6b","msl000632","iti","img/motor_blank.png","null","70","motor","","","","","","",""
"566","","278906","HierDyldyrp8c3","lsn46nza6b","msl000632","motor","img/motor_7.png","75","75","motor","7","333","1","0","0","",""
"null","","279014","HierDyldyrp8c3","lsn46nza6b","msl000632","iti","img/motor_blank.png","null","75","motor","","","","","","",""
"571","","279591","HierDyldyrp8c3","lsn46nza6b","msl000632","motor","img/motor_3.png","68","68","motor","3","334","1","0","0","",""
"null","","279696","HierDyldyrp8c3","lsn46nza6b","msl000632","iti","img/motor_blank.png","null","68","motor","","","","","","",""
"345","","280048","HierDyldyrp8c3","lsn46nza6b","msl000632","motor","img/motor_7.png","75","75","motor","7","335","1","0","0","",""
"null","","280157","HierDyldyrp8c3","lsn46nza6b","msl000632","iti","img/motor_blank.png","null","75","motor","","","","","","",""
"576","","280740","HierDyldyrp8c3","lsn46nza6b","msl000632","motor","img/motor_5.png","72","72","motor","5","336","1","0","0","",""
"null","","280848","HierDyldyrp8c3","lsn46nza6b","msl000632","iti","img/motor_blank.png","null","72","motor","","","","","","",""
"608","","281463","HierDyldyrp8c3","lsn46nza6b","msl000632","motor","img/motor_1.png","65","65","motor","1","337","1","0","0","",""
"null","","281571","HierDyldyrp8c3","lsn46nza6b","msl000632","iti","img/motor_blank.png","null","65","motor","","","","","","",""
"879","","282457","HierDyldyrp8c3","lsn46nza6b","msl000632","motor","img/motor_3.png","68","68","motor","3","338","1","0","0","",""
"null","","282566","HierDyldyrp8c3","lsn46nza6b","msl000632","iti","img/motor_blank.png","null","68","motor","","","","","","",""
"537","","283111","HierDyldyrp8c3","lsn46nza6b","msl000632","motor","img/motor_8.png","76","76","motor","8","339","1","0","0","",""
"null","","283218","HierDyldyrp8c3","lsn46nza6b","msl000632","iti","img/motor_blank.png","null","76","motor","","","","","","",""
"423","","283648","HierDyldyrp8c3","lsn46nza6b","msl000632","motor","img/motor_8.png","76","76","motor","8","340","1","0","0","",""
"null","","283756","HierDyldyrp8c3","lsn46nza6b","msl000632","iti","img/motor_blank.png","null","76","motor","","","","","","",""
"407","","284171","HierDyldyrp8c3","lsn46nza6b","msl000632","motor","img/motor_1.png","65","65","motor","1","341","1","0","0","",""
