"rt","responses","time_elapsed","subject","prolificID","demoID","trialType","stimulus","key_press","corrresp","phase","stimNum","trialNum","corr","repeatTrial","motorSwitch","pracCounter","hierarchy"
"9954","{""Q0"":""msl000613""}","9982","HierDy86jg5a7j","b9s6l5fxkb","msl000613","","","","","","","","","","","",""
"1303","","11295","HierDy86jg5a7j","b9s6l5fxkb","msl000613","","","","","","","","","","","",""
"","","13587","HierDy86jg5a7j","b9s6l5fxkb","msl000613","fullscreen","","","","","","","","","","",""
"49697","","63293","HierDy86jg5a7j","b9s6l5fxkb","msl000613","","","","","","","","","","","",""
"1168","","64469","HierDy86jg5a7j","b9s6l5fxkb","msl000613","motor","img/motor_5.png","72","72","motor","5","1","1","0","0","",""
"null","","64580","HierDy86jg5a7j","b9s6l5fxkb","msl000613","iti","img/motor_blank.png","null","72","motor","","","","","","",""
"680","","65268","HierDy86jg5a7j","b9s6l5fxkb","msl000613","motor","img/motor_6.png","74","74","motor","6","2","1","0","0","",""
"null","","65378","HierDy86jg5a7j","b9s6l5fxkb","msl000613","iti","img/motor_blank.png","null","74","motor","","","","","","",""
"672","","66059","HierDy86jg5a7j","b9s6l5fxkb","msl000613","motor","img/motor_4.png","70","70","motor","4","3","1","0","0","",""
"null","","66168","HierDy86jg5a7j","b9s6l5fxkb","msl000613","iti","img/motor_blank.png","null","70","motor","","","","","","",""
"657","","66835","HierDy86jg5a7j","b9s6l5fxkb","msl000613","motor","img/motor_8.png","76","76","motor","8","4","1","0","0","",""
"null","","66945","HierDy86jg5a7j","b9s6l5fxkb","msl000613","iti","img/motor_blank.png","null","76","motor","","","","","","",""
"693","","67646","HierDy86jg5a7j","b9s6l5fxkb","msl000613","motor","img/motor_2.png","83","83","motor","2","5","1","0","0","",""
"null","","67756","HierDy86jg5a7j","b9s6l5fxkb","msl000613","iti","img/motor_blank.png","null","83","motor","","","","","","",""
"686","","68451","HierDy86jg5a7j","b9s6l5fxkb","msl000613","motor","img/motor_2.png","83","83","motor","2","6","1","0","0","",""
"null","","68562","HierDy86jg5a7j","b9s6l5fxkb","msl000613","iti","img/motor_blank.png","null","83","motor","","","","","","",""
"723","","69294","HierDy86jg5a7j","b9s6l5fxkb","msl000613","motor","img/motor_7.png","75","75","motor","7","7","1","0","0","",""
"null","","69404","HierDy86jg5a7j","b9s6l5fxkb","msl000613","iti","img/motor_blank.png","null","75","motor","","","","","","",""
"1004","","70418","HierDy86jg5a7j","b9s6l5fxkb","msl000613","motor","img/motor_4.png","70","70","motor","4","8","1","0","0","",""
"null","","70528","HierDy86jg5a7j","b9s6l5fxkb","msl000613","iti","img/motor_blank.png","null","70","motor","","","","","","",""
"744","","71284","HierDy86jg5a7j","b9s6l5fxkb","msl000613","motor","img/motor_3.png","68","68","motor","3","9","1","0","0","",""
"null","","71392","HierDy86jg5a7j","b9s6l5fxkb","msl000613","iti","img/motor_blank.png","null","68","motor","","","","","","",""
"881","","72282","HierDy86jg5a7j","b9s6l5fxkb","msl000613","motor","img/motor_6.png","74","74","motor","6","10","1","0","0","",""
"null","","72390","HierDy86jg5a7j","b9s6l5fxkb","msl000613","iti","img/motor_blank.png","null","74","motor","","","","","","",""
"720","","73116","HierDy86jg5a7j","b9s6l5fxkb","msl000613","motor","img/motor_3.png","68","68","motor","3","11","1","0","0","",""
"null","","73223","HierDy86jg5a7j","b9s6l5fxkb","msl000613","iti","img/motor_blank.png","null","68","motor","","","","","","",""
"613","","73844","HierDy86jg5a7j","b9s6l5fxkb","msl000613","motor","img/motor_6.png","74","74","motor","6","12","1","0","0","",""
"null","","73951","HierDy86jg5a7j","b9s6l5fxkb","msl000613","iti","img/motor_blank.png","null","74","motor","","","","","","",""
"508","","74465","HierDy86jg5a7j","b9s6l5fxkb","msl000613","motor","img/motor_3.png","68","68","motor","3","13","1","0","0","",""
"null","","74573","HierDy86jg5a7j","b9s6l5fxkb","msl000613","iti","img/motor_blank.png","null","68","motor","","","","","","",""
"569","","75150","HierDy86jg5a7j","b9s6l5fxkb","msl000613","motor","img/motor_6.png","74","74","motor","6","14","1","0","0","",""
"null","","75258","HierDy86jg5a7j","b9s6l5fxkb","msl000613","iti","img/motor_blank.png","null","74","motor","","","","","","",""
"676","","75943","HierDy86jg5a7j","b9s6l5fxkb","msl000613","motor","img/motor_5.png","72","72","motor","5","15","1","0","0","",""
"null","","76049","HierDy86jg5a7j","b9s6l5fxkb","msl000613","iti","img/motor_blank.png","null","72","motor","","","","","","",""
"534","","76589","HierDy86jg5a7j","b9s6l5fxkb","msl000613","motor","img/motor_6.png","74","74","motor","6","16","1","0","0","",""
"null","","76697","HierDy86jg5a7j","b9s6l5fxkb","msl000613","iti","img/motor_blank.png","null","74","motor","","","","","","",""
"701","","77404","HierDy86jg5a7j","b9s6l5fxkb","msl000613","motor","img/motor_1.png","65","65","motor","1","17","1","0","0","",""
"null","","77510","HierDy86jg5a7j","b9s6l5fxkb","msl000613","iti","img/motor_blank.png","null","65","motor","","","","","","",""
"618","","78134","HierDy86jg5a7j","b9s6l5fxkb","msl000613","motor","img/motor_1.png","65","65","motor","1","18","1","0","0","",""
"null","","78241","HierDy86jg5a7j","b9s6l5fxkb","msl000613","iti","img/motor_blank.png","null","65","motor","","","","","","",""
"666","","78914","HierDy86jg5a7j","b9s6l5fxkb","msl000613","motor","img/motor_6.png","74","74","motor","6","19","1","0","0","",""
"null","","79022","HierDy86jg5a7j","b9s6l5fxkb","msl000613","iti","img/motor_blank.png","null","74","motor","","","","","","",""
"574","","79602","HierDy86jg5a7j","b9s6l5fxkb","msl000613","motor","img/motor_2.png","83","83","motor","2","20","1","0","0","",""
"null","","79710","HierDy86jg5a7j","b9s6l5fxkb","msl000613","iti","img/motor_blank.png","null","83","motor","","","","","","",""
"657","","80372","HierDy86jg5a7j","b9s6l5fxkb","msl000613","motor","img/motor_4.png","70","70","motor","4","21","1","0","0","",""
"null","","80479","HierDy86jg5a7j","b9s6l5fxkb","msl000613","iti","img/motor_blank.png","null","70","motor","","","","","","",""
"594","","81081","HierDy86jg5a7j","b9s6l5fxkb","msl000613","motor","img/motor_5.png","72","72","motor","5","22","1","0","0","",""
"null","","81188","HierDy86jg5a7j","b9s6l5fxkb","msl000613","iti","img/motor_blank.png","null","72","motor","","","","","","",""
"605","","81801","HierDy86jg5a7j","b9s6l5fxkb","msl000613","motor","img/motor_8.png","76","76","motor","8","23","1","0","0","",""
"null","","81907","HierDy86jg5a7j","b9s6l5fxkb","msl000613","iti","img/motor_blank.png","null","76","motor","","","","","","",""
"618","","82532","HierDy86jg5a7j","b9s6l5fxkb","msl000613","motor","img/motor_2.png","83","83","motor","2","24","1","0","0","",""
"null","","82640","HierDy86jg5a7j","b9s6l5fxkb","msl000613","iti","img/motor_blank.png","null","83","motor","","","","","","",""
"515","","83161","HierDy86jg5a7j","b9s6l5fxkb","msl000613","motor","img/motor_2.png","83","83","motor","2","25","1","0","0","",""
"null","","83268","HierDy86jg5a7j","b9s6l5fxkb","msl000613","iti","img/motor_blank.png","null","83","motor","","","","","","",""
"689","","83963","HierDy86jg5a7j","b9s6l5fxkb","msl000613","motor","img/motor_4.png","70","70","motor","4","26","1","0","0","",""
"null","","84070","HierDy86jg5a7j","b9s6l5fxkb","msl000613","iti","img/motor_blank.png","null","70","motor","","","","","","",""
"488","","84564","HierDy86jg5a7j","b9s6l5fxkb","msl000613","motor","img/motor_4.png","70","70","motor","4","27","1","0","0","",""
"null","","84671","HierDy86jg5a7j","b9s6l5fxkb","msl000613","iti","img/motor_blank.png","null","70","motor","","","","","","",""
"645","","85321","HierDy86jg5a7j","b9s6l5fxkb","msl000613","motor","img/motor_5.png","72","72","motor","5","28","1","0","0","",""
"null","","85428","HierDy86jg5a7j","b9s6l5fxkb","msl000613","iti","img/motor_blank.png","null","72","motor","","","","","","",""
"676","","86110","HierDy86jg5a7j","b9s6l5fxkb","msl000613","motor","img/motor_7.png","75","75","motor","7","29","1","0","0","",""
"null","","86218","HierDy86jg5a7j","b9s6l5fxkb","msl000613","iti","img/motor_blank.png","null","75","motor","","","","","","",""
"555","","86779","HierDy86jg5a7j","b9s6l5fxkb","msl000613","motor","img/motor_2.png","83","83","motor","2","30","1","0","0","",""
"null","","86884","HierDy86jg5a7j","b9s6l5fxkb","msl000613","iti","img/motor_blank.png","null","83","motor","","","","","","",""
"535","","87423","HierDy86jg5a7j","b9s6l5fxkb","msl000613","motor","img/motor_8.png","76","76","motor","8","31","1","0","0","",""
"null","","87528","HierDy86jg5a7j","b9s6l5fxkb","msl000613","iti","img/motor_blank.png","null","76","motor","","","","","","",""
"704","","88238","HierDy86jg5a7j","b9s6l5fxkb","msl000613","motor","img/motor_4.png","70","70","motor","4","32","1","0","0","",""
"null","","88344","HierDy86jg5a7j","b9s6l5fxkb","msl000613","iti","img/motor_blank.png","null","70","motor","","","","","","",""
"501","","88850","HierDy86jg5a7j","b9s6l5fxkb","msl000613","motor","img/motor_4.png","70","70","motor","4","33","1","0","0","",""
"null","","88956","HierDy86jg5a7j","b9s6l5fxkb","msl000613","iti","img/motor_blank.png","null","70","motor","","","","","","",""
"540","","89503","HierDy86jg5a7j","b9s6l5fxkb","msl000613","motor","img/motor_2.png","83","83","motor","2","34","1","0","0","",""
"null","","89609","HierDy86jg5a7j","b9s6l5fxkb","msl000613","iti","img/motor_blank.png","null","83","motor","","","","","","",""
"681","","90296","HierDy86jg5a7j","b9s6l5fxkb","msl000613","motor","img/motor_7.png","75","75","motor","7","35","1","0","0","",""
"null","","90402","HierDy86jg5a7j","b9s6l5fxkb","msl000613","iti","img/motor_blank.png","null","75","motor","","","","","","",""
"510","","90918","HierDy86jg5a7j","b9s6l5fxkb","msl000613","motor","img/motor_2.png","83","83","motor","2","36","1","0","0","",""
"null","","91024","HierDy86jg5a7j","b9s6l5fxkb","msl000613","iti","img/motor_blank.png","null","83","motor","","","","","","",""
"532","","91563","HierDy86jg5a7j","b9s6l5fxkb","msl000613","motor","img/motor_7.png","75","75","motor","7","37","1","0","0","",""
"null","","91668","HierDy86jg5a7j","b9s6l5fxkb","msl000613","iti","img/motor_blank.png","null","75","motor","","","","","","",""
"559","","92234","HierDy86jg5a7j","b9s6l5fxkb","msl000613","motor","img/motor_6.png","74","74","motor","6","38","1","0","0","",""
"null","","92340","HierDy86jg5a7j","b9s6l5fxkb","msl000613","iti","img/motor_blank.png","null","74","motor","","","","","","",""
"451","","92796","HierDy86jg5a7j","b9s6l5fxkb","msl000613","motor","img/motor_7.png","75","75","motor","7","39","1","0","0","",""
"null","","92903","HierDy86jg5a7j","b9s6l5fxkb","msl000613","iti","img/motor_blank.png","null","75","motor","","","","","","",""
"499","","93409","HierDy86jg5a7j","b9s6l5fxkb","msl000613","motor","img/motor_6.png","74","74","motor","6","40","1","0","0","",""
"null","","93515","HierDy86jg5a7j","b9s6l5fxkb","msl000613","iti","img/motor_blank.png","null","74","motor","","","","","","",""
"573","","94095","HierDy86jg5a7j","b9s6l5fxkb","msl000613","motor","img/motor_4.png","70","70","motor","4","41","1","0","0","",""
"null","","94202","HierDy86jg5a7j","b9s6l5fxkb","msl000613","iti","img/motor_blank.png","null","70","motor","","","","","","",""
"515","","94724","HierDy86jg5a7j","b9s6l5fxkb","msl000613","motor","img/motor_3.png","68","68","motor","3","42","1","0","0","",""
"null","","94830","HierDy86jg5a7j","b9s6l5fxkb","msl000613","iti","img/motor_blank.png","null","68","motor","","","","","","",""
"608","","95447","HierDy86jg5a7j","b9s6l5fxkb","msl000613","motor","img/motor_6.png","74","74","motor","6","43","1","0","0","",""
"null","","95555","HierDy86jg5a7j","b9s6l5fxkb","msl000613","iti","img/motor_blank.png","null","74","motor","","","","","","",""
"603","","96163","HierDy86jg5a7j","b9s6l5fxkb","msl000613","motor","img/motor_5.png","72","72","motor","5","44","1","0","0","",""
"null","","96269","HierDy86jg5a7j","b9s6l5fxkb","msl000613","iti","img/motor_blank.png","null","72","motor","","","","","","",""
"632","","96909","HierDy86jg5a7j","b9s6l5fxkb","msl000613","motor","img/motor_4.png","70","70","motor","4","45","1","0","0","",""
"null","","97014","HierDy86jg5a7j","b9s6l5fxkb","msl000613","iti","img/motor_blank.png","null","70","motor","","","","","","",""
"604","","97625","HierDy86jg5a7j","b9s6l5fxkb","msl000613","motor","img/motor_7.png","75","75","motor","7","46","1","0","0","",""
"null","","97733","HierDy86jg5a7j","b9s6l5fxkb","msl000613","iti","img/motor_blank.png","null","75","motor","","","","","","",""
"825","","98563","HierDy86jg5a7j","b9s6l5fxkb","msl000613","motor","img/motor_4.png","70","70","motor","4","47","1","0","0","",""
"null","","98668","HierDy86jg5a7j","b9s6l5fxkb","msl000613","iti","img/motor_blank.png","null","70","motor","","","","","","",""
"542","","99216","HierDy86jg5a7j","b9s6l5fxkb","msl000613","motor","img/motor_1.png","65","65","motor","1","48","1","0","0","",""
"null","","99325","HierDy86jg5a7j","b9s6l5fxkb","msl000613","iti","img/motor_blank.png","null","65","motor","","","","","","",""
"576","","99908","HierDy86jg5a7j","b9s6l5fxkb","msl000613","motor","img/motor_7.png","75","75","motor","7","49","1","0","0","",""
"null","","100015","HierDy86jg5a7j","b9s6l5fxkb","msl000613","iti","img/motor_blank.png","null","75","motor","","","","","","",""
"586","","100609","HierDy86jg5a7j","b9s6l5fxkb","msl000613","motor","img/motor_1.png","65","65","motor","1","50","1","0","0","",""
"null","","100714","HierDy86jg5a7j","b9s6l5fxkb","msl000613","iti","img/motor_blank.png","null","65","motor","","","","","","",""
"579","","101300","HierDy86jg5a7j","b9s6l5fxkb","msl000613","motor","img/motor_8.png","76","76","motor","8","51","1","0","0","",""
"null","","101405","HierDy86jg5a7j","b9s6l5fxkb","msl000613","iti","img/motor_blank.png","null","76","motor","","","","","","",""
"740","","102153","HierDy86jg5a7j","b9s6l5fxkb","msl000613","motor","img/motor_6.png","74","74","motor","6","52","1","0","0","",""
"null","","102259","HierDy86jg5a7j","b9s6l5fxkb","msl000613","iti","img/motor_blank.png","null","74","motor","","","","","","",""
"501","","102766","HierDy86jg5a7j","b9s6l5fxkb","msl000613","motor","img/motor_5.png","72","72","motor","5","53","1","0","0","",""
"null","","102871","HierDy86jg5a7j","b9s6l5fxkb","msl000613","iti","img/motor_blank.png","null","72","motor","","","","","","",""
"914","","103795","HierDy86jg5a7j","b9s6l5fxkb","msl000613","motor","img/motor_3.png","68","68","motor","3","54","1","0","0","",""
"null","","103901","HierDy86jg5a7j","b9s6l5fxkb","msl000613","iti","img/motor_blank.png","null","68","motor","","","","","","",""
"605","","104514","HierDy86jg5a7j","b9s6l5fxkb","msl000613","motor","img/motor_7.png","75","75","motor","7","55","1","0","0","",""
"null","","104621","HierDy86jg5a7j","b9s6l5fxkb","msl000613","iti","img/motor_blank.png","null","75","motor","","","","","","",""
"513","","105140","HierDy86jg5a7j","b9s6l5fxkb","msl000613","motor","img/motor_7.png","75","75","motor","7","56","1","0","0","",""
"null","","105247","HierDy86jg5a7j","b9s6l5fxkb","msl000613","iti","img/motor_blank.png","null","75","motor","","","","","","",""
"577","","105831","HierDy86jg5a7j","b9s6l5fxkb","msl000613","motor","img/motor_4.png","70","70","motor","4","57","1","0","0","",""
"null","","105938","HierDy86jg5a7j","b9s6l5fxkb","msl000613","iti","img/motor_blank.png","null","70","motor","","","","","","",""
"572","","106518","HierDy86jg5a7j","b9s6l5fxkb","msl000613","motor","img/motor_2.png","83","83","motor","2","58","1","0","0","",""
"null","","106626","HierDy86jg5a7j","b9s6l5fxkb","msl000613","iti","img/motor_blank.png","null","83","motor","","","","","","",""
"571","","107202","HierDy86jg5a7j","b9s6l5fxkb","msl000613","motor","img/motor_4.png","70","70","motor","4","59","1","0","0","",""
"null","","107309","HierDy86jg5a7j","b9s6l5fxkb","msl000613","iti","img/motor_blank.png","null","70","motor","","","","","","",""
"720","","108035","HierDy86jg5a7j","b9s6l5fxkb","msl000613","motor","img/motor_2.png","83","83","motor","2","60","1","0","0","",""
"null","","108140","HierDy86jg5a7j","b9s6l5fxkb","msl000613","iti","img/motor_blank.png","null","83","motor","","","","","","",""
"555","","108702","HierDy86jg5a7j","b9s6l5fxkb","msl000613","motor","img/motor_8.png","76","76","motor","8","61","1","0","0","",""
"null","","108809","HierDy86jg5a7j","b9s6l5fxkb","msl000613","iti","img/motor_blank.png","null","76","motor","","","","","","",""
"576","","109393","HierDy86jg5a7j","b9s6l5fxkb","msl000613","motor","img/motor_7.png","75","75","motor","7","62","1","0","0","",""
"null","","109500","HierDy86jg5a7j","b9s6l5fxkb","msl000613","iti","img/motor_blank.png","null","75","motor","","","","","","",""
"540","","110048","HierDy86jg5a7j","b9s6l5fxkb","msl000613","motor","img/motor_5.png","72","72","motor","5","63","1","0","0","",""
"null","","110155","HierDy86jg5a7j","b9s6l5fxkb","msl000613","iti","img/motor_blank.png","null","72","motor","","","","","","",""
"529","","110692","HierDy86jg5a7j","b9s6l5fxkb","msl000613","motor","img/motor_7.png","75","75","motor","7","64","1","0","0","",""
"null","","110798","HierDy86jg5a7j","b9s6l5fxkb","msl000613","iti","img/motor_blank.png","null","75","motor","","","","","","",""
"498","","111303","HierDy86jg5a7j","b9s6l5fxkb","msl000613","motor","img/motor_8.png","76","76","motor","8","65","1","0","0","",""
"null","","111408","HierDy86jg5a7j","b9s6l5fxkb","msl000613","iti","img/motor_blank.png","null","76","motor","","","","","","",""
"612","","112027","HierDy86jg5a7j","b9s6l5fxkb","msl000613","motor","img/motor_6.png","74","74","motor","6","66","1","0","0","",""
"null","","112134","HierDy86jg5a7j","b9s6l5fxkb","msl000613","iti","img/motor_blank.png","null","74","motor","","","","","","",""
"648","","112790","HierDy86jg5a7j","b9s6l5fxkb","msl000613","motor","img/motor_4.png","70","70","motor","4","67","1","0","0","",""
"null","","112897","HierDy86jg5a7j","b9s6l5fxkb","msl000613","iti","img/motor_blank.png","null","70","motor","","","","","","",""
"578","","113481","HierDy86jg5a7j","b9s6l5fxkb","msl000613","motor","img/motor_6.png","74","74","motor","6","68","1","0","0","",""
"null","","113588","HierDy86jg5a7j","b9s6l5fxkb","msl000613","iti","img/motor_blank.png","null","74","motor","","","","","","",""
"650","","114245","HierDy86jg5a7j","b9s6l5fxkb","msl000613","motor","img/motor_3.png","83","68","motor","3","69","0","1","0","",""
"491","","114741","HierDy86jg5a7j","b9s6l5fxkb","msl000613","motorRepeat","img/motor_3.png","68","68","motor","3","69","1","0","0","",""
"null","","114849","HierDy86jg5a7j","b9s6l5fxkb","msl000613","iti","img/motor_blank.png","null","68","motor","","","","","","",""
"623","","115481","HierDy86jg5a7j","b9s6l5fxkb","msl000613","motor","img/motor_2.png","83","83","motor","2","70","1","0","0","",""
"null","","115588","HierDy86jg5a7j","b9s6l5fxkb","msl000613","iti","img/motor_blank.png","null","83","motor","","","","","","",""
"574","","116170","HierDy86jg5a7j","b9s6l5fxkb","msl000613","motor","img/motor_5.png","72","72","motor","5","71","1","0","0","",""
"null","","116277","HierDy86jg5a7j","b9s6l5fxkb","msl000613","iti","img/motor_blank.png","null","72","motor","","","","","","",""
"526","","116809","HierDy86jg5a7j","b9s6l5fxkb","msl000613","motor","img/motor_8.png","76","76","motor","8","72","1","0","0","",""
"null","","116914","HierDy86jg5a7j","b9s6l5fxkb","msl000613","iti","img/motor_blank.png","null","76","motor","","","","","","",""
"802","","117721","HierDy86jg5a7j","b9s6l5fxkb","msl000613","motor","img/motor_6.png","74","74","motor","6","73","1","0","0","",""
"null","","117828","HierDy86jg5a7j","b9s6l5fxkb","msl000613","iti","img/motor_blank.png","null","74","motor","","","","","","",""
"563","","118395","HierDy86jg5a7j","b9s6l5fxkb","msl000613","motor","img/motor_7.png","75","75","motor","7","74","1","0","0","",""
"null","","118502","HierDy86jg5a7j","b9s6l5fxkb","msl000613","iti","img/motor_blank.png","null","75","motor","","","","","","",""
"727","","119234","HierDy86jg5a7j","b9s6l5fxkb","msl000613","motor","img/motor_5.png","72","72","motor","5","75","1","0","0","",""
"null","","119339","HierDy86jg5a7j","b9s6l5fxkb","msl000613","iti","img/motor_blank.png","null","72","motor","","","","","","",""
"426","","119771","HierDy86jg5a7j","b9s6l5fxkb","msl000613","motor","img/motor_5.png","72","72","motor","5","76","1","0","0","",""
"null","","119877","HierDy86jg5a7j","b9s6l5fxkb","msl000613","iti","img/motor_blank.png","null","72","motor","","","","","","",""
"673","","120556","HierDy86jg5a7j","b9s6l5fxkb","msl000613","motor","img/motor_2.png","83","83","motor","2","77","1","0","0","",""
"null","","120661","HierDy86jg5a7j","b9s6l5fxkb","msl000613","iti","img/motor_blank.png","null","83","motor","","","","","","",""
"534","","121202","HierDy86jg5a7j","b9s6l5fxkb","msl000613","motor","img/motor_1.png","65","65","motor","1","78","1","0","0","",""
"null","","121309","HierDy86jg5a7j","b9s6l5fxkb","msl000613","iti","img/motor_blank.png","null","65","motor","","","","","","",""
"741","","122057","HierDy86jg5a7j","b9s6l5fxkb","msl000613","motor","img/motor_3.png","68","68","motor","3","79","1","0","0","",""
"null","","122163","HierDy86jg5a7j","b9s6l5fxkb","msl000613","iti","img/motor_blank.png","null","68","motor","","","","","","",""
"513","","122683","HierDy86jg5a7j","b9s6l5fxkb","msl000613","motor","img/motor_8.png","76","76","motor","8","80","1","0","0","",""
"null","","122789","HierDy86jg5a7j","b9s6l5fxkb","msl000613","iti","img/motor_blank.png","null","76","motor","","","","","","",""
"532","","123327","HierDy86jg5a7j","b9s6l5fxkb","msl000613","motor","img/motor_4.png","70","70","motor","4","81","1","0","0","",""
"null","","123434","HierDy86jg5a7j","b9s6l5fxkb","msl000613","iti","img/motor_blank.png","null","70","motor","","","","","","",""
"518","","123958","HierDy86jg5a7j","b9s6l5fxkb","msl000613","motor","img/motor_1.png","65","65","motor","1","82","1","0","0","",""
"null","","124065","HierDy86jg5a7j","b9s6l5fxkb","msl000613","iti","img/motor_blank.png","null","65","motor","","","","","","",""
"538","","124610","HierDy86jg5a7j","b9s6l5fxkb","msl000613","motor","img/motor_8.png","76","76","motor","8","83","1","0","0","",""
"null","","124717","HierDy86jg5a7j","b9s6l5fxkb","msl000613","iti","img/motor_blank.png","null","76","motor","","","","","","",""
"556","","125279","HierDy86jg5a7j","b9s6l5fxkb","msl000613","motor","img/motor_4.png","70","70","motor","4","84","1","0","0","",""
"null","","125385","HierDy86jg5a7j","b9s6l5fxkb","msl000613","iti","img/motor_blank.png","null","70","motor","","","","","","",""
"881","","126272","HierDy86jg5a7j","b9s6l5fxkb","msl000613","motor","img/motor_6.png","74","74","motor","6","85","1","0","0","",""
"null","","126380","HierDy86jg5a7j","b9s6l5fxkb","msl000613","iti","img/motor_blank.png","null","74","motor","","","","","","",""
"458","","126844","HierDy86jg5a7j","b9s6l5fxkb","msl000613","motor","img/motor_6.png","74","74","motor","6","86","1","0","0","",""
"null","","126951","HierDy86jg5a7j","b9s6l5fxkb","msl000613","iti","img/motor_blank.png","null","74","motor","","","","","","",""
"1218","","128175","HierDy86jg5a7j","b9s6l5fxkb","msl000613","motor","img/motor_1.png","65","65","motor","1","87","1","0","0","",""
"null","","128283","HierDy86jg5a7j","b9s6l5fxkb","msl000613","iti","img/motor_blank.png","null","65","motor","","","","","","",""
"638","","128928","HierDy86jg5a7j","b9s6l5fxkb","msl000613","motor","img/motor_7.png","75","75","motor","7","88","1","0","0","",""
"null","","129035","HierDy86jg5a7j","b9s6l5fxkb","msl000613","iti","img/motor_blank.png","null","75","motor","","","","","","",""
"504","","129546","HierDy86jg5a7j","b9s6l5fxkb","msl000613","motor","img/motor_8.png","76","76","motor","8","89","1","0","0","",""
"null","","129652","HierDy86jg5a7j","b9s6l5fxkb","msl000613","iti","img/motor_blank.png","null","76","motor","","","","","","",""
"673","","130333","HierDy86jg5a7j","b9s6l5fxkb","msl000613","motor","img/motor_1.png","65","65","motor","1","90","1","0","0","",""
"null","","130440","HierDy86jg5a7j","b9s6l5fxkb","msl000613","iti","img/motor_blank.png","null","65","motor","","","","","","",""
"618","","131067","HierDy86jg5a7j","b9s6l5fxkb","msl000613","motor","img/motor_3.png","68","68","motor","3","91","1","0","0","",""
"null","","131174","HierDy86jg5a7j","b9s6l5fxkb","msl000613","iti","img/motor_blank.png","null","68","motor","","","","","","",""
"693","","131874","HierDy86jg5a7j","b9s6l5fxkb","msl000613","motor","img/motor_7.png","75","75","motor","7","92","1","0","0","",""
"null","","131980","HierDy86jg5a7j","b9s6l5fxkb","msl000613","iti","img/motor_blank.png","null","75","motor","","","","","","",""
"636","","132623","HierDy86jg5a7j","b9s6l5fxkb","msl000613","motor","img/motor_3.png","68","68","motor","3","93","1","0","0","",""
"null","","132729","HierDy86jg5a7j","b9s6l5fxkb","msl000613","iti","img/motor_blank.png","null","68","motor","","","","","","",""
"507","","133243","HierDy86jg5a7j","b9s6l5fxkb","msl000613","motor","img/motor_7.png","75","75","motor","7","94","1","0","0","",""
"null","","133350","HierDy86jg5a7j","b9s6l5fxkb","msl000613","iti","img/motor_blank.png","null","75","motor","","","","","","",""
"622","","133977","HierDy86jg5a7j","b9s6l5fxkb","msl000613","motor","img/motor_3.png","68","68","motor","3","95","1","0","0","",""
"null","","134084","HierDy86jg5a7j","b9s6l5fxkb","msl000613","iti","img/motor_blank.png","null","68","motor","","","","","","",""
"604","","134694","HierDy86jg5a7j","b9s6l5fxkb","msl000613","motor","img/motor_3.png","68","68","motor","3","96","1","0","0","",""
"null","","134802","HierDy86jg5a7j","b9s6l5fxkb","msl000613","iti","img/motor_blank.png","null","68","motor","","","","","","",""
"540","","135351","HierDy86jg5a7j","b9s6l5fxkb","msl000613","motor","img/motor_4.png","70","70","motor","4","97","1","0","0","",""
"null","","135459","HierDy86jg5a7j","b9s6l5fxkb","msl000613","iti","img/motor_blank.png","null","70","motor","","","","","","",""
"458","","135925","HierDy86jg5a7j","b9s6l5fxkb","msl000613","motor","img/motor_4.png","70","70","motor","4","98","1","0","0","",""
"null","","136034","HierDy86jg5a7j","b9s6l5fxkb","msl000613","iti","img/motor_blank.png","null","70","motor","","","","","","",""
"546","","136587","HierDy86jg5a7j","b9s6l5fxkb","msl000613","motor","img/motor_1.png","65","65","motor","1","99","1","0","0","",""
"null","","136695","HierDy86jg5a7j","b9s6l5fxkb","msl000613","iti","img/motor_blank.png","null","65","motor","","","","","","",""
"839","","137542","HierDy86jg5a7j","b9s6l5fxkb","msl000613","motor","img/motor_5.png","72","72","motor","5","100","1","0","0","",""
"null","","137649","HierDy86jg5a7j","b9s6l5fxkb","msl000613","iti","img/motor_blank.png","null","72","motor","","","","","","",""
"504","","138159","HierDy86jg5a7j","b9s6l5fxkb","msl000613","motor","img/motor_8.png","76","76","motor","8","101","1","0","0","",""
"null","","138266","HierDy86jg5a7j","b9s6l5fxkb","msl000613","iti","img/motor_blank.png","null","76","motor","","","","","","",""
"599","","138873","HierDy86jg5a7j","b9s6l5fxkb","msl000613","motor","img/motor_4.png","70","70","motor","4","102","1","0","0","",""
"null","","138981","HierDy86jg5a7j","b9s6l5fxkb","msl000613","iti","img/motor_blank.png","null","70","motor","","","","","","",""
"652","","139645","HierDy86jg5a7j","b9s6l5fxkb","msl000613","motor","img/motor_3.png","68","68","motor","3","103","1","0","0","",""
"null","","139754","HierDy86jg5a7j","b9s6l5fxkb","msl000613","iti","img/motor_blank.png","null","68","motor","","","","","","",""
"559","","140322","HierDy86jg5a7j","b9s6l5fxkb","msl000613","motor","img/motor_8.png","76","76","motor","8","104","1","0","0","",""
"null","","140430","HierDy86jg5a7j","b9s6l5fxkb","msl000613","iti","img/motor_blank.png","null","76","motor","","","","","","",""
"817","","141255","HierDy86jg5a7j","b9s6l5fxkb","msl000613","motor","img/motor_3.png","68","68","motor","3","105","1","0","0","",""
"null","","141364","HierDy86jg5a7j","b9s6l5fxkb","msl000613","iti","img/motor_blank.png","null","68","motor","","","","","","",""
"468","","141839","HierDy86jg5a7j","b9s6l5fxkb","msl000613","motor","img/motor_8.png","76","76","motor","8","106","1","0","0","",""
"null","","141946","HierDy86jg5a7j","b9s6l5fxkb","msl000613","iti","img/motor_blank.png","null","76","motor","","","","","","",""
"589","","142541","HierDy86jg5a7j","b9s6l5fxkb","msl000613","motor","img/motor_1.png","65","65","motor","1","107","1","0","0","",""
"null","","142649","HierDy86jg5a7j","b9s6l5fxkb","msl000613","iti","img/motor_blank.png","null","65","motor","","","","","","",""
"522","","143178","HierDy86jg5a7j","b9s6l5fxkb","msl000613","motor","img/motor_5.png","70","72","motor","5","108","0","1","0","",""
"411","","143597","HierDy86jg5a7j","b9s6l5fxkb","msl000613","motorRepeat","img/motor_5.png","72","72","motor","5","108","1","0","0","",""
"null","","143703","HierDy86jg5a7j","b9s6l5fxkb","msl000613","iti","img/motor_blank.png","null","72","motor","","","","","","",""
"802","","144512","HierDy86jg5a7j","b9s6l5fxkb","msl000613","motor","img/motor_7.png","75","75","motor","7","109","1","0","0","",""
"null","","144620","HierDy86jg5a7j","b9s6l5fxkb","msl000613","iti","img/motor_blank.png","null","75","motor","","","","","","",""
"659","","145286","HierDy86jg5a7j","b9s6l5fxkb","msl000613","motor","img/motor_4.png","72","70","motor","4","110","0","1","0","",""
"382","","145674","HierDy86jg5a7j","b9s6l5fxkb","msl000613","motorRepeat","img/motor_4.png","70","70","motor","4","110","1","0","0","",""
"null","","145781","HierDy86jg5a7j","b9s6l5fxkb","msl000613","iti","img/motor_blank.png","null","70","motor","","","","","","",""
"734","","146521","HierDy86jg5a7j","b9s6l5fxkb","msl000613","motor","img/motor_7.png","75","75","motor","7","111","1","0","0","",""
"null","","146628","HierDy86jg5a7j","b9s6l5fxkb","msl000613","iti","img/motor_blank.png","null","75","motor","","","","","","",""
"575","","147209","HierDy86jg5a7j","b9s6l5fxkb","msl000613","motor","img/motor_5.png","72","72","motor","5","112","1","0","0","",""
"null","","147316","HierDy86jg5a7j","b9s6l5fxkb","msl000613","iti","img/motor_blank.png","null","72","motor","","","","","","",""
"685","","148006","HierDy86jg5a7j","b9s6l5fxkb","msl000613","motor","img/motor_8.png","76","76","motor","8","113","1","0","0","",""
"null","","148113","HierDy86jg5a7j","b9s6l5fxkb","msl000613","iti","img/motor_blank.png","null","76","motor","","","","","","",""
"1453","","149574","HierDy86jg5a7j","b9s6l5fxkb","msl000613","motor","img/motor_3.png","68","68","motor","3","114","1","0","0","",""
"null","","149681","HierDy86jg5a7j","b9s6l5fxkb","msl000613","iti","img/motor_blank.png","null","68","motor","","","","","","",""
"593","","150280","HierDy86jg5a7j","b9s6l5fxkb","msl000613","motor","img/motor_8.png","76","76","motor","8","115","1","0","0","",""
"null","","150386","HierDy86jg5a7j","b9s6l5fxkb","msl000613","iti","img/motor_blank.png","null","76","motor","","","","","","",""
"607","","151000","HierDy86jg5a7j","b9s6l5fxkb","msl000613","motor","img/motor_2.png","83","83","motor","2","116","1","0","0","",""
"null","","151107","HierDy86jg5a7j","b9s6l5fxkb","msl000613","iti","img/motor_blank.png","null","83","motor","","","","","","",""
"633","","151746","HierDy86jg5a7j","b9s6l5fxkb","msl000613","motor","img/motor_5.png","72","72","motor","5","117","1","0","0","",""
"null","","151854","HierDy86jg5a7j","b9s6l5fxkb","msl000613","iti","img/motor_blank.png","null","72","motor","","","","","","",""
"553","","152413","HierDy86jg5a7j","b9s6l5fxkb","msl000613","motor","img/motor_2.png","83","83","motor","2","118","1","0","0","",""
"null","","152521","HierDy86jg5a7j","b9s6l5fxkb","msl000613","iti","img/motor_blank.png","null","83","motor","","","","","","",""
"550","","153078","HierDy86jg5a7j","b9s6l5fxkb","msl000613","motor","img/motor_1.png","65","65","motor","1","119","1","0","0","",""
"null","","153186","HierDy86jg5a7j","b9s6l5fxkb","msl000613","iti","img/motor_blank.png","null","65","motor","","","","","","",""
"577","","153768","HierDy86jg5a7j","b9s6l5fxkb","msl000613","motor","img/motor_5.png","72","72","motor","5","120","1","0","0","",""
"null","","153875","HierDy86jg5a7j","b9s6l5fxkb","msl000613","iti","img/motor_blank.png","null","72","motor","","","","","","",""
"455","","154337","HierDy86jg5a7j","b9s6l5fxkb","msl000613","motor","img/motor_5.png","72","72","motor","5","121","1","0","0","",""
"null","","154445","HierDy86jg5a7j","b9s6l5fxkb","msl000613","iti","img/motor_blank.png","null","72","motor","","","","","","",""
"590","","155042","HierDy86jg5a7j","b9s6l5fxkb","msl000613","motor","img/motor_1.png","65","65","motor","1","122","1","0","0","",""
"null","","155149","HierDy86jg5a7j","b9s6l5fxkb","msl000613","iti","img/motor_blank.png","null","65","motor","","","","","","",""
"521","","155677","HierDy86jg5a7j","b9s6l5fxkb","msl000613","motor","img/motor_2.png","83","83","motor","2","123","1","0","0","",""
"null","","155784","HierDy86jg5a7j","b9s6l5fxkb","msl000613","iti","img/motor_blank.png","null","83","motor","","","","","","",""
"886","","156677","HierDy86jg5a7j","b9s6l5fxkb","msl000613","motor","img/motor_6.png","74","74","motor","6","124","1","0","0","",""
"null","","156784","HierDy86jg5a7j","b9s6l5fxkb","msl000613","iti","img/motor_blank.png","null","74","motor","","","","","","",""
"633","","157424","HierDy86jg5a7j","b9s6l5fxkb","msl000613","motor","img/motor_1.png","65","65","motor","1","125","1","0","0","",""
"null","","157532","HierDy86jg5a7j","b9s6l5fxkb","msl000613","iti","img/motor_blank.png","null","65","motor","","","","","","",""
"716","","158253","HierDy86jg5a7j","b9s6l5fxkb","msl000613","motor","img/motor_3.png","68","68","motor","3","126","1","0","0","",""
"null","","158360","HierDy86jg5a7j","b9s6l5fxkb","msl000613","iti","img/motor_blank.png","null","68","motor","","","","","","",""
"504","","158871","HierDy86jg5a7j","b9s6l5fxkb","msl000613","motor","img/motor_6.png","74","74","motor","6","127","1","0","0","",""
"null","","158978","HierDy86jg5a7j","b9s6l5fxkb","msl000613","iti","img/motor_blank.png","null","74","motor","","","","","","",""
"578","","159562","HierDy86jg5a7j","b9s6l5fxkb","msl000613","motor","img/motor_3.png","68","68","motor","3","128","1","0","0","",""
"null","","159669","HierDy86jg5a7j","b9s6l5fxkb","msl000613","iti","img/motor_blank.png","null","68","motor","","","","","","",""
"629","","160304","HierDy86jg5a7j","b9s6l5fxkb","msl000613","motor","img/motor_4.png","70","70","motor","4","129","1","0","0","",""
"null","","160410","HierDy86jg5a7j","b9s6l5fxkb","msl000613","iti","img/motor_blank.png","null","70","motor","","","","","","",""
"696","","161113","HierDy86jg5a7j","b9s6l5fxkb","msl000613","motor","img/motor_7.png","75","75","motor","7","130","1","0","0","",""
"null","","161221","HierDy86jg5a7j","b9s6l5fxkb","msl000613","iti","img/motor_blank.png","null","75","motor","","","","","","",""
"748","","161977","HierDy86jg5a7j","b9s6l5fxkb","msl000613","motor","img/motor_3.png","68","68","motor","3","131","1","0","0","",""
"null","","162084","HierDy86jg5a7j","b9s6l5fxkb","msl000613","iti","img/motor_blank.png","null","68","motor","","","","","","",""
"554","","162645","HierDy86jg5a7j","b9s6l5fxkb","msl000613","motor","img/motor_8.png","76","76","motor","8","132","1","0","0","",""
"null","","162752","HierDy86jg5a7j","b9s6l5fxkb","msl000613","iti","img/motor_blank.png","null","76","motor","","","","","","",""
"669","","163426","HierDy86jg5a7j","b9s6l5fxkb","msl000613","motor","img/motor_2.png","83","83","motor","2","133","1","0","0","",""
"null","","163535","HierDy86jg5a7j","b9s6l5fxkb","msl000613","iti","img/motor_blank.png","null","83","motor","","","","","","",""
"589","","164130","HierDy86jg5a7j","b9s6l5fxkb","msl000613","motor","img/motor_3.png","68","68","motor","3","134","1","0","0","",""
"null","","164237","HierDy86jg5a7j","b9s6l5fxkb","msl000613","iti","img/motor_blank.png","null","68","motor","","","","","","",""
"483","","164727","HierDy86jg5a7j","b9s6l5fxkb","msl000613","motor","img/motor_8.png","76","76","motor","8","135","1","0","0","",""
"null","","164833","HierDy86jg5a7j","b9s6l5fxkb","msl000613","iti","img/motor_blank.png","null","76","motor","","","","","","",""
"600","","165441","HierDy86jg5a7j","b9s6l5fxkb","msl000613","motor","img/motor_3.png","68","68","motor","3","136","1","0","0","",""
"null","","165548","HierDy86jg5a7j","b9s6l5fxkb","msl000613","iti","img/motor_blank.png","null","68","motor","","","","","","",""
"522","","166075","HierDy86jg5a7j","b9s6l5fxkb","msl000613","motor","img/motor_4.png","70","70","motor","4","137","1","0","0","",""
"null","","166182","HierDy86jg5a7j","b9s6l5fxkb","msl000613","iti","img/motor_blank.png","null","70","motor","","","","","","",""
"656","","166844","HierDy86jg5a7j","b9s6l5fxkb","msl000613","motor","img/motor_2.png","83","83","motor","2","138","1","0","0","",""
"null","","166951","HierDy86jg5a7j","b9s6l5fxkb","msl000613","iti","img/motor_blank.png","null","83","motor","","","","","","",""
"471","","167428","HierDy86jg5a7j","b9s6l5fxkb","msl000613","motor","img/motor_3.png","68","68","motor","3","139","1","0","0","",""
"null","","167535","HierDy86jg5a7j","b9s6l5fxkb","msl000613","iti","img/motor_blank.png","null","68","motor","","","","","","",""
"480","","168021","HierDy86jg5a7j","b9s6l5fxkb","msl000613","motor","img/motor_2.png","83","83","motor","2","140","1","0","0","",""
"null","","168129","HierDy86jg5a7j","b9s6l5fxkb","msl000613","iti","img/motor_blank.png","null","83","motor","","","","","","",""
"581","","168717","HierDy86jg5a7j","b9s6l5fxkb","msl000613","motor","img/motor_1.png","65","65","motor","1","141","1","0","0","",""
"null","","168824","HierDy86jg5a7j","b9s6l5fxkb","msl000613","iti","img/motor_blank.png","null","65","motor","","","","","","",""
"348","","169180","HierDy86jg5a7j","b9s6l5fxkb","msl000613","motor","img/motor_1.png","65","65","motor","1","142","1","0","0","",""
"null","","169287","HierDy86jg5a7j","b9s6l5fxkb","msl000613","iti","img/motor_blank.png","null","65","motor","","","","","","",""
"921","","170214","HierDy86jg5a7j","b9s6l5fxkb","msl000613","motor","img/motor_6.png","74","74","motor","6","143","1","0","0","",""
"null","","170321","HierDy86jg5a7j","b9s6l5fxkb","msl000613","iti","img/motor_blank.png","null","74","motor","","","","","","",""
"484","","170810","HierDy86jg5a7j","b9s6l5fxkb","msl000613","motor","img/motor_8.png","76","76","motor","8","144","1","0","0","",""
"null","","170917","HierDy86jg5a7j","b9s6l5fxkb","msl000613","iti","img/motor_blank.png","null","76","motor","","","","","","",""
"465","","171388","HierDy86jg5a7j","b9s6l5fxkb","msl000613","motor","img/motor_8.png","76","76","motor","8","145","1","0","0","",""
"null","","171493","HierDy86jg5a7j","b9s6l5fxkb","msl000613","iti","img/motor_blank.png","null","76","motor","","","","","","",""
"675","","172175","HierDy86jg5a7j","b9s6l5fxkb","msl000613","motor","img/motor_7.png","75","75","motor","7","146","1","0","0","",""
"null","","172281","HierDy86jg5a7j","b9s6l5fxkb","msl000613","iti","img/motor_blank.png","null","75","motor","","","","","","",""
"592","","172880","HierDy86jg5a7j","b9s6l5fxkb","msl000613","motor","img/motor_3.png","83","68","motor","3","147","0","1","0","",""
"454","","173340","HierDy86jg5a7j","b9s6l5fxkb","msl000613","motorRepeat","img/motor_3.png","68","68","motor","3","147","1","0","0","",""
"null","","173447","HierDy86jg5a7j","b9s6l5fxkb","msl000613","iti","img/motor_blank.png","null","68","motor","","","","","","",""
"610","","174063","HierDy86jg5a7j","b9s6l5fxkb","msl000613","motor","img/motor_5.png","72","72","motor","5","148","1","0","0","",""
"null","","174171","HierDy86jg5a7j","b9s6l5fxkb","msl000613","iti","img/motor_blank.png","null","72","motor","","","","","","",""
"544","","174721","HierDy86jg5a7j","b9s6l5fxkb","msl000613","motor","img/motor_1.png","65","65","motor","1","149","1","0","0","",""
"null","","174830","HierDy86jg5a7j","b9s6l5fxkb","msl000613","iti","img/motor_blank.png","null","65","motor","","","","","","",""
"607","","175444","HierDy86jg5a7j","b9s6l5fxkb","msl000613","motor","img/motor_4.png","70","70","motor","4","150","1","0","0","",""
"null","","175550","HierDy86jg5a7j","b9s6l5fxkb","msl000613","iti","img/motor_blank.png","null","70","motor","","","","","","",""
"505","","176060","HierDy86jg5a7j","b9s6l5fxkb","msl000613","motor","img/motor_8.png","76","76","motor","8","151","1","0","0","",""
"null","","176166","HierDy86jg5a7j","b9s6l5fxkb","msl000613","iti","img/motor_blank.png","null","76","motor","","","","","","",""
"612","","176784","HierDy86jg5a7j","b9s6l5fxkb","msl000613","motor","img/motor_2.png","83","83","motor","2","152","1","0","0","",""
"null","","176890","HierDy86jg5a7j","b9s6l5fxkb","msl000613","iti","img/motor_blank.png","null","83","motor","","","","","","",""
"500","","177397","HierDy86jg5a7j","b9s6l5fxkb","msl000613","motor","img/motor_3.png","68","68","motor","3","153","1","0","0","",""
"null","","177505","HierDy86jg5a7j","b9s6l5fxkb","msl000613","iti","img/motor_blank.png","null","68","motor","","","","","","",""
"545","","178056","HierDy86jg5a7j","b9s6l5fxkb","msl000613","motor","img/motor_5.png","72","72","motor","5","154","1","0","0","",""
"null","","178162","HierDy86jg5a7j","b9s6l5fxkb","msl000613","iti","img/motor_blank.png","null","72","motor","","","","","","",""
"512","","178681","HierDy86jg5a7j","b9s6l5fxkb","msl000613","motor","img/motor_8.png","76","76","motor","8","155","1","0","0","",""
"null","","178787","HierDy86jg5a7j","b9s6l5fxkb","msl000613","iti","img/motor_blank.png","null","76","motor","","","","","","",""
"813","","179607","HierDy86jg5a7j","b9s6l5fxkb","msl000613","motor","img/motor_3.png","68","68","motor","3","156","1","0","0","",""
"null","","179712","HierDy86jg5a7j","b9s6l5fxkb","msl000613","iti","img/motor_blank.png","null","68","motor","","","","","","",""
"458","","180176","HierDy86jg5a7j","b9s6l5fxkb","msl000613","motor","img/motor_2.png","83","83","motor","2","157","1","0","0","",""
"null","","180282","HierDy86jg5a7j","b9s6l5fxkb","msl000613","iti","img/motor_blank.png","null","83","motor","","","","","","",""
"506","","180793","HierDy86jg5a7j","b9s6l5fxkb","msl000613","motor","img/motor_4.png","70","70","motor","4","158","1","0","0","",""
"null","","180900","HierDy86jg5a7j","b9s6l5fxkb","msl000613","iti","img/motor_blank.png","null","70","motor","","","","","","",""
"491","","181395","HierDy86jg5a7j","b9s6l5fxkb","msl000613","motor","img/motor_1.png","65","65","motor","1","159","1","0","0","",""
"null","","181501","HierDy86jg5a7j","b9s6l5fxkb","msl000613","iti","img/motor_blank.png","null","65","motor","","","","","","",""
"602","","182109","HierDy86jg5a7j","b9s6l5fxkb","msl000613","motor","img/motor_5.png","72","72","motor","5","160","1","0","0","",""
"null","","182214","HierDy86jg5a7j","b9s6l5fxkb","msl000613","iti","img/motor_blank.png","null","72","motor","","","","","","",""
"584","","182804","HierDy86jg5a7j","b9s6l5fxkb","msl000613","motor","img/motor_3.png","68","68","motor","3","161","1","0","0","",""
"null","","182909","HierDy86jg5a7j","b9s6l5fxkb","msl000613","iti","img/motor_blank.png","null","68","motor","","","","","","",""
"481","","183396","HierDy86jg5a7j","b9s6l5fxkb","msl000613","motor","img/motor_1.png","65","65","motor","1","162","1","0","0","",""
"null","","183504","HierDy86jg5a7j","b9s6l5fxkb","msl000613","iti","img/motor_blank.png","null","65","motor","","","","","","",""
"513","","184023","HierDy86jg5a7j","b9s6l5fxkb","msl000613","motor","img/motor_5.png","72","72","motor","5","163","1","0","0","",""
"null","","184130","HierDy86jg5a7j","b9s6l5fxkb","msl000613","iti","img/motor_blank.png","null","72","motor","","","","","","",""
"552","","184690","HierDy86jg5a7j","b9s6l5fxkb","msl000613","motor","img/motor_2.png","83","83","motor","2","164","1","0","0","",""
"null","","184796","HierDy86jg5a7j","b9s6l5fxkb","msl000613","iti","img/motor_blank.png","null","83","motor","","","","","","",""
"456","","185260","HierDy86jg5a7j","b9s6l5fxkb","msl000613","motor","img/motor_5.png","72","72","motor","5","165","1","0","0","",""
"null","","185366","HierDy86jg5a7j","b9s6l5fxkb","msl000613","iti","img/motor_blank.png","null","72","motor","","","","","","",""
"401","","185774","HierDy86jg5a7j","b9s6l5fxkb","msl000613","motor","img/motor_1.png","65","65","motor","1","166","1","0","0","",""
"null","","185882","HierDy86jg5a7j","b9s6l5fxkb","msl000613","iti","img/motor_blank.png","null","65","motor","","","","","","",""
"520","","186408","HierDy86jg5a7j","b9s6l5fxkb","msl000613","motor","img/motor_2.png","83","83","motor","2","167","1","0","0","",""
"null","","186515","HierDy86jg5a7j","b9s6l5fxkb","msl000613","iti","img/motor_blank.png","null","83","motor","","","","","","",""
"624","","187145","HierDy86jg5a7j","b9s6l5fxkb","msl000613","motor","img/motor_7.png","75","75","motor","7","168","1","0","0","",""
"null","","187253","HierDy86jg5a7j","b9s6l5fxkb","msl000613","iti","img/motor_blank.png","null","75","motor","","","","","","",""
"517","","187777","HierDy86jg5a7j","b9s6l5fxkb","msl000613","motor","img/motor_8.png","76","76","motor","8","169","1","0","0","",""
"null","","187885","HierDy86jg5a7j","b9s6l5fxkb","msl000613","iti","img/motor_blank.png","null","76","motor","","","","","","",""
"528","","188419","HierDy86jg5a7j","b9s6l5fxkb","msl000613","motor","img/motor_1.png","65","65","motor","1","170","1","0","0","",""
"null","","188527","HierDy86jg5a7j","b9s6l5fxkb","msl000613","iti","img/motor_blank.png","null","65","motor","","","","","","",""
"463","","188996","HierDy86jg5a7j","b9s6l5fxkb","msl000613","motor","img/motor_4.png","70","70","motor","4","171","1","0","0","",""
"null","","189103","HierDy86jg5a7j","b9s6l5fxkb","msl000613","iti","img/motor_blank.png","null","70","motor","","","","","","",""
"464","","189573","HierDy86jg5a7j","b9s6l5fxkb","msl000613","motor","img/motor_8.png","76","76","motor","8","172","1","0","0","",""
"null","","189679","HierDy86jg5a7j","b9s6l5fxkb","msl000613","iti","img/motor_blank.png","null","76","motor","","","","","","",""
"500","","190187","HierDy86jg5a7j","b9s6l5fxkb","msl000613","motor","img/motor_5.png","72","72","motor","5","173","1","0","0","",""
"null","","190293","HierDy86jg5a7j","b9s6l5fxkb","msl000613","iti","img/motor_blank.png","null","72","motor","","","","","","",""
"574","","190874","HierDy86jg5a7j","b9s6l5fxkb","msl000613","motor","img/motor_3.png","68","68","motor","3","174","1","0","0","",""
"null","","190981","HierDy86jg5a7j","b9s6l5fxkb","msl000613","iti","img/motor_blank.png","null","68","motor","","","","","","",""
"435","","191422","HierDy86jg5a7j","b9s6l5fxkb","msl000613","motor","img/motor_1.png","65","65","motor","1","175","1","0","0","",""
"null","","191530","HierDy86jg5a7j","b9s6l5fxkb","msl000613","iti","img/motor_blank.png","null","65","motor","","","","","","",""
"619","","192157","HierDy86jg5a7j","b9s6l5fxkb","msl000613","motor","img/motor_6.png","75","74","motor","6","176","0","1","0","",""
"328","","192493","HierDy86jg5a7j","b9s6l5fxkb","msl000613","motorRepeat","img/motor_6.png","74","74","motor","6","176","1","0","0","",""
"null","","192601","HierDy86jg5a7j","b9s6l5fxkb","msl000613","iti","img/motor_blank.png","null","74","motor","","","","","","",""
"666","","193274","HierDy86jg5a7j","b9s6l5fxkb","msl000613","motor","img/motor_8.png","76","76","motor","8","177","1","0","0","",""
"null","","193382","HierDy86jg5a7j","b9s6l5fxkb","msl000613","iti","img/motor_blank.png","null","76","motor","","","","","","",""
"652","","194041","HierDy86jg5a7j","b9s6l5fxkb","msl000613","motor","img/motor_1.png","65","65","motor","1","178","1","0","0","",""
"null","","194151","HierDy86jg5a7j","b9s6l5fxkb","msl000613","iti","img/motor_blank.png","null","65","motor","","","","","","",""
"774","","194932","HierDy86jg5a7j","b9s6l5fxkb","msl000613","motor","img/motor_7.png","75","75","motor","7","179","1","0","0","",""
"null","","195040","HierDy86jg5a7j","b9s6l5fxkb","msl000613","iti","img/motor_blank.png","null","75","motor","","","","","","",""
"456","","195505","HierDy86jg5a7j","b9s6l5fxkb","msl000613","motor","img/motor_6.png","74","74","motor","6","180","1","0","0","",""
"null","","195611","HierDy86jg5a7j","b9s6l5fxkb","msl000613","iti","img/motor_blank.png","null","74","motor","","","","","","",""
"523","","196141","HierDy86jg5a7j","b9s6l5fxkb","msl000613","motor","img/motor_6.png","74","74","motor","6","181","1","0","0","",""
"null","","196248","HierDy86jg5a7j","b9s6l5fxkb","msl000613","iti","img/motor_blank.png","null","74","motor","","","","","","",""
"478","","196733","HierDy86jg5a7j","b9s6l5fxkb","msl000613","motor","img/motor_8.png","76","76","motor","8","182","1","0","0","",""
"null","","196840","HierDy86jg5a7j","b9s6l5fxkb","msl000613","iti","img/motor_blank.png","null","76","motor","","","","","","",""
"585","","197431","HierDy86jg5a7j","b9s6l5fxkb","msl000613","motor","img/motor_7.png","75","75","motor","7","183","1","0","0","",""
"null","","197537","HierDy86jg5a7j","b9s6l5fxkb","msl000613","iti","img/motor_blank.png","null","75","motor","","","","","","",""
"701","","198243","HierDy86jg5a7j","b9s6l5fxkb","msl000613","motor","img/motor_1.png","83","65","motor","1","184","0","1","0","",""
"483","","198732","HierDy86jg5a7j","b9s6l5fxkb","msl000613","motorRepeat","img/motor_1.png","65","65","motor","1","184","1","0","0","",""
"null","","198838","HierDy86jg5a7j","b9s6l5fxkb","msl000613","iti","img/motor_blank.png","null","65","motor","","","","","","",""
"503","","199346","HierDy86jg5a7j","b9s6l5fxkb","msl000613","motor","img/motor_8.png","76","76","motor","8","185","1","0","0","",""
"null","","199454","HierDy86jg5a7j","b9s6l5fxkb","msl000613","iti","img/motor_blank.png","null","76","motor","","","","","","",""
"550","","200013","HierDy86jg5a7j","b9s6l5fxkb","msl000613","motor","img/motor_2.png","83","83","motor","2","186","1","0","0","",""
"null","","200121","HierDy86jg5a7j","b9s6l5fxkb","msl000613","iti","img/motor_blank.png","null","83","motor","","","","","","",""
"746","","200877","HierDy86jg5a7j","b9s6l5fxkb","msl000613","motor","img/motor_7.png","75","75","motor","7","187","1","0","0","",""
"null","","200985","HierDy86jg5a7j","b9s6l5fxkb","msl000613","iti","img/motor_blank.png","null","75","motor","","","","","","",""
"646","","201639","HierDy86jg5a7j","b9s6l5fxkb","msl000613","motor","img/motor_3.png","68","68","motor","3","188","1","0","0","",""
"null","","201745","HierDy86jg5a7j","b9s6l5fxkb","msl000613","iti","img/motor_blank.png","null","68","motor","","","","","","",""
"679","","202430","HierDy86jg5a7j","b9s6l5fxkb","msl000613","motor","img/motor_7.png","75","75","motor","7","189","1","0","0","",""
"null","","202536","HierDy86jg5a7j","b9s6l5fxkb","msl000613","iti","img/motor_blank.png","null","75","motor","","","","","","",""
"867","","203408","HierDy86jg5a7j","b9s6l5fxkb","msl000613","motor","img/motor_4.png","70","70","motor","4","190","1","0","0","",""
"null","","203513","HierDy86jg5a7j","b9s6l5fxkb","msl000613","iti","img/motor_blank.png","null","70","motor","","","","","","",""
"637","","204160","HierDy86jg5a7j","b9s6l5fxkb","msl000613","motor","img/motor_2.png","83","83","motor","2","191","1","0","0","",""
"null","","204270","HierDy86jg5a7j","b9s6l5fxkb","msl000613","iti","img/motor_blank.png","null","83","motor","","","","","","",""
"512","","204790","HierDy86jg5a7j","b9s6l5fxkb","msl000613","motor","img/motor_2.png","83","83","motor","2","192","1","0","0","",""
"null","","204899","HierDy86jg5a7j","b9s6l5fxkb","msl000613","iti","img/motor_blank.png","null","83","motor","","","","","","",""
"561","","205468","HierDy86jg5a7j","b9s6l5fxkb","msl000613","motor","img/motor_6.png","74","74","motor","6","193","1","0","0","",""
"92","","205577","HierDy86jg5a7j","b9s6l5fxkb","msl000613","iti","img/motor_blank.png","75","74","motor","","","","","","",""
"757","","206342","HierDy86jg5a7j","b9s6l5fxkb","msl000613","motor","img/motor_4.png","70","70","motor","4","194","1","0","0","",""
"null","","206451","HierDy86jg5a7j","b9s6l5fxkb","msl000613","iti","img/motor_blank.png","null","70","motor","","","","","","",""
"511","","206969","HierDy86jg5a7j","b9s6l5fxkb","msl000613","motor","img/motor_8.png","76","76","motor","8","195","1","0","0","",""
"null","","207077","HierDy86jg5a7j","b9s6l5fxkb","msl000613","iti","img/motor_blank.png","null","76","motor","","","","","","",""
"639","","207722","HierDy86jg5a7j","b9s6l5fxkb","msl000613","motor","img/motor_4.png","70","70","motor","4","196","1","0","0","",""
"null","","207830","HierDy86jg5a7j","b9s6l5fxkb","msl000613","iti","img/motor_blank.png","null","70","motor","","","","","","",""
"384","","208222","HierDy86jg5a7j","b9s6l5fxkb","msl000613","motor","img/motor_8.png","76","76","motor","8","197","1","0","0","",""
"null","","208329","HierDy86jg5a7j","b9s6l5fxkb","msl000613","iti","img/motor_blank.png","null","76","motor","","","","","","",""
"440","","208777","HierDy86jg5a7j","b9s6l5fxkb","msl000613","motor","img/motor_8.png","76","76","motor","8","198","1","0","0","",""
"null","","208884","HierDy86jg5a7j","b9s6l5fxkb","msl000613","iti","img/motor_blank.png","null","76","motor","","","","","","",""
"608","","209499","HierDy86jg5a7j","b9s6l5fxkb","msl000613","motor","img/motor_4.png","70","70","motor","4","199","1","0","0","",""
"null","","209607","HierDy86jg5a7j","b9s6l5fxkb","msl000613","iti","img/motor_blank.png","null","70","motor","","","","","","",""
"718","","210332","HierDy86jg5a7j","b9s6l5fxkb","msl000613","motor","img/motor_3.png","68","68","motor","3","200","1","0","0","",""
"null","","210438","HierDy86jg5a7j","b9s6l5fxkb","msl000613","iti","img/motor_blank.png","null","68","motor","","","","","","",""
"424","","210869","HierDy86jg5a7j","b9s6l5fxkb","msl000613","motor","img/motor_3.png","68","68","motor","3","201","1","0","0","",""
"null","","210977","HierDy86jg5a7j","b9s6l5fxkb","msl000613","iti","img/motor_blank.png","null","68","motor","","","","","","",""
"548","","211531","HierDy86jg5a7j","b9s6l5fxkb","msl000613","motor","img/motor_4.png","70","70","motor","4","202","1","0","0","",""
"null","","211638","HierDy86jg5a7j","b9s6l5fxkb","msl000613","iti","img/motor_blank.png","null","70","motor","","","","","","",""
"794","","212439","HierDy86jg5a7j","b9s6l5fxkb","msl000613","motor","img/motor_6.png","74","74","motor","6","203","1","0","0","",""
"null","","212547","HierDy86jg5a7j","b9s6l5fxkb","msl000613","iti","img/motor_blank.png","null","74","motor","","","","","","",""
"506","","213060","HierDy86jg5a7j","b9s6l5fxkb","msl000613","motor","img/motor_4.png","70","70","motor","4","204","1","0","0","",""
"null","","213167","HierDy86jg5a7j","b9s6l5fxkb","msl000613","iti","img/motor_blank.png","null","70","motor","","","","","","",""
"620","","213795","HierDy86jg5a7j","b9s6l5fxkb","msl000613","motor","img/motor_5.png","72","72","motor","5","205","1","0","0","",""
"null","","213904","HierDy86jg5a7j","b9s6l5fxkb","msl000613","iti","img/motor_blank.png","null","72","motor","","","","","","",""
"612","","214524","HierDy86jg5a7j","b9s6l5fxkb","msl000613","motor","img/motor_3.png","68","68","motor","3","206","1","0","0","",""
"null","","214631","HierDy86jg5a7j","b9s6l5fxkb","msl000613","iti","img/motor_blank.png","null","68","motor","","","","","","",""
"569","","215208","HierDy86jg5a7j","b9s6l5fxkb","msl000613","motor","img/motor_7.png","75","75","motor","7","207","1","0","0","",""
"null","","215315","HierDy86jg5a7j","b9s6l5fxkb","msl000613","iti","img/motor_blank.png","null","75","motor","","","","","","",""
"480","","215803","HierDy86jg5a7j","b9s6l5fxkb","msl000613","motor","img/motor_4.png","70","70","motor","4","208","1","0","0","",""
"null","","215911","HierDy86jg5a7j","b9s6l5fxkb","msl000613","iti","img/motor_blank.png","null","70","motor","","","","","","",""
"614","","216533","HierDy86jg5a7j","b9s6l5fxkb","msl000613","motor","img/motor_6.png","74","74","motor","6","209","1","0","0","",""
"null","","216642","HierDy86jg5a7j","b9s6l5fxkb","msl000613","iti","img/motor_blank.png","null","74","motor","","","","","","",""
"580","","217228","HierDy86jg5a7j","b9s6l5fxkb","msl000613","motor","img/motor_5.png","72","72","motor","5","210","1","0","0","",""
"null","","217333","HierDy86jg5a7j","b9s6l5fxkb","msl000613","iti","img/motor_blank.png","null","72","motor","","","","","","",""
"646","","217987","HierDy86jg5a7j","b9s6l5fxkb","msl000613","motor","img/motor_2.png","83","83","motor","2","211","1","0","0","",""
"null","","218094","HierDy86jg5a7j","b9s6l5fxkb","msl000613","iti","img/motor_blank.png","null","83","motor","","","","","","",""
"574","","218674","HierDy86jg5a7j","b9s6l5fxkb","msl000613","motor","img/motor_3.png","68","68","motor","3","212","1","0","0","",""
"null","","218780","HierDy86jg5a7j","b9s6l5fxkb","msl000613","iti","img/motor_blank.png","null","68","motor","","","","","","",""
"547","","219334","HierDy86jg5a7j","b9s6l5fxkb","msl000613","motor","img/motor_5.png","72","72","motor","5","213","1","0","0","",""
"null","","219441","HierDy86jg5a7j","b9s6l5fxkb","msl000613","iti","img/motor_blank.png","null","72","motor","","","","","","",""
"439","","219887","HierDy86jg5a7j","b9s6l5fxkb","msl000613","motor","img/motor_5.png","72","72","motor","5","214","1","0","0","",""
"null","","219993","HierDy86jg5a7j","b9s6l5fxkb","msl000613","iti","img/motor_blank.png","null","72","motor","","","","","","",""
"642","","220642","HierDy86jg5a7j","b9s6l5fxkb","msl000613","motor","img/motor_6.png","74","74","motor","6","215","1","0","0","",""
"null","","220748","HierDy86jg5a7j","b9s6l5fxkb","msl000613","iti","img/motor_blank.png","null","74","motor","","","","","","",""
"515","","221271","HierDy86jg5a7j","b9s6l5fxkb","msl000613","motor","img/motor_8.png","76","76","motor","8","216","1","0","0","",""
"null","","221377","HierDy86jg5a7j","b9s6l5fxkb","msl000613","iti","img/motor_blank.png","null","76","motor","","","","","","",""
"542","","221927","HierDy86jg5a7j","b9s6l5fxkb","msl000613","motor","img/motor_6.png","74","74","motor","6","217","1","0","0","",""
"null","","222034","HierDy86jg5a7j","b9s6l5fxkb","msl000613","iti","img/motor_blank.png","null","74","motor","","","","","","",""
"704","","222745","HierDy86jg5a7j","b9s6l5fxkb","msl000613","motor","img/motor_2.png","83","83","motor","2","218","1","0","0","",""
"null","","222851","HierDy86jg5a7j","b9s6l5fxkb","msl000613","iti","img/motor_blank.png","null","83","motor","","","","","","",""
"595","","223453","HierDy86jg5a7j","b9s6l5fxkb","msl000613","motor","img/motor_5.png","72","72","motor","5","219","1","0","0","",""
"null","","223562","HierDy86jg5a7j","b9s6l5fxkb","msl000613","iti","img/motor_blank.png","null","72","motor","","","","","","",""
"588","","224156","HierDy86jg5a7j","b9s6l5fxkb","msl000613","motor","img/motor_1.png","65","65","motor","1","220","1","0","0","",""
"null","","224262","HierDy86jg5a7j","b9s6l5fxkb","msl000613","iti","img/motor_blank.png","null","65","motor","","","","","","",""
"657","","224925","HierDy86jg5a7j","b9s6l5fxkb","msl000613","motor","img/motor_6.png","74","74","motor","6","221","1","0","0","",""
"null","","225033","HierDy86jg5a7j","b9s6l5fxkb","msl000613","iti","img/motor_blank.png","null","74","motor","","","","","","",""
"501","","225539","HierDy86jg5a7j","b9s6l5fxkb","msl000613","motor","img/motor_5.png","72","72","motor","5","222","1","0","0","",""
"null","","225646","HierDy86jg5a7j","b9s6l5fxkb","msl000613","iti","img/motor_blank.png","null","72","motor","","","","","","",""
"612","","226265","HierDy86jg5a7j","b9s6l5fxkb","msl000613","motor","img/motor_2.png","83","83","motor","2","223","1","0","0","",""
"null","","226371","HierDy86jg5a7j","b9s6l5fxkb","msl000613","iti","img/motor_blank.png","null","83","motor","","","","","","",""
"444","","226822","HierDy86jg5a7j","b9s6l5fxkb","msl000613","motor","img/motor_1.png","65","65","motor","1","224","1","0","0","",""
"null","","226929","HierDy86jg5a7j","b9s6l5fxkb","msl000613","iti","img/motor_blank.png","null","65","motor","","","","","","",""
"531","","227467","HierDy86jg5a7j","b9s6l5fxkb","msl000613","motor","img/motor_8.png","76","76","motor","8","225","1","0","0","",""
"null","","227576","HierDy86jg5a7j","b9s6l5fxkb","msl000613","iti","img/motor_blank.png","null","76","motor","","","","","","",""
"454","","228035","HierDy86jg5a7j","b9s6l5fxkb","msl000613","motor","img/motor_5.png","72","72","motor","5","226","1","0","0","",""
"null","","228142","HierDy86jg5a7j","b9s6l5fxkb","msl000613","iti","img/motor_blank.png","null","72","motor","","","","","","",""
"383","","228533","HierDy86jg5a7j","b9s6l5fxkb","msl000613","motor","img/motor_5.png","72","72","motor","5","227","1","0","0","",""
"null","","228641","HierDy86jg5a7j","b9s6l5fxkb","msl000613","iti","img/motor_blank.png","null","72","motor","","","","","","",""
"578","","229225","HierDy86jg5a7j","b9s6l5fxkb","msl000613","motor","img/motor_1.png","83","65","motor","1","228","0","1","0","",""
"364","","229596","HierDy86jg5a7j","b9s6l5fxkb","msl000613","motorRepeat","img/motor_1.png","65","65","motor","1","228","1","0","0","",""
"null","","229702","HierDy86jg5a7j","b9s6l5fxkb","msl000613","iti","img/motor_blank.png","null","65","motor","","","","","","",""
"536","","230243","HierDy86jg5a7j","b9s6l5fxkb","msl000613","motor","img/motor_2.png","83","83","motor","2","229","1","0","0","",""
"null","","230349","HierDy86jg5a7j","b9s6l5fxkb","msl000613","iti","img/motor_blank.png","null","83","motor","","","","","","",""
"483","","230837","HierDy86jg5a7j","b9s6l5fxkb","msl000613","motor","img/motor_4.png","70","70","motor","4","230","1","0","0","",""
"null","","230945","HierDy86jg5a7j","b9s6l5fxkb","msl000613","iti","img/motor_blank.png","null","70","motor","","","","","","",""
"399","","231353","HierDy86jg5a7j","b9s6l5fxkb","msl000613","motor","img/motor_4.png","70","70","motor","4","231","1","0","0","",""
"null","","231460","HierDy86jg5a7j","b9s6l5fxkb","msl000613","iti","img/motor_blank.png","null","70","motor","","","","","","",""
"507","","231973","HierDy86jg5a7j","b9s6l5fxkb","msl000613","motor","img/motor_5.png","72","72","motor","5","232","1","0","0","",""
"null","","232081","HierDy86jg5a7j","b9s6l5fxkb","msl000613","iti","img/motor_blank.png","null","72","motor","","","","","","",""
"446","","232535","HierDy86jg5a7j","b9s6l5fxkb","msl000613","motor","img/motor_8.png","76","76","motor","8","233","1","0","0","",""
"null","","232643","HierDy86jg5a7j","b9s6l5fxkb","msl000613","iti","img/motor_blank.png","null","76","motor","","","","","","",""
"348","","232995","HierDy86jg5a7j","b9s6l5fxkb","msl000613","motor","img/motor_8.png","76","76","motor","8","234","1","0","0","",""
"null","","233102","HierDy86jg5a7j","b9s6l5fxkb","msl000613","iti","img/motor_blank.png","null","76","motor","","","","","","",""
"606","","233712","HierDy86jg5a7j","b9s6l5fxkb","msl000613","motor","img/motor_3.png","83","68","motor","3","235","0","1","0","",""
"356","","234074","HierDy86jg5a7j","b9s6l5fxkb","msl000613","motorRepeat","img/motor_3.png","68","68","motor","3","235","1","0","0","",""
"null","","234181","HierDy86jg5a7j","b9s6l5fxkb","msl000613","iti","img/motor_blank.png","null","68","motor","","","","","","",""
"510","","234695","HierDy86jg5a7j","b9s6l5fxkb","msl000613","motor","img/motor_4.png","70","70","motor","4","236","1","0","0","",""
"null","","234802","HierDy86jg5a7j","b9s6l5fxkb","msl000613","iti","img/motor_blank.png","null","70","motor","","","","","","",""
"487","","235296","HierDy86jg5a7j","b9s6l5fxkb","msl000613","motor","img/motor_1.png","65","65","motor","1","237","1","0","0","",""
"null","","235403","HierDy86jg5a7j","b9s6l5fxkb","msl000613","iti","img/motor_blank.png","null","65","motor","","","","","","",""
"602","","236012","HierDy86jg5a7j","b9s6l5fxkb","msl000613","motor","img/motor_4.png","70","70","motor","4","238","1","0","0","",""
"null","","236120","HierDy86jg5a7j","b9s6l5fxkb","msl000613","iti","img/motor_blank.png","null","70","motor","","","","","","",""
"645","","236770","HierDy86jg5a7j","b9s6l5fxkb","msl000613","motor","img/motor_7.png","75","75","motor","7","239","1","0","0","",""
"null","","236877","HierDy86jg5a7j","b9s6l5fxkb","msl000613","iti","img/motor_blank.png","null","75","motor","","","","","","",""
"412","","237298","HierDy86jg5a7j","b9s6l5fxkb","msl000613","motor","img/motor_7.png","75","75","motor","7","240","1","0","0","",""
"null","","237406","HierDy86jg5a7j","b9s6l5fxkb","msl000613","iti","img/motor_blank.png","null","75","motor","","","","","","",""
"587","","237999","HierDy86jg5a7j","b9s6l5fxkb","msl000613","motor","img/motor_6.png","74","74","motor","6","241","1","0","0","",""
"null","","238107","HierDy86jg5a7j","b9s6l5fxkb","msl000613","iti","img/motor_blank.png","null","74","motor","","","","","","",""
"741","","238853","HierDy86jg5a7j","b9s6l5fxkb","msl000613","motor","img/motor_3.png","68","68","motor","3","242","1","0","0","",""
"null","","238961","HierDy86jg5a7j","b9s6l5fxkb","msl000613","iti","img/motor_blank.png","null","68","motor","","","","","","",""
"412","","239381","HierDy86jg5a7j","b9s6l5fxkb","msl000613","motor","img/motor_3.png","68","68","motor","3","243","1","0","0","",""
"null","","239488","HierDy86jg5a7j","b9s6l5fxkb","msl000613","iti","img/motor_blank.png","null","68","motor","","","","","","",""
"513","","240009","HierDy86jg5a7j","b9s6l5fxkb","msl000613","motor","img/motor_4.png","70","70","motor","4","244","1","0","0","",""
"null","","240118","HierDy86jg5a7j","b9s6l5fxkb","msl000613","iti","img/motor_blank.png","null","70","motor","","","","","","",""
"623","","240747","HierDy86jg5a7j","b9s6l5fxkb","msl000613","motor","img/motor_3.png","68","68","motor","3","245","1","0","0","",""
"null","","240854","HierDy86jg5a7j","b9s6l5fxkb","msl000613","iti","img/motor_blank.png","null","68","motor","","","","","","",""
"521","","241383","HierDy86jg5a7j","b9s6l5fxkb","msl000613","motor","img/motor_5.png","72","72","motor","5","246","1","0","0","",""
"null","","241491","HierDy86jg5a7j","b9s6l5fxkb","msl000613","iti","img/motor_blank.png","null","72","motor","","","","","","",""
"529","","242026","HierDy86jg5a7j","b9s6l5fxkb","msl000613","motor","img/motor_4.png","70","70","motor","4","247","1","0","0","",""
"null","","242134","HierDy86jg5a7j","b9s6l5fxkb","msl000613","iti","img/motor_blank.png","null","70","motor","","","","","","",""
"453","","242594","HierDy86jg5a7j","b9s6l5fxkb","msl000613","motor","img/motor_5.png","74","72","motor","5","248","0","1","0","",""
"429","","243029","HierDy86jg5a7j","b9s6l5fxkb","msl000613","motorRepeat","img/motor_5.png","72","72","motor","5","248","1","0","0","",""
"null","","243137","HierDy86jg5a7j","b9s6l5fxkb","msl000613","iti","img/motor_blank.png","null","72","motor","","","","","","",""
"444","","243588","HierDy86jg5a7j","b9s6l5fxkb","msl000613","motor","img/motor_8.png","76","76","motor","8","249","1","0","0","",""
"null","","243695","HierDy86jg5a7j","b9s6l5fxkb","msl000613","iti","img/motor_blank.png","null","76","motor","","","","","","",""
"412","","244114","HierDy86jg5a7j","b9s6l5fxkb","msl000613","motor","img/motor_5.png","72","72","motor","5","250","1","0","0","",""
"null","","244221","HierDy86jg5a7j","b9s6l5fxkb","msl000613","iti","img/motor_blank.png","null","72","motor","","","","","","",""
"495","","244723","HierDy86jg5a7j","b9s6l5fxkb","msl000613","motor","img/motor_1.png","65","65","motor","1","251","1","0","0","",""
"null","","244830","HierDy86jg5a7j","b9s6l5fxkb","msl000613","iti","img/motor_blank.png","null","65","motor","","","","","","",""
"634","","245472","HierDy86jg5a7j","b9s6l5fxkb","msl000613","motor","img/motor_8.png","76","76","motor","8","252","1","0","0","",""
"null","","245580","HierDy86jg5a7j","b9s6l5fxkb","msl000613","iti","img/motor_blank.png","null","76","motor","","","","","","",""
"389","","245977","HierDy86jg5a7j","b9s6l5fxkb","msl000613","motor","img/motor_5.png","72","72","motor","5","253","1","0","0","",""
"null","","246085","HierDy86jg5a7j","b9s6l5fxkb","msl000613","iti","img/motor_blank.png","null","72","motor","","","","","","",""
"513","","246605","HierDy86jg5a7j","b9s6l5fxkb","msl000613","motor","img/motor_4.png","70","70","motor","4","254","1","0","0","",""
"null","","246711","HierDy86jg5a7j","b9s6l5fxkb","msl000613","iti","img/motor_blank.png","null","70","motor","","","","","","",""
"449","","247166","HierDy86jg5a7j","b9s6l5fxkb","msl000613","motor","img/motor_1.png","65","65","motor","1","255","1","0","0","",""
"null","","247273","HierDy86jg5a7j","b9s6l5fxkb","msl000613","iti","img/motor_blank.png","null","65","motor","","","","","","",""
"696","","247974","HierDy86jg5a7j","b9s6l5fxkb","msl000613","motor","img/motor_3.png","68","68","motor","3","256","1","0","0","",""
"null","","248081","HierDy86jg5a7j","b9s6l5fxkb","msl000613","iti","img/motor_blank.png","null","68","motor","","","","","","",""
"1192","","249278","HierDy86jg5a7j","b9s6l5fxkb","msl000613","motor","img/motor_8.png","76","76","motor","8","257","1","0","0","",""
"null","","249384","HierDy86jg5a7j","b9s6l5fxkb","msl000613","iti","img/motor_blank.png","null","76","motor","","","","","","",""
"491","","249880","HierDy86jg5a7j","b9s6l5fxkb","msl000613","motor","img/motor_4.png","70","70","motor","4","258","1","0","0","",""
"null","","249987","HierDy86jg5a7j","b9s6l5fxkb","msl000613","iti","img/motor_blank.png","null","70","motor","","","","","","",""
"450","","250443","HierDy86jg5a7j","b9s6l5fxkb","msl000613","motor","img/motor_8.png","76","76","motor","8","259","1","0","0","",""
"null","","250550","HierDy86jg5a7j","b9s6l5fxkb","msl000613","iti","img/motor_blank.png","null","76","motor","","","","","","",""
"595","","251152","HierDy86jg5a7j","b9s6l5fxkb","msl000613","motor","img/motor_3.png","68","68","motor","3","260","1","0","0","",""
"null","","251258","HierDy86jg5a7j","b9s6l5fxkb","msl000613","iti","img/motor_blank.png","null","68","motor","","","","","","",""
"511","","251775","HierDy86jg5a7j","b9s6l5fxkb","msl000613","motor","img/motor_7.png","75","75","motor","7","261","1","0","0","",""
"null","","251882","HierDy86jg5a7j","b9s6l5fxkb","msl000613","iti","img/motor_blank.png","null","75","motor","","","","","","",""
"717","","252604","HierDy86jg5a7j","b9s6l5fxkb","msl000613","motor","img/motor_1.png","65","65","motor","1","262","1","0","0","",""
"null","","252709","HierDy86jg5a7j","b9s6l5fxkb","msl000613","iti","img/motor_blank.png","null","65","motor","","","","","","",""
"695","","253410","HierDy86jg5a7j","b9s6l5fxkb","msl000613","motor","img/motor_2.png","83","83","motor","2","263","1","0","0","",""
"null","","253516","HierDy86jg5a7j","b9s6l5fxkb","msl000613","iti","img/motor_blank.png","null","83","motor","","","","","","",""
"404","","253927","HierDy86jg5a7j","b9s6l5fxkb","msl000613","motor","img/motor_3.png","68","68","motor","3","264","1","0","0","",""
"null","","254035","HierDy86jg5a7j","b9s6l5fxkb","msl000613","iti","img/motor_blank.png","null","68","motor","","","","","","",""
"455","","254494","HierDy86jg5a7j","b9s6l5fxkb","msl000613","motor","img/motor_3.png","68","68","motor","3","265","1","0","0","",""
"null","","254602","HierDy86jg5a7j","b9s6l5fxkb","msl000613","iti","img/motor_blank.png","null","68","motor","","","","","","",""
"489","","255100","HierDy86jg5a7j","b9s6l5fxkb","msl000613","motor","img/motor_1.png","65","65","motor","1","266","1","0","0","",""
"null","","255207","HierDy86jg5a7j","b9s6l5fxkb","msl000613","iti","img/motor_blank.png","null","65","motor","","","","","","",""
"658","","255872","HierDy86jg5a7j","b9s6l5fxkb","msl000613","motor","img/motor_6.png","74","74","motor","6","267","1","0","0","",""
"null","","255980","HierDy86jg5a7j","b9s6l5fxkb","msl000613","iti","img/motor_blank.png","null","74","motor","","","","","","",""
"406","","256394","HierDy86jg5a7j","b9s6l5fxkb","msl000613","motor","img/motor_7.png","75","75","motor","7","268","1","0","0","",""
"null","","256503","HierDy86jg5a7j","b9s6l5fxkb","msl000613","iti","img/motor_blank.png","null","75","motor","","","","","","",""
"403","","256916","HierDy86jg5a7j","b9s6l5fxkb","msl000613","motor","img/motor_6.png","72","74","motor","6","269","0","1","0","",""
"336","","257257","HierDy86jg5a7j","b9s6l5fxkb","msl000613","motorRepeat","img/motor_6.png","74","74","motor","6","269","1","0","0","",""
"null","","257366","HierDy86jg5a7j","b9s6l5fxkb","msl000613","iti","img/motor_blank.png","null","74","motor","","","","","","",""
"650","","258024","HierDy86jg5a7j","b9s6l5fxkb","msl000613","motor","img/motor_3.png","68","68","motor","3","270","1","0","0","",""
"null","","258130","HierDy86jg5a7j","b9s6l5fxkb","msl000613","iti","img/motor_blank.png","null","68","motor","","","","","","",""
"502","","258638","HierDy86jg5a7j","b9s6l5fxkb","msl000613","motor","img/motor_6.png","74","74","motor","6","271","1","0","0","",""
"null","","258744","HierDy86jg5a7j","b9s6l5fxkb","msl000613","iti","img/motor_blank.png","null","74","motor","","","","","","",""
"574","","259327","HierDy86jg5a7j","b9s6l5fxkb","msl000613","motor","img/motor_7.png","75","75","motor","7","272","1","0","0","",""
"null","","259438","HierDy86jg5a7j","b9s6l5fxkb","msl000613","iti","img/motor_blank.png","null","75","motor","","","","","","",""
"473","","259921","HierDy86jg5a7j","b9s6l5fxkb","msl000613","motor","img/motor_5.png","72","72","motor","5","273","1","0","0","",""
"null","","260029","HierDy86jg5a7j","b9s6l5fxkb","msl000613","iti","img/motor_blank.png","null","72","motor","","","","","","",""
"530","","260568","HierDy86jg5a7j","b9s6l5fxkb","msl000613","motor","img/motor_4.png","72","70","motor","4","274","0","1","0","",""
"266","","260843","HierDy86jg5a7j","b9s6l5fxkb","msl000613","motorRepeat","img/motor_4.png","70","70","motor","4","274","1","0","0","",""
"null","","260954","HierDy86jg5a7j","b9s6l5fxkb","msl000613","iti","img/motor_blank.png","null","70","motor","","","","","","",""
"429","","261394","HierDy86jg5a7j","b9s6l5fxkb","msl000613","motor","img/motor_3.png","68","68","motor","3","275","1","0","0","",""
"null","","261504","HierDy86jg5a7j","b9s6l5fxkb","msl000613","iti","img/motor_blank.png","null","68","motor","","","","","","",""
"394","","261910","HierDy86jg5a7j","b9s6l5fxkb","msl000613","motor","img/motor_2.png","83","83","motor","2","276","1","0","0","",""
"null","","262021","HierDy86jg5a7j","b9s6l5fxkb","msl000613","iti","img/motor_blank.png","null","83","motor","","","","","","",""
"717","","262748","HierDy86jg5a7j","b9s6l5fxkb","msl000613","motor","img/motor_6.png","74","74","motor","6","277","1","0","0","",""
"null","","262860","HierDy86jg5a7j","b9s6l5fxkb","msl000613","iti","img/motor_blank.png","null","74","motor","","","","","","",""
"510","","263379","HierDy86jg5a7j","b9s6l5fxkb","msl000613","motor","img/motor_1.png","65","65","motor","1","278","1","0","0","",""
"null","","263490","HierDy86jg5a7j","b9s6l5fxkb","msl000613","iti","img/motor_blank.png","null","65","motor","","","","","","",""
"415","","263917","HierDy86jg5a7j","b9s6l5fxkb","msl000613","motor","img/motor_1.png","65","65","motor","1","279","1","0","0","",""
"null","","264028","HierDy86jg5a7j","b9s6l5fxkb","msl000613","iti","img/motor_blank.png","null","65","motor","","","","","","",""
"587","","264628","HierDy86jg5a7j","b9s6l5fxkb","msl000613","motor","img/motor_6.png","74","74","motor","6","280","1","0","0","",""
"null","","264740","HierDy86jg5a7j","b9s6l5fxkb","msl000613","iti","img/motor_blank.png","null","74","motor","","","","","","",""
"410","","265161","HierDy86jg5a7j","b9s6l5fxkb","msl000613","motor","img/motor_7.png","75","75","motor","7","281","1","0","0","",""
"null","","265273","HierDy86jg5a7j","b9s6l5fxkb","msl000613","iti","img/motor_blank.png","null","75","motor","","","","","","",""
"492","","265775","HierDy86jg5a7j","b9s6l5fxkb","msl000613","motor","img/motor_1.png","65","65","motor","1","282","1","0","0","",""
"null","","265888","HierDy86jg5a7j","b9s6l5fxkb","msl000613","iti","img/motor_blank.png","null","65","motor","","","","","","",""
"507","","266407","HierDy86jg5a7j","b9s6l5fxkb","msl000613","motor","img/motor_7.png","75","75","motor","7","283","1","0","0","",""
"null","","266517","HierDy86jg5a7j","b9s6l5fxkb","msl000613","iti","img/motor_blank.png","null","75","motor","","","","","","",""
"558","","267084","HierDy86jg5a7j","b9s6l5fxkb","msl000613","motor","img/motor_2.png","68","83","motor","2","284","0","1","0","",""
"81","","267174","HierDy86jg5a7j","b9s6l5fxkb","msl000613","motorRepeat","img/motor_2.png","83","83","motor","2","284","1","0","0","",""
"null","","267286","HierDy86jg5a7j","b9s6l5fxkb","msl000613","iti","img/motor_blank.png","null","83","motor","","","","","","",""
"1258","","268557","HierDy86jg5a7j","b9s6l5fxkb","msl000613","motor","img/motor_4.png","70","70","motor","4","285","1","0","0","",""
"null","","268669","HierDy86jg5a7j","b9s6l5fxkb","msl000613","iti","img/motor_blank.png","null","70","motor","","","","","","",""
"410","","269091","HierDy86jg5a7j","b9s6l5fxkb","msl000613","motor","img/motor_4.png","70","70","motor","4","286","1","0","0","",""
"null","","269202","HierDy86jg5a7j","b9s6l5fxkb","msl000613","iti","img/motor_blank.png","null","70","motor","","","","","","",""
"552","","269764","HierDy86jg5a7j","b9s6l5fxkb","msl000613","motor","img/motor_8.png","76","76","motor","8","287","1","0","0","",""
"null","","269872","HierDy86jg5a7j","b9s6l5fxkb","msl000613","iti","img/motor_blank.png","null","76","motor","","","","","","",""
"534","","270415","HierDy86jg5a7j","b9s6l5fxkb","msl000613","motor","img/motor_6.png","74","74","motor","6","288","1","0","0","",""
"null","","270527","HierDy86jg5a7j","b9s6l5fxkb","msl000613","iti","img/motor_blank.png","null","74","motor","","","","","","",""
"402","","270938","HierDy86jg5a7j","b9s6l5fxkb","msl000613","motor","img/motor_6.png","74","74","motor","6","289","1","0","0","",""
"null","","271050","HierDy86jg5a7j","b9s6l5fxkb","msl000613","iti","img/motor_blank.png","null","74","motor","","","","","","",""
"623","","271683","HierDy86jg5a7j","b9s6l5fxkb","msl000613","motor","img/motor_2.png","83","83","motor","2","290","1","0","0","",""
"null","","271795","HierDy86jg5a7j","b9s6l5fxkb","msl000613","iti","img/motor_blank.png","null","83","motor","","","","","","",""
"470","","272273","HierDy86jg5a7j","b9s6l5fxkb","msl000613","motor","img/motor_1.png","65","65","motor","1","291","1","0","0","",""
"null","","272384","HierDy86jg5a7j","b9s6l5fxkb","msl000613","iti","img/motor_blank.png","null","65","motor","","","","","","",""
"614","","273008","HierDy86jg5a7j","b9s6l5fxkb","msl000613","motor","img/motor_8.png","76","76","motor","8","292","1","0","0","",""
"null","","273119","HierDy86jg5a7j","b9s6l5fxkb","msl000613","iti","img/motor_blank.png","null","76","motor","","","","","","",""
"505","","273635","HierDy86jg5a7j","b9s6l5fxkb","msl000613","motor","img/motor_7.png","74","75","motor","7","293","0","1","0","",""
"302","","273947","HierDy86jg5a7j","b9s6l5fxkb","msl000613","motorRepeat","img/motor_7.png","75","75","motor","7","293","1","0","0","",""
"null","","274057","HierDy86jg5a7j","b9s6l5fxkb","msl000613","iti","img/motor_blank.png","null","75","motor","","","","","","",""
"461","","274528","HierDy86jg5a7j","b9s6l5fxkb","msl000613","motor","img/motor_8.png","76","76","motor","8","294","1","0","0","",""
"null","","274639","HierDy86jg5a7j","b9s6l5fxkb","msl000613","iti","img/motor_blank.png","null","76","motor","","","","","","",""
"565","","275213","HierDy86jg5a7j","b9s6l5fxkb","msl000613","motor","img/motor_3.png","83","68","motor","3","295","0","1","0","",""
"400","","275622","HierDy86jg5a7j","b9s6l5fxkb","msl000613","motorRepeat","img/motor_3.png","68","68","motor","3","295","1","0","0","",""
"null","","275733","HierDy86jg5a7j","b9s6l5fxkb","msl000613","iti","img/motor_blank.png","null","68","motor","","","","","","",""
"541","","276285","HierDy86jg5a7j","b9s6l5fxkb","msl000613","motor","img/motor_6.png","74","74","motor","6","296","1","0","0","",""
"null","","276396","HierDy86jg5a7j","b9s6l5fxkb","msl000613","iti","img/motor_blank.png","null","74","motor","","","","","","",""
"493","","276899","HierDy86jg5a7j","b9s6l5fxkb","msl000613","motor","img/motor_5.png","72","72","motor","5","297","1","0","0","",""
"null","","277011","HierDy86jg5a7j","b9s6l5fxkb","msl000613","iti","img/motor_blank.png","null","72","motor","","","","","","",""
"315","","277336","HierDy86jg5a7j","b9s6l5fxkb","msl000613","motor","img/motor_5.png","72","72","motor","5","298","1","0","0","",""
"null","","277448","HierDy86jg5a7j","b9s6l5fxkb","msl000613","iti","img/motor_blank.png","null","72","motor","","","","","","",""
"619","","278078","HierDy86jg5a7j","b9s6l5fxkb","msl000613","motor","img/motor_3.png","68","68","motor","3","299","1","0","0","",""
"null","","278187","HierDy86jg5a7j","b9s6l5fxkb","msl000613","iti","img/motor_blank.png","null","68","motor","","","","","","",""
"587","","278785","HierDy86jg5a7j","b9s6l5fxkb","msl000613","motor","img/motor_7.png","75","75","motor","7","300","1","0","0","",""
"null","","278896","HierDy86jg5a7j","b9s6l5fxkb","msl000613","iti","img/motor_blank.png","null","75","motor","","","","","","",""
"541","","279448","HierDy86jg5a7j","b9s6l5fxkb","msl000613","motor","img/motor_6.png","74","74","motor","6","301","1","0","0","",""
"null","","279559","HierDy86jg5a7j","b9s6l5fxkb","msl000613","iti","img/motor_blank.png","null","74","motor","","","","","","",""
"758","","280326","HierDy86jg5a7j","b9s6l5fxkb","msl000613","motor","img/motor_2.png","83","83","motor","2","302","1","0","0","",""
"null","","280437","HierDy86jg5a7j","b9s6l5fxkb","msl000613","iti","img/motor_blank.png","null","83","motor","","","","","","",""
"549","","280995","HierDy86jg5a7j","b9s6l5fxkb","msl000613","motor","img/motor_5.png","72","72","motor","5","303","1","0","0","",""
"null","","281105","HierDy86jg5a7j","b9s6l5fxkb","msl000613","iti","img/motor_blank.png","null","72","motor","","","","","","",""
"581","","281697","HierDy86jg5a7j","b9s6l5fxkb","msl000613","motor","img/motor_7.png","75","75","motor","7","304","1","0","0","",""
"null","","281806","HierDy86jg5a7j","b9s6l5fxkb","msl000613","iti","img/motor_blank.png","null","75","motor","","","","","","",""
"668","","282483","HierDy86jg5a7j","b9s6l5fxkb","msl000613","motor","img/motor_6.png","72","74","motor","6","305","0","1","0","",""
"289","","282782","HierDy86jg5a7j","b9s6l5fxkb","msl000613","motorRepeat","img/motor_6.png","74","74","motor","6","305","1","0","0","",""
"null","","282893","HierDy86jg5a7j","b9s6l5fxkb","msl000613","iti","img/motor_blank.png","null","74","motor","","","","","","",""
"601","","283502","HierDy86jg5a7j","b9s6l5fxkb","msl000613","motor","img/motor_7.png","75","75","motor","7","306","1","0","0","",""
"null","","283612","HierDy86jg5a7j","b9s6l5fxkb","msl000613","iti","img/motor_blank.png","null","75","motor","","","","","","",""
"684","","284306","HierDy86jg5a7j","b9s6l5fxkb","msl000613","motor","img/motor_4.png","70","70","motor","4","307","1","0","0","",""
"null","","284416","HierDy86jg5a7j","b9s6l5fxkb","msl000613","iti","img/motor_blank.png","null","70","motor","","","","","","",""
"510","","284936","HierDy86jg5a7j","b9s6l5fxkb","msl000613","motor","img/motor_6.png","74","74","motor","6","308","1","0","0","",""
"null","","285047","HierDy86jg5a7j","b9s6l5fxkb","msl000613","iti","img/motor_blank.png","null","74","motor","","","","","","",""
"549","","285608","HierDy86jg5a7j","b9s6l5fxkb","msl000613","motor","img/motor_8.png","76","76","motor","8","309","1","0","0","",""
"null","","285718","HierDy86jg5a7j","b9s6l5fxkb","msl000613","iti","img/motor_blank.png","null","76","motor","","","","","","",""
"536","","286264","HierDy86jg5a7j","b9s6l5fxkb","msl000613","motor","img/motor_7.png","75","75","motor","7","310","1","0","0","",""
"null","","286374","HierDy86jg5a7j","b9s6l5fxkb","msl000613","iti","img/motor_blank.png","null","75","motor","","","","","","",""
"599","","286981","HierDy86jg5a7j","b9s6l5fxkb","msl000613","motor","img/motor_2.png","83","83","motor","2","311","1","0","0","",""
"null","","287093","HierDy86jg5a7j","b9s6l5fxkb","msl000613","iti","img/motor_blank.png","null","83","motor","","","","","","",""
"548","","287651","HierDy86jg5a7j","b9s6l5fxkb","msl000613","motor","img/motor_3.png","68","68","motor","3","312","1","0","0","",""
"null","","287762","HierDy86jg5a7j","b9s6l5fxkb","msl000613","iti","img/motor_blank.png","null","68","motor","","","","","","",""
"520","","288292","HierDy86jg5a7j","b9s6l5fxkb","msl000613","motor","img/motor_5.png","70","72","motor","5","313","0","1","0","",""
"452","","288755","HierDy86jg5a7j","b9s6l5fxkb","msl000613","motorRepeat","img/motor_5.png","72","72","motor","5","313","1","0","0","",""
"null","","288866","HierDy86jg5a7j","b9s6l5fxkb","msl000613","iti","img/motor_blank.png","null","72","motor","","","","","","",""
"761","","289638","HierDy86jg5a7j","b9s6l5fxkb","msl000613","motor","img/motor_6.png","74","74","motor","6","314","1","0","0","",""
"null","","289746","HierDy86jg5a7j","b9s6l5fxkb","msl000613","iti","img/motor_blank.png","null","74","motor","","","","","","",""
"630","","290386","HierDy86jg5a7j","b9s6l5fxkb","msl000613","motor","img/motor_4.png","70","70","motor","4","315","1","0","0","",""
"null","","290496","HierDy86jg5a7j","b9s6l5fxkb","msl000613","iti","img/motor_blank.png","null","70","motor","","","","","","",""
"495","","291001","HierDy86jg5a7j","b9s6l5fxkb","msl000613","motor","img/motor_6.png","74","74","motor","6","316","1","0","0","",""
"null","","291111","HierDy86jg5a7j","b9s6l5fxkb","msl000613","iti","img/motor_blank.png","null","74","motor","","","","","","",""
"554","","291676","HierDy86jg5a7j","b9s6l5fxkb","msl000613","motor","img/motor_6.png","74","74","motor","6","317","1","0","0","",""
"null","","291787","HierDy86jg5a7j","b9s6l5fxkb","msl000613","iti","img/motor_blank.png","null","74","motor","","","","","","",""
"1327","","293124","HierDy86jg5a7j","b9s6l5fxkb","msl000613","motor","img/motor_1.png","65","65","motor","1","318","1","0","0","",""
"null","","293234","HierDy86jg5a7j","b9s6l5fxkb","msl000613","iti","img/motor_blank.png","null","65","motor","","","","","","",""
"420","","293663","HierDy86jg5a7j","b9s6l5fxkb","msl000613","motor","img/motor_1.png","65","65","motor","1","319","1","0","0","",""
"null","","293775","HierDy86jg5a7j","b9s6l5fxkb","msl000613","iti","img/motor_blank.png","null","65","motor","","","","","","",""
"870","","294654","HierDy86jg5a7j","b9s6l5fxkb","msl000613","motor","img/motor_3.png","68","68","motor","3","320","1","0","0","",""
"null","","294764","HierDy86jg5a7j","b9s6l5fxkb","msl000613","iti","img/motor_blank.png","null","68","motor","","","","","","",""
"496","","295269","HierDy86jg5a7j","b9s6l5fxkb","msl000613","motor","img/motor_4.png","70","70","motor","4","321","1","0","0","",""
"null","","295381","HierDy86jg5a7j","b9s6l5fxkb","msl000613","iti","img/motor_blank.png","null","70","motor","","","","","","",""
"723","","296112","HierDy86jg5a7j","b9s6l5fxkb","msl000613","motor","img/motor_7.png","75","75","motor","7","322","1","0","0","",""
"null","","296221","HierDy86jg5a7j","b9s6l5fxkb","msl000613","iti","img/motor_blank.png","null","75","motor","","","","","","",""
"422","","296652","HierDy86jg5a7j","b9s6l5fxkb","msl000613","motor","img/motor_7.png","75","75","motor","7","323","1","0","0","",""
"null","","296763","HierDy86jg5a7j","b9s6l5fxkb","msl000613","iti","img/motor_blank.png","null","75","motor","","","","","","",""
"491","","297265","HierDy86jg5a7j","b9s6l5fxkb","msl000613","motor","img/motor_5.png","72","72","motor","5","324","1","0","0","",""
"null","","297376","HierDy86jg5a7j","b9s6l5fxkb","msl000613","iti","img/motor_blank.png","null","72","motor","","","","","","",""
"545","","297928","HierDy86jg5a7j","b9s6l5fxkb","msl000613","motor","img/motor_4.png","70","70","motor","4","325","1","0","0","",""
"null","","298035","HierDy86jg5a7j","b9s6l5fxkb","msl000613","iti","img/motor_blank.png","null","70","motor","","","","","","",""
"498","","298538","HierDy86jg5a7j","b9s6l5fxkb","msl000613","motor","img/motor_1.png","65","65","motor","1","326","1","0","0","",""
"null","","298647","HierDy86jg5a7j","b9s6l5fxkb","msl000613","iti","img/motor_blank.png","null","65","motor","","","","","","",""
"558","","299213","HierDy86jg5a7j","b9s6l5fxkb","msl000613","motor","img/motor_7.png","75","75","motor","7","327","1","0","0","",""
"null","","299323","HierDy86jg5a7j","b9s6l5fxkb","msl000613","iti","img/motor_blank.png","null","75","motor","","","","","","",""
"662","","299994","HierDy86jg5a7j","b9s6l5fxkb","msl000613","motor","img/motor_2.png","83","83","motor","2","328","1","0","0","",""
"null","","300105","HierDy86jg5a7j","b9s6l5fxkb","msl000613","iti","img/motor_blank.png","null","83","motor","","","","","","",""
"748","","300864","HierDy86jg5a7j","b9s6l5fxkb","msl000613","motor","img/motor_6.png","74","74","motor","6","329","1","0","0","",""
"null","","300974","HierDy86jg5a7j","b9s6l5fxkb","msl000613","iti","img/motor_blank.png","null","74","motor","","","","","","",""
"400","","301385","HierDy86jg5a7j","b9s6l5fxkb","msl000613","motor","img/motor_6.png","74","74","motor","6","330","1","0","0","",""
"null","","301494","HierDy86jg5a7j","b9s6l5fxkb","msl000613","iti","img/motor_blank.png","null","74","motor","","","","","","",""
"471","","301975","HierDy86jg5a7j","b9s6l5fxkb","msl000613","motor","img/motor_7.png","75","75","motor","7","331","1","0","0","",""
"null","","302086","HierDy86jg5a7j","b9s6l5fxkb","msl000613","iti","img/motor_blank.png","null","75","motor","","","","","","",""
"700","","302796","HierDy86jg5a7j","b9s6l5fxkb","msl000613","motor","img/motor_8.png","76","76","motor","8","332","1","0","0","",""
"null","","302907","HierDy86jg5a7j","b9s6l5fxkb","msl000613","iti","img/motor_blank.png","null","76","motor","","","","","","",""
"344","","303261","HierDy86jg5a7j","b9s6l5fxkb","msl000613","motor","img/motor_8.png","76","76","motor","8","333","1","0","0","",""
"null","","303372","HierDy86jg5a7j","b9s6l5fxkb","msl000613","iti","img/motor_blank.png","null","76","motor","","","","","","",""
"527","","303909","HierDy86jg5a7j","b9s6l5fxkb","msl000613","motor","img/motor_1.png","65","65","motor","1","334","1","0","0","",""
"null","","304020","HierDy86jg5a7j","b9s6l5fxkb","msl000613","iti","img/motor_blank.png","null","65","motor","","","","","","",""
"558","","304588","HierDy86jg5a7j","b9s6l5fxkb","msl000613","motor","img/motor_7.png","75","75","motor","7","335","1","0","0","",""
"null","","304698","HierDy86jg5a7j","b9s6l5fxkb","msl000613","iti","img/motor_blank.png","null","75","motor","","","","","","",""
"761","","305467","HierDy86jg5a7j","b9s6l5fxkb","msl000613","motor","img/motor_3.png","68","68","motor","3","336","1","0","0","",""
"null","","305578","HierDy86jg5a7j","b9s6l5fxkb","msl000613","iti","img/motor_blank.png","null","68","motor","","","","","","",""
"550","","306138","HierDy86jg5a7j","b9s6l5fxkb","msl000613","motor","img/motor_1.png","65","65","motor","1","337","1","0","0","",""
"null","","306249","HierDy86jg5a7j","b9s6l5fxkb","msl000613","iti","img/motor_blank.png","null","65","motor","","","","","","",""
"552","","306811","HierDy86jg5a7j","b9s6l5fxkb","msl000613","motor","img/motor_4.png","70","70","motor","4","338","1","0","0","",""
"null","","306920","HierDy86jg5a7j","b9s6l5fxkb","msl000613","iti","img/motor_blank.png","null","70","motor","","","","","","",""
"507","","307436","HierDy86jg5a7j","b9s6l5fxkb","msl000613","motor","img/motor_7.png","75","75","motor","7","339","1","0","0","",""
"null","","307546","HierDy86jg5a7j","b9s6l5fxkb","msl000613","iti","img/motor_blank.png","null","75","motor","","","","","","",""
"479","","308035","HierDy86jg5a7j","b9s6l5fxkb","msl000613","motor","img/motor_8.png","76","76","motor","8","340","1","0","0","",""
"null","","308146","HierDy86jg5a7j","b9s6l5fxkb","msl000613","iti","img/motor_blank.png","null","76","motor","","","","","","",""
"458","","308614","HierDy86jg5a7j","b9s6l5fxkb","msl000613","motor","img/motor_5.png","72","72","motor","5","341","1","0","0","",""
"null","","308723","HierDy86jg5a7j","b9s6l5fxkb","msl000613","iti","img/motor_blank.png","null","72","motor","","","","","","",""
"483","","309214","HierDy86jg5a7j","b9s6l5fxkb","msl000613","motor","img/motor_7.png","76","75","motor","7","342","0","1","0","",""
"328","","309553","HierDy86jg5a7j","b9s6l5fxkb","msl000613","motorRepeat","img/motor_7.png","75","75","motor","7","342","1","0","0","",""
"null","","309664","HierDy86jg5a7j","b9s6l5fxkb","msl000613","iti","img/motor_blank.png","null","75","motor","","","","","","",""
"522","","310195","HierDy86jg5a7j","b9s6l5fxkb","msl000613","motor","img/motor_1.png","65","65","motor","1","343","1","0","0","",""
"null","","310306","HierDy86jg5a7j","b9s6l5fxkb","msl000613","iti","img/motor_blank.png","null","65","motor","","","","","","",""
"651","","310965","HierDy86jg5a7j","b9s6l5fxkb","msl000613","motor","img/motor_5.png","72","72","motor","5","344","1","0","0","",""
"null","","311076","HierDy86jg5a7j","b9s6l5fxkb","msl000613","iti","img/motor_blank.png","null","72","motor","","","","","","",""
"584","","311670","HierDy86jg5a7j","b9s6l5fxkb","msl000613","motor","img/motor_4.png","70","70","motor","4","345","1","0","0","",""
"null","","311780","HierDy86jg5a7j","b9s6l5fxkb","msl000613","iti","img/motor_blank.png","null","70","motor","","","","","","",""
"600","","312389","HierDy86jg5a7j","b9s6l5fxkb","msl000613","motor","img/motor_5.png","72","72","motor","5","346","1","0","0","",""
"null","","312499","HierDy86jg5a7j","b9s6l5fxkb","msl000613","iti","img/motor_blank.png","null","72","motor","","","","","","",""
"932","","313441","HierDy86jg5a7j","b9s6l5fxkb","msl000613","motor","img/motor_1.png","65","65","motor","1","347","1","0","0","",""
"null","","313552","HierDy86jg5a7j","b9s6l5fxkb","msl000613","iti","img/motor_blank.png","null","65","motor","","","","","","",""
"458","","314020","HierDy86jg5a7j","b9s6l5fxkb","msl000613","motor","img/motor_4.png","70","70","motor","4","348","1","0","0","",""
"null","","314130","HierDy86jg5a7j","b9s6l5fxkb","msl000613","iti","img/motor_blank.png","null","70","motor","","","","","","",""
"524","","314663","HierDy86jg5a7j","b9s6l5fxkb","msl000613","motor","img/motor_6.png","75","74","motor","6","349","0","1","0","",""
"286","","314956","HierDy86jg5a7j","b9s6l5fxkb","msl000613","motorRepeat","img/motor_6.png","74","74","motor","6","349","1","0","0","",""
"null","","315067","HierDy86jg5a7j","b9s6l5fxkb","msl000613","iti","img/motor_blank.png","null","74","motor","","","","","","",""
"1796","","316873","HierDy86jg5a7j","b9s6l5fxkb","msl000613","motor","img/motor_2.png","83","83","motor","2","350","1","0","0","",""
"null","","316984","HierDy86jg5a7j","b9s6l5fxkb","msl000613","iti","img/motor_blank.png","null","83","motor","","","","","","",""
"536","","317530","HierDy86jg5a7j","b9s6l5fxkb","msl000613","motor","img/motor_8.png","76","76","motor","8","351","1","0","0","",""
"null","","317639","HierDy86jg5a7j","b9s6l5fxkb","msl000613","iti","img/motor_blank.png","null","76","motor","","","","","","",""
"523","","318171","HierDy86jg5a7j","b9s6l5fxkb","msl000613","motor","img/motor_5.png","72","72","motor","5","352","1","0","0","",""
"null","","318282","HierDy86jg5a7j","b9s6l5fxkb","msl000613","iti","img/motor_blank.png","null","72","motor","","","","","","",""
"571","","318864","HierDy86jg5a7j","b9s6l5fxkb","msl000613","motor","img/motor_4.png","70","70","motor","4","353","1","0","0","",""
"null","","318975","HierDy86jg5a7j","b9s6l5fxkb","msl000613","iti","img/motor_blank.png","null","70","motor","","","","","","",""
"607","","319592","HierDy86jg5a7j","b9s6l5fxkb","msl000613","motor","img/motor_2.png","83","83","motor","2","354","1","0","0","",""
"null","","319701","HierDy86jg5a7j","b9s6l5fxkb","msl000613","iti","img/motor_blank.png","null","83","motor","","","","","","",""
"970","","320679","HierDy86jg5a7j","b9s6l5fxkb","msl000613","motor","img/motor_6.png","74","74","motor","6","355","1","0","0","",""
"null","","320791","HierDy86jg5a7j","b9s6l5fxkb","msl000613","iti","img/motor_blank.png","null","74","motor","","","","","","",""
"466","","321268","HierDy86jg5a7j","b9s6l5fxkb","msl000613","motor","img/motor_4.png","70","70","motor","4","356","1","0","0","",""
"null","","321379","HierDy86jg5a7j","b9s6l5fxkb","msl000613","iti","img/motor_blank.png","null","70","motor","","","","","","",""
"592","","321980","HierDy86jg5a7j","b9s6l5fxkb","msl000613","motor","img/motor_2.png","83","83","motor","2","357","1","0","0","",""
"null","","322092","HierDy86jg5a7j","b9s6l5fxkb","msl000613","iti","img/motor_blank.png","null","83","motor","","","","","","",""
"484","","322584","HierDy86jg5a7j","b9s6l5fxkb","msl000613","motor","img/motor_6.png","75","74","motor","6","358","0","1","0","",""
"242","","322835","HierDy86jg5a7j","b9s6l5fxkb","msl000613","motorRepeat","img/motor_6.png","74","74","motor","6","358","1","0","0","",""
"null","","322945","HierDy86jg5a7j","b9s6l5fxkb","msl000613","iti","img/motor_blank.png","null","74","motor","","","","","","",""
"512","","323465","HierDy86jg5a7j","b9s6l5fxkb","msl000613","motor","img/motor_8.png","76","76","motor","8","359","1","0","0","",""
"null","","323576","HierDy86jg5a7j","b9s6l5fxkb","msl000613","iti","img/motor_blank.png","null","76","motor","","","","","","",""
"569","","324153","HierDy86jg5a7j","b9s6l5fxkb","msl000613","motor","img/motor_1.png","65","65","motor","1","360","1","0","0","",""
"null","","324265","HierDy86jg5a7j","b9s6l5fxkb","msl000613","iti","img/motor_blank.png","null","65","motor","","","","","","",""
"536","","324812","HierDy86jg5a7j","b9s6l5fxkb","msl000613","motor","img/motor_1.png","65","65","motor","1","361","1","0","0","",""
"null","","324923","HierDy86jg5a7j","b9s6l5fxkb","msl000613","iti","img/motor_blank.png","null","65","motor","","","","","","",""
"597","","325527","HierDy86jg5a7j","b9s6l5fxkb","msl000613","motor","img/motor_2.png","83","83","motor","2","362","1","0","0","",""
"null","","325638","HierDy86jg5a7j","b9s6l5fxkb","msl000613","iti","img/motor_blank.png","null","83","motor","","","","","","",""
"536","","326183","HierDy86jg5a7j","b9s6l5fxkb","msl000613","motor","img/motor_8.png","76","76","motor","8","363","1","0","0","",""
"null","","326295","HierDy86jg5a7j","b9s6l5fxkb","msl000613","iti","img/motor_blank.png","null","76","motor","","","","","","",""
"455","","326760","HierDy86jg5a7j","b9s6l5fxkb","msl000613","motor","img/motor_1.png","65","65","motor","1","364","1","0","0","",""
"null","","326871","HierDy86jg5a7j","b9s6l5fxkb","msl000613","iti","img/motor_blank.png","null","65","motor","","","","","","",""
"592","","327473","HierDy86jg5a7j","b9s6l5fxkb","msl000613","motor","img/motor_7.png","75","75","motor","7","365","1","0","0","",""
"null","","327584","HierDy86jg5a7j","b9s6l5fxkb","msl000613","iti","img/motor_blank.png","null","75","motor","","","","","","",""
"473","","328067","HierDy86jg5a7j","b9s6l5fxkb","msl000613","motor","img/motor_2.png","83","83","motor","2","366","1","0","0","",""
"null","","328177","HierDy86jg5a7j","b9s6l5fxkb","msl000613","iti","img/motor_blank.png","null","83","motor","","","","","","",""
"465","","328656","HierDy86jg5a7j","b9s6l5fxkb","msl000613","motor","img/motor_1.png","65","65","motor","1","367","1","0","0","",""
"null","","328769","HierDy86jg5a7j","b9s6l5fxkb","msl000613","iti","img/motor_blank.png","null","65","motor","","","","","","",""
