"rt","responses","time_elapsed","subject","prolificID","demoID","trialType","stimulus","key_press","corrresp","phase","stimNum","trialNum","corr","repeatTrial","motorSwitch","pracCounter","hierarchy"
"11091","{""Q0"":""msl000959""}","11148","HierDyt47xjesb","07hp8hkz1q","msl000959","","","","","","","","","","","",""
"703","","11858","HierDyt47xjesb","07hp8hkz1q","msl000959","","","","","","","","","","","",""
"","","14106","HierDyt47xjesb","07hp8hkz1q","msl000959","fullscreen","","","","","","","","","","",""
"58307","","72425","HierDyt47xjesb","07hp8hkz1q","msl000959","","","","","","","","","","","",""
"1187","","73621","HierDyt47xjesb","07hp8hkz1q","msl000959","motor","img/motor_3.png","68","68","motor","3","1","1","0","0","",""
"null","","73730","HierDyt47xjesb","07hp8hkz1q","msl000959","iti","img/motor_blank.png","null","68","motor","","","","","","",""
"520","","74258","HierDyt47xjesb","07hp8hkz1q","msl000959","motor","img/motor_4.png","70","70","motor","4","2","1","0","0","",""
"null","","74368","HierDyt47xjesb","07hp8hkz1q","msl000959","iti","img/motor_blank.png","null","70","motor","","","","","","",""
"606","","74981","HierDyt47xjesb","07hp8hkz1q","msl000959","motor","img/motor_7.png","75","75","motor","7","3","1","0","0","",""
"null","","75089","HierDyt47xjesb","07hp8hkz1q","msl000959","iti","img/motor_blank.png","null","75","motor","","","","","","",""
"495","","75596","HierDyt47xjesb","07hp8hkz1q","msl000959","motor","img/motor_7.png","75","75","motor","7","4","1","0","0","",""
"null","","75705","HierDyt47xjesb","07hp8hkz1q","msl000959","iti","img/motor_blank.png","null","75","motor","","","","","","",""
"532","","76245","HierDyt47xjesb","07hp8hkz1q","msl000959","motor","img/motor_5.png","72","72","motor","5","5","1","0","0","",""
"null","","76352","HierDyt47xjesb","07hp8hkz1q","msl000959","iti","img/motor_blank.png","null","72","motor","","","","","","",""
"523","","76882","HierDyt47xjesb","07hp8hkz1q","msl000959","motor","img/motor_3.png","68","68","motor","3","6","1","0","0","",""
"null","","76989","HierDyt47xjesb","07hp8hkz1q","msl000959","iti","img/motor_blank.png","null","68","motor","","","","","","",""
"538","","77533","HierDyt47xjesb","07hp8hkz1q","msl000959","motor","img/motor_6.png","74","74","motor","6","7","1","0","0","",""
"null","","77640","HierDyt47xjesb","07hp8hkz1q","msl000959","iti","img/motor_blank.png","null","74","motor","","","","","","",""
"490","","78136","HierDyt47xjesb","07hp8hkz1q","msl000959","motor","img/motor_4.png","70","70","motor","4","8","1","0","0","",""
"null","","78243","HierDyt47xjesb","07hp8hkz1q","msl000959","iti","img/motor_blank.png","null","70","motor","","","","","","",""
"438","","78687","HierDyt47xjesb","07hp8hkz1q","msl000959","motor","img/motor_5.png","72","72","motor","5","9","1","0","0","",""
"null","","78795","HierDyt47xjesb","07hp8hkz1q","msl000959","iti","img/motor_blank.png","null","72","motor","","","","","","",""
"448","","79251","HierDyt47xjesb","07hp8hkz1q","msl000959","motor","img/motor_6.png","74","74","motor","6","10","1","0","0","",""
"null","","79357","HierDyt47xjesb","07hp8hkz1q","msl000959","iti","img/motor_blank.png","null","74","motor","","","","","","",""
"478","","79841","HierDyt47xjesb","07hp8hkz1q","msl000959","motor","img/motor_8.png","76","76","motor","8","11","1","0","0","",""
"null","","79946","HierDyt47xjesb","07hp8hkz1q","msl000959","iti","img/motor_blank.png","null","76","motor","","","","","","",""
"466","","80417","HierDyt47xjesb","07hp8hkz1q","msl000959","motor","img/motor_4.png","70","70","motor","4","12","1","0","0","",""
"null","","80523","HierDyt47xjesb","07hp8hkz1q","msl000959","iti","img/motor_blank.png","null","70","motor","","","","","","",""
"486","","81016","HierDyt47xjesb","07hp8hkz1q","msl000959","motor","img/motor_4.png","70","70","motor","4","13","1","0","0","",""
"null","","81124","HierDyt47xjesb","07hp8hkz1q","msl000959","iti","img/motor_blank.png","null","70","motor","","","","","","",""
"488","","81618","HierDyt47xjesb","07hp8hkz1q","msl000959","motor","img/motor_1.png","65","65","motor","1","14","1","0","0","",""
"null","","81726","HierDyt47xjesb","07hp8hkz1q","msl000959","iti","img/motor_blank.png","null","65","motor","","","","","","",""
"624","","82356","HierDyt47xjesb","07hp8hkz1q","msl000959","motor","img/motor_6.png","72","74","motor","6","15","0","1","0","",""
"531","","82893","HierDyt47xjesb","07hp8hkz1q","msl000959","motorRepeat","img/motor_6.png","74","74","motor","6","15","1","0","0","",""
"null","","83001","HierDyt47xjesb","07hp8hkz1q","msl000959","iti","img/motor_blank.png","null","74","motor","","","","","","",""
"485","","83493","HierDyt47xjesb","07hp8hkz1q","msl000959","motor","img/motor_8.png","76","76","motor","8","16","1","0","0","",""
"null","","83599","HierDyt47xjesb","07hp8hkz1q","msl000959","iti","img/motor_blank.png","null","76","motor","","","","","","",""
"568","","84174","HierDyt47xjesb","07hp8hkz1q","msl000959","motor","img/motor_2.png","83","83","motor","2","17","1","0","0","",""
"null","","84280","HierDyt47xjesb","07hp8hkz1q","msl000959","iti","img/motor_blank.png","null","83","motor","","","","","","",""
"430","","84718","HierDyt47xjesb","07hp8hkz1q","msl000959","motor","img/motor_3.png","68","68","motor","3","18","1","0","0","",""
"null","","84827","HierDyt47xjesb","07hp8hkz1q","msl000959","iti","img/motor_blank.png","null","68","motor","","","","","","",""
"464","","85297","HierDyt47xjesb","07hp8hkz1q","msl000959","motor","img/motor_1.png","65","65","motor","1","19","1","0","0","",""
"null","","85404","HierDyt47xjesb","07hp8hkz1q","msl000959","iti","img/motor_blank.png","null","65","motor","","","","","","",""
"422","","85834","HierDyt47xjesb","07hp8hkz1q","msl000959","motor","img/motor_4.png","70","70","motor","4","20","1","0","0","",""
"null","","85940","HierDyt47xjesb","07hp8hkz1q","msl000959","iti","img/motor_blank.png","null","70","motor","","","","","","",""
"620","","86567","HierDyt47xjesb","07hp8hkz1q","msl000959","motor","img/motor_6.png","74","74","motor","6","21","1","0","0","",""
"null","","86673","HierDyt47xjesb","07hp8hkz1q","msl000959","iti","img/motor_blank.png","null","74","motor","","","","","","",""
"359","","87042","HierDyt47xjesb","07hp8hkz1q","msl000959","motor","img/motor_7.png","75","75","motor","7","22","1","0","0","",""
"null","","87148","HierDyt47xjesb","07hp8hkz1q","msl000959","iti","img/motor_blank.png","null","75","motor","","","","","","",""
"466","","87621","HierDyt47xjesb","07hp8hkz1q","msl000959","motor","img/motor_1.png","65","65","motor","1","23","1","0","0","",""
"null","","87727","HierDyt47xjesb","07hp8hkz1q","msl000959","iti","img/motor_blank.png","null","65","motor","","","","","","",""
"477","","88210","HierDyt47xjesb","07hp8hkz1q","msl000959","motor","img/motor_1.png","65","65","motor","1","24","1","0","0","",""
"null","","88318","HierDyt47xjesb","07hp8hkz1q","msl000959","iti","img/motor_blank.png","null","65","motor","","","","","","",""
"511","","88838","HierDyt47xjesb","07hp8hkz1q","msl000959","motor","img/motor_3.png","68","68","motor","3","25","1","0","0","",""
"null","","88944","HierDyt47xjesb","07hp8hkz1q","msl000959","iti","img/motor_blank.png","null","68","motor","","","","","","",""
"364","","89314","HierDyt47xjesb","07hp8hkz1q","msl000959","motor","img/motor_4.png","70","70","motor","4","26","1","0","0","",""
"null","","89422","HierDyt47xjesb","07hp8hkz1q","msl000959","iti","img/motor_blank.png","null","70","motor","","","","","","",""
"575","","90003","HierDyt47xjesb","07hp8hkz1q","msl000959","motor","img/motor_2.png","83","83","motor","2","27","1","0","0","",""
"null","","90110","HierDyt47xjesb","07hp8hkz1q","msl000959","iti","img/motor_blank.png","null","83","motor","","","","","","",""
"442","","90558","HierDyt47xjesb","07hp8hkz1q","msl000959","motor","img/motor_5.png","72","72","motor","5","28","1","0","0","",""
"null","","90666","HierDyt47xjesb","07hp8hkz1q","msl000959","iti","img/motor_blank.png","null","72","motor","","","","","","",""
"469","","91142","HierDyt47xjesb","07hp8hkz1q","msl000959","motor","img/motor_1.png","65","65","motor","1","29","1","0","0","",""
"null","","91249","HierDyt47xjesb","07hp8hkz1q","msl000959","iti","img/motor_blank.png","null","65","motor","","","","","","",""
"506","","91762","HierDyt47xjesb","07hp8hkz1q","msl000959","motor","img/motor_2.png","83","83","motor","2","30","1","0","0","",""
"null","","91870","HierDyt47xjesb","07hp8hkz1q","msl000959","iti","img/motor_blank.png","null","83","motor","","","","","","",""
"401","","92276","HierDyt47xjesb","07hp8hkz1q","msl000959","motor","img/motor_4.png","70","70","motor","4","31","1","0","0","",""
"null","","92384","HierDyt47xjesb","07hp8hkz1q","msl000959","iti","img/motor_blank.png","null","70","motor","","","","","","",""
"440","","92831","HierDyt47xjesb","07hp8hkz1q","msl000959","motor","img/motor_6.png","74","74","motor","6","32","1","0","0","",""
"null","","92939","HierDyt47xjesb","07hp8hkz1q","msl000959","iti","img/motor_blank.png","null","74","motor","","","","","","",""
"493","","93438","HierDyt47xjesb","07hp8hkz1q","msl000959","motor","img/motor_3.png","68","68","motor","3","33","1","0","0","",""
"null","","93546","HierDyt47xjesb","07hp8hkz1q","msl000959","iti","img/motor_blank.png","null","68","motor","","","","","","",""
"469","","94021","HierDyt47xjesb","07hp8hkz1q","msl000959","motor","img/motor_2.png","83","83","motor","2","34","1","0","0","",""
"null","","94129","HierDyt47xjesb","07hp8hkz1q","msl000959","iti","img/motor_blank.png","null","83","motor","","","","","","",""
"489","","94625","HierDyt47xjesb","07hp8hkz1q","msl000959","motor","img/motor_5.png","72","72","motor","5","35","1","0","0","",""
"null","","94732","HierDyt47xjesb","07hp8hkz1q","msl000959","iti","img/motor_blank.png","null","72","motor","","","","","","",""
"466","","95205","HierDyt47xjesb","07hp8hkz1q","msl000959","motor","img/motor_3.png","68","68","motor","3","36","1","0","0","",""
"null","","95312","HierDyt47xjesb","07hp8hkz1q","msl000959","iti","img/motor_blank.png","null","68","motor","","","","","","",""
"423","","95741","HierDyt47xjesb","07hp8hkz1q","msl000959","motor","img/motor_1.png","65","65","motor","1","37","1","0","0","",""
"null","","95849","HierDyt47xjesb","07hp8hkz1q","msl000959","iti","img/motor_blank.png","null","65","motor","","","","","","",""
"460","","96317","HierDyt47xjesb","07hp8hkz1q","msl000959","motor","img/motor_1.png","65","65","motor","1","38","1","0","0","",""
"null","","96423","HierDyt47xjesb","07hp8hkz1q","msl000959","iti","img/motor_blank.png","null","65","motor","","","","","","",""
"423","","96853","HierDyt47xjesb","07hp8hkz1q","msl000959","motor","img/motor_4.png","70","70","motor","4","39","1","0","0","",""
"null","","96960","HierDyt47xjesb","07hp8hkz1q","msl000959","iti","img/motor_blank.png","null","70","motor","","","","","","",""
"402","","97369","HierDyt47xjesb","07hp8hkz1q","msl000959","motor","img/motor_5.png","72","72","motor","5","40","1","0","0","",""
"null","","97476","HierDyt47xjesb","07hp8hkz1q","msl000959","iti","img/motor_blank.png","null","72","motor","","","","","","",""
"429","","97911","HierDyt47xjesb","07hp8hkz1q","msl000959","motor","img/motor_1.png","65","65","motor","1","41","1","0","0","",""
"null","","98018","HierDyt47xjesb","07hp8hkz1q","msl000959","iti","img/motor_blank.png","null","65","motor","","","","","","",""
"354","","98378","HierDyt47xjesb","07hp8hkz1q","msl000959","motor","img/motor_4.png","70","70","motor","4","42","1","0","0","",""
"null","","98485","HierDyt47xjesb","07hp8hkz1q","msl000959","iti","img/motor_blank.png","null","70","motor","","","","","","",""
"494","","98986","HierDyt47xjesb","07hp8hkz1q","msl000959","motor","img/motor_6.png","74","74","motor","6","43","1","0","0","",""
"null","","99094","HierDyt47xjesb","07hp8hkz1q","msl000959","iti","img/motor_blank.png","null","74","motor","","","","","","",""
"386","","99486","HierDyt47xjesb","07hp8hkz1q","msl000959","motor","img/motor_7.png","74","75","motor","7","44","0","1","0","",""
"344","","99838","HierDyt47xjesb","07hp8hkz1q","msl000959","motorRepeat","img/motor_7.png","75","75","motor","7","44","1","0","0","",""
"null","","99945","HierDyt47xjesb","07hp8hkz1q","msl000959","iti","img/motor_blank.png","null","75","motor","","","","","","",""
"534","","100485","HierDyt47xjesb","07hp8hkz1q","msl000959","motor","img/motor_4.png","70","70","motor","4","45","1","0","0","",""
"null","","100593","HierDyt47xjesb","07hp8hkz1q","msl000959","iti","img/motor_blank.png","null","70","motor","","","","","","",""
"608","","101208","HierDyt47xjesb","07hp8hkz1q","msl000959","motor","img/motor_6.png","74","74","motor","6","46","1","0","0","",""
"null","","101315","HierDyt47xjesb","07hp8hkz1q","msl000959","iti","img/motor_blank.png","null","74","motor","","","","","","",""
"492","","101815","HierDyt47xjesb","07hp8hkz1q","msl000959","motor","img/motor_4.png","70","70","motor","4","47","1","0","0","",""
"null","","101922","HierDyt47xjesb","07hp8hkz1q","msl000959","iti","img/motor_blank.png","null","70","motor","","","","","","",""
"433","","102362","HierDyt47xjesb","07hp8hkz1q","msl000959","motor","img/motor_7.png","75","75","motor","7","48","1","0","0","",""
"null","","102469","HierDyt47xjesb","07hp8hkz1q","msl000959","iti","img/motor_blank.png","null","75","motor","","","","","","",""
"440","","102914","HierDyt47xjesb","07hp8hkz1q","msl000959","motor","img/motor_8.png","76","76","motor","8","49","1","0","0","",""
"null","","103021","HierDyt47xjesb","07hp8hkz1q","msl000959","iti","img/motor_blank.png","null","76","motor","","","","","","",""
"623","","103652","HierDyt47xjesb","07hp8hkz1q","msl000959","motor","img/motor_6.png","74","74","motor","6","50","1","0","0","",""
"null","","103759","HierDyt47xjesb","07hp8hkz1q","msl000959","iti","img/motor_blank.png","null","74","motor","","","","","","",""
"451","","104215","HierDyt47xjesb","07hp8hkz1q","msl000959","motor","img/motor_4.png","70","70","motor","4","51","1","0","0","",""
"null","","104322","HierDyt47xjesb","07hp8hkz1q","msl000959","iti","img/motor_blank.png","null","70","motor","","","","","","",""
"433","","104761","HierDyt47xjesb","07hp8hkz1q","msl000959","motor","img/motor_5.png","72","72","motor","5","52","1","0","0","",""
"null","","104869","HierDyt47xjesb","07hp8hkz1q","msl000959","iti","img/motor_blank.png","null","72","motor","","","","","","",""
"646","","105521","HierDyt47xjesb","07hp8hkz1q","msl000959","motor","img/motor_2.png","83","83","motor","2","53","1","0","0","",""
"null","","105628","HierDyt47xjesb","07hp8hkz1q","msl000959","iti","img/motor_blank.png","null","83","motor","","","","","","",""
"473","","106106","HierDyt47xjesb","07hp8hkz1q","msl000959","motor","img/motor_2.png","83","83","motor","2","54","1","0","0","",""
"null","","106214","HierDyt47xjesb","07hp8hkz1q","msl000959","iti","img/motor_blank.png","null","83","motor","","","","","","",""
"469","","106689","HierDyt47xjesb","07hp8hkz1q","msl000959","motor","img/motor_5.png","72","72","motor","5","55","1","0","0","",""
"null","","106795","HierDyt47xjesb","07hp8hkz1q","msl000959","iti","img/motor_blank.png","null","72","motor","","","","","","",""
"435","","107237","HierDyt47xjesb","07hp8hkz1q","msl000959","motor","img/motor_8.png","76","76","motor","8","56","1","0","0","",""
"null","","107344","HierDyt47xjesb","07hp8hkz1q","msl000959","iti","img/motor_blank.png","null","76","motor","","","","","","",""
"498","","107848","HierDyt47xjesb","07hp8hkz1q","msl000959","motor","img/motor_3.png","68","68","motor","3","57","1","0","0","",""
"null","","107954","HierDyt47xjesb","07hp8hkz1q","msl000959","iti","img/motor_blank.png","null","68","motor","","","","","","",""
"466","","108426","HierDyt47xjesb","07hp8hkz1q","msl000959","motor","img/motor_6.png","74","74","motor","6","58","1","0","0","",""
"null","","108534","HierDyt47xjesb","07hp8hkz1q","msl000959","iti","img/motor_blank.png","null","74","motor","","","","","","",""
"458","","108999","HierDyt47xjesb","07hp8hkz1q","msl000959","motor","img/motor_5.png","72","72","motor","5","59","1","0","0","",""
"null","","109105","HierDyt47xjesb","07hp8hkz1q","msl000959","iti","img/motor_blank.png","null","72","motor","","","","","","",""
"410","","109520","HierDyt47xjesb","07hp8hkz1q","msl000959","motor","img/motor_7.png","75","75","motor","7","60","1","0","0","",""
"null","","109627","HierDyt47xjesb","07hp8hkz1q","msl000959","iti","img/motor_blank.png","null","75","motor","","","","","","",""
"387","","110021","HierDyt47xjesb","07hp8hkz1q","msl000959","motor","img/motor_5.png","72","72","motor","5","61","1","0","0","",""
"null","","110128","HierDyt47xjesb","07hp8hkz1q","msl000959","iti","img/motor_blank.png","null","72","motor","","","","","","",""
"439","","110574","HierDyt47xjesb","07hp8hkz1q","msl000959","motor","img/motor_1.png","65","65","motor","1","62","1","0","0","",""
"null","","110682","HierDyt47xjesb","07hp8hkz1q","msl000959","iti","img/motor_blank.png","null","65","motor","","","","","","",""
"433","","111123","HierDyt47xjesb","07hp8hkz1q","msl000959","motor","img/motor_2.png","83","83","motor","2","63","1","0","0","",""
"null","","111230","HierDyt47xjesb","07hp8hkz1q","msl000959","iti","img/motor_blank.png","null","83","motor","","","","","","",""
"408","","111644","HierDyt47xjesb","07hp8hkz1q","msl000959","motor","img/motor_5.png","72","72","motor","5","64","1","0","0","",""
"null","","111753","HierDyt47xjesb","07hp8hkz1q","msl000959","iti","img/motor_blank.png","null","72","motor","","","","","","",""
"442","","112200","HierDyt47xjesb","07hp8hkz1q","msl000959","motor","img/motor_1.png","65","65","motor","1","65","1","0","0","",""
"null","","112309","HierDyt47xjesb","07hp8hkz1q","msl000959","iti","img/motor_blank.png","null","65","motor","","","","","","",""
"473","","112788","HierDyt47xjesb","07hp8hkz1q","msl000959","motor","img/motor_3.png","68","68","motor","3","66","1","0","0","",""
"null","","112894","HierDyt47xjesb","07hp8hkz1q","msl000959","iti","img/motor_blank.png","null","68","motor","","","","","","",""
"504","","113405","HierDyt47xjesb","07hp8hkz1q","msl000959","motor","img/motor_2.png","83","83","motor","2","67","1","0","0","",""
"null","","113512","HierDyt47xjesb","07hp8hkz1q","msl000959","iti","img/motor_blank.png","null","83","motor","","","","","","",""
"437","","113956","HierDyt47xjesb","07hp8hkz1q","msl000959","motor","img/motor_6.png","74","74","motor","6","68","1","0","0","",""
"null","","114063","HierDyt47xjesb","07hp8hkz1q","msl000959","iti","img/motor_blank.png","null","74","motor","","","","","","",""
"533","","114604","HierDyt47xjesb","07hp8hkz1q","msl000959","motor","img/motor_1.png","65","65","motor","1","69","1","0","0","",""
"null","","114710","HierDyt47xjesb","07hp8hkz1q","msl000959","iti","img/motor_blank.png","null","65","motor","","","","","","",""
"425","","115142","HierDyt47xjesb","07hp8hkz1q","msl000959","motor","img/motor_8.png","76","76","motor","8","70","1","0","0","",""
"null","","115249","HierDyt47xjesb","07hp8hkz1q","msl000959","iti","img/motor_blank.png","null","76","motor","","","","","","",""
"474","","115729","HierDyt47xjesb","07hp8hkz1q","msl000959","motor","img/motor_8.png","76","76","motor","8","71","1","0","0","",""
"null","","115837","HierDyt47xjesb","07hp8hkz1q","msl000959","iti","img/motor_blank.png","null","76","motor","","","","","","",""
"553","","116396","HierDyt47xjesb","07hp8hkz1q","msl000959","motor","img/motor_4.png","70","70","motor","4","72","1","0","0","",""
"null","","116504","HierDyt47xjesb","07hp8hkz1q","msl000959","iti","img/motor_blank.png","null","70","motor","","","","","","",""
"515","","117025","HierDyt47xjesb","07hp8hkz1q","msl000959","motor","img/motor_7.png","75","75","motor","7","73","1","0","0","",""
"null","","117132","HierDyt47xjesb","07hp8hkz1q","msl000959","iti","img/motor_blank.png","null","75","motor","","","","","","",""
"518","","117656","HierDyt47xjesb","07hp8hkz1q","msl000959","motor","img/motor_1.png","65","65","motor","1","74","1","0","0","",""
"null","","117762","HierDyt47xjesb","07hp8hkz1q","msl000959","iti","img/motor_blank.png","null","65","motor","","","","","","",""
"424","","118194","HierDyt47xjesb","07hp8hkz1q","msl000959","motor","img/motor_8.png","76","76","motor","8","75","1","0","0","",""
"null","","118301","HierDyt47xjesb","07hp8hkz1q","msl000959","iti","img/motor_blank.png","null","76","motor","","","","","","",""
"417","","118722","HierDyt47xjesb","07hp8hkz1q","msl000959","motor","img/motor_8.png","76","76","motor","8","76","1","0","0","",""
"null","","118828","HierDyt47xjesb","07hp8hkz1q","msl000959","iti","img/motor_blank.png","null","76","motor","","","","","","",""
"486","","119322","HierDyt47xjesb","07hp8hkz1q","msl000959","motor","img/motor_4.png","70","70","motor","4","77","1","0","0","",""
"null","","119429","HierDyt47xjesb","07hp8hkz1q","msl000959","iti","img/motor_blank.png","null","70","motor","","","","","","",""
"344","","119779","HierDyt47xjesb","07hp8hkz1q","msl000959","motor","img/motor_8.png","76","76","motor","8","78","1","0","0","",""
"null","","119886","HierDyt47xjesb","07hp8hkz1q","msl000959","iti","img/motor_blank.png","null","76","motor","","","","","","",""
"385","","120276","HierDyt47xjesb","07hp8hkz1q","msl000959","motor","img/motor_4.png","70","70","motor","4","79","1","0","0","",""
"null","","120384","HierDyt47xjesb","07hp8hkz1q","msl000959","iti","img/motor_blank.png","null","70","motor","","","","","","",""
"333","","120723","HierDyt47xjesb","07hp8hkz1q","msl000959","motor","img/motor_8.png","76","76","motor","8","80","1","0","0","",""
"null","","120830","HierDyt47xjesb","07hp8hkz1q","msl000959","iti","img/motor_blank.png","null","76","motor","","","","","","",""
"402","","121239","HierDyt47xjesb","07hp8hkz1q","msl000959","motor","img/motor_1.png","65","65","motor","1","81","1","0","0","",""
"null","","121347","HierDyt47xjesb","07hp8hkz1q","msl000959","iti","img/motor_blank.png","null","65","motor","","","","","","",""
"591","","121943","HierDyt47xjesb","07hp8hkz1q","msl000959","motor","img/motor_7.png","75","75","motor","7","82","1","0","0","",""
"null","","122051","HierDyt47xjesb","07hp8hkz1q","msl000959","iti","img/motor_blank.png","null","75","motor","","","","","","",""
"386","","122444","HierDyt47xjesb","07hp8hkz1q","msl000959","motor","img/motor_4.png","70","70","motor","4","83","1","0","0","",""
"null","","122552","HierDyt47xjesb","07hp8hkz1q","msl000959","iti","img/motor_blank.png","null","70","motor","","","","","","",""
"363","","122921","HierDyt47xjesb","07hp8hkz1q","msl000959","motor","img/motor_6.png","72","74","motor","6","84","0","1","0","",""
"314","","123242","HierDyt47xjesb","07hp8hkz1q","msl000959","motorRepeat","img/motor_6.png","74","74","motor","6","84","1","0","0","",""
"null","","123350","HierDyt47xjesb","07hp8hkz1q","msl000959","iti","img/motor_blank.png","null","74","motor","","","","","","",""
"381","","123738","HierDyt47xjesb","07hp8hkz1q","msl000959","motor","img/motor_8.png","76","76","motor","8","85","1","0","0","",""
"null","","123846","HierDyt47xjesb","07hp8hkz1q","msl000959","iti","img/motor_blank.png","null","76","motor","","","","","","",""
"469","","124321","HierDyt47xjesb","07hp8hkz1q","msl000959","motor","img/motor_7.png","75","75","motor","7","86","1","0","0","",""
"null","","124428","HierDyt47xjesb","07hp8hkz1q","msl000959","iti","img/motor_blank.png","null","75","motor","","","","","","",""
"410","","124845","HierDyt47xjesb","07hp8hkz1q","msl000959","motor","img/motor_1.png","65","65","motor","1","87","1","0","0","",""
"null","","124952","HierDyt47xjesb","07hp8hkz1q","msl000959","iti","img/motor_blank.png","null","65","motor","","","","","","",""
"546","","125505","HierDyt47xjesb","07hp8hkz1q","msl000959","motor","img/motor_5.png","72","72","motor","5","88","1","0","0","",""
"null","","125612","HierDyt47xjesb","07hp8hkz1q","msl000959","iti","img/motor_blank.png","null","72","motor","","","","","","",""
"679","","126298","HierDyt47xjesb","07hp8hkz1q","msl000959","motor","img/motor_7.png","75","75","motor","7","89","1","0","0","",""
"null","","126405","HierDyt47xjesb","07hp8hkz1q","msl000959","iti","img/motor_blank.png","null","75","motor","","","","","","",""
"411","","126822","HierDyt47xjesb","07hp8hkz1q","msl000959","motor","img/motor_8.png","76","76","motor","8","90","1","0","0","",""
"null","","126930","HierDyt47xjesb","07hp8hkz1q","msl000959","iti","img/motor_blank.png","null","76","motor","","","","","","",""
"541","","127478","HierDyt47xjesb","07hp8hkz1q","msl000959","motor","img/motor_6.png","74","74","motor","6","91","1","0","0","",""
"null","","127585","HierDyt47xjesb","07hp8hkz1q","msl000959","iti","img/motor_blank.png","null","74","motor","","","","","","",""
"176","","127769","HierDyt47xjesb","07hp8hkz1q","msl000959","motor","img/motor_8.png","72","76","motor","8","92","0","1","0","",""
"431","","128206","HierDyt47xjesb","07hp8hkz1q","msl000959","motorRepeat","img/motor_8.png","76","76","motor","8","92","1","0","0","",""
"null","","128313","HierDyt47xjesb","07hp8hkz1q","msl000959","iti","img/motor_blank.png","null","76","motor","","","","","","",""
"494","","128815","HierDyt47xjesb","07hp8hkz1q","msl000959","motor","img/motor_4.png","70","70","motor","4","93","1","0","0","",""
"null","","128922","HierDyt47xjesb","07hp8hkz1q","msl000959","iti","img/motor_blank.png","null","70","motor","","","","","","",""
"639","","129567","HierDyt47xjesb","07hp8hkz1q","msl000959","motor","img/motor_2.png","83","83","motor","2","94","1","0","0","",""
"null","","129674","HierDyt47xjesb","07hp8hkz1q","msl000959","iti","img/motor_blank.png","null","83","motor","","","","","","",""
"388","","130069","HierDyt47xjesb","07hp8hkz1q","msl000959","motor","img/motor_2.png","83","83","motor","2","95","1","0","0","",""
"null","","130176","HierDyt47xjesb","07hp8hkz1q","msl000959","iti","img/motor_blank.png","null","83","motor","","","","","","",""
"540","","130722","HierDyt47xjesb","07hp8hkz1q","msl000959","motor","img/motor_3.png","68","68","motor","3","96","1","0","0","",""
"null","","130830","HierDyt47xjesb","07hp8hkz1q","msl000959","iti","img/motor_blank.png","null","68","motor","","","","","","",""
"466","","131303","HierDyt47xjesb","07hp8hkz1q","msl000959","motor","img/motor_7.png","74","75","motor","7","97","0","1","0","",""
"260","","131569","HierDyt47xjesb","07hp8hkz1q","msl000959","motorRepeat","img/motor_7.png","75","75","motor","7","97","1","0","0","",""
"null","","131678","HierDyt47xjesb","07hp8hkz1q","msl000959","iti","img/motor_blank.png","null","75","motor","","","","","","",""
"662","","132347","HierDyt47xjesb","07hp8hkz1q","msl000959","motor","img/motor_3.png","68","68","motor","3","98","1","0","0","",""
"null","","132454","HierDyt47xjesb","07hp8hkz1q","msl000959","iti","img/motor_blank.png","null","68","motor","","","","","","",""
"383","","132844","HierDyt47xjesb","07hp8hkz1q","msl000959","motor","img/motor_7.png","75","75","motor","7","99","1","0","0","",""
"null","","132951","HierDyt47xjesb","07hp8hkz1q","msl000959","iti","img/motor_blank.png","null","75","motor","","","","","","",""
"569","","133527","HierDyt47xjesb","07hp8hkz1q","msl000959","motor","img/motor_6.png","74","74","motor","6","100","1","0","0","",""
"null","","133634","HierDyt47xjesb","07hp8hkz1q","msl000959","iti","img/motor_blank.png","null","74","motor","","","","","","",""
"464","","134105","HierDyt47xjesb","07hp8hkz1q","msl000959","motor","img/motor_3.png","68","68","motor","3","101","1","0","0","",""
"null","","134213","HierDyt47xjesb","07hp8hkz1q","msl000959","iti","img/motor_blank.png","null","68","motor","","","","","","",""
"562","","134781","HierDyt47xjesb","07hp8hkz1q","msl000959","motor","img/motor_2.png","83","83","motor","2","102","1","0","0","",""
"null","","134889","HierDyt47xjesb","07hp8hkz1q","msl000959","iti","img/motor_blank.png","null","83","motor","","","","","","",""
"524","","135423","HierDyt47xjesb","07hp8hkz1q","msl000959","motor","img/motor_7.png","75","75","motor","7","103","1","0","0","",""
"null","","135531","HierDyt47xjesb","07hp8hkz1q","msl000959","iti","img/motor_blank.png","null","75","motor","","","","","","",""
"432","","135974","HierDyt47xjesb","07hp8hkz1q","msl000959","motor","img/motor_4.png","70","70","motor","4","104","1","0","0","",""
"null","","136082","HierDyt47xjesb","07hp8hkz1q","msl000959","iti","img/motor_blank.png","null","70","motor","","","","","","",""
"490","","136579","HierDyt47xjesb","07hp8hkz1q","msl000959","motor","img/motor_8.png","76","76","motor","8","105","1","0","0","",""
"null","","136688","HierDyt47xjesb","07hp8hkz1q","msl000959","iti","img/motor_blank.png","null","76","motor","","","","","","",""
"529","","137224","HierDyt47xjesb","07hp8hkz1q","msl000959","motor","img/motor_3.png","68","68","motor","3","106","1","0","0","",""
"null","","137331","HierDyt47xjesb","07hp8hkz1q","msl000959","iti","img/motor_blank.png","null","68","motor","","","","","","",""
"470","","137809","HierDyt47xjesb","07hp8hkz1q","msl000959","motor","img/motor_7.png","75","75","motor","7","107","1","0","0","",""
"null","","137917","HierDyt47xjesb","07hp8hkz1q","msl000959","iti","img/motor_blank.png","null","75","motor","","","","","","",""
"402","","138324","HierDyt47xjesb","07hp8hkz1q","msl000959","motor","img/motor_6.png","74","74","motor","6","108","1","0","0","",""
"null","","138431","HierDyt47xjesb","07hp8hkz1q","msl000959","iti","img/motor_blank.png","null","74","motor","","","","","","",""
"438","","138878","HierDyt47xjesb","07hp8hkz1q","msl000959","motor","img/motor_3.png","68","68","motor","3","109","1","0","0","",""
"null","","138985","HierDyt47xjesb","07hp8hkz1q","msl000959","iti","img/motor_blank.png","null","68","motor","","","","","","",""
"449","","139438","HierDyt47xjesb","07hp8hkz1q","msl000959","motor","img/motor_2.png","83","83","motor","2","110","1","0","0","",""
"null","","139546","HierDyt47xjesb","07hp8hkz1q","msl000959","iti","img/motor_blank.png","null","83","motor","","","","","","",""
"460","","140016","HierDyt47xjesb","07hp8hkz1q","msl000959","motor","img/motor_4.png","70","70","motor","4","111","1","0","0","",""
"null","","140125","HierDyt47xjesb","07hp8hkz1q","msl000959","iti","img/motor_blank.png","null","70","motor","","","","","","",""
"417","","140549","HierDyt47xjesb","07hp8hkz1q","msl000959","motor","img/motor_8.png","76","76","motor","8","112","1","0","0","",""
"null","","140657","HierDyt47xjesb","07hp8hkz1q","msl000959","iti","img/motor_blank.png","null","76","motor","","","","","","",""
"425","","141091","HierDyt47xjesb","07hp8hkz1q","msl000959","motor","img/motor_6.png","74","74","motor","6","113","1","0","0","",""
"null","","141199","HierDyt47xjesb","07hp8hkz1q","msl000959","iti","img/motor_blank.png","null","74","motor","","","","","","",""
"597","","141805","HierDyt47xjesb","07hp8hkz1q","msl000959","motor","img/motor_2.png","83","83","motor","2","114","1","0","0","",""
"null","","141913","HierDyt47xjesb","07hp8hkz1q","msl000959","iti","img/motor_blank.png","null","83","motor","","","","","","",""
"389","","142309","HierDyt47xjesb","07hp8hkz1q","msl000959","motor","img/motor_1.png","65","65","motor","1","115","1","0","0","",""
"null","","142417","HierDyt47xjesb","07hp8hkz1q","msl000959","iti","img/motor_blank.png","null","65","motor","","","","","","",""
"523","","142948","HierDyt47xjesb","07hp8hkz1q","msl000959","motor","img/motor_2.png","83","83","motor","2","116","1","0","0","",""
"null","","143055","HierDyt47xjesb","07hp8hkz1q","msl000959","iti","img/motor_blank.png","null","83","motor","","","","","","",""
"363","","143424","HierDyt47xjesb","07hp8hkz1q","msl000959","motor","img/motor_3.png","68","68","motor","3","117","1","0","0","",""
"null","","143529","HierDyt47xjesb","07hp8hkz1q","msl000959","iti","img/motor_blank.png","null","68","motor","","","","","","",""
"335","","143870","HierDyt47xjesb","07hp8hkz1q","msl000959","motor","img/motor_4.png","70","70","motor","4","118","1","0","0","",""
"null","","143977","HierDyt47xjesb","07hp8hkz1q","msl000959","iti","img/motor_blank.png","null","70","motor","","","","","","",""
"484","","144467","HierDyt47xjesb","07hp8hkz1q","msl000959","motor","img/motor_2.png","83","83","motor","2","119","1","0","0","",""
"null","","144574","HierDyt47xjesb","07hp8hkz1q","msl000959","iti","img/motor_blank.png","null","83","motor","","","","","","",""
"389","","144969","HierDyt47xjesb","07hp8hkz1q","msl000959","motor","img/motor_1.png","65","65","motor","1","120","1","0","0","",""
"null","","145076","HierDyt47xjesb","07hp8hkz1q","msl000959","iti","img/motor_blank.png","null","65","motor","","","","","","",""
"444","","145526","HierDyt47xjesb","07hp8hkz1q","msl000959","motor","img/motor_2.png","83","83","motor","2","121","1","0","0","",""
"null","","145635","HierDyt47xjesb","07hp8hkz1q","msl000959","iti","img/motor_blank.png","null","83","motor","","","","","","",""
"422","","146064","HierDyt47xjesb","07hp8hkz1q","msl000959","motor","img/motor_7.png","75","75","motor","7","122","1","0","0","",""
"null","","146171","HierDyt47xjesb","07hp8hkz1q","msl000959","iti","img/motor_blank.png","null","75","motor","","","","","","",""
"609","","146787","HierDyt47xjesb","07hp8hkz1q","msl000959","motor","img/motor_2.png","83","83","motor","2","123","1","0","0","",""
"null","","146894","HierDyt47xjesb","07hp8hkz1q","msl000959","iti","img/motor_blank.png","null","83","motor","","","","","","",""
"394","","147295","HierDyt47xjesb","07hp8hkz1q","msl000959","motor","img/motor_8.png","76","76","motor","8","124","1","0","0","",""
"null","","147401","HierDyt47xjesb","07hp8hkz1q","msl000959","iti","img/motor_blank.png","null","76","motor","","","","","","",""
"559","","147968","HierDyt47xjesb","07hp8hkz1q","msl000959","motor","img/motor_3.png","68","68","motor","3","125","1","0","0","",""
"null","","148074","HierDyt47xjesb","07hp8hkz1q","msl000959","iti","img/motor_blank.png","null","68","motor","","","","","","",""
"397","","148479","HierDyt47xjesb","07hp8hkz1q","msl000959","motor","img/motor_8.png","76","76","motor","8","126","1","0","0","",""
"null","","148586","HierDyt47xjesb","07hp8hkz1q","msl000959","iti","img/motor_blank.png","null","76","motor","","","","","","",""
"452","","149045","HierDyt47xjesb","07hp8hkz1q","msl000959","motor","img/motor_5.png","72","72","motor","5","127","1","0","0","",""
"null","","149152","HierDyt47xjesb","07hp8hkz1q","msl000959","iti","img/motor_blank.png","null","72","motor","","","","","","",""
"448","","149608","HierDyt47xjesb","07hp8hkz1q","msl000959","motor","img/motor_3.png","68","68","motor","3","128","1","0","0","",""
"null","","149715","HierDyt47xjesb","07hp8hkz1q","msl000959","iti","img/motor_blank.png","null","68","motor","","","","","","",""
"483","","150204","HierDyt47xjesb","07hp8hkz1q","msl000959","motor","img/motor_3.png","68","68","motor","3","129","1","0","0","",""
"null","","150310","HierDyt47xjesb","07hp8hkz1q","msl000959","iti","img/motor_blank.png","null","68","motor","","","","","","",""
"505","","150822","HierDyt47xjesb","07hp8hkz1q","msl000959","motor","img/motor_6.png","74","74","motor","6","130","1","0","0","",""
"null","","150928","HierDyt47xjesb","07hp8hkz1q","msl000959","iti","img/motor_blank.png","null","74","motor","","","","","","",""
"427","","151361","HierDyt47xjesb","07hp8hkz1q","msl000959","motor","img/motor_6.png","74","74","motor","6","131","1","0","0","",""
"null","","151468","HierDyt47xjesb","07hp8hkz1q","msl000959","iti","img/motor_blank.png","null","74","motor","","","","","","",""
"471","","151945","HierDyt47xjesb","07hp8hkz1q","msl000959","motor","img/motor_4.png","70","70","motor","4","132","1","0","0","",""
"null","","152052","HierDyt47xjesb","07hp8hkz1q","msl000959","iti","img/motor_blank.png","null","70","motor","","","","","","",""
"521","","152577","HierDyt47xjesb","07hp8hkz1q","msl000959","motor","img/motor_8.png","76","76","motor","8","133","1","0","0","",""
"null","","152685","HierDyt47xjesb","07hp8hkz1q","msl000959","iti","img/motor_blank.png","null","76","motor","","","","","","",""
"496","","153188","HierDyt47xjesb","07hp8hkz1q","msl000959","motor","img/motor_1.png","65","65","motor","1","134","1","0","0","",""
"null","","153294","HierDyt47xjesb","07hp8hkz1q","msl000959","iti","img/motor_blank.png","null","65","motor","","","","","","",""
"499","","153798","HierDyt47xjesb","07hp8hkz1q","msl000959","motor","img/motor_5.png","72","72","motor","5","135","1","0","0","",""
"null","","153905","HierDyt47xjesb","07hp8hkz1q","msl000959","iti","img/motor_blank.png","null","72","motor","","","","","","",""
"403","","154315","HierDyt47xjesb","07hp8hkz1q","msl000959","motor","img/motor_3.png","68","68","motor","3","136","1","0","0","",""
"null","","154422","HierDyt47xjesb","07hp8hkz1q","msl000959","iti","img/motor_blank.png","null","68","motor","","","","","","",""
"435","","154862","HierDyt47xjesb","07hp8hkz1q","msl000959","motor","img/motor_1.png","65","65","motor","1","137","1","0","0","",""
"null","","154969","HierDyt47xjesb","07hp8hkz1q","msl000959","iti","img/motor_blank.png","null","65","motor","","","","","","",""
"409","","155385","HierDyt47xjesb","07hp8hkz1q","msl000959","motor","img/motor_1.png","65","65","motor","1","138","1","0","0","",""
"null","","155492","HierDyt47xjesb","07hp8hkz1q","msl000959","iti","img/motor_blank.png","null","65","motor","","","","","","",""
"519","","156018","HierDyt47xjesb","07hp8hkz1q","msl000959","motor","img/motor_2.png","83","83","motor","2","139","1","0","0","",""
"null","","156126","HierDyt47xjesb","07hp8hkz1q","msl000959","iti","img/motor_blank.png","null","83","motor","","","","","","",""
"415","","156549","HierDyt47xjesb","07hp8hkz1q","msl000959","motor","img/motor_8.png","76","76","motor","8","140","1","0","0","",""
"null","","156657","HierDyt47xjesb","07hp8hkz1q","msl000959","iti","img/motor_blank.png","null","76","motor","","","","","","",""
"397","","157062","HierDyt47xjesb","07hp8hkz1q","msl000959","motor","img/motor_7.png","75","75","motor","7","141","1","0","0","",""
"null","","157169","HierDyt47xjesb","07hp8hkz1q","msl000959","iti","img/motor_blank.png","null","75","motor","","","","","","",""
"417","","157593","HierDyt47xjesb","07hp8hkz1q","msl000959","motor","img/motor_3.png","68","68","motor","3","142","1","0","0","",""
"null","","157699","HierDyt47xjesb","07hp8hkz1q","msl000959","iti","img/motor_blank.png","null","68","motor","","","","","","",""
"439","","158145","HierDyt47xjesb","07hp8hkz1q","msl000959","motor","img/motor_6.png","74","74","motor","6","143","1","0","0","",""
"null","","158253","HierDyt47xjesb","07hp8hkz1q","msl000959","iti","img/motor_blank.png","null","74","motor","","","","","","",""
"427","","158688","HierDyt47xjesb","07hp8hkz1q","msl000959","motor","img/motor_5.png","72","72","motor","5","144","1","0","0","",""
"null","","158795","HierDyt47xjesb","07hp8hkz1q","msl000959","iti","img/motor_blank.png","null","72","motor","","","","","","",""
"364","","159165","HierDyt47xjesb","07hp8hkz1q","msl000959","motor","img/motor_5.png","72","72","motor","5","145","1","0","0","",""
"null","","159273","HierDyt47xjesb","07hp8hkz1q","msl000959","iti","img/motor_blank.png","null","72","motor","","","","","","",""
"406","","159686","HierDyt47xjesb","07hp8hkz1q","msl000959","motor","img/motor_3.png","70","68","motor","3","146","0","1","0","",""
"258","","159952","HierDyt47xjesb","07hp8hkz1q","msl000959","motorRepeat","img/motor_3.png","68","68","motor","3","146","1","0","0","",""
"null","","160058","HierDyt47xjesb","07hp8hkz1q","msl000959","iti","img/motor_blank.png","null","68","motor","","","","","","",""
"495","","160561","HierDyt47xjesb","07hp8hkz1q","msl000959","motor","img/motor_6.png","74","74","motor","6","147","1","0","0","",""
"null","","160669","HierDyt47xjesb","07hp8hkz1q","msl000959","iti","img/motor_blank.png","null","74","motor","","","","","","",""
"362","","161037","HierDyt47xjesb","07hp8hkz1q","msl000959","motor","img/motor_6.png","74","74","motor","6","148","1","0","0","",""
"null","","161145","HierDyt47xjesb","07hp8hkz1q","msl000959","iti","img/motor_blank.png","null","74","motor","","","","","","",""
"483","","161634","HierDyt47xjesb","07hp8hkz1q","msl000959","motor","img/motor_2.png","83","83","motor","2","149","1","0","0","",""
"null","","161741","HierDyt47xjesb","07hp8hkz1q","msl000959","iti","img/motor_blank.png","null","83","motor","","","","","","",""
"543","","162291","HierDyt47xjesb","07hp8hkz1q","msl000959","motor","img/motor_7.png","75","75","motor","7","150","1","0","0","",""
"null","","162398","HierDyt47xjesb","07hp8hkz1q","msl000959","iti","img/motor_blank.png","null","75","motor","","","","","","",""
"555","","162960","HierDyt47xjesb","07hp8hkz1q","msl000959","motor","img/motor_2.png","83","83","motor","2","151","1","0","0","",""
"null","","163068","HierDyt47xjesb","07hp8hkz1q","msl000959","iti","img/motor_blank.png","null","83","motor","","","","","","",""
"436","","163511","HierDyt47xjesb","07hp8hkz1q","msl000959","motor","img/motor_6.png","74","74","motor","6","152","1","0","0","",""
"null","","163618","HierDyt47xjesb","07hp8hkz1q","msl000959","iti","img/motor_blank.png","null","74","motor","","","","","","",""
"409","","164033","HierDyt47xjesb","07hp8hkz1q","msl000959","motor","img/motor_5.png","72","72","motor","5","153","1","0","0","",""
"null","","164140","HierDyt47xjesb","07hp8hkz1q","msl000959","iti","img/motor_blank.png","null","72","motor","","","","","","",""
"623","","164770","HierDyt47xjesb","07hp8hkz1q","msl000959","motor","img/motor_6.png","74","74","motor","6","154","1","0","0","",""
"null","","164877","HierDyt47xjesb","07hp8hkz1q","msl000959","iti","img/motor_blank.png","null","74","motor","","","","","","",""
"321","","165207","HierDyt47xjesb","07hp8hkz1q","msl000959","motor","img/motor_7.png","75","75","motor","7","155","1","0","0","",""
"null","","165315","HierDyt47xjesb","07hp8hkz1q","msl000959","iti","img/motor_blank.png","null","75","motor","","","","","","",""
"451","","165772","HierDyt47xjesb","07hp8hkz1q","msl000959","motor","img/motor_4.png","70","70","motor","4","156","1","0","0","",""
"null","","165879","HierDyt47xjesb","07hp8hkz1q","msl000959","iti","img/motor_blank.png","null","70","motor","","","","","","",""
"451","","166337","HierDyt47xjesb","07hp8hkz1q","msl000959","motor","img/motor_1.png","65","65","motor","1","157","1","0","0","",""
"null","","166444","HierDyt47xjesb","07hp8hkz1q","msl000959","iti","img/motor_blank.png","null","65","motor","","","","","","",""
"455","","166906","HierDyt47xjesb","07hp8hkz1q","msl000959","motor","img/motor_7.png","75","75","motor","7","158","1","0","0","",""
"null","","167015","HierDyt47xjesb","07hp8hkz1q","msl000959","iti","img/motor_blank.png","null","75","motor","","","","","","",""
"566","","167587","HierDyt47xjesb","07hp8hkz1q","msl000959","motor","img/motor_2.png","83","83","motor","2","159","1","0","0","",""
"null","","167694","HierDyt47xjesb","07hp8hkz1q","msl000959","iti","img/motor_blank.png","null","83","motor","","","","","","",""
"409","","168110","HierDyt47xjesb","07hp8hkz1q","msl000959","motor","img/motor_7.png","75","75","motor","7","160","1","0","0","",""
"null","","168218","HierDyt47xjesb","07hp8hkz1q","msl000959","iti","img/motor_blank.png","null","75","motor","","","","","","",""
"417","","168642","HierDyt47xjesb","07hp8hkz1q","msl000959","motor","img/motor_7.png","75","75","motor","7","161","1","0","0","",""
"null","","168750","HierDyt47xjesb","07hp8hkz1q","msl000959","iti","img/motor_blank.png","null","75","motor","","","","","","",""
"392","","169150","HierDyt47xjesb","07hp8hkz1q","msl000959","motor","img/motor_5.png","72","72","motor","5","162","1","0","0","",""
"null","","169257","HierDyt47xjesb","07hp8hkz1q","msl000959","iti","img/motor_blank.png","null","72","motor","","","","","","",""
"371","","169636","HierDyt47xjesb","07hp8hkz1q","msl000959","motor","img/motor_8.png","76","76","motor","8","163","1","0","0","",""
"null","","169744","HierDyt47xjesb","07hp8hkz1q","msl000959","iti","img/motor_blank.png","null","76","motor","","","","","","",""
"476","","170228","HierDyt47xjesb","07hp8hkz1q","msl000959","motor","img/motor_1.png","65","65","motor","1","164","1","0","0","",""
"null","","170335","HierDyt47xjesb","07hp8hkz1q","msl000959","iti","img/motor_blank.png","null","65","motor","","","","","","",""
"390","","170734","HierDyt47xjesb","07hp8hkz1q","msl000959","motor","img/motor_5.png","72","72","motor","5","165","1","0","0","",""
"null","","170842","HierDyt47xjesb","07hp8hkz1q","msl000959","iti","img/motor_blank.png","null","72","motor","","","","","","",""
"382","","171231","HierDyt47xjesb","07hp8hkz1q","msl000959","motor","img/motor_8.png","76","76","motor","8","166","1","0","0","",""
"null","","171340","HierDyt47xjesb","07hp8hkz1q","msl000959","iti","img/motor_blank.png","null","76","motor","","","","","","",""
"457","","171803","HierDyt47xjesb","07hp8hkz1q","msl000959","motor","img/motor_7.png","75","75","motor","7","167","1","0","0","",""
"null","","171910","HierDyt47xjesb","07hp8hkz1q","msl000959","iti","img/motor_blank.png","null","75","motor","","","","","","",""
"550","","172467","HierDyt47xjesb","07hp8hkz1q","msl000959","motor","img/motor_3.png","68","68","motor","3","168","1","0","0","",""
"null","","172574","HierDyt47xjesb","07hp8hkz1q","msl000959","iti","img/motor_blank.png","null","68","motor","","","","","","",""
"383","","172964","HierDyt47xjesb","07hp8hkz1q","msl000959","motor","img/motor_8.png","76","76","motor","8","169","1","0","0","",""
"null","","173071","HierDyt47xjesb","07hp8hkz1q","msl000959","iti","img/motor_blank.png","null","76","motor","","","","","","",""
"423","","173500","HierDyt47xjesb","07hp8hkz1q","msl000959","motor","img/motor_6.png","74","74","motor","6","170","1","0","0","",""
"null","","173605","HierDyt47xjesb","07hp8hkz1q","msl000959","iti","img/motor_blank.png","null","74","motor","","","","","","",""
"503","","174118","HierDyt47xjesb","07hp8hkz1q","msl000959","motor","img/motor_2.png","83","83","motor","2","171","1","0","0","",""
"null","","174223","HierDyt47xjesb","07hp8hkz1q","msl000959","iti","img/motor_blank.png","null","83","motor","","","","","","",""
"458","","174689","HierDyt47xjesb","07hp8hkz1q","msl000959","motor","img/motor_4.png","70","70","motor","4","172","1","0","0","",""
"null","","174796","HierDyt47xjesb","07hp8hkz1q","msl000959","iti","img/motor_blank.png","null","70","motor","","","","","","",""
"454","","175256","HierDyt47xjesb","07hp8hkz1q","msl000959","motor","img/motor_3.png","68","68","motor","3","173","1","0","0","",""
"null","","175364","HierDyt47xjesb","07hp8hkz1q","msl000959","iti","img/motor_blank.png","null","68","motor","","","","","","",""
"417","","175788","HierDyt47xjesb","07hp8hkz1q","msl000959","motor","img/motor_5.png","72","72","motor","5","174","1","0","0","",""
"null","","175896","HierDyt47xjesb","07hp8hkz1q","msl000959","iti","img/motor_blank.png","null","72","motor","","","","","","",""
"394","","176298","HierDyt47xjesb","07hp8hkz1q","msl000959","motor","img/motor_8.png","76","76","motor","8","175","1","0","0","",""
"null","","176405","HierDyt47xjesb","07hp8hkz1q","msl000959","iti","img/motor_blank.png","null","76","motor","","","","","","",""
"430","","176842","HierDyt47xjesb","07hp8hkz1q","msl000959","motor","img/motor_7.png","75","75","motor","7","176","1","0","0","",""
"null","","176949","HierDyt47xjesb","07hp8hkz1q","msl000959","iti","img/motor_blank.png","null","75","motor","","","","","","",""
"439","","177396","HierDyt47xjesb","07hp8hkz1q","msl000959","motor","img/motor_7.png","75","75","motor","7","177","1","0","0","",""
"null","","177504","HierDyt47xjesb","07hp8hkz1q","msl000959","iti","img/motor_blank.png","null","75","motor","","","","","","",""
"480","","177992","HierDyt47xjesb","07hp8hkz1q","msl000959","motor","img/motor_3.png","68","68","motor","3","178","1","0","0","",""
"null","","178099","HierDyt47xjesb","07hp8hkz1q","msl000959","iti","img/motor_blank.png","null","68","motor","","","","","","",""
"378","","178484","HierDyt47xjesb","07hp8hkz1q","msl000959","motor","img/motor_8.png","76","76","motor","8","179","1","0","0","",""
"null","","178592","HierDyt47xjesb","07hp8hkz1q","msl000959","iti","img/motor_blank.png","null","76","motor","","","","","","",""
"471","","179071","HierDyt47xjesb","07hp8hkz1q","msl000959","motor","img/motor_4.png","70","70","motor","4","180","1","0","0","",""
"null","","179177","HierDyt47xjesb","07hp8hkz1q","msl000959","iti","img/motor_blank.png","null","70","motor","","","","","","",""
"371","","179556","HierDyt47xjesb","07hp8hkz1q","msl000959","motor","img/motor_4.png","70","70","motor","4","181","1","0","0","",""
"null","","179665","HierDyt47xjesb","07hp8hkz1q","msl000959","iti","img/motor_blank.png","null","70","motor","","","","","","",""
"364","","180036","HierDyt47xjesb","07hp8hkz1q","msl000959","motor","img/motor_1.png","65","65","motor","1","182","1","0","0","",""
"null","","180144","HierDyt47xjesb","07hp8hkz1q","msl000959","iti","img/motor_blank.png","null","65","motor","","","","","","",""
"371","","180523","HierDyt47xjesb","07hp8hkz1q","msl000959","motor","img/motor_8.png","76","76","motor","8","183","1","0","0","",""
"null","","180630","HierDyt47xjesb","07hp8hkz1q","msl000959","iti","img/motor_blank.png","null","76","motor","","","","","","",""
"499","","181136","HierDyt47xjesb","07hp8hkz1q","msl000959","motor","img/motor_3.png","68","68","motor","3","184","1","0","0","",""
"null","","181242","HierDyt47xjesb","07hp8hkz1q","msl000959","iti","img/motor_blank.png","null","68","motor","","","","","","",""
"362","","181610","HierDyt47xjesb","07hp8hkz1q","msl000959","motor","img/motor_1.png","65","65","motor","1","185","1","0","0","",""
"null","","181718","HierDyt47xjesb","07hp8hkz1q","msl000959","iti","img/motor_blank.png","null","65","motor","","","","","","",""
"633","","182360","HierDyt47xjesb","07hp8hkz1q","msl000959","motor","img/motor_6.png","72","74","motor","6","186","0","1","0","",""
"344","","182710","HierDyt47xjesb","07hp8hkz1q","msl000959","motorRepeat","img/motor_6.png","74","74","motor","6","186","1","0","0","",""
"null","","182818","HierDyt47xjesb","07hp8hkz1q","msl000959","iti","img/motor_blank.png","null","74","motor","","","","","","",""
"552","","183378","HierDyt47xjesb","07hp8hkz1q","msl000959","motor","img/motor_4.png","70","70","motor","4","187","1","0","0","",""
"null","","183486","HierDyt47xjesb","07hp8hkz1q","msl000959","iti","img/motor_blank.png","null","70","motor","","","","","","",""
"593","","184086","HierDyt47xjesb","07hp8hkz1q","msl000959","motor","img/motor_5.png","74","72","motor","5","188","0","1","0","",""
"228","","184320","HierDyt47xjesb","07hp8hkz1q","msl000959","motorRepeat","img/motor_5.png","72","72","motor","5","188","1","0","0","",""
"null","","184427","HierDyt47xjesb","07hp8hkz1q","msl000959","iti","img/motor_blank.png","null","72","motor","","","","","","",""
"460","","184891","HierDyt47xjesb","07hp8hkz1q","msl000959","motor","img/motor_5.png","72","72","motor","5","189","1","0","0","",""
"null","","184997","HierDyt47xjesb","07hp8hkz1q","msl000959","iti","img/motor_blank.png","null","72","motor","","","","","","",""
"443","","185446","HierDyt47xjesb","07hp8hkz1q","msl000959","motor","img/motor_7.png","75","75","motor","7","190","1","0","0","",""
"null","","185553","HierDyt47xjesb","07hp8hkz1q","msl000959","iti","img/motor_blank.png","null","75","motor","","","","","","",""
"426","","185987","HierDyt47xjesb","07hp8hkz1q","msl000959","motor","img/motor_4.png","70","70","motor","4","191","1","0","0","",""
"null","","186094","HierDyt47xjesb","07hp8hkz1q","msl000959","iti","img/motor_blank.png","null","70","motor","","","","","","",""
"408","","186511","HierDyt47xjesb","07hp8hkz1q","msl000959","motor","img/motor_8.png","76","76","motor","8","192","1","0","0","",""
"null","","186618","HierDyt47xjesb","07hp8hkz1q","msl000959","iti","img/motor_blank.png","null","76","motor","","","","","","",""
"512","","187137","HierDyt47xjesb","07hp8hkz1q","msl000959","motor","img/motor_2.png","83","83","motor","2","193","1","0","0","",""
"null","","187244","HierDyt47xjesb","07hp8hkz1q","msl000959","iti","img/motor_blank.png","null","83","motor","","","","","","",""
"565","","187815","HierDyt47xjesb","07hp8hkz1q","msl000959","motor","img/motor_6.png","72","74","motor","6","194","0","1","0","",""
"269","","188092","HierDyt47xjesb","07hp8hkz1q","msl000959","motorRepeat","img/motor_6.png","74","74","motor","6","194","1","0","0","",""
"null","","188199","HierDyt47xjesb","07hp8hkz1q","msl000959","iti","img/motor_blank.png","null","74","motor","","","","","","",""
"317","","188522","HierDyt47xjesb","07hp8hkz1q","msl000959","motor","img/motor_8.png","76","76","motor","8","195","1","0","0","",""
"null","","188629","HierDyt47xjesb","07hp8hkz1q","msl000959","iti","img/motor_blank.png","null","76","motor","","","","","","",""
"377","","189013","HierDyt47xjesb","07hp8hkz1q","msl000959","motor","img/motor_8.png","76","76","motor","8","196","1","0","0","",""
"null","","189120","HierDyt47xjesb","07hp8hkz1q","msl000959","iti","img/motor_blank.png","null","76","motor","","","","","","",""
"621","","189749","HierDyt47xjesb","07hp8hkz1q","msl000959","motor","img/motor_1.png","65","65","motor","1","197","1","0","0","",""
"null","","189855","HierDyt47xjesb","07hp8hkz1q","msl000959","iti","img/motor_blank.png","null","65","motor","","","","","","",""
"342","","190204","HierDyt47xjesb","07hp8hkz1q","msl000959","motor","img/motor_8.png","76","76","motor","8","198","1","0","0","",""
"null","","190311","HierDyt47xjesb","07hp8hkz1q","msl000959","iti","img/motor_blank.png","null","76","motor","","","","","","",""
"442","","190760","HierDyt47xjesb","07hp8hkz1q","msl000959","motor","img/motor_2.png","83","83","motor","2","199","1","0","0","",""
"null","","190867","HierDyt47xjesb","07hp8hkz1q","msl000959","iti","img/motor_blank.png","null","83","motor","","","","","","",""
"458","","191332","HierDyt47xjesb","07hp8hkz1q","msl000959","motor","img/motor_6.png","74","74","motor","6","200","1","0","0","",""
"null","","191439","HierDyt47xjesb","07hp8hkz1q","msl000959","iti","img/motor_blank.png","null","74","motor","","","","","","",""
"391","","191837","HierDyt47xjesb","07hp8hkz1q","msl000959","motor","img/motor_4.png","68","70","motor","4","201","0","1","0","",""
"292","","192137","HierDyt47xjesb","07hp8hkz1q","msl000959","motorRepeat","img/motor_4.png","70","70","motor","4","201","1","0","0","",""
"null","","192245","HierDyt47xjesb","07hp8hkz1q","msl000959","iti","img/motor_blank.png","null","70","motor","","","","","","",""
"393","","192645","HierDyt47xjesb","07hp8hkz1q","msl000959","motor","img/motor_1.png","65","65","motor","1","202","1","0","0","",""
"null","","192751","HierDyt47xjesb","07hp8hkz1q","msl000959","iti","img/motor_blank.png","null","65","motor","","","","","","",""
"459","","193216","HierDyt47xjesb","07hp8hkz1q","msl000959","motor","img/motor_3.png","68","68","motor","3","203","1","0","0","",""
"null","","193325","HierDyt47xjesb","07hp8hkz1q","msl000959","iti","img/motor_blank.png","null","68","motor","","","","","","",""
"446","","193778","HierDyt47xjesb","07hp8hkz1q","msl000959","motor","img/motor_5.png","72","72","motor","5","204","1","0","0","",""
"null","","193886","HierDyt47xjesb","07hp8hkz1q","msl000959","iti","img/motor_blank.png","null","72","motor","","","","","","",""
"388","","194282","HierDyt47xjesb","07hp8hkz1q","msl000959","motor","img/motor_4.png","70","70","motor","4","205","1","0","0","",""
"null","","194389","HierDyt47xjesb","07hp8hkz1q","msl000959","iti","img/motor_blank.png","null","70","motor","","","","","","",""
"479","","194876","HierDyt47xjesb","07hp8hkz1q","msl000959","motor","img/motor_7.png","75","75","motor","7","206","1","0","0","",""
"null","","194984","HierDyt47xjesb","07hp8hkz1q","msl000959","iti","img/motor_blank.png","null","75","motor","","","","","","",""
"358","","195349","HierDyt47xjesb","07hp8hkz1q","msl000959","motor","img/motor_4.png","70","70","motor","4","207","1","0","0","",""
"null","","195458","HierDyt47xjesb","07hp8hkz1q","msl000959","iti","img/motor_blank.png","null","70","motor","","","","","","",""
"540","","196006","HierDyt47xjesb","07hp8hkz1q","msl000959","motor","img/motor_6.png","74","74","motor","6","208","1","0","0","",""
"null","","196114","HierDyt47xjesb","07hp8hkz1q","msl000959","iti","img/motor_blank.png","null","74","motor","","","","","","",""
"377","","196499","HierDyt47xjesb","07hp8hkz1q","msl000959","motor","img/motor_6.png","74","74","motor","6","209","1","0","0","",""
"null","","196606","HierDyt47xjesb","07hp8hkz1q","msl000959","iti","img/motor_blank.png","null","74","motor","","","","","","",""
"516","","197130","HierDyt47xjesb","07hp8hkz1q","msl000959","motor","img/motor_7.png","75","75","motor","7","210","1","0","0","",""
"null","","197237","HierDyt47xjesb","07hp8hkz1q","msl000959","iti","img/motor_blank.png","null","75","motor","","","","","","",""
"397","","197643","HierDyt47xjesb","07hp8hkz1q","msl000959","motor","img/motor_1.png","65","65","motor","1","211","1","0","0","",""
"null","","197751","HierDyt47xjesb","07hp8hkz1q","msl000959","iti","img/motor_blank.png","null","65","motor","","","","","","",""
"501","","198260","HierDyt47xjesb","07hp8hkz1q","msl000959","motor","img/motor_6.png","74","74","motor","6","212","1","0","0","",""
"null","","198368","HierDyt47xjesb","07hp8hkz1q","msl000959","iti","img/motor_blank.png","null","74","motor","","","","","","",""
"534","","198910","HierDyt47xjesb","07hp8hkz1q","msl000959","motor","img/motor_1.png","65","65","motor","1","213","1","0","0","",""
"null","","199017","HierDyt47xjesb","07hp8hkz1q","msl000959","iti","img/motor_blank.png","null","65","motor","","","","","","",""
"519","","199545","HierDyt47xjesb","07hp8hkz1q","msl000959","motor","img/motor_4.png","70","70","motor","4","214","1","0","0","",""
"null","","199653","HierDyt47xjesb","07hp8hkz1q","msl000959","iti","img/motor_blank.png","null","70","motor","","","","","","",""
"606","","200269","HierDyt47xjesb","07hp8hkz1q","msl000959","motor","img/motor_2.png","83","83","motor","2","215","1","0","0","",""
"null","","200379","HierDyt47xjesb","07hp8hkz1q","msl000959","iti","img/motor_blank.png","null","83","motor","","","","","","",""
"432","","200820","HierDyt47xjesb","07hp8hkz1q","msl000959","motor","img/motor_7.png","75","75","motor","7","216","1","0","0","",""
"null","","200928","HierDyt47xjesb","07hp8hkz1q","msl000959","iti","img/motor_blank.png","null","75","motor","","","","","","",""
"374","","201311","HierDyt47xjesb","07hp8hkz1q","msl000959","motor","img/motor_6.png","74","74","motor","6","217","1","0","0","",""
"null","","201420","HierDyt47xjesb","07hp8hkz1q","msl000959","iti","img/motor_blank.png","null","74","motor","","","","","","",""
"432","","201861","HierDyt47xjesb","07hp8hkz1q","msl000959","motor","img/motor_7.png","75","75","motor","7","218","1","0","0","",""
"null","","201970","HierDyt47xjesb","07hp8hkz1q","msl000959","iti","img/motor_blank.png","null","75","motor","","","","","","",""
"459","","202436","HierDyt47xjesb","07hp8hkz1q","msl000959","motor","img/motor_2.png","83","83","motor","2","219","1","0","0","",""
"null","","202543","HierDyt47xjesb","07hp8hkz1q","msl000959","iti","img/motor_blank.png","null","83","motor","","","","","","",""
"407","","202957","HierDyt47xjesb","07hp8hkz1q","msl000959","motor","img/motor_2.png","83","83","motor","2","220","1","0","0","",""
"null","","203065","HierDyt47xjesb","07hp8hkz1q","msl000959","iti","img/motor_blank.png","null","83","motor","","","","","","",""
"472","","203544","HierDyt47xjesb","07hp8hkz1q","msl000959","motor","img/motor_8.png","76","76","motor","8","221","1","0","0","",""
"null","","203652","HierDyt47xjesb","07hp8hkz1q","msl000959","iti","img/motor_blank.png","null","76","motor","","","","","","",""
"554","","204214","HierDyt47xjesb","07hp8hkz1q","msl000959","motor","img/motor_6.png","74","74","motor","6","222","1","0","0","",""
"null","","204320","HierDyt47xjesb","07hp8hkz1q","msl000959","iti","img/motor_blank.png","null","74","motor","","","","","","",""
"448","","204777","HierDyt47xjesb","07hp8hkz1q","msl000959","motor","img/motor_2.png","68","83","motor","2","223","0","1","0","",""
"271","","205054","HierDyt47xjesb","07hp8hkz1q","msl000959","motorRepeat","img/motor_2.png","83","83","motor","2","223","1","0","0","",""
"null","","205160","HierDyt47xjesb","07hp8hkz1q","msl000959","iti","img/motor_blank.png","null","83","motor","","","","","","",""
"495","","205664","HierDyt47xjesb","07hp8hkz1q","msl000959","motor","img/motor_6.png","74","74","motor","6","224","1","0","0","",""
"null","","205771","HierDyt47xjesb","07hp8hkz1q","msl000959","iti","img/motor_blank.png","null","74","motor","","","","","","",""
"452","","206230","HierDyt47xjesb","07hp8hkz1q","msl000959","motor","img/motor_7.png","75","75","motor","7","225","1","0","0","",""
"null","","206337","HierDyt47xjesb","07hp8hkz1q","msl000959","iti","img/motor_blank.png","null","75","motor","","","","","","",""
"420","","206764","HierDyt47xjesb","07hp8hkz1q","msl000959","motor","img/motor_5.png","72","72","motor","5","226","1","0","0","",""
"null","","206871","HierDyt47xjesb","07hp8hkz1q","msl000959","iti","img/motor_blank.png","null","72","motor","","","","","","",""
"592","","207469","HierDyt47xjesb","07hp8hkz1q","msl000959","motor","img/motor_2.png","83","83","motor","2","227","1","0","0","",""
"null","","207576","HierDyt47xjesb","07hp8hkz1q","msl000959","iti","img/motor_blank.png","null","83","motor","","","","","","",""
"402","","207985","HierDyt47xjesb","07hp8hkz1q","msl000959","motor","img/motor_2.png","83","83","motor","2","228","1","0","0","",""
"null","","208092","HierDyt47xjesb","07hp8hkz1q","msl000959","iti","img/motor_blank.png","null","83","motor","","","","","","",""
"451","","208550","HierDyt47xjesb","07hp8hkz1q","msl000959","motor","img/motor_1.png","65","65","motor","1","229","1","0","0","",""
"null","","208656","HierDyt47xjesb","07hp8hkz1q","msl000959","iti","img/motor_blank.png","null","65","motor","","","","","","",""
"362","","209026","HierDyt47xjesb","07hp8hkz1q","msl000959","motor","img/motor_4.png","70","70","motor","4","230","1","0","0","",""
"null","","209133","HierDyt47xjesb","07hp8hkz1q","msl000959","iti","img/motor_blank.png","null","70","motor","","","","","","",""
"377","","209517","HierDyt47xjesb","07hp8hkz1q","msl000959","motor","img/motor_4.png","70","70","motor","4","231","1","0","0","",""
"null","","209625","HierDyt47xjesb","07hp8hkz1q","msl000959","iti","img/motor_blank.png","null","70","motor","","","","","","",""
"417","","210049","HierDyt47xjesb","07hp8hkz1q","msl000959","motor","img/motor_5.png","72","72","motor","5","232","1","0","0","",""
"null","","210157","HierDyt47xjesb","07hp8hkz1q","msl000959","iti","img/motor_blank.png","null","72","motor","","","","","","",""
"443","","210609","HierDyt47xjesb","07hp8hkz1q","msl000959","motor","img/motor_7.png","75","75","motor","7","233","1","0","0","",""
"null","","210717","HierDyt47xjesb","07hp8hkz1q","msl000959","iti","img/motor_blank.png","null","75","motor","","","","","","",""
"361","","211086","HierDyt47xjesb","07hp8hkz1q","msl000959","motor","img/motor_7.png","75","75","motor","7","234","1","0","0","",""
"null","","211193","HierDyt47xjesb","07hp8hkz1q","msl000959","iti","img/motor_blank.png","null","75","motor","","","","","","",""
"565","","211765","HierDyt47xjesb","07hp8hkz1q","msl000959","motor","img/motor_3.png","68","68","motor","3","235","1","0","0","",""
"null","","211873","HierDyt47xjesb","07hp8hkz1q","msl000959","iti","img/motor_blank.png","null","68","motor","","","","","","",""
"407","","212288","HierDyt47xjesb","07hp8hkz1q","msl000959","motor","img/motor_8.png","76","76","motor","8","236","1","0","0","",""
"null","","212395","HierDyt47xjesb","07hp8hkz1q","msl000959","iti","img/motor_blank.png","null","76","motor","","","","","","",""
"402","","212805","HierDyt47xjesb","07hp8hkz1q","msl000959","motor","img/motor_5.png","72","72","motor","5","237","1","0","0","",""
"null","","212912","HierDyt47xjesb","07hp8hkz1q","msl000959","iti","img/motor_blank.png","null","72","motor","","","","","","",""
"573","","213492","HierDyt47xjesb","07hp8hkz1q","msl000959","motor","img/motor_6.png","74","74","motor","6","238","1","0","0","",""
"null","","213600","HierDyt47xjesb","07hp8hkz1q","msl000959","iti","img/motor_blank.png","null","74","motor","","","","","","",""
"428","","214034","HierDyt47xjesb","07hp8hkz1q","msl000959","motor","img/motor_5.png","72","72","motor","5","239","1","0","0","",""
"null","","214140","HierDyt47xjesb","07hp8hkz1q","msl000959","iti","img/motor_blank.png","null","72","motor","","","","","","",""
"384","","214531","HierDyt47xjesb","07hp8hkz1q","msl000959","motor","img/motor_8.png","76","76","motor","8","240","1","0","0","",""
"null","","214639","HierDyt47xjesb","07hp8hkz1q","msl000959","iti","img/motor_blank.png","null","76","motor","","","","","","",""
"453","","215099","HierDyt47xjesb","07hp8hkz1q","msl000959","motor","img/motor_6.png","74","74","motor","6","241","1","0","0","",""
"null","","215207","HierDyt47xjesb","07hp8hkz1q","msl000959","iti","img/motor_blank.png","null","74","motor","","","","","","",""
"386","","215600","HierDyt47xjesb","07hp8hkz1q","msl000959","motor","img/motor_6.png","74","74","motor","6","242","1","0","0","",""
"null","","215707","HierDyt47xjesb","07hp8hkz1q","msl000959","iti","img/motor_blank.png","null","74","motor","","","","","","",""
"484","","216199","HierDyt47xjesb","07hp8hkz1q","msl000959","motor","img/motor_3.png","68","68","motor","3","243","1","0","0","",""
"null","","216306","HierDyt47xjesb","07hp8hkz1q","msl000959","iti","img/motor_blank.png","null","68","motor","","","","","","",""
"472","","216786","HierDyt47xjesb","07hp8hkz1q","msl000959","motor","img/motor_5.png","72","72","motor","5","244","1","0","0","",""
"null","","216895","HierDyt47xjesb","07hp8hkz1q","msl000959","iti","img/motor_blank.png","null","72","motor","","","","","","",""
"496","","217399","HierDyt47xjesb","07hp8hkz1q","msl000959","motor","img/motor_4.png","70","70","motor","4","245","1","0","0","",""
"null","","217507","HierDyt47xjesb","07hp8hkz1q","msl000959","iti","img/motor_blank.png","null","70","motor","","","","","","",""
"506","","218020","HierDyt47xjesb","07hp8hkz1q","msl000959","motor","img/motor_2.png","83","83","motor","2","246","1","0","0","",""
"null","","218128","HierDyt47xjesb","07hp8hkz1q","msl000959","iti","img/motor_blank.png","null","83","motor","","","","","","",""
"392","","218529","HierDyt47xjesb","07hp8hkz1q","msl000959","motor","img/motor_3.png","83","68","motor","3","247","0","1","0","",""
"271","","218807","HierDyt47xjesb","07hp8hkz1q","msl000959","motorRepeat","img/motor_3.png","68","68","motor","3","247","1","0","0","",""
"null","","218914","HierDyt47xjesb","07hp8hkz1q","msl000959","iti","img/motor_blank.png","null","68","motor","","","","","","",""
"347","","219269","HierDyt47xjesb","07hp8hkz1q","msl000959","motor","img/motor_4.png","70","70","motor","4","248","1","0","0","",""
"null","","219377","HierDyt47xjesb","07hp8hkz1q","msl000959","iti","img/motor_blank.png","null","70","motor","","","","","","",""
"598","","219982","HierDyt47xjesb","07hp8hkz1q","msl000959","motor","img/motor_2.png","83","83","motor","2","249","1","0","0","",""
"null","","220091","HierDyt47xjesb","07hp8hkz1q","msl000959","iti","img/motor_blank.png","null","83","motor","","","","","","",""
"381","","220480","HierDyt47xjesb","07hp8hkz1q","msl000959","motor","img/motor_8.png","76","76","motor","8","250","1","0","0","",""
"null","","220588","HierDyt47xjesb","07hp8hkz1q","msl000959","iti","img/motor_blank.png","null","76","motor","","","","","","",""
"407","","221003","HierDyt47xjesb","07hp8hkz1q","msl000959","motor","img/motor_8.png","76","76","motor","8","251","1","0","0","",""
"null","","221110","HierDyt47xjesb","07hp8hkz1q","msl000959","iti","img/motor_blank.png","null","76","motor","","","","","","",""
"412","","221528","HierDyt47xjesb","07hp8hkz1q","msl000959","motor","img/motor_1.png","65","65","motor","1","252","1","0","0","",""
"null","","221635","HierDyt47xjesb","07hp8hkz1q","msl000959","iti","img/motor_blank.png","null","65","motor","","","","","","",""
"373","","222016","HierDyt47xjesb","07hp8hkz1q","msl000959","motor","img/motor_8.png","76","76","motor","8","253","1","0","0","",""
"null","","222123","HierDyt47xjesb","07hp8hkz1q","msl000959","iti","img/motor_blank.png","null","76","motor","","","","","","",""
"468","","222599","HierDyt47xjesb","07hp8hkz1q","msl000959","motor","img/motor_5.png","72","72","motor","5","254","1","0","0","",""
"null","","222706","HierDyt47xjesb","07hp8hkz1q","msl000959","iti","img/motor_blank.png","null","72","motor","","","","","","",""
"386","","223099","HierDyt47xjesb","07hp8hkz1q","msl000959","motor","img/motor_5.png","72","72","motor","5","255","1","0","0","",""
"null","","223205","HierDyt47xjesb","07hp8hkz1q","msl000959","iti","img/motor_blank.png","null","72","motor","","","","","","",""
"400","","223611","HierDyt47xjesb","07hp8hkz1q","msl000959","motor","img/motor_1.png","65","65","motor","1","256","1","0","0","",""
"null","","223721","HierDyt47xjesb","07hp8hkz1q","msl000959","iti","img/motor_blank.png","null","65","motor","","","","","","",""
"395","","224123","HierDyt47xjesb","07hp8hkz1q","msl000959","motor","img/motor_5.png","72","72","motor","5","257","1","0","0","",""
"null","","224231","HierDyt47xjesb","07hp8hkz1q","msl000959","iti","img/motor_blank.png","null","72","motor","","","","","","",""
"339","","224576","HierDyt47xjesb","07hp8hkz1q","msl000959","motor","img/motor_5.png","72","72","motor","5","258","1","0","0","",""
"null","","224685","HierDyt47xjesb","07hp8hkz1q","msl000959","iti","img/motor_blank.png","null","72","motor","","","","","","",""
"503","","225194","HierDyt47xjesb","07hp8hkz1q","msl000959","motor","img/motor_2.png","83","83","motor","2","259","1","0","0","",""
"null","","225301","HierDyt47xjesb","07hp8hkz1q","msl000959","iti","img/motor_blank.png","null","83","motor","","","","","","",""
"445","","225754","HierDyt47xjesb","07hp8hkz1q","msl000959","motor","img/motor_1.png","65","65","motor","1","260","1","0","0","",""
"null","","225862","HierDyt47xjesb","07hp8hkz1q","msl000959","iti","img/motor_blank.png","null","65","motor","","","","","","",""
"344","","226212","HierDyt47xjesb","07hp8hkz1q","msl000959","motor","img/motor_5.png","72","72","motor","5","261","1","0","0","",""
"null","","226321","HierDyt47xjesb","07hp8hkz1q","msl000959","iti","img/motor_blank.png","null","72","motor","","","","","","",""
"508","","226838","HierDyt47xjesb","07hp8hkz1q","msl000959","motor","img/motor_3.png","68","68","motor","3","262","1","0","0","",""
"null","","226946","HierDyt47xjesb","07hp8hkz1q","msl000959","iti","img/motor_blank.png","null","68","motor","","","","","","",""
"493","","227447","HierDyt47xjesb","07hp8hkz1q","msl000959","motor","img/motor_6.png","74","74","motor","6","263","1","0","0","",""
"null","","227555","HierDyt47xjesb","07hp8hkz1q","msl000959","iti","img/motor_blank.png","null","74","motor","","","","","","",""
"407","","227970","HierDyt47xjesb","07hp8hkz1q","msl000959","motor","img/motor_8.png","76","76","motor","8","264","1","0","0","",""
"null","","228077","HierDyt47xjesb","07hp8hkz1q","msl000959","iti","img/motor_blank.png","null","76","motor","","","","","","",""
"555","","228640","HierDyt47xjesb","07hp8hkz1q","msl000959","motor","img/motor_2.png","83","83","motor","2","265","1","0","0","",""
"null","","228748","HierDyt47xjesb","07hp8hkz1q","msl000959","iti","img/motor_blank.png","null","83","motor","","","","","","",""
"418","","229173","HierDyt47xjesb","07hp8hkz1q","msl000959","motor","img/motor_8.png","76","76","motor","8","266","1","0","0","",""
"null","","229281","HierDyt47xjesb","07hp8hkz1q","msl000959","iti","img/motor_blank.png","null","76","motor","","","","","","",""
"447","","229736","HierDyt47xjesb","07hp8hkz1q","msl000959","motor","img/motor_1.png","65","65","motor","1","267","1","0","0","",""
"null","","229843","HierDyt47xjesb","07hp8hkz1q","msl000959","iti","img/motor_blank.png","null","65","motor","","","","","","",""
"565","","230417","HierDyt47xjesb","07hp8hkz1q","msl000959","motor","img/motor_7.png","75","75","motor","7","268","1","0","0","",""
"null","","230525","HierDyt47xjesb","07hp8hkz1q","msl000959","iti","img/motor_blank.png","null","75","motor","","","","","","",""
"451","","230985","HierDyt47xjesb","07hp8hkz1q","msl000959","motor","img/motor_1.png","65","65","motor","1","269","1","0","0","",""
"null","","231095","HierDyt47xjesb","07hp8hkz1q","msl000959","iti","img/motor_blank.png","null","65","motor","","","","","","",""
"674","","231778","HierDyt47xjesb","07hp8hkz1q","msl000959","motor","img/motor_3.png","68","68","motor","3","270","1","0","0","",""
"null","","231887","HierDyt47xjesb","07hp8hkz1q","msl000959","iti","img/motor_blank.png","null","68","motor","","","","","","",""
"465","","232360","HierDyt47xjesb","07hp8hkz1q","msl000959","motor","img/motor_8.png","76","76","motor","8","271","1","0","0","",""
"null","","232468","HierDyt47xjesb","07hp8hkz1q","msl000959","iti","img/motor_blank.png","null","76","motor","","","","","","",""
"448","","232922","HierDyt47xjesb","07hp8hkz1q","msl000959","motor","img/motor_3.png","68","68","motor","3","272","1","0","0","",""
"null","","233030","HierDyt47xjesb","07hp8hkz1q","msl000959","iti","img/motor_blank.png","null","68","motor","","","","","","",""
"485","","233523","HierDyt47xjesb","07hp8hkz1q","msl000959","motor","img/motor_5.png","72","72","motor","5","273","1","0","0","",""
"null","","233632","HierDyt47xjesb","07hp8hkz1q","msl000959","iti","img/motor_blank.png","null","72","motor","","","","","","",""
"392","","234031","HierDyt47xjesb","07hp8hkz1q","msl000959","motor","img/motor_4.png","68","70","motor","4","274","0","1","0","",""
"264","","234304","HierDyt47xjesb","07hp8hkz1q","msl000959","motorRepeat","img/motor_4.png","70","70","motor","4","274","1","0","0","",""
"null","","234412","HierDyt47xjesb","07hp8hkz1q","msl000959","iti","img/motor_blank.png","null","70","motor","","","","","","",""
"431","","234851","HierDyt47xjesb","07hp8hkz1q","msl000959","motor","img/motor_3.png","68","68","motor","3","275","1","0","0","",""
"null","","234958","HierDyt47xjesb","07hp8hkz1q","msl000959","iti","img/motor_blank.png","null","68","motor","","","","","","",""
"426","","235392","HierDyt47xjesb","07hp8hkz1q","msl000959","motor","img/motor_1.png","83","65","motor","1","276","0","1","0","",""
"407","","235808","HierDyt47xjesb","07hp8hkz1q","msl000959","motorRepeat","img/motor_1.png","65","65","motor","1","276","1","0","0","",""
"null","","235916","HierDyt47xjesb","07hp8hkz1q","msl000959","iti","img/motor_blank.png","null","65","motor","","","","","","",""
"521","","236445","HierDyt47xjesb","07hp8hkz1q","msl000959","motor","img/motor_7.png","75","75","motor","7","277","1","0","0","",""
"null","","236555","HierDyt47xjesb","07hp8hkz1q","msl000959","iti","img/motor_blank.png","null","75","motor","","","","","","",""
"390","","236952","HierDyt47xjesb","07hp8hkz1q","msl000959","motor","img/motor_6.png","74","74","motor","6","278","1","0","0","",""
"null","","237061","HierDyt47xjesb","07hp8hkz1q","msl000959","iti","img/motor_blank.png","null","74","motor","","","","","","",""
"416","","237485","HierDyt47xjesb","07hp8hkz1q","msl000959","motor","img/motor_1.png","65","65","motor","1","279","1","0","0","",""
"null","","237592","HierDyt47xjesb","07hp8hkz1q","msl000959","iti","img/motor_blank.png","null","65","motor","","","","","","",""
"412","","238013","HierDyt47xjesb","07hp8hkz1q","msl000959","motor","img/motor_8.png","76","76","motor","8","280","1","0","0","",""
"null","","238122","HierDyt47xjesb","07hp8hkz1q","msl000959","iti","img/motor_blank.png","null","76","motor","","","","","","",""
"415","","238543","HierDyt47xjesb","07hp8hkz1q","msl000959","motor","img/motor_5.png","72","72","motor","5","281","1","0","0","",""
"null","","238651","HierDyt47xjesb","07hp8hkz1q","msl000959","iti","img/motor_blank.png","null","72","motor","","","","","","",""
"354","","239013","HierDyt47xjesb","07hp8hkz1q","msl000959","motor","img/motor_4.png","70","70","motor","4","282","1","0","0","",""
"null","","239121","HierDyt47xjesb","07hp8hkz1q","msl000959","iti","img/motor_blank.png","null","70","motor","","","","","","",""
"488","","239617","HierDyt47xjesb","07hp8hkz1q","msl000959","motor","img/motor_4.png","70","70","motor","4","283","1","0","0","",""
"null","","239725","HierDyt47xjesb","07hp8hkz1q","msl000959","iti","img/motor_blank.png","null","70","motor","","","","","","",""
"432","","240164","HierDyt47xjesb","07hp8hkz1q","msl000959","motor","img/motor_7.png","75","75","motor","7","284","1","0","0","",""
"null","","240272","HierDyt47xjesb","07hp8hkz1q","msl000959","iti","img/motor_blank.png","null","75","motor","","","","","","",""
"433","","240713","HierDyt47xjesb","07hp8hkz1q","msl000959","motor","img/motor_3.png","70","68","motor","3","285","0","1","0","",""
"410","","241130","HierDyt47xjesb","07hp8hkz1q","msl000959","motorRepeat","img/motor_3.png","68","68","motor","3","285","1","0","0","",""
"null","","241238","HierDyt47xjesb","07hp8hkz1q","msl000959","iti","img/motor_blank.png","null","68","motor","","","","","","",""
"375","","241621","HierDyt47xjesb","07hp8hkz1q","msl000959","motor","img/motor_4.png","70","70","motor","4","286","1","0","0","",""
"null","","241730","HierDyt47xjesb","07hp8hkz1q","msl000959","iti","img/motor_blank.png","null","70","motor","","","","","","",""
"440","","242177","HierDyt47xjesb","07hp8hkz1q","msl000959","motor","img/motor_6.png","74","74","motor","6","287","1","0","0","",""
"null","","242285","HierDyt47xjesb","07hp8hkz1q","msl000959","iti","img/motor_blank.png","null","74","motor","","","","","","",""
"478","","242771","HierDyt47xjesb","07hp8hkz1q","msl000959","motor","img/motor_2.png","83","83","motor","2","288","1","0","0","",""
"null","","242879","HierDyt47xjesb","07hp8hkz1q","msl000959","iti","img/motor_blank.png","null","83","motor","","","","","","",""
"402","","243289","HierDyt47xjesb","07hp8hkz1q","msl000959","motor","img/motor_3.png","68","68","motor","3","289","1","0","0","",""
"null","","243398","HierDyt47xjesb","07hp8hkz1q","msl000959","iti","img/motor_blank.png","null","68","motor","","","","","","",""
"469","","243876","HierDyt47xjesb","07hp8hkz1q","msl000959","motor","img/motor_4.png","70","70","motor","4","290","1","0","0","",""
"null","","243984","HierDyt47xjesb","07hp8hkz1q","msl000959","iti","img/motor_blank.png","null","70","motor","","","","","","",""
"411","","244403","HierDyt47xjesb","07hp8hkz1q","msl000959","motor","img/motor_3.png","68","68","motor","3","291","1","0","0","",""
"null","","244512","HierDyt47xjesb","07hp8hkz1q","msl000959","iti","img/motor_blank.png","null","68","motor","","","","","","",""
"293","","244812","HierDyt47xjesb","07hp8hkz1q","msl000959","motor","img/motor_4.png","70","70","motor","4","292","1","0","0","",""
"null","","244922","HierDyt47xjesb","07hp8hkz1q","msl000959","iti","img/motor_blank.png","null","70","motor","","","","","","",""
"335","","245264","HierDyt47xjesb","07hp8hkz1q","msl000959","motor","img/motor_3.png","68","68","motor","3","293","1","0","0","",""
"null","","245373","HierDyt47xjesb","07hp8hkz1q","msl000959","iti","img/motor_blank.png","null","68","motor","","","","","","",""
"395","","245776","HierDyt47xjesb","07hp8hkz1q","msl000959","motor","img/motor_8.png","76","76","motor","8","294","1","0","0","",""
"null","","245884","HierDyt47xjesb","07hp8hkz1q","msl000959","iti","img/motor_blank.png","null","76","motor","","","","","","",""
"436","","246327","HierDyt47xjesb","07hp8hkz1q","msl000959","motor","img/motor_2.png","83","83","motor","2","295","1","0","0","",""
"null","","246436","HierDyt47xjesb","07hp8hkz1q","msl000959","iti","img/motor_blank.png","null","83","motor","","","","","","",""
"433","","246876","HierDyt47xjesb","07hp8hkz1q","msl000959","motor","img/motor_5.png","72","72","motor","5","296","1","0","0","",""
"null","","246983","HierDyt47xjesb","07hp8hkz1q","msl000959","iti","img/motor_blank.png","null","72","motor","","","","","","",""
"436","","247427","HierDyt47xjesb","07hp8hkz1q","msl000959","motor","img/motor_2.png","68","83","motor","2","297","0","1","0","",""
"243","","247678","HierDyt47xjesb","07hp8hkz1q","msl000959","motorRepeat","img/motor_2.png","83","83","motor","2","297","1","0","0","",""
"null","","247787","HierDyt47xjesb","07hp8hkz1q","msl000959","iti","img/motor_blank.png","null","83","motor","","","","","","",""
"361","","248157","HierDyt47xjesb","07hp8hkz1q","msl000959","motor","img/motor_7.png","75","75","motor","7","298","1","0","0","",""
"null","","248266","HierDyt47xjesb","07hp8hkz1q","msl000959","iti","img/motor_blank.png","null","75","motor","","","","","","",""
"505","","248778","HierDyt47xjesb","07hp8hkz1q","msl000959","motor","img/motor_6.png","74","74","motor","6","299","1","0","0","",""
"null","","248888","HierDyt47xjesb","07hp8hkz1q","msl000959","iti","img/motor_blank.png","null","74","motor","","","","","","",""
"499","","249395","HierDyt47xjesb","07hp8hkz1q","msl000959","motor","img/motor_3.png","68","68","motor","3","300","1","0","0","",""
"null","","249505","HierDyt47xjesb","07hp8hkz1q","msl000959","iti","img/motor_blank.png","null","68","motor","","","","","","",""
"436","","249948","HierDyt47xjesb","07hp8hkz1q","msl000959","motor","img/motor_3.png","68","68","motor","3","301","1","0","0","",""
"null","","250056","HierDyt47xjesb","07hp8hkz1q","msl000959","iti","img/motor_blank.png","null","68","motor","","","","","","",""
"441","","250506","HierDyt47xjesb","07hp8hkz1q","msl000959","motor","img/motor_2.png","83","83","motor","2","302","1","0","0","",""
"null","","250615","HierDyt47xjesb","07hp8hkz1q","msl000959","iti","img/motor_blank.png","null","83","motor","","","","","","",""
"410","","251033","HierDyt47xjesb","07hp8hkz1q","msl000959","motor","img/motor_1.png","65","65","motor","1","303","1","0","0","",""
"null","","251142","HierDyt47xjesb","07hp8hkz1q","msl000959","iti","img/motor_blank.png","null","65","motor","","","","","","",""
"471","","251620","HierDyt47xjesb","07hp8hkz1q","msl000959","motor","img/motor_2.png","83","83","motor","2","304","1","0","0","",""
"null","","251728","HierDyt47xjesb","07hp8hkz1q","msl000959","iti","img/motor_blank.png","null","83","motor","","","","","","",""
"515","","252250","HierDyt47xjesb","07hp8hkz1q","msl000959","motor","img/motor_5.png","72","72","motor","5","305","1","0","0","",""
"null","","252358","HierDyt47xjesb","07hp8hkz1q","msl000959","iti","img/motor_blank.png","null","72","motor","","","","","","",""
"628","","252994","HierDyt47xjesb","07hp8hkz1q","msl000959","motor","img/motor_2.png","83","83","motor","2","306","1","0","0","",""
"null","","253102","HierDyt47xjesb","07hp8hkz1q","msl000959","iti","img/motor_blank.png","null","83","motor","","","","","","",""
"377","","253488","HierDyt47xjesb","07hp8hkz1q","msl000959","motor","img/motor_6.png","75","74","motor","6","307","0","1","0","",""
"272","","253768","HierDyt47xjesb","07hp8hkz1q","msl000959","motorRepeat","img/motor_6.png","74","74","motor","6","307","1","0","0","",""
"null","","253878","HierDyt47xjesb","07hp8hkz1q","msl000959","iti","img/motor_blank.png","null","74","motor","","","","","","",""
"439","","254322","HierDyt47xjesb","07hp8hkz1q","msl000959","motor","img/motor_1.png","83","65","motor","1","308","0","1","0","",""
"392","","254723","HierDyt47xjesb","07hp8hkz1q","msl000959","motorRepeat","img/motor_1.png","65","65","motor","1","308","1","0","0","",""
"null","","254831","HierDyt47xjesb","07hp8hkz1q","msl000959","iti","img/motor_blank.png","null","65","motor","","","","","","",""
"466","","255306","HierDyt47xjesb","07hp8hkz1q","msl000959","motor","img/motor_4.png","70","70","motor","4","309","1","0","0","",""
"null","","255414","HierDyt47xjesb","07hp8hkz1q","msl000959","iti","img/motor_blank.png","null","70","motor","","","","","","",""
"383","","255805","HierDyt47xjesb","07hp8hkz1q","msl000959","motor","img/motor_1.png","65","65","motor","1","310","1","0","0","",""
"null","","255913","HierDyt47xjesb","07hp8hkz1q","msl000959","iti","img/motor_blank.png","null","65","motor","","","","","","",""
"383","","256301","HierDyt47xjesb","07hp8hkz1q","msl000959","motor","img/motor_1.png","65","65","motor","1","311","1","0","0","",""
"null","","256410","HierDyt47xjesb","07hp8hkz1q","msl000959","iti","img/motor_blank.png","null","65","motor","","","","","","",""
"477","","256894","HierDyt47xjesb","07hp8hkz1q","msl000959","motor","img/motor_7.png","75","75","motor","7","312","1","0","0","",""
"null","","257002","HierDyt47xjesb","07hp8hkz1q","msl000959","iti","img/motor_blank.png","null","75","motor","","","","","","",""
"356","","257366","HierDyt47xjesb","07hp8hkz1q","msl000959","motor","img/motor_8.png","76","76","motor","8","313","1","0","0","",""
"null","","257475","HierDyt47xjesb","07hp8hkz1q","msl000959","iti","img/motor_blank.png","null","76","motor","","","","","","",""
"393","","257875","HierDyt47xjesb","07hp8hkz1q","msl000959","motor","img/motor_7.png","75","75","motor","7","314","1","0","0","",""
"null","","257983","HierDyt47xjesb","07hp8hkz1q","msl000959","iti","img/motor_blank.png","null","75","motor","","","","","","",""
"500","","258490","HierDyt47xjesb","07hp8hkz1q","msl000959","motor","img/motor_2.png","83","83","motor","2","315","1","0","0","",""
"null","","258599","HierDyt47xjesb","07hp8hkz1q","msl000959","iti","img/motor_blank.png","null","83","motor","","","","","","",""
"356","","258964","HierDyt47xjesb","07hp8hkz1q","msl000959","motor","img/motor_3.png","68","68","motor","3","316","1","0","0","",""
"null","","259073","HierDyt47xjesb","07hp8hkz1q","msl000959","iti","img/motor_blank.png","null","68","motor","","","","","","",""
"409","","259491","HierDyt47xjesb","07hp8hkz1q","msl000959","motor","img/motor_8.png","76","76","motor","8","317","1","0","0","",""
"null","","259600","HierDyt47xjesb","07hp8hkz1q","msl000959","iti","img/motor_blank.png","null","76","motor","","","","","","",""
"419","","260029","HierDyt47xjesb","07hp8hkz1q","msl000959","motor","img/motor_7.png","75","75","motor","7","318","1","0","0","",""
"null","","260137","HierDyt47xjesb","07hp8hkz1q","msl000959","iti","img/motor_blank.png","null","75","motor","","","","","","",""
"450","","260595","HierDyt47xjesb","07hp8hkz1q","msl000959","motor","img/motor_8.png","76","76","motor","8","319","1","0","0","",""
"null","","260703","HierDyt47xjesb","07hp8hkz1q","msl000959","iti","img/motor_blank.png","null","76","motor","","","","","","",""
"414","","261126","HierDyt47xjesb","07hp8hkz1q","msl000959","motor","img/motor_7.png","75","75","motor","7","320","1","0","0","",""
"null","","261235","HierDyt47xjesb","07hp8hkz1q","msl000959","iti","img/motor_blank.png","null","75","motor","","","","","","",""
"390","","261634","HierDyt47xjesb","07hp8hkz1q","msl000959","motor","img/motor_8.png","76","76","motor","8","321","1","0","0","",""
"null","","261744","HierDyt47xjesb","07hp8hkz1q","msl000959","iti","img/motor_blank.png","null","76","motor","","","","","","",""
"442","","262195","HierDyt47xjesb","07hp8hkz1q","msl000959","motor","img/motor_5.png","72","72","motor","5","322","1","0","0","",""
"null","","262305","HierDyt47xjesb","07hp8hkz1q","msl000959","iti","img/motor_blank.png","null","72","motor","","","","","","",""
"344","","262658","HierDyt47xjesb","07hp8hkz1q","msl000959","motor","img/motor_7.png","75","75","motor","7","323","1","0","0","",""
"null","","262767","HierDyt47xjesb","07hp8hkz1q","msl000959","iti","img/motor_blank.png","null","75","motor","","","","","","",""
"368","","263142","HierDyt47xjesb","07hp8hkz1q","msl000959","motor","img/motor_5.png","72","72","motor","5","324","1","0","0","",""
"null","","263250","HierDyt47xjesb","07hp8hkz1q","msl000959","iti","img/motor_blank.png","null","72","motor","","","","","","",""
"405","","263663","HierDyt47xjesb","07hp8hkz1q","msl000959","motor","img/motor_6.png","74","74","motor","6","325","1","0","0","",""
"null","","263770","HierDyt47xjesb","07hp8hkz1q","msl000959","iti","img/motor_blank.png","null","74","motor","","","","","","",""
"504","","264285","HierDyt47xjesb","07hp8hkz1q","msl000959","motor","img/motor_6.png","74","74","motor","6","326","1","0","0","",""
"null","","264395","HierDyt47xjesb","07hp8hkz1q","msl000959","iti","img/motor_blank.png","null","74","motor","","","","","","",""
"425","","264831","HierDyt47xjesb","07hp8hkz1q","msl000959","motor","img/motor_5.png","72","72","motor","5","327","1","0","0","",""
"null","","264940","HierDyt47xjesb","07hp8hkz1q","msl000959","iti","img/motor_blank.png","null","72","motor","","","","","","",""
"482","","265429","HierDyt47xjesb","07hp8hkz1q","msl000959","motor","img/motor_4.png","70","70","motor","4","328","1","0","0","",""
"null","","265540","HierDyt47xjesb","07hp8hkz1q","msl000959","iti","img/motor_blank.png","null","70","motor","","","","","","",""
"375","","265924","HierDyt47xjesb","07hp8hkz1q","msl000959","motor","img/motor_3.png","68","68","motor","3","329","1","0","0","",""
"null","","266032","HierDyt47xjesb","07hp8hkz1q","msl000959","iti","img/motor_blank.png","null","68","motor","","","","","","",""
"351","","266392","HierDyt47xjesb","07hp8hkz1q","msl000959","motor","img/motor_2.png","83","83","motor","2","330","1","0","0","",""
"null","","266501","HierDyt47xjesb","07hp8hkz1q","msl000959","iti","img/motor_blank.png","null","83","motor","","","","","","",""
"514","","267024","HierDyt47xjesb","07hp8hkz1q","msl000959","motor","img/motor_2.png","83","83","motor","2","331","1","0","0","",""
"null","","267132","HierDyt47xjesb","07hp8hkz1q","msl000959","iti","img/motor_blank.png","null","83","motor","","","","","","",""
"519","","267660","HierDyt47xjesb","07hp8hkz1q","msl000959","motor","img/motor_4.png","70","70","motor","4","332","1","0","0","",""
"null","","267768","HierDyt47xjesb","07hp8hkz1q","msl000959","iti","img/motor_blank.png","null","70","motor","","","","","","",""
"463","","268239","HierDyt47xjesb","07hp8hkz1q","msl000959","motor","img/motor_2.png","83","83","motor","2","333","1","0","0","",""
"null","","268348","HierDyt47xjesb","07hp8hkz1q","msl000959","iti","img/motor_blank.png","null","83","motor","","","","","","",""
"419","","268778","HierDyt47xjesb","07hp8hkz1q","msl000959","motor","img/motor_1.png","65","65","motor","1","334","1","0","0","",""
"null","","268888","HierDyt47xjesb","07hp8hkz1q","msl000959","iti","img/motor_blank.png","null","65","motor","","","","","","",""
"527","","269425","HierDyt47xjesb","07hp8hkz1q","msl000959","motor","img/motor_6.png","74","74","motor","6","335","1","0","0","",""
"null","","269534","HierDyt47xjesb","07hp8hkz1q","msl000959","iti","img/motor_blank.png","null","74","motor","","","","","","",""
"414","","269956","HierDyt47xjesb","07hp8hkz1q","msl000959","motor","img/motor_8.png","76","76","motor","8","336","1","0","0","",""
"null","","270066","HierDyt47xjesb","07hp8hkz1q","msl000959","iti","img/motor_blank.png","null","76","motor","","","","","","",""
"672","","270747","HierDyt47xjesb","07hp8hkz1q","msl000959","motor","img/motor_3.png","68","68","motor","3","337","1","0","0","",""
"null","","270855","HierDyt47xjesb","07hp8hkz1q","msl000959","iti","img/motor_blank.png","null","68","motor","","","","","","",""
"386","","271249","HierDyt47xjesb","07hp8hkz1q","msl000959","motor","img/motor_3.png","68","68","motor","3","338","1","0","0","",""
"null","","271357","HierDyt47xjesb","07hp8hkz1q","msl000959","iti","img/motor_blank.png","null","68","motor","","","","","","",""
"491","","271858","HierDyt47xjesb","07hp8hkz1q","msl000959","motor","img/motor_6.png","74","74","motor","6","339","1","0","0","",""
"null","","271967","HierDyt47xjesb","07hp8hkz1q","msl000959","iti","img/motor_blank.png","null","74","motor","","","","","","",""
"445","","272419","HierDyt47xjesb","07hp8hkz1q","msl000959","motor","img/motor_2.png","83","83","motor","2","340","1","0","0","",""
"null","","272527","HierDyt47xjesb","07hp8hkz1q","msl000959","iti","img/motor_blank.png","null","83","motor","","","","","","",""
"430","","272967","HierDyt47xjesb","07hp8hkz1q","msl000959","motor","img/motor_8.png","76","76","motor","8","341","1","0","0","",""
"null","","273074","HierDyt47xjesb","07hp8hkz1q","msl000959","iti","img/motor_blank.png","null","76","motor","","","","","","",""
"435","","273518","HierDyt47xjesb","07hp8hkz1q","msl000959","motor","img/motor_8.png","76","76","motor","8","342","1","0","0","",""
"null","","273626","HierDyt47xjesb","07hp8hkz1q","msl000959","iti","img/motor_blank.png","null","76","motor","","","","","","",""
"468","","274101","HierDyt47xjesb","07hp8hkz1q","msl000959","motor","img/motor_2.png","83","83","motor","2","343","1","0","0","",""
"null","","274208","HierDyt47xjesb","07hp8hkz1q","msl000959","iti","img/motor_blank.png","null","83","motor","","","","","","",""
"512","","274729","HierDyt47xjesb","07hp8hkz1q","msl000959","motor","img/motor_7.png","75","75","motor","7","344","1","0","0","",""
"null","","274837","HierDyt47xjesb","07hp8hkz1q","msl000959","iti","img/motor_blank.png","null","75","motor","","","","","","",""
"626","","275471","HierDyt47xjesb","07hp8hkz1q","msl000959","motor","img/motor_7.png","75","75","motor","7","345","1","0","0","",""
"null","","275580","HierDyt47xjesb","07hp8hkz1q","msl000959","iti","img/motor_blank.png","null","75","motor","","","","","","",""
"406","","275993","HierDyt47xjesb","07hp8hkz1q","msl000959","motor","img/motor_2.png","83","83","motor","2","346","1","0","0","",""
"null","","276101","HierDyt47xjesb","07hp8hkz1q","msl000959","iti","img/motor_blank.png","null","83","motor","","","","","","",""
"447","","276555","HierDyt47xjesb","07hp8hkz1q","msl000959","motor","img/motor_8.png","76","76","motor","8","347","1","0","0","",""
"null","","276664","HierDyt47xjesb","07hp8hkz1q","msl000959","iti","img/motor_blank.png","null","76","motor","","","","","","",""
"488","","277160","HierDyt47xjesb","07hp8hkz1q","msl000959","motor","img/motor_4.png","70","70","motor","4","348","1","0","0","",""
"null","","277269","HierDyt47xjesb","07hp8hkz1q","msl000959","iti","img/motor_blank.png","null","70","motor","","","","","","",""
"437","","277715","HierDyt47xjesb","07hp8hkz1q","msl000959","motor","img/motor_7.png","75","75","motor","7","349","1","0","0","",""
"null","","277823","HierDyt47xjesb","07hp8hkz1q","msl000959","iti","img/motor_blank.png","null","75","motor","","","","","","",""
"460","","278291","HierDyt47xjesb","07hp8hkz1q","msl000959","motor","img/motor_5.png","72","72","motor","5","350","1","0","0","",""
"null","","278399","HierDyt47xjesb","07hp8hkz1q","msl000959","iti","img/motor_blank.png","null","72","motor","","","","","","",""
"418","","278825","HierDyt47xjesb","07hp8hkz1q","msl000959","motor","img/motor_2.png","83","83","motor","2","351","1","0","0","",""
"null","","278933","HierDyt47xjesb","07hp8hkz1q","msl000959","iti","img/motor_blank.png","null","83","motor","","","","","","",""
"411","","279351","HierDyt47xjesb","07hp8hkz1q","msl000959","motor","img/motor_3.png","68","68","motor","3","352","1","0","0","",""
"null","","279458","HierDyt47xjesb","07hp8hkz1q","msl000959","iti","img/motor_blank.png","null","68","motor","","","","","","",""
"422","","279888","HierDyt47xjesb","07hp8hkz1q","msl000959","motor","img/motor_3.png","68","68","motor","3","353","1","0","0","",""
"null","","279996","HierDyt47xjesb","07hp8hkz1q","msl000959","iti","img/motor_blank.png","null","68","motor","","","","","","",""
"447","","280451","HierDyt47xjesb","07hp8hkz1q","msl000959","motor","img/motor_5.png","72","72","motor","5","354","1","0","0","",""
"null","","280559","HierDyt47xjesb","07hp8hkz1q","msl000959","iti","img/motor_blank.png","null","72","motor","","","","","","",""
"470","","281038","HierDyt47xjesb","07hp8hkz1q","msl000959","motor","img/motor_3.png","68","68","motor","3","355","1","0","0","",""
"null","","281147","HierDyt47xjesb","07hp8hkz1q","msl000959","iti","img/motor_blank.png","null","68","motor","","","","","","",""
"560","","281715","HierDyt47xjesb","07hp8hkz1q","msl000959","motor","img/motor_7.png","75","75","motor","7","356","1","0","0","",""
"null","","281824","HierDyt47xjesb","07hp8hkz1q","msl000959","iti","img/motor_blank.png","null","75","motor","","","","","","",""
"421","","282253","HierDyt47xjesb","07hp8hkz1q","msl000959","motor","img/motor_1.png","65","65","motor","1","357","1","0","0","",""
"null","","282362","HierDyt47xjesb","07hp8hkz1q","msl000959","iti","img/motor_blank.png","null","65","motor","","","","","","",""
"581","","282950","HierDyt47xjesb","07hp8hkz1q","msl000959","motor","img/motor_3.png","68","68","motor","3","358","1","0","0","",""
"null","","283059","HierDyt47xjesb","07hp8hkz1q","msl000959","iti","img/motor_blank.png","null","68","motor","","","","","","",""
"404","","283471","HierDyt47xjesb","07hp8hkz1q","msl000959","motor","img/motor_2.png","83","83","motor","2","359","1","0","0","",""
"null","","283581","HierDyt47xjesb","07hp8hkz1q","msl000959","iti","img/motor_blank.png","null","83","motor","","","","","","",""
"435","","284023","HierDyt47xjesb","07hp8hkz1q","msl000959","motor","img/motor_1.png","65","65","motor","1","360","1","0","0","",""
"null","","284132","HierDyt47xjesb","07hp8hkz1q","msl000959","iti","img/motor_blank.png","null","65","motor","","","","","","",""
"410","","284551","HierDyt47xjesb","07hp8hkz1q","msl000959","motor","img/motor_3.png","68","68","motor","3","361","1","0","0","",""
"null","","284659","HierDyt47xjesb","07hp8hkz1q","msl000959","iti","img/motor_blank.png","null","68","motor","","","","","","",""
"442","","285108","HierDyt47xjesb","07hp8hkz1q","msl000959","motor","img/motor_7.png","75","75","motor","7","362","1","0","0","",""
"null","","285217","HierDyt47xjesb","07hp8hkz1q","msl000959","iti","img/motor_blank.png","null","75","motor","","","","","","",""
"370","","285594","HierDyt47xjesb","07hp8hkz1q","msl000959","motor","img/motor_8.png","76","76","motor","8","363","1","0","0","",""
"null","","285703","HierDyt47xjesb","07hp8hkz1q","msl000959","iti","img/motor_blank.png","null","76","motor","","","","","","",""
"421","","286132","HierDyt47xjesb","07hp8hkz1q","msl000959","motor","img/motor_5.png","72","72","motor","5","364","1","0","0","",""
"null","","286241","HierDyt47xjesb","07hp8hkz1q","msl000959","iti","img/motor_blank.png","null","72","motor","","","","","","",""
"404","","286654","HierDyt47xjesb","07hp8hkz1q","msl000959","motor","img/motor_7.png","75","75","motor","7","365","1","0","0","",""
"null","","286762","HierDyt47xjesb","07hp8hkz1q","msl000959","iti","img/motor_blank.png","null","75","motor","","","","","","",""
"541","","287311","HierDyt47xjesb","07hp8hkz1q","msl000959","motor","img/motor_4.png","70","70","motor","4","366","1","0","0","",""
"null","","287420","HierDyt47xjesb","07hp8hkz1q","msl000959","iti","img/motor_blank.png","null","70","motor","","","","","","",""
"388","","287815","HierDyt47xjesb","07hp8hkz1q","msl000959","motor","img/motor_3.png","68","68","motor","3","367","1","0","0","",""
"null","","287923","HierDyt47xjesb","07hp8hkz1q","msl000959","iti","img/motor_blank.png","null","68","motor","","","","","","",""
"440","","288372","HierDyt47xjesb","07hp8hkz1q","msl000959","motor","img/motor_3.png","68","68","motor","3","368","1","0","0","",""
