"rt","responses","time_elapsed","subject","prolificID","demoID","trialType","stimulus","key_press","corrresp","phase","stimNum","trialNum","corr","repeatTrial","motorSwitch","pracCounter","hierarchy"
"5495","{""Q0"":""msl000682""}","5546","HierDypdjwjvrk","kbajf55b7l","msl000682","","","","","","","","","","","",""
"3690","","9244","HierDypdjwjvrk","kbajf55b7l","msl000682","","","","","","","","","","","",""
"","","11645","HierDypdjwjvrk","kbajf55b7l","msl000682","fullscreen","","","","","","","","","","",""
"46231","","57885","HierDypdjwjvrk","kbajf55b7l","msl000682","","","","","","","","","","","",""
"834","","58731","HierDypdjwjvrk","kbajf55b7l","msl000682","motor","img/motor_2.png","83","83","motor","2","1","1","0","0","",""
"null","","58841","HierDypdjwjvrk","kbajf55b7l","msl000682","iti","img/motor_blank.png","null","83","motor","","","","","","",""
"619","","59469","HierDypdjwjvrk","kbajf55b7l","msl000682","motor","img/motor_8.png","76","76","motor","8","2","1","0","0","",""
"null","","59579","HierDypdjwjvrk","kbajf55b7l","msl000682","iti","img/motor_blank.png","null","76","motor","","","","","","",""
"532","","60120","HierDypdjwjvrk","kbajf55b7l","msl000682","motor","img/motor_7.png","75","75","motor","7","3","1","0","0","",""
"null","","60231","HierDypdjwjvrk","kbajf55b7l","msl000682","iti","img/motor_blank.png","null","75","motor","","","","","","",""
"553","","60793","HierDypdjwjvrk","kbajf55b7l","msl000682","motor","img/motor_7.png","75","75","motor","7","4","1","0","0","",""
"null","","60904","HierDypdjwjvrk","kbajf55b7l","msl000682","iti","img/motor_blank.png","null","75","motor","","","","","","",""
"475","","61388","HierDypdjwjvrk","kbajf55b7l","msl000682","motor","img/motor_8.png","76","76","motor","8","5","1","0","0","",""
"null","","61498","HierDypdjwjvrk","kbajf55b7l","msl000682","iti","img/motor_blank.png","null","76","motor","","","","","","",""
"885","","62392","HierDypdjwjvrk","kbajf55b7l","msl000682","motor","img/motor_6.png","74","74","motor","6","6","1","0","0","",""
"null","","62503","HierDypdjwjvrk","kbajf55b7l","msl000682","iti","img/motor_blank.png","null","74","motor","","","","","","",""
"562","","63072","HierDypdjwjvrk","kbajf55b7l","msl000682","motor","img/motor_5.png","72","72","motor","5","7","1","0","0","",""
"null","","63178","HierDypdjwjvrk","kbajf55b7l","msl000682","iti","img/motor_blank.png","null","72","motor","","","","","","",""
"458","","63646","HierDypdjwjvrk","kbajf55b7l","msl000682","motor","img/motor_6.png","74","74","motor","6","8","1","0","0","",""
"null","","63756","HierDypdjwjvrk","kbajf55b7l","msl000682","iti","img/motor_blank.png","null","74","motor","","","","","","",""
"523","","64289","HierDypdjwjvrk","kbajf55b7l","msl000682","motor","img/motor_2.png","83","83","motor","2","9","1","0","0","",""
"null","","64397","HierDypdjwjvrk","kbajf55b7l","msl000682","iti","img/motor_blank.png","null","83","motor","","","","","","",""
"564","","64971","HierDypdjwjvrk","kbajf55b7l","msl000682","motor","img/motor_5.png","72","72","motor","5","10","1","0","0","",""
"null","","65080","HierDypdjwjvrk","kbajf55b7l","msl000682","iti","img/motor_blank.png","null","72","motor","","","","","","",""
"505","","65591","HierDypdjwjvrk","kbajf55b7l","msl000682","motor","img/motor_8.png","76","76","motor","8","11","1","0","0","",""
"null","","65702","HierDypdjwjvrk","kbajf55b7l","msl000682","iti","img/motor_blank.png","null","76","motor","","","","","","",""
"485","","66196","HierDypdjwjvrk","kbajf55b7l","msl000682","motor","img/motor_5.png","72","72","motor","5","12","1","0","0","",""
"null","","66306","HierDypdjwjvrk","kbajf55b7l","msl000682","iti","img/motor_blank.png","null","72","motor","","","","","","",""
"473","","66787","HierDypdjwjvrk","kbajf55b7l","msl000682","motor","img/motor_1.png","65","65","motor","1","13","1","0","0","",""
"null","","66895","HierDypdjwjvrk","kbajf55b7l","msl000682","iti","img/motor_blank.png","null","65","motor","","","","","","",""
"837","","67741","HierDypdjwjvrk","kbajf55b7l","msl000682","motor","img/motor_3.png","68","68","motor","3","14","1","0","0","",""
"null","","67850","HierDypdjwjvrk","kbajf55b7l","msl000682","iti","img/motor_blank.png","null","68","motor","","","","","","",""
"550","","68409","HierDypdjwjvrk","kbajf55b7l","msl000682","motor","img/motor_1.png","65","65","motor","1","15","1","0","0","",""
"null","","68519","HierDypdjwjvrk","kbajf55b7l","msl000682","iti","img/motor_blank.png","null","65","motor","","","","","","",""
"714","","69241","HierDypdjwjvrk","kbajf55b7l","msl000682","motor","img/motor_7.png","75","75","motor","7","16","1","0","0","",""
"null","","69350","HierDypdjwjvrk","kbajf55b7l","msl000682","iti","img/motor_blank.png","null","75","motor","","","","","","",""
"500","","69856","HierDypdjwjvrk","kbajf55b7l","msl000682","motor","img/motor_5.png","72","72","motor","5","17","1","0","0","",""
"null","","69967","HierDypdjwjvrk","kbajf55b7l","msl000682","iti","img/motor_blank.png","null","72","motor","","","","","","",""
"511","","70485","HierDypdjwjvrk","kbajf55b7l","msl000682","motor","img/motor_6.png","74","74","motor","6","18","1","0","0","",""
"null","","70592","HierDypdjwjvrk","kbajf55b7l","msl000682","iti","img/motor_blank.png","null","74","motor","","","","","","",""
"468","","71071","HierDypdjwjvrk","kbajf55b7l","msl000682","motor","img/motor_5.png","72","72","motor","5","19","1","0","0","",""
"null","","71183","HierDypdjwjvrk","kbajf55b7l","msl000682","iti","img/motor_blank.png","null","72","motor","","","","","","",""
"511","","71705","HierDypdjwjvrk","kbajf55b7l","msl000682","motor","img/motor_2.png","83","83","motor","2","20","1","0","0","",""
"null","","71814","HierDypdjwjvrk","kbajf55b7l","msl000682","iti","img/motor_blank.png","null","83","motor","","","","","","",""
"464","","72288","HierDypdjwjvrk","kbajf55b7l","msl000682","motor","img/motor_1.png","65","65","motor","1","21","1","0","0","",""
"null","","72398","HierDypdjwjvrk","kbajf55b7l","msl000682","iti","img/motor_blank.png","null","65","motor","","","","","","",""
"539","","72947","HierDypdjwjvrk","kbajf55b7l","msl000682","motor","img/motor_4.png","70","70","motor","4","22","1","0","0","",""
"null","","73055","HierDypdjwjvrk","kbajf55b7l","msl000682","iti","img/motor_blank.png","null","70","motor","","","","","","",""
"458","","73522","HierDypdjwjvrk","kbajf55b7l","msl000682","motor","img/motor_1.png","65","65","motor","1","23","1","0","0","",""
"null","","73630","HierDypdjwjvrk","kbajf55b7l","msl000682","iti","img/motor_blank.png","null","65","motor","","","","","","",""
"463","","74103","HierDypdjwjvrk","kbajf55b7l","msl000682","motor","img/motor_8.png","76","76","motor","8","24","1","0","0","",""
"null","","74212","HierDypdjwjvrk","kbajf55b7l","msl000682","iti","img/motor_blank.png","null","76","motor","","","","","","",""
"442","","74662","HierDypdjwjvrk","kbajf55b7l","msl000682","motor","img/motor_5.png","72","72","motor","5","25","1","0","0","",""
"null","","74770","HierDypdjwjvrk","kbajf55b7l","msl000682","iti","img/motor_blank.png","null","72","motor","","","","","","",""
"441","","75222","HierDypdjwjvrk","kbajf55b7l","msl000682","motor","img/motor_6.png","74","74","motor","6","26","1","0","0","",""
"null","","75332","HierDypdjwjvrk","kbajf55b7l","msl000682","iti","img/motor_blank.png","null","74","motor","","","","","","",""
"729","","76071","HierDypdjwjvrk","kbajf55b7l","msl000682","motor","img/motor_4.png","70","70","motor","4","27","1","0","0","",""
"null","","76181","HierDypdjwjvrk","kbajf55b7l","msl000682","iti","img/motor_blank.png","null","70","motor","","","","","","",""
"478","","76670","HierDypdjwjvrk","kbajf55b7l","msl000682","motor","img/motor_1.png","65","65","motor","1","28","1","0","0","",""
"null","","76781","HierDypdjwjvrk","kbajf55b7l","msl000682","iti","img/motor_blank.png","null","65","motor","","","","","","",""
"436","","77224","HierDypdjwjvrk","kbajf55b7l","msl000682","motor","img/motor_1.png","65","65","motor","1","29","1","0","0","",""
"null","","77332","HierDypdjwjvrk","kbajf55b7l","msl000682","iti","img/motor_blank.png","null","65","motor","","","","","","",""
"567","","77908","HierDypdjwjvrk","kbajf55b7l","msl000682","motor","img/motor_2.png","83","83","motor","2","30","1","0","0","",""
"null","","78018","HierDypdjwjvrk","kbajf55b7l","msl000682","iti","img/motor_blank.png","null","83","motor","","","","","","",""
"640","","78667","HierDypdjwjvrk","kbajf55b7l","msl000682","motor","img/motor_6.png","75","74","motor","6","31","0","1","0","",""
"587","","79262","HierDypdjwjvrk","kbajf55b7l","msl000682","motorRepeat","img/motor_6.png","74","74","motor","6","31","1","0","0","",""
"null","","79372","HierDypdjwjvrk","kbajf55b7l","msl000682","iti","img/motor_blank.png","null","74","motor","","","","","","",""
"584","","79965","HierDypdjwjvrk","kbajf55b7l","msl000682","motor","img/motor_5.png","72","72","motor","5","32","1","0","0","",""
"null","","80074","HierDypdjwjvrk","kbajf55b7l","msl000682","iti","img/motor_blank.png","null","72","motor","","","","","","",""
"771","","80851","HierDypdjwjvrk","kbajf55b7l","msl000682","motor","img/motor_2.png","83","83","motor","2","33","1","0","0","",""
"null","","80961","HierDypdjwjvrk","kbajf55b7l","msl000682","iti","img/motor_blank.png","null","83","motor","","","","","","",""
"586","","81556","HierDypdjwjvrk","kbajf55b7l","msl000682","motor","img/motor_3.png","68","68","motor","3","34","1","0","0","",""
"null","","81665","HierDypdjwjvrk","kbajf55b7l","msl000682","iti","img/motor_blank.png","null","68","motor","","","","","","",""
"539","","82214","HierDypdjwjvrk","kbajf55b7l","msl000682","motor","img/motor_6.png","74","74","motor","6","35","1","0","0","",""
"null","","82322","HierDypdjwjvrk","kbajf55b7l","msl000682","iti","img/motor_blank.png","null","74","motor","","","","","","",""
"825","","83157","HierDypdjwjvrk","kbajf55b7l","msl000682","motor","img/motor_2.png","83","83","motor","2","36","1","0","0","",""
"null","","83265","HierDypdjwjvrk","kbajf55b7l","msl000682","iti","img/motor_blank.png","null","83","motor","","","","","","",""
"394","","83669","HierDypdjwjvrk","kbajf55b7l","msl000682","motor","img/motor_2.png","83","83","motor","2","37","1","0","0","",""
"null","","83779","HierDypdjwjvrk","kbajf55b7l","msl000682","iti","img/motor_blank.png","null","83","motor","","","","","","",""
"478","","84265","HierDypdjwjvrk","kbajf55b7l","msl000682","motor","img/motor_8.png","76","76","motor","8","38","1","0","0","",""
"null","","84375","HierDypdjwjvrk","kbajf55b7l","msl000682","iti","img/motor_blank.png","null","76","motor","","","","","","",""
"529","","84913","HierDypdjwjvrk","kbajf55b7l","msl000682","motor","img/motor_2.png","83","83","motor","2","39","1","0","0","",""
"null","","85022","HierDypdjwjvrk","kbajf55b7l","msl000682","iti","img/motor_blank.png","null","83","motor","","","","","","",""
"715","","85746","HierDypdjwjvrk","kbajf55b7l","msl000682","motor","img/motor_6.png","74","74","motor","6","40","1","0","0","",""
"null","","85857","HierDypdjwjvrk","kbajf55b7l","msl000682","iti","img/motor_blank.png","null","74","motor","","","","","","",""
"572","","86438","HierDypdjwjvrk","kbajf55b7l","msl000682","motor","img/motor_6.png","74","74","motor","6","41","1","0","0","",""
"null","","86546","HierDypdjwjvrk","kbajf55b7l","msl000682","iti","img/motor_blank.png","null","74","motor","","","","","","",""
"932","","87488","HierDypdjwjvrk","kbajf55b7l","msl000682","motor","img/motor_3.png","68","68","motor","3","42","1","0","0","",""
"null","","87596","HierDypdjwjvrk","kbajf55b7l","msl000682","iti","img/motor_blank.png","null","68","motor","","","","","","",""
"852","","88454","HierDypdjwjvrk","kbajf55b7l","msl000682","motor","img/motor_8.png","76","76","motor","8","43","1","0","0","",""
"null","","88564","HierDypdjwjvrk","kbajf55b7l","msl000682","iti","img/motor_blank.png","null","76","motor","","","","","","",""
"542","","89113","HierDypdjwjvrk","kbajf55b7l","msl000682","motor","img/motor_3.png","68","68","motor","3","44","1","0","0","",""
"null","","89223","HierDypdjwjvrk","kbajf55b7l","msl000682","iti","img/motor_blank.png","null","68","motor","","","","","","",""
"459","","89690","HierDypdjwjvrk","kbajf55b7l","msl000682","motor","img/motor_4.png","70","70","motor","4","45","1","0","0","",""
"null","","89801","HierDypdjwjvrk","kbajf55b7l","msl000682","iti","img/motor_blank.png","null","70","motor","","","","","","",""
"713","","90522","HierDypdjwjvrk","kbajf55b7l","msl000682","motor","img/motor_2.png","83","83","motor","2","46","1","0","0","",""
"null","","90631","HierDypdjwjvrk","kbajf55b7l","msl000682","iti","img/motor_blank.png","null","83","motor","","","","","","",""
"635","","91275","HierDypdjwjvrk","kbajf55b7l","msl000682","motor","img/motor_3.png","68","68","motor","3","47","1","0","0","",""
"null","","91384","HierDypdjwjvrk","kbajf55b7l","msl000682","iti","img/motor_blank.png","null","68","motor","","","","","","",""
"399","","91793","HierDypdjwjvrk","kbajf55b7l","msl000682","motor","img/motor_2.png","83","83","motor","2","48","1","0","0","",""
"null","","91900","HierDypdjwjvrk","kbajf55b7l","msl000682","iti","img/motor_blank.png","null","83","motor","","","","","","",""
"658","","92565","HierDypdjwjvrk","kbajf55b7l","msl000682","motor","img/motor_7.png","75","75","motor","7","49","1","0","0","",""
"null","","92675","HierDypdjwjvrk","kbajf55b7l","msl000682","iti","img/motor_blank.png","null","75","motor","","","","","","",""
"701","","93385","HierDypdjwjvrk","kbajf55b7l","msl000682","motor","img/motor_6.png","74","74","motor","6","50","1","0","0","",""
"null","","93492","HierDypdjwjvrk","kbajf55b7l","msl000682","iti","img/motor_blank.png","null","74","motor","","","","","","",""
"550","","94050","HierDypdjwjvrk","kbajf55b7l","msl000682","motor","img/motor_3.png","68","68","motor","3","51","1","0","0","",""
"null","","94157","HierDypdjwjvrk","kbajf55b7l","msl000682","iti","img/motor_blank.png","null","68","motor","","","","","","",""
"511","","94677","HierDypdjwjvrk","kbajf55b7l","msl000682","motor","img/motor_4.png","70","70","motor","4","52","1","0","0","",""
"null","","94784","HierDypdjwjvrk","kbajf55b7l","msl000682","iti","img/motor_blank.png","null","70","motor","","","","","","",""
"514","","95307","HierDypdjwjvrk","kbajf55b7l","msl000682","motor","img/motor_5.png","74","72","motor","5","53","0","1","0","",""
"430","","95747","HierDypdjwjvrk","kbajf55b7l","msl000682","motorRepeat","img/motor_5.png","72","72","motor","5","53","1","0","0","",""
"null","","95854","HierDypdjwjvrk","kbajf55b7l","msl000682","iti","img/motor_blank.png","null","72","motor","","","","","","",""
"647","","96511","HierDypdjwjvrk","kbajf55b7l","msl000682","motor","img/motor_2.png","83","83","motor","2","54","1","0","0","",""
"null","","96621","HierDypdjwjvrk","kbajf55b7l","msl000682","iti","img/motor_blank.png","null","83","motor","","","","","","",""
"491","","97122","HierDypdjwjvrk","kbajf55b7l","msl000682","motor","img/motor_5.png","72","72","motor","5","55","1","0","0","",""
"null","","97229","HierDypdjwjvrk","kbajf55b7l","msl000682","iti","img/motor_blank.png","null","72","motor","","","","","","",""
"566","","97805","HierDypdjwjvrk","kbajf55b7l","msl000682","motor","img/motor_3.png","68","68","motor","3","56","1","0","0","",""
"null","","97914","HierDypdjwjvrk","kbajf55b7l","msl000682","iti","img/motor_blank.png","null","68","motor","","","","","","",""
"375","","98297","HierDypdjwjvrk","kbajf55b7l","msl000682","motor","img/motor_3.png","68","68","motor","3","57","1","0","0","",""
"null","","98405","HierDypdjwjvrk","kbajf55b7l","msl000682","iti","img/motor_blank.png","null","68","motor","","","","","","",""
"610","","99022","HierDypdjwjvrk","kbajf55b7l","msl000682","motor","img/motor_6.png","74","74","motor","6","58","1","0","0","",""
"null","","99133","HierDypdjwjvrk","kbajf55b7l","msl000682","iti","img/motor_blank.png","null","74","motor","","","","","","",""
"529","","99670","HierDypdjwjvrk","kbajf55b7l","msl000682","motor","img/motor_4.png","70","70","motor","4","59","1","0","0","",""
"null","","99780","HierDypdjwjvrk","kbajf55b7l","msl000682","iti","img/motor_blank.png","null","70","motor","","","","","","",""
"529","","100318","HierDypdjwjvrk","kbajf55b7l","msl000682","motor","img/motor_6.png","74","74","motor","6","60","1","0","0","",""
"null","","100427","HierDypdjwjvrk","kbajf55b7l","msl000682","iti","img/motor_blank.png","null","74","motor","","","","","","",""
"439","","100875","HierDypdjwjvrk","kbajf55b7l","msl000682","motor","img/motor_8.png","76","76","motor","8","61","1","0","0","",""
"null","","100984","HierDypdjwjvrk","kbajf55b7l","msl000682","iti","img/motor_blank.png","null","76","motor","","","","","","",""
"435","","101427","HierDypdjwjvrk","kbajf55b7l","msl000682","motor","img/motor_5.png","72","72","motor","5","62","1","0","0","",""
"null","","101537","HierDypdjwjvrk","kbajf55b7l","msl000682","iti","img/motor_blank.png","null","72","motor","","","","","","",""
"781","","102326","HierDypdjwjvrk","kbajf55b7l","msl000682","motor","img/motor_7.png","75","75","motor","7","63","1","0","0","",""
"null","","102436","HierDypdjwjvrk","kbajf55b7l","msl000682","iti","img/motor_blank.png","null","75","motor","","","","","","",""
"725","","103169","HierDypdjwjvrk","kbajf55b7l","msl000682","motor","img/motor_3.png","68","68","motor","3","64","1","0","0","",""
"null","","103279","HierDypdjwjvrk","kbajf55b7l","msl000682","iti","img/motor_blank.png","null","68","motor","","","","","","",""
"415","","103702","HierDypdjwjvrk","kbajf55b7l","msl000682","motor","img/motor_2.png","83","83","motor","2","65","1","0","0","",""
"null","","103812","HierDypdjwjvrk","kbajf55b7l","msl000682","iti","img/motor_blank.png","null","83","motor","","","","","","",""
"421","","104243","HierDypdjwjvrk","kbajf55b7l","msl000682","motor","img/motor_3.png","68","68","motor","3","66","1","0","0","",""
"null","","104351","HierDypdjwjvrk","kbajf55b7l","msl000682","iti","img/motor_blank.png","null","68","motor","","","","","","",""
"571","","104929","HierDypdjwjvrk","kbajf55b7l","msl000682","motor","img/motor_7.png","75","75","motor","7","67","1","0","0","",""
"null","","105040","HierDypdjwjvrk","kbajf55b7l","msl000682","iti","img/motor_blank.png","null","75","motor","","","","","","",""
"664","","105713","HierDypdjwjvrk","kbajf55b7l","msl000682","motor","img/motor_2.png","83","83","motor","2","68","1","0","0","",""
"null","","105821","HierDypdjwjvrk","kbajf55b7l","msl000682","iti","img/motor_blank.png","null","83","motor","","","","","","",""
"500","","106331","HierDypdjwjvrk","kbajf55b7l","msl000682","motor","img/motor_4.png","70","70","motor","4","69","1","0","0","",""
"null","","106440","HierDypdjwjvrk","kbajf55b7l","msl000682","iti","img/motor_blank.png","null","70","motor","","","","","","",""
"633","","107084","HierDypdjwjvrk","kbajf55b7l","msl000682","motor","img/motor_6.png","74","74","motor","6","70","1","0","0","",""
"null","","107193","HierDypdjwjvrk","kbajf55b7l","msl000682","iti","img/motor_blank.png","null","74","motor","","","","","","",""
"537","","107740","HierDypdjwjvrk","kbajf55b7l","msl000682","motor","img/motor_4.png","70","70","motor","4","71","1","0","0","",""
"null","","107850","HierDypdjwjvrk","kbajf55b7l","msl000682","iti","img/motor_blank.png","null","70","motor","","","","","","",""
"425","","108284","HierDypdjwjvrk","kbajf55b7l","msl000682","motor","img/motor_2.png","83","83","motor","2","72","1","0","0","",""
"null","","108395","HierDypdjwjvrk","kbajf55b7l","msl000682","iti","img/motor_blank.png","null","83","motor","","","","","","",""
"530","","108933","HierDypdjwjvrk","kbajf55b7l","msl000682","motor","img/motor_6.png","75","74","motor","6","73","0","1","0","",""
"488","","109431","HierDypdjwjvrk","kbajf55b7l","msl000682","motorRepeat","img/motor_6.png","74","74","motor","6","73","1","0","0","",""
"null","","109540","HierDypdjwjvrk","kbajf55b7l","msl000682","iti","img/motor_blank.png","null","74","motor","","","","","","",""
"510","","110060","HierDypdjwjvrk","kbajf55b7l","msl000682","motor","img/motor_4.png","70","70","motor","4","74","1","0","0","",""
"null","","110171","HierDypdjwjvrk","kbajf55b7l","msl000682","iti","img/motor_blank.png","null","70","motor","","","","","","",""
"516","","110696","HierDypdjwjvrk","kbajf55b7l","msl000682","motor","img/motor_1.png","65","65","motor","1","75","1","0","0","",""
"null","","110805","HierDypdjwjvrk","kbajf55b7l","msl000682","iti","img/motor_blank.png","null","65","motor","","","","","","",""
"916","","111732","HierDypdjwjvrk","kbajf55b7l","msl000682","motor","img/motor_3.png","68","68","motor","3","76","1","0","0","",""
"null","","111841","HierDypdjwjvrk","kbajf55b7l","msl000682","iti","img/motor_blank.png","null","68","motor","","","","","","",""
"608","","112458","HierDypdjwjvrk","kbajf55b7l","msl000682","motor","img/motor_4.png","70","70","motor","4","77","1","0","0","",""
"null","","112566","HierDypdjwjvrk","kbajf55b7l","msl000682","iti","img/motor_blank.png","null","70","motor","","","","","","",""
"487","","113063","HierDypdjwjvrk","kbajf55b7l","msl000682","motor","img/motor_6.png","74","74","motor","6","78","1","0","0","",""
"null","","113172","HierDypdjwjvrk","kbajf55b7l","msl000682","iti","img/motor_blank.png","null","74","motor","","","","","","",""
"641","","113822","HierDypdjwjvrk","kbajf55b7l","msl000682","motor","img/motor_7.png","75","75","motor","7","79","1","0","0","",""
"null","","113931","HierDypdjwjvrk","kbajf55b7l","msl000682","iti","img/motor_blank.png","null","75","motor","","","","","","",""
"518","","114460","HierDypdjwjvrk","kbajf55b7l","msl000682","motor","img/motor_6.png","74","74","motor","6","80","1","0","0","",""
"null","","114570","HierDypdjwjvrk","kbajf55b7l","msl000682","iti","img/motor_blank.png","null","74","motor","","","","","","",""
"544","","115124","HierDypdjwjvrk","kbajf55b7l","msl000682","motor","img/motor_4.png","70","70","motor","4","81","1","0","0","",""
"null","","115234","HierDypdjwjvrk","kbajf55b7l","msl000682","iti","img/motor_blank.png","null","70","motor","","","","","","",""
"466","","115708","HierDypdjwjvrk","kbajf55b7l","msl000682","motor","img/motor_8.png","76","76","motor","8","82","1","0","0","",""
"null","","115816","HierDypdjwjvrk","kbajf55b7l","msl000682","iti","img/motor_blank.png","null","76","motor","","","","","","",""
"436","","116259","HierDypdjwjvrk","kbajf55b7l","msl000682","motor","img/motor_4.png","70","70","motor","4","83","1","0","0","",""
"null","","116368","HierDypdjwjvrk","kbajf55b7l","msl000682","iti","img/motor_blank.png","null","70","motor","","","","","","",""
"468","","116844","HierDypdjwjvrk","kbajf55b7l","msl000682","motor","img/motor_2.png","83","83","motor","2","84","1","0","0","",""
"null","","116954","HierDypdjwjvrk","kbajf55b7l","msl000682","iti","img/motor_blank.png","null","83","motor","","","","","","",""
"605","","117568","HierDypdjwjvrk","kbajf55b7l","msl000682","motor","img/motor_3.png","68","68","motor","3","85","1","0","0","",""
"null","","117676","HierDypdjwjvrk","kbajf55b7l","msl000682","iti","img/motor_blank.png","null","68","motor","","","","","","",""
"498","","118183","HierDypdjwjvrk","kbajf55b7l","msl000682","motor","img/motor_6.png","74","74","motor","6","86","1","0","0","",""
"null","","118292","HierDypdjwjvrk","kbajf55b7l","msl000682","iti","img/motor_blank.png","null","74","motor","","","","","","",""
"479","","118781","HierDypdjwjvrk","kbajf55b7l","msl000682","motor","img/motor_4.png","70","70","motor","4","87","1","0","0","",""
"null","","118887","HierDypdjwjvrk","kbajf55b7l","msl000682","iti","img/motor_blank.png","null","70","motor","","","","","","",""
"543","","119439","HierDypdjwjvrk","kbajf55b7l","msl000682","motor","img/motor_4.png","70","70","motor","4","88","1","0","0","",""
"null","","119547","HierDypdjwjvrk","kbajf55b7l","msl000682","iti","img/motor_blank.png","null","70","motor","","","","","","",""
"412","","119969","HierDypdjwjvrk","kbajf55b7l","msl000682","motor","img/motor_1.png","65","65","motor","1","89","1","0","0","",""
"null","","120078","HierDypdjwjvrk","kbajf55b7l","msl000682","iti","img/motor_blank.png","null","65","motor","","","","","","",""
"536","","120621","HierDypdjwjvrk","kbajf55b7l","msl000682","motor","img/motor_3.png","68","68","motor","3","90","1","0","0","",""
"null","","120731","HierDypdjwjvrk","kbajf55b7l","msl000682","iti","img/motor_blank.png","null","68","motor","","","","","","",""
"576","","121315","HierDypdjwjvrk","kbajf55b7l","msl000682","motor","img/motor_2.png","83","83","motor","2","91","1","0","0","",""
"null","","121424","HierDypdjwjvrk","kbajf55b7l","msl000682","iti","img/motor_blank.png","null","83","motor","","","","","","",""
"641","","122074","HierDypdjwjvrk","kbajf55b7l","msl000682","motor","img/motor_6.png","74","74","motor","6","92","1","0","0","",""
"null","","122185","HierDypdjwjvrk","kbajf55b7l","msl000682","iti","img/motor_blank.png","null","74","motor","","","","","","",""
"577","","122770","HierDypdjwjvrk","kbajf55b7l","msl000682","motor","img/motor_6.png","74","74","motor","6","93","1","0","0","",""
"null","","122879","HierDypdjwjvrk","kbajf55b7l","msl000682","iti","img/motor_blank.png","null","74","motor","","","","","","",""
"425","","123314","HierDypdjwjvrk","kbajf55b7l","msl000682","motor","img/motor_1.png","65","65","motor","1","94","1","0","0","",""
"null","","123423","HierDypdjwjvrk","kbajf55b7l","msl000682","iti","img/motor_blank.png","null","65","motor","","","","","","",""
"391","","123822","HierDypdjwjvrk","kbajf55b7l","msl000682","motor","img/motor_1.png","65","65","motor","1","95","1","0","0","",""
"null","","123933","HierDypdjwjvrk","kbajf55b7l","msl000682","iti","img/motor_blank.png","null","65","motor","","","","","","",""
"535","","124478","HierDypdjwjvrk","kbajf55b7l","msl000682","motor","img/motor_6.png","74","74","motor","6","96","1","0","0","",""
"null","","124586","HierDypdjwjvrk","kbajf55b7l","msl000682","iti","img/motor_blank.png","null","74","motor","","","","","","",""
"402","","124995","HierDypdjwjvrk","kbajf55b7l","msl000682","motor","img/motor_6.png","74","74","motor","6","97","1","0","0","",""
"null","","125103","HierDypdjwjvrk","kbajf55b7l","msl000682","iti","img/motor_blank.png","null","74","motor","","","","","","",""
"453","","125566","HierDypdjwjvrk","kbajf55b7l","msl000682","motor","img/motor_8.png","76","76","motor","8","98","1","0","0","",""
"null","","125672","HierDypdjwjvrk","kbajf55b7l","msl000682","iti","img/motor_blank.png","null","76","motor","","","","","","",""
"788","","126469","HierDypdjwjvrk","kbajf55b7l","msl000682","motor","img/motor_3.png","68","68","motor","3","99","1","0","0","",""
"null","","126577","HierDypdjwjvrk","kbajf55b7l","msl000682","iti","img/motor_blank.png","null","68","motor","","","","","","",""
"410","","126996","HierDypdjwjvrk","kbajf55b7l","msl000682","motor","img/motor_8.png","76","76","motor","8","100","1","0","0","",""
"null","","127106","HierDypdjwjvrk","kbajf55b7l","msl000682","iti","img/motor_blank.png","null","76","motor","","","","","","",""
"463","","127576","HierDypdjwjvrk","kbajf55b7l","msl000682","motor","img/motor_1.png","65","65","motor","1","101","1","0","0","",""
"null","","127686","HierDypdjwjvrk","kbajf55b7l","msl000682","iti","img/motor_blank.png","null","65","motor","","","","","","",""
"514","","128208","HierDypdjwjvrk","kbajf55b7l","msl000682","motor","img/motor_5.png","72","72","motor","5","102","1","0","0","",""
"null","","128317","HierDypdjwjvrk","kbajf55b7l","msl000682","iti","img/motor_blank.png","null","72","motor","","","","","","",""
"486","","128811","HierDypdjwjvrk","kbajf55b7l","msl000682","motor","img/motor_8.png","76","76","motor","8","103","1","0","0","",""
"null","","128921","HierDypdjwjvrk","kbajf55b7l","msl000682","iti","img/motor_blank.png","null","76","motor","","","","","","",""
"374","","129304","HierDypdjwjvrk","kbajf55b7l","msl000682","motor","img/motor_1.png","65","65","motor","1","104","1","0","0","",""
"null","","129415","HierDypdjwjvrk","kbajf55b7l","msl000682","iti","img/motor_blank.png","null","65","motor","","","","","","",""
"583","","130006","HierDypdjwjvrk","kbajf55b7l","msl000682","motor","img/motor_3.png","68","68","motor","3","105","1","0","0","",""
"null","","130113","HierDypdjwjvrk","kbajf55b7l","msl000682","iti","img/motor_blank.png","null","68","motor","","","","","","",""
"543","","130664","HierDypdjwjvrk","kbajf55b7l","msl000682","motor","img/motor_8.png","76","76","motor","8","106","1","0","0","",""
"null","","130775","HierDypdjwjvrk","kbajf55b7l","msl000682","iti","img/motor_blank.png","null","76","motor","","","","","","",""
"478","","131261","HierDypdjwjvrk","kbajf55b7l","msl000682","motor","img/motor_2.png","83","83","motor","2","107","1","0","0","",""
"null","","131371","HierDypdjwjvrk","kbajf55b7l","msl000682","iti","img/motor_blank.png","null","83","motor","","","","","","",""
"479","","131858","HierDypdjwjvrk","kbajf55b7l","msl000682","motor","img/motor_1.png","65","65","motor","1","108","1","0","0","",""
"null","","131967","HierDypdjwjvrk","kbajf55b7l","msl000682","iti","img/motor_blank.png","null","65","motor","","","","","","",""
"418","","132395","HierDypdjwjvrk","kbajf55b7l","msl000682","motor","img/motor_4.png","70","70","motor","4","109","1","0","0","",""
"null","","132506","HierDypdjwjvrk","kbajf55b7l","msl000682","iti","img/motor_blank.png","null","70","motor","","","","","","",""
"372","","132886","HierDypdjwjvrk","kbajf55b7l","msl000682","motor","img/motor_8.png","76","76","motor","8","110","1","0","0","",""
"null","","132993","HierDypdjwjvrk","kbajf55b7l","msl000682","iti","img/motor_blank.png","null","76","motor","","","","","","",""
"402","","133404","HierDypdjwjvrk","kbajf55b7l","msl000682","motor","img/motor_8.png","76","76","motor","8","111","1","0","0","",""
"null","","133513","HierDypdjwjvrk","kbajf55b7l","msl000682","iti","img/motor_blank.png","null","76","motor","","","","","","",""
"718","","134240","HierDypdjwjvrk","kbajf55b7l","msl000682","motor","img/motor_6.png","74","74","motor","6","112","1","0","0","",""
"null","","134348","HierDypdjwjvrk","kbajf55b7l","msl000682","iti","img/motor_blank.png","null","74","motor","","","","","","",""
"403","","134760","HierDypdjwjvrk","kbajf55b7l","msl000682","motor","img/motor_1.png","65","65","motor","1","113","1","0","0","",""
"null","","134870","HierDypdjwjvrk","kbajf55b7l","msl000682","iti","img/motor_blank.png","null","65","motor","","","","","","",""
"666","","135548","HierDypdjwjvrk","kbajf55b7l","msl000682","motor","img/motor_3.png","68","68","motor","3","114","1","0","0","",""
"null","","135660","HierDypdjwjvrk","kbajf55b7l","msl000682","iti","img/motor_blank.png","null","68","motor","","","","","","",""
"380","","136051","HierDypdjwjvrk","kbajf55b7l","msl000682","motor","img/motor_1.png","65","65","motor","1","115","1","0","0","",""
"null","","136160","HierDypdjwjvrk","kbajf55b7l","msl000682","iti","img/motor_blank.png","null","65","motor","","","","","","",""
"556","","136726","HierDypdjwjvrk","kbajf55b7l","msl000682","motor","img/motor_4.png","70","70","motor","4","116","1","0","0","",""
"null","","136837","HierDypdjwjvrk","kbajf55b7l","msl000682","iti","img/motor_blank.png","null","70","motor","","","","","","",""
"757","","137603","HierDypdjwjvrk","kbajf55b7l","msl000682","motor","img/motor_6.png","74","74","motor","6","117","1","0","0","",""
"null","","137712","HierDypdjwjvrk","kbajf55b7l","msl000682","iti","img/motor_blank.png","null","74","motor","","","","","","",""
"430","","138151","HierDypdjwjvrk","kbajf55b7l","msl000682","motor","img/motor_8.png","76","76","motor","8","118","1","0","0","",""
"null","","138260","HierDypdjwjvrk","kbajf55b7l","msl000682","iti","img/motor_blank.png","null","76","motor","","","","","","",""
"494","","138764","HierDypdjwjvrk","kbajf55b7l","msl000682","motor","img/motor_5.png","72","72","motor","5","119","1","0","0","",""
"null","","138874","HierDypdjwjvrk","kbajf55b7l","msl000682","iti","img/motor_blank.png","null","72","motor","","","","","","",""
"560","","139446","HierDypdjwjvrk","kbajf55b7l","msl000682","motor","img/motor_2.png","83","83","motor","2","120","1","0","0","",""
"null","","139556","HierDypdjwjvrk","kbajf55b7l","msl000682","iti","img/motor_blank.png","null","83","motor","","","","","","",""
"578","","140146","HierDypdjwjvrk","kbajf55b7l","msl000682","motor","img/motor_5.png","72","72","motor","5","121","1","0","0","",""
"null","","140257","HierDypdjwjvrk","kbajf55b7l","msl000682","iti","img/motor_blank.png","null","72","motor","","","","","","",""
"458","","140726","HierDypdjwjvrk","kbajf55b7l","msl000682","motor","img/motor_5.png","72","72","motor","5","122","1","0","0","",""
"null","","140835","HierDypdjwjvrk","kbajf55b7l","msl000682","iti","img/motor_blank.png","null","72","motor","","","","","","",""
"528","","141372","HierDypdjwjvrk","kbajf55b7l","msl000682","motor","img/motor_3.png","68","68","motor","3","123","1","0","0","",""
"null","","141483","HierDypdjwjvrk","kbajf55b7l","msl000682","iti","img/motor_blank.png","null","68","motor","","","","","","",""
"514","","142005","HierDypdjwjvrk","kbajf55b7l","msl000682","motor","img/motor_2.png","83","83","motor","2","124","1","0","0","",""
"null","","142116","HierDypdjwjvrk","kbajf55b7l","msl000682","iti","img/motor_blank.png","null","83","motor","","","","","","",""
"456","","142582","HierDypdjwjvrk","kbajf55b7l","msl000682","motor","img/motor_3.png","70","68","motor","3","125","0","1","0","",""
"386","","142977","HierDypdjwjvrk","kbajf55b7l","msl000682","motorRepeat","img/motor_3.png","68","68","motor","3","125","1","0","0","",""
"null","","143086","HierDypdjwjvrk","kbajf55b7l","msl000682","iti","img/motor_blank.png","null","68","motor","","","","","","",""
"460","","143554","HierDypdjwjvrk","kbajf55b7l","msl000682","motor","img/motor_8.png","76","76","motor","8","126","1","0","0","",""
"null","","143664","HierDypdjwjvrk","kbajf55b7l","msl000682","iti","img/motor_blank.png","null","76","motor","","","","","","",""
"620","","144292","HierDypdjwjvrk","kbajf55b7l","msl000682","motor","img/motor_2.png","83","83","motor","2","127","1","0","0","",""
"null","","144403","HierDypdjwjvrk","kbajf55b7l","msl000682","iti","img/motor_blank.png","null","83","motor","","","","","","",""
"480","","144893","HierDypdjwjvrk","kbajf55b7l","msl000682","motor","img/motor_7.png","76","75","motor","7","128","0","1","0","",""
"481","","145382","HierDypdjwjvrk","kbajf55b7l","msl000682","motorRepeat","img/motor_7.png","75","75","motor","7","128","1","0","0","",""
"null","","145492","HierDypdjwjvrk","kbajf55b7l","msl000682","iti","img/motor_blank.png","null","75","motor","","","","","","",""
"503","","146004","HierDypdjwjvrk","kbajf55b7l","msl000682","motor","img/motor_8.png","76","76","motor","8","129","1","0","0","",""
"null","","146115","HierDypdjwjvrk","kbajf55b7l","msl000682","iti","img/motor_blank.png","null","76","motor","","","","","","",""
"515","","146638","HierDypdjwjvrk","kbajf55b7l","msl000682","motor","img/motor_1.png","65","65","motor","1","130","1","0","0","",""
"null","","146749","HierDypdjwjvrk","kbajf55b7l","msl000682","iti","img/motor_blank.png","null","65","motor","","","","","","",""
"607","","147365","HierDypdjwjvrk","kbajf55b7l","msl000682","motor","img/motor_5.png","72","72","motor","5","131","1","0","0","",""
"null","","147475","HierDypdjwjvrk","kbajf55b7l","msl000682","iti","img/motor_blank.png","null","72","motor","","","","","","",""
"387","","147869","HierDypdjwjvrk","kbajf55b7l","msl000682","motor","img/motor_5.png","72","72","motor","5","132","1","0","0","",""
"null","","147979","HierDypdjwjvrk","kbajf55b7l","msl000682","iti","img/motor_blank.png","null","72","motor","","","","","","",""
"457","","148445","HierDypdjwjvrk","kbajf55b7l","msl000682","motor","img/motor_1.png","65","65","motor","1","133","1","0","0","",""
"null","","148555","HierDypdjwjvrk","kbajf55b7l","msl000682","iti","img/motor_blank.png","null","65","motor","","","","","","",""
"447","","149010","HierDypdjwjvrk","kbajf55b7l","msl000682","motor","img/motor_5.png","72","72","motor","5","134","1","0","0","",""
"null","","149118","HierDypdjwjvrk","kbajf55b7l","msl000682","iti","img/motor_blank.png","null","72","motor","","","","","","",""
"585","","149712","HierDypdjwjvrk","kbajf55b7l","msl000682","motor","img/motor_4.png","70","70","motor","4","135","1","0","0","",""
"null","","149821","HierDypdjwjvrk","kbajf55b7l","msl000682","iti","img/motor_blank.png","null","70","motor","","","","","","",""
"509","","150339","HierDypdjwjvrk","kbajf55b7l","msl000682","motor","img/motor_4.png","70","70","motor","4","136","1","0","0","",""
"null","","150449","HierDypdjwjvrk","kbajf55b7l","msl000682","iti","img/motor_blank.png","null","70","motor","","","","","","",""
"474","","150933","HierDypdjwjvrk","kbajf55b7l","msl000682","motor","img/motor_2.png","83","83","motor","2","137","1","0","0","",""
"null","","151042","HierDypdjwjvrk","kbajf55b7l","msl000682","iti","img/motor_blank.png","null","83","motor","","","","","","",""
"614","","151665","HierDypdjwjvrk","kbajf55b7l","msl000682","motor","img/motor_7.png","75","75","motor","7","138","1","0","0","",""
"null","","151776","HierDypdjwjvrk","kbajf55b7l","msl000682","iti","img/motor_blank.png","null","75","motor","","","","","","",""
"453","","152236","HierDypdjwjvrk","kbajf55b7l","msl000682","motor","img/motor_8.png","76","76","motor","8","139","1","0","0","",""
"null","","152345","HierDypdjwjvrk","kbajf55b7l","msl000682","iti","img/motor_blank.png","null","76","motor","","","","","","",""
"445","","152799","HierDypdjwjvrk","kbajf55b7l","msl000682","motor","img/motor_5.png","72","72","motor","5","140","1","0","0","",""
"null","","152910","HierDypdjwjvrk","kbajf55b7l","msl000682","iti","img/motor_blank.png","null","72","motor","","","","","","",""
"539","","153458","HierDypdjwjvrk","kbajf55b7l","msl000682","motor","img/motor_7.png","75","75","motor","7","141","1","0","0","",""
"null","","153567","HierDypdjwjvrk","kbajf55b7l","msl000682","iti","img/motor_blank.png","null","75","motor","","","","","","",""
"532","","154108","HierDypdjwjvrk","kbajf55b7l","msl000682","motor","img/motor_7.png","75","75","motor","7","142","1","0","0","",""
"null","","154218","HierDypdjwjvrk","kbajf55b7l","msl000682","iti","img/motor_blank.png","null","75","motor","","","","","","",""
"404","","154631","HierDypdjwjvrk","kbajf55b7l","msl000682","motor","img/motor_5.png","72","72","motor","5","143","1","0","0","",""
"null","","154743","HierDypdjwjvrk","kbajf55b7l","msl000682","iti","img/motor_blank.png","null","72","motor","","","","","","",""
"527","","155278","HierDypdjwjvrk","kbajf55b7l","msl000682","motor","img/motor_8.png","76","76","motor","8","144","1","0","0","",""
"null","","155388","HierDypdjwjvrk","kbajf55b7l","msl000682","iti","img/motor_blank.png","null","76","motor","","","","","","",""
"439","","155835","HierDypdjwjvrk","kbajf55b7l","msl000682","motor","img/motor_5.png","72","72","motor","5","145","1","0","0","",""
"null","","155945","HierDypdjwjvrk","kbajf55b7l","msl000682","iti","img/motor_blank.png","null","72","motor","","","","","","",""
"448","","156404","HierDypdjwjvrk","kbajf55b7l","msl000682","motor","img/motor_1.png","65","65","motor","1","146","1","0","0","",""
"null","","156514","HierDypdjwjvrk","kbajf55b7l","msl000682","iti","img/motor_blank.png","null","65","motor","","","","","","",""
"413","","156936","HierDypdjwjvrk","kbajf55b7l","msl000682","motor","img/motor_4.png","70","70","motor","4","147","1","0","0","",""
"null","","157047","HierDypdjwjvrk","kbajf55b7l","msl000682","iti","img/motor_blank.png","null","70","motor","","","","","","",""
"519","","157575","HierDypdjwjvrk","kbajf55b7l","msl000682","motor","img/motor_3.png","68","68","motor","3","148","1","0","0","",""
"null","","157687","HierDypdjwjvrk","kbajf55b7l","msl000682","iti","img/motor_blank.png","null","68","motor","","","","","","",""
"669","","158363","HierDypdjwjvrk","kbajf55b7l","msl000682","motor","img/motor_7.png","75","75","motor","7","149","1","0","0","",""
"null","","158474","HierDypdjwjvrk","kbajf55b7l","msl000682","iti","img/motor_blank.png","null","75","motor","","","","","","",""
"415","","158898","HierDypdjwjvrk","kbajf55b7l","msl000682","motor","img/motor_8.png","76","76","motor","8","150","1","0","0","",""
"null","","159009","HierDypdjwjvrk","kbajf55b7l","msl000682","iti","img/motor_blank.png","null","76","motor","","","","","","",""
"451","","159469","HierDypdjwjvrk","kbajf55b7l","msl000682","motor","img/motor_1.png","65","65","motor","1","151","1","0","0","",""
"null","","159579","HierDypdjwjvrk","kbajf55b7l","msl000682","iti","img/motor_blank.png","null","65","motor","","","","","","",""
"374","","159961","HierDypdjwjvrk","kbajf55b7l","msl000682","motor","img/motor_5.png","72","72","motor","5","152","1","0","0","",""
"null","","160072","HierDypdjwjvrk","kbajf55b7l","msl000682","iti","img/motor_blank.png","null","72","motor","","","","","","",""
"477","","160558","HierDypdjwjvrk","kbajf55b7l","msl000682","motor","img/motor_3.png","68","68","motor","3","153","1","0","0","",""
"null","","160669","HierDypdjwjvrk","kbajf55b7l","msl000682","iti","img/motor_blank.png","null","68","motor","","","","","","",""
"471","","161150","HierDypdjwjvrk","kbajf55b7l","msl000682","motor","img/motor_5.png","74","72","motor","5","154","0","1","0","",""
"394","","161554","HierDypdjwjvrk","kbajf55b7l","msl000682","motorRepeat","img/motor_5.png","72","72","motor","5","154","1","0","0","",""
"null","","161663","HierDypdjwjvrk","kbajf55b7l","msl000682","iti","img/motor_blank.png","null","72","motor","","","","","","",""
"591","","162264","HierDypdjwjvrk","kbajf55b7l","msl000682","motor","img/motor_7.png","75","75","motor","7","155","1","0","0","",""
"null","","162375","HierDypdjwjvrk","kbajf55b7l","msl000682","iti","img/motor_blank.png","null","75","motor","","","","","","",""
"743","","163127","HierDypdjwjvrk","kbajf55b7l","msl000682","motor","img/motor_3.png","68","68","motor","3","156","1","0","0","",""
"null","","163237","HierDypdjwjvrk","kbajf55b7l","msl000682","iti","img/motor_blank.png","null","68","motor","","","","","","",""
"558","","163802","HierDypdjwjvrk","kbajf55b7l","msl000682","motor","img/motor_2.png","83","83","motor","2","157","1","0","0","",""
"null","","163911","HierDypdjwjvrk","kbajf55b7l","msl000682","iti","img/motor_blank.png","null","83","motor","","","","","","",""
"602","","164518","HierDypdjwjvrk","kbajf55b7l","msl000682","motor","img/motor_2.png","83","83","motor","2","158","1","0","0","",""
"null","","164627","HierDypdjwjvrk","kbajf55b7l","msl000682","iti","img/motor_blank.png","null","83","motor","","","","","","",""
"675","","165310","HierDypdjwjvrk","kbajf55b7l","msl000682","motor","img/motor_5.png","72","72","motor","5","159","1","0","0","",""
"null","","165421","HierDypdjwjvrk","kbajf55b7l","msl000682","iti","img/motor_blank.png","null","72","motor","","","","","","",""
"495","","165925","HierDypdjwjvrk","kbajf55b7l","msl000682","motor","img/motor_8.png","76","76","motor","8","160","1","0","0","",""
"null","","166035","HierDypdjwjvrk","kbajf55b7l","msl000682","iti","img/motor_blank.png","null","76","motor","","","","","","",""
"535","","166578","HierDypdjwjvrk","kbajf55b7l","msl000682","motor","img/motor_1.png","65","65","motor","1","161","1","0","0","",""
"null","","166689","HierDypdjwjvrk","kbajf55b7l","msl000682","iti","img/motor_blank.png","null","65","motor","","","","","","",""
"573","","167273","HierDypdjwjvrk","kbajf55b7l","msl000682","motor","img/motor_4.png","70","70","motor","4","162","1","0","0","",""
"null","","167384","HierDypdjwjvrk","kbajf55b7l","msl000682","iti","img/motor_blank.png","null","70","motor","","","","","","",""
"431","","167824","HierDypdjwjvrk","kbajf55b7l","msl000682","motor","img/motor_8.png","76","76","motor","8","163","1","0","0","",""
"null","","167935","HierDypdjwjvrk","kbajf55b7l","msl000682","iti","img/motor_blank.png","null","76","motor","","","","","","",""
"653","","168595","HierDypdjwjvrk","kbajf55b7l","msl000682","motor","img/motor_3.png","68","68","motor","3","164","1","0","0","",""
"null","","168702","HierDypdjwjvrk","kbajf55b7l","msl000682","iti","img/motor_blank.png","null","68","motor","","","","","","",""
"397","","169107","HierDypdjwjvrk","kbajf55b7l","msl000682","motor","img/motor_3.png","68","68","motor","3","165","1","0","0","",""
"null","","169216","HierDypdjwjvrk","kbajf55b7l","msl000682","iti","img/motor_blank.png","null","68","motor","","","","","","",""
"448","","169674","HierDypdjwjvrk","kbajf55b7l","msl000682","motor","img/motor_2.png","83","83","motor","2","166","1","0","0","",""
"null","","169785","HierDypdjwjvrk","kbajf55b7l","msl000682","iti","img/motor_blank.png","null","83","motor","","","","","","",""
"451","","170245","HierDypdjwjvrk","kbajf55b7l","msl000682","motor","img/motor_8.png","76","76","motor","8","167","1","0","0","",""
"null","","170353","HierDypdjwjvrk","kbajf55b7l","msl000682","iti","img/motor_blank.png","null","76","motor","","","","","","",""
"508","","170871","HierDypdjwjvrk","kbajf55b7l","msl000682","motor","img/motor_4.png","70","70","motor","4","168","1","0","0","",""
"null","","170980","HierDypdjwjvrk","kbajf55b7l","msl000682","iti","img/motor_blank.png","null","70","motor","","","","","","",""
"418","","171408","HierDypdjwjvrk","kbajf55b7l","msl000682","motor","img/motor_1.png","65","65","motor","1","169","1","0","0","",""
"null","","171519","HierDypdjwjvrk","kbajf55b7l","msl000682","iti","img/motor_blank.png","null","65","motor","","","","","","",""
"383","","171910","HierDypdjwjvrk","kbajf55b7l","msl000682","motor","img/motor_8.png","76","76","motor","8","170","1","0","0","",""
"null","","172021","HierDypdjwjvrk","kbajf55b7l","msl000682","iti","img/motor_blank.png","null","76","motor","","","","","","",""
"597","","172625","HierDypdjwjvrk","kbajf55b7l","msl000682","motor","img/motor_7.png","74","75","motor","7","171","0","1","0","",""
"425","","173058","HierDypdjwjvrk","kbajf55b7l","msl000682","motorRepeat","img/motor_7.png","75","75","motor","7","171","1","0","0","",""
"null","","173168","HierDypdjwjvrk","kbajf55b7l","msl000682","iti","img/motor_blank.png","null","75","motor","","","","","","",""
"398","","173576","HierDypdjwjvrk","kbajf55b7l","msl000682","motor","img/motor_1.png","65","65","motor","1","172","1","0","0","",""
"null","","173686","HierDypdjwjvrk","kbajf55b7l","msl000682","iti","img/motor_blank.png","null","65","motor","","","","","","",""
"398","","174092","HierDypdjwjvrk","kbajf55b7l","msl000682","motor","img/motor_8.png","76","76","motor","8","173","1","0","0","",""
"null","","174202","HierDypdjwjvrk","kbajf55b7l","msl000682","iti","img/motor_blank.png","null","76","motor","","","","","","",""
"588","","174800","HierDypdjwjvrk","kbajf55b7l","msl000682","motor","img/motor_7.png","75","75","motor","7","174","1","0","0","",""
"null","","174911","HierDypdjwjvrk","kbajf55b7l","msl000682","iti","img/motor_blank.png","null","75","motor","","","","","","",""
"380","","175302","HierDypdjwjvrk","kbajf55b7l","msl000682","motor","img/motor_6.png","74","74","motor","6","175","1","0","0","",""
"null","","175412","HierDypdjwjvrk","kbajf55b7l","msl000682","iti","img/motor_blank.png","null","74","motor","","","","","","",""
"648","","176070","HierDypdjwjvrk","kbajf55b7l","msl000682","motor","img/motor_2.png","83","83","motor","2","176","1","0","0","",""
"null","","176181","HierDypdjwjvrk","kbajf55b7l","msl000682","iti","img/motor_blank.png","null","83","motor","","","","","","",""
"438","","176628","HierDypdjwjvrk","kbajf55b7l","msl000682","motor","img/motor_4.png","70","70","motor","4","177","1","0","0","",""
"null","","176738","HierDypdjwjvrk","kbajf55b7l","msl000682","iti","img/motor_blank.png","null","70","motor","","","","","","",""
"376","","177124","HierDypdjwjvrk","kbajf55b7l","msl000682","motor","img/motor_4.png","70","70","motor","4","178","1","0","0","",""
"null","","177234","HierDypdjwjvrk","kbajf55b7l","msl000682","iti","img/motor_blank.png","null","70","motor","","","","","","",""
"579","","177821","HierDypdjwjvrk","kbajf55b7l","msl000682","motor","img/motor_5.png","72","72","motor","5","179","1","0","0","",""
"null","","177931","HierDypdjwjvrk","kbajf55b7l","msl000682","iti","img/motor_blank.png","null","72","motor","","","","","","",""
"513","","178455","HierDypdjwjvrk","kbajf55b7l","msl000682","motor","img/motor_4.png","70","70","motor","4","180","1","0","0","",""
"null","","178565","HierDypdjwjvrk","kbajf55b7l","msl000682","iti","img/motor_blank.png","null","70","motor","","","","","","",""
"662","","179235","HierDypdjwjvrk","kbajf55b7l","msl000682","motor","img/motor_5.png","72","72","motor","5","181","1","0","0","",""
"null","","179344","HierDypdjwjvrk","kbajf55b7l","msl000682","iti","img/motor_blank.png","null","72","motor","","","","","","",""
"460","","179814","HierDypdjwjvrk","kbajf55b7l","msl000682","motor","img/motor_2.png","83","83","motor","2","182","1","0","0","",""
"null","","179922","HierDypdjwjvrk","kbajf55b7l","msl000682","iti","img/motor_blank.png","null","83","motor","","","","","","",""
"494","","180426","HierDypdjwjvrk","kbajf55b7l","msl000682","motor","img/motor_5.png","72","72","motor","5","183","1","0","0","",""
"null","","180538","HierDypdjwjvrk","kbajf55b7l","msl000682","iti","img/motor_blank.png","null","72","motor","","","","","","",""
"617","","181164","HierDypdjwjvrk","kbajf55b7l","msl000682","motor","img/motor_3.png","68","68","motor","3","184","1","0","0","",""
"null","","181274","HierDypdjwjvrk","kbajf55b7l","msl000682","iti","img/motor_blank.png","null","68","motor","","","","","","",""
"412","","181695","HierDypdjwjvrk","kbajf55b7l","msl000682","motor","img/motor_8.png","76","76","motor","8","185","1","0","0","",""
"null","","181806","HierDypdjwjvrk","kbajf55b7l","msl000682","iti","img/motor_blank.png","null","76","motor","","","","","","",""
"548","","182363","HierDypdjwjvrk","kbajf55b7l","msl000682","motor","img/motor_3.png","68","68","motor","3","186","1","0","0","",""
"null","","182474","HierDypdjwjvrk","kbajf55b7l","msl000682","iti","img/motor_blank.png","null","68","motor","","","","","","",""
"391","","182874","HierDypdjwjvrk","kbajf55b7l","msl000682","motor","img/motor_3.png","68","68","motor","3","187","1","0","0","",""
"null","","182985","HierDypdjwjvrk","kbajf55b7l","msl000682","iti","img/motor_blank.png","null","68","motor","","","","","","",""
"417","","183412","HierDypdjwjvrk","kbajf55b7l","msl000682","motor","img/motor_4.png","70","70","motor","4","188","1","0","0","",""
"null","","183521","HierDypdjwjvrk","kbajf55b7l","msl000682","iti","img/motor_blank.png","null","70","motor","","","","","","",""
"629","","184159","HierDypdjwjvrk","kbajf55b7l","msl000682","motor","img/motor_6.png","74","74","motor","6","189","1","0","0","",""
"null","","184270","HierDypdjwjvrk","kbajf55b7l","msl000682","iti","img/motor_blank.png","null","74","motor","","","","","","",""
"434","","184714","HierDypdjwjvrk","kbajf55b7l","msl000682","motor","img/motor_1.png","65","65","motor","1","190","1","0","0","",""
"null","","184823","HierDypdjwjvrk","kbajf55b7l","msl000682","iti","img/motor_blank.png","null","65","motor","","","","","","",""
"331","","185164","HierDypdjwjvrk","kbajf55b7l","msl000682","motor","img/motor_1.png","65","65","motor","1","191","1","0","0","",""
"null","","185274","HierDypdjwjvrk","kbajf55b7l","msl000682","iti","img/motor_blank.png","null","65","motor","","","","","","",""
"718","","186002","HierDypdjwjvrk","kbajf55b7l","msl000682","motor","img/motor_7.png","75","75","motor","7","192","1","0","0","",""
"null","","186111","HierDypdjwjvrk","kbajf55b7l","msl000682","iti","img/motor_blank.png","null","75","motor","","","","","","",""
"550","","186672","HierDypdjwjvrk","kbajf55b7l","msl000682","motor","img/motor_5.png","72","72","motor","5","193","1","0","0","",""
"null","","186783","HierDypdjwjvrk","kbajf55b7l","msl000682","iti","img/motor_blank.png","null","72","motor","","","","","","",""
"490","","187282","HierDypdjwjvrk","kbajf55b7l","msl000682","motor","img/motor_2.png","83","83","motor","2","194","1","0","0","",""
"null","","187392","HierDypdjwjvrk","kbajf55b7l","msl000682","iti","img/motor_blank.png","null","83","motor","","","","","","",""
"472","","187873","HierDypdjwjvrk","kbajf55b7l","msl000682","motor","img/motor_8.png","76","76","motor","8","195","1","0","0","",""
"null","","187984","HierDypdjwjvrk","kbajf55b7l","msl000682","iti","img/motor_blank.png","null","76","motor","","","","","","",""
"658","","188651","HierDypdjwjvrk","kbajf55b7l","msl000682","motor","img/motor_7.png","75","75","motor","7","196","1","0","0","",""
"null","","188761","HierDypdjwjvrk","kbajf55b7l","msl000682","iti","img/motor_blank.png","null","75","motor","","","","","","",""
"407","","189178","HierDypdjwjvrk","kbajf55b7l","msl000682","motor","img/motor_7.png","75","75","motor","7","197","1","0","0","",""
"null","","189286","HierDypdjwjvrk","kbajf55b7l","msl000682","iti","img/motor_blank.png","null","75","motor","","","","","","",""
"460","","189756","HierDypdjwjvrk","kbajf55b7l","msl000682","motor","img/motor_2.png","83","83","motor","2","198","1","0","0","",""
"null","","189864","HierDypdjwjvrk","kbajf55b7l","msl000682","iti","img/motor_blank.png","null","83","motor","","","","","","",""
"468","","190340","HierDypdjwjvrk","kbajf55b7l","msl000682","motor","img/motor_4.png","70","70","motor","4","199","1","0","0","",""
"null","","190451","HierDypdjwjvrk","kbajf55b7l","msl000682","iti","img/motor_blank.png","null","70","motor","","","","","","",""
"483","","190944","HierDypdjwjvrk","kbajf55b7l","msl000682","motor","img/motor_3.png","68","68","motor","3","200","1","0","0","",""
"null","","191055","HierDypdjwjvrk","kbajf55b7l","msl000682","iti","img/motor_blank.png","null","68","motor","","","","","","",""
"393","","191456","HierDypdjwjvrk","kbajf55b7l","msl000682","motor","img/motor_3.png","68","68","motor","3","201","1","0","0","",""
"null","","191567","HierDypdjwjvrk","kbajf55b7l","msl000682","iti","img/motor_blank.png","null","68","motor","","","","","","",""
"733","","192309","HierDypdjwjvrk","kbajf55b7l","msl000682","motor","img/motor_7.png","75","75","motor","7","202","1","0","0","",""
"null","","192420","HierDypdjwjvrk","kbajf55b7l","msl000682","iti","img/motor_blank.png","null","75","motor","","","","","","",""
"503","","192930","HierDypdjwjvrk","kbajf55b7l","msl000682","motor","img/motor_5.png","72","72","motor","5","203","1","0","0","",""
"null","","193039","HierDypdjwjvrk","kbajf55b7l","msl000682","iti","img/motor_blank.png","null","72","motor","","","","","","",""
"526","","193573","HierDypdjwjvrk","kbajf55b7l","msl000682","motor","img/motor_1.png","65","65","motor","1","204","1","0","0","",""
"null","","193683","HierDypdjwjvrk","kbajf55b7l","msl000682","iti","img/motor_blank.png","null","65","motor","","","","","","",""
"767","","194457","HierDypdjwjvrk","kbajf55b7l","msl000682","motor","img/motor_3.png","70","68","motor","3","205","0","1","0","",""
"423","","194888","HierDypdjwjvrk","kbajf55b7l","msl000682","motorRepeat","img/motor_3.png","68","68","motor","3","205","1","0","0","",""
"null","","194998","HierDypdjwjvrk","kbajf55b7l","msl000682","iti","img/motor_blank.png","null","68","motor","","","","","","",""
"661","","195667","HierDypdjwjvrk","kbajf55b7l","msl000682","motor","img/motor_4.png","70","70","motor","4","206","1","0","0","",""
"null","","195776","HierDypdjwjvrk","kbajf55b7l","msl000682","iti","img/motor_blank.png","null","70","motor","","","","","","",""
"585","","196370","HierDypdjwjvrk","kbajf55b7l","msl000682","motor","img/motor_5.png","72","72","motor","5","207","1","0","0","",""
"null","","196479","HierDypdjwjvrk","kbajf55b7l","msl000682","iti","img/motor_blank.png","null","72","motor","","","","","","",""
"469","","196957","HierDypdjwjvrk","kbajf55b7l","msl000682","motor","img/motor_6.png","74","74","motor","6","208","1","0","0","",""
"null","","197067","HierDypdjwjvrk","kbajf55b7l","msl000682","iti","img/motor_blank.png","null","74","motor","","","","","","",""
"406","","197482","HierDypdjwjvrk","kbajf55b7l","msl000682","motor","img/motor_8.png","76","76","motor","8","209","1","0","0","",""
"null","","197593","HierDypdjwjvrk","kbajf55b7l","msl000682","iti","img/motor_blank.png","null","76","motor","","","","","","",""
"644","","198246","HierDypdjwjvrk","kbajf55b7l","msl000682","motor","img/motor_7.png","75","75","motor","7","210","1","0","0","",""
"null","","198355","HierDypdjwjvrk","kbajf55b7l","msl000682","iti","img/motor_blank.png","null","75","motor","","","","","","",""
"652","","199015","HierDypdjwjvrk","kbajf55b7l","msl000682","motor","img/motor_2.png","83","83","motor","2","211","1","0","0","",""
"null","","199126","HierDypdjwjvrk","kbajf55b7l","msl000682","iti","img/motor_blank.png","null","83","motor","","","","","","",""
"456","","199592","HierDypdjwjvrk","kbajf55b7l","msl000682","motor","img/motor_1.png","65","65","motor","1","212","1","0","0","",""
"null","","199705","HierDypdjwjvrk","kbajf55b7l","msl000682","iti","img/motor_blank.png","null","65","motor","","","","","","",""
"413","","200129","HierDypdjwjvrk","kbajf55b7l","msl000682","motor","img/motor_1.png","65","65","motor","1","213","1","0","0","",""
"null","","200240","HierDypdjwjvrk","kbajf55b7l","msl000682","iti","img/motor_blank.png","null","65","motor","","","","","","",""
"427","","200676","HierDypdjwjvrk","kbajf55b7l","msl000682","motor","img/motor_2.png","83","83","motor","2","214","1","0","0","",""
"null","","200788","HierDypdjwjvrk","kbajf55b7l","msl000682","iti","img/motor_blank.png","null","83","motor","","","","","","",""
"469","","201268","HierDypdjwjvrk","kbajf55b7l","msl000682","motor","img/motor_4.png","70","70","motor","4","215","1","0","0","",""
"null","","201378","HierDypdjwjvrk","kbajf55b7l","msl000682","iti","img/motor_blank.png","null","70","motor","","","","","","",""
"517","","201905","HierDypdjwjvrk","kbajf55b7l","msl000682","motor","img/motor_6.png","74","74","motor","6","216","1","0","0","",""
"null","","202015","HierDypdjwjvrk","kbajf55b7l","msl000682","iti","img/motor_blank.png","null","74","motor","","","","","","",""
"467","","202494","HierDypdjwjvrk","kbajf55b7l","msl000682","motor","img/motor_5.png","72","72","motor","5","217","1","0","0","",""
"null","","202603","HierDypdjwjvrk","kbajf55b7l","msl000682","iti","img/motor_blank.png","null","72","motor","","","","","","",""
"541","","203153","HierDypdjwjvrk","kbajf55b7l","msl000682","motor","img/motor_4.png","70","70","motor","4","218","1","0","0","",""
"null","","203264","HierDypdjwjvrk","kbajf55b7l","msl000682","iti","img/motor_blank.png","null","70","motor","","","","","","",""
"441","","203719","HierDypdjwjvrk","kbajf55b7l","msl000682","motor","img/motor_3.png","68","68","motor","3","219","1","0","0","",""
"null","","203830","HierDypdjwjvrk","kbajf55b7l","msl000682","iti","img/motor_blank.png","null","68","motor","","","","","","",""
"402","","204242","HierDypdjwjvrk","kbajf55b7l","msl000682","motor","img/motor_5.png","72","72","motor","5","220","1","0","0","",""
"null","","204352","HierDypdjwjvrk","kbajf55b7l","msl000682","iti","img/motor_blank.png","null","72","motor","","","","","","",""
"835","","205197","HierDypdjwjvrk","kbajf55b7l","msl000682","motor","img/motor_7.png","75","75","motor","7","221","1","0","0","",""
"null","","205309","HierDypdjwjvrk","kbajf55b7l","msl000682","iti","img/motor_blank.png","null","75","motor","","","","","","",""
"759","","206079","HierDypdjwjvrk","kbajf55b7l","msl000682","motor","img/motor_3.png","68","68","motor","3","222","1","0","0","",""
"null","","206190","HierDypdjwjvrk","kbajf55b7l","msl000682","iti","img/motor_blank.png","null","68","motor","","","","","","",""
"503","","206702","HierDypdjwjvrk","kbajf55b7l","msl000682","motor","img/motor_5.png","72","72","motor","5","223","1","0","0","",""
"null","","206811","HierDypdjwjvrk","kbajf55b7l","msl000682","iti","img/motor_blank.png","null","72","motor","","","","","","",""
"624","","207447","HierDypdjwjvrk","kbajf55b7l","msl000682","motor","img/motor_1.png","65","65","motor","1","224","1","0","0","",""
"null","","207557","HierDypdjwjvrk","kbajf55b7l","msl000682","iti","img/motor_blank.png","null","65","motor","","","","","","",""
"616","","208183","HierDypdjwjvrk","kbajf55b7l","msl000682","motor","img/motor_7.png","75","75","motor","7","225","1","0","0","",""
"null","","208293","HierDypdjwjvrk","kbajf55b7l","msl000682","iti","img/motor_blank.png","null","75","motor","","","","","","",""
"497","","208801","HierDypdjwjvrk","kbajf55b7l","msl000682","motor","img/motor_2.png","83","83","motor","2","226","1","0","0","",""
"null","","208911","HierDypdjwjvrk","kbajf55b7l","msl000682","iti","img/motor_blank.png","null","83","motor","","","","","","",""
"497","","209418","HierDypdjwjvrk","kbajf55b7l","msl000682","motor","img/motor_8.png","76","76","motor","8","227","1","0","0","",""
"null","","209526","HierDypdjwjvrk","kbajf55b7l","msl000682","iti","img/motor_blank.png","null","76","motor","","","","","","",""
"571","","210105","HierDypdjwjvrk","kbajf55b7l","msl000682","motor","img/motor_2.png","83","83","motor","2","228","1","0","0","",""
"null","","210217","HierDypdjwjvrk","kbajf55b7l","msl000682","iti","img/motor_blank.png","null","83","motor","","","","","","",""
"586","","210812","HierDypdjwjvrk","kbajf55b7l","msl000682","motor","img/motor_3.png","68","68","motor","3","229","1","0","0","",""
"null","","210924","HierDypdjwjvrk","kbajf55b7l","msl000682","iti","img/motor_blank.png","null","68","motor","","","","","","",""
"647","","211579","HierDypdjwjvrk","kbajf55b7l","msl000682","motor","img/motor_7.png","75","75","motor","7","230","1","0","0","",""
"null","","211690","HierDypdjwjvrk","kbajf55b7l","msl000682","iti","img/motor_blank.png","null","75","motor","","","","","","",""
"656","","212354","HierDypdjwjvrk","kbajf55b7l","msl000682","motor","img/motor_6.png","74","74","motor","6","231","1","0","0","",""
"null","","212465","HierDypdjwjvrk","kbajf55b7l","msl000682","iti","img/motor_blank.png","null","74","motor","","","","","","",""
"522","","212997","HierDypdjwjvrk","kbajf55b7l","msl000682","motor","img/motor_1.png","65","65","motor","1","232","1","0","0","",""
"null","","213107","HierDypdjwjvrk","kbajf55b7l","msl000682","iti","img/motor_blank.png","null","65","motor","","","","","","",""
"420","","213537","HierDypdjwjvrk","kbajf55b7l","msl000682","motor","img/motor_5.png","72","72","motor","5","233","1","0","0","",""
"null","","213648","HierDypdjwjvrk","kbajf55b7l","msl000682","iti","img/motor_blank.png","null","72","motor","","","","","","",""
"372","","214029","HierDypdjwjvrk","kbajf55b7l","msl000682","motor","img/motor_1.png","65","65","motor","1","234","1","0","0","",""
"null","","214141","HierDypdjwjvrk","kbajf55b7l","msl000682","iti","img/motor_blank.png","null","65","motor","","","","","","",""
"658","","214809","HierDypdjwjvrk","kbajf55b7l","msl000682","motor","img/motor_7.png","75","75","motor","7","235","1","0","0","",""
"null","","214921","HierDypdjwjvrk","kbajf55b7l","msl000682","iti","img/motor_blank.png","null","75","motor","","","","","","",""
"516","","215447","HierDypdjwjvrk","kbajf55b7l","msl000682","motor","img/motor_2.png","83","83","motor","2","236","1","0","0","",""
"null","","215555","HierDypdjwjvrk","kbajf55b7l","msl000682","iti","img/motor_blank.png","null","83","motor","","","","","","",""
"475","","216040","HierDypdjwjvrk","kbajf55b7l","msl000682","motor","img/motor_6.png","75","74","motor","6","237","0","1","0","",""
"399","","216448","HierDypdjwjvrk","kbajf55b7l","msl000682","motorRepeat","img/motor_6.png","74","74","motor","6","237","1","0","0","",""
"null","","216559","HierDypdjwjvrk","kbajf55b7l","msl000682","iti","img/motor_blank.png","null","74","motor","","","","","","",""
"563","","217132","HierDypdjwjvrk","kbajf55b7l","msl000682","motor","img/motor_5.png","72","72","motor","5","238","1","0","0","",""
"null","","217241","HierDypdjwjvrk","kbajf55b7l","msl000682","iti","img/motor_blank.png","null","72","motor","","","","","","",""
"535","","217785","HierDypdjwjvrk","kbajf55b7l","msl000682","motor","img/motor_6.png","74","74","motor","6","239","1","0","0","",""
"null","","217895","HierDypdjwjvrk","kbajf55b7l","msl000682","iti","img/motor_blank.png","null","74","motor","","","","","","",""
"411","","218315","HierDypdjwjvrk","kbajf55b7l","msl000682","motor","img/motor_6.png","74","74","motor","6","240","1","0","0","",""
"null","","218424","HierDypdjwjvrk","kbajf55b7l","msl000682","iti","img/motor_blank.png","null","74","motor","","","","","","",""
"534","","218967","HierDypdjwjvrk","kbajf55b7l","msl000682","motor","img/motor_7.png","75","75","motor","7","241","1","0","0","",""
"null","","219078","HierDypdjwjvrk","kbajf55b7l","msl000682","iti","img/motor_blank.png","null","75","motor","","","","","","",""
"454","","219540","HierDypdjwjvrk","kbajf55b7l","msl000682","motor","img/motor_2.png","83","83","motor","2","242","1","0","0","",""
"null","","219651","HierDypdjwjvrk","kbajf55b7l","msl000682","iti","img/motor_blank.png","null","83","motor","","","","","","",""
"452","","220111","HierDypdjwjvrk","kbajf55b7l","msl000682","motor","img/motor_1.png","65","65","motor","1","243","1","0","0","",""
"null","","220221","HierDypdjwjvrk","kbajf55b7l","msl000682","iti","img/motor_blank.png","null","65","motor","","","","","","",""
"498","","220729","HierDypdjwjvrk","kbajf55b7l","msl000682","motor","img/motor_4.png","70","70","motor","4","244","1","0","0","",""
"null","","220838","HierDypdjwjvrk","kbajf55b7l","msl000682","iti","img/motor_blank.png","null","70","motor","","","","","","",""
"414","","221261","HierDypdjwjvrk","kbajf55b7l","msl000682","motor","img/motor_8.png","76","76","motor","8","245","1","0","0","",""
"null","","221371","HierDypdjwjvrk","kbajf55b7l","msl000682","iti","img/motor_blank.png","null","76","motor","","","","","","",""
"660","","222042","HierDypdjwjvrk","kbajf55b7l","msl000682","motor","img/motor_4.png","70","70","motor","4","246","1","0","0","",""
"null","","222150","HierDypdjwjvrk","kbajf55b7l","msl000682","iti","img/motor_blank.png","null","70","motor","","","","","","",""
"735","","222895","HierDypdjwjvrk","kbajf55b7l","msl000682","motor","img/motor_5.png","72","72","motor","5","247","1","0","0","",""
"null","","223006","HierDypdjwjvrk","kbajf55b7l","msl000682","iti","img/motor_blank.png","null","72","motor","","","","","","",""
"712","","223726","HierDypdjwjvrk","kbajf55b7l","msl000682","motor","img/motor_2.png","83","83","motor","2","248","1","0","0","",""
"null","","223836","HierDypdjwjvrk","kbajf55b7l","msl000682","iti","img/motor_blank.png","null","83","motor","","","","","","",""
"637","","224482","HierDypdjwjvrk","kbajf55b7l","msl000682","motor","img/motor_7.png","75","75","motor","7","249","1","0","0","",""
"null","","224592","HierDypdjwjvrk","kbajf55b7l","msl000682","iti","img/motor_blank.png","null","75","motor","","","","","","",""
"541","","225142","HierDypdjwjvrk","kbajf55b7l","msl000682","motor","img/motor_1.png","65","65","motor","1","250","1","0","0","",""
"null","","225253","HierDypdjwjvrk","kbajf55b7l","msl000682","iti","img/motor_blank.png","null","65","motor","","","","","","",""
"410","","225673","HierDypdjwjvrk","kbajf55b7l","msl000682","motor","img/motor_1.png","65","65","motor","1","251","1","0","0","",""
"null","","225783","HierDypdjwjvrk","kbajf55b7l","msl000682","iti","img/motor_blank.png","null","65","motor","","","","","","",""
"698","","226489","HierDypdjwjvrk","kbajf55b7l","msl000682","motor","img/motor_6.png","74","74","motor","6","252","1","0","0","",""
"null","","226598","HierDypdjwjvrk","kbajf55b7l","msl000682","iti","img/motor_blank.png","null","74","motor","","","","","","",""
"572","","227179","HierDypdjwjvrk","kbajf55b7l","msl000682","motor","img/motor_7.png","75","75","motor","7","253","1","0","0","",""
"null","","227291","HierDypdjwjvrk","kbajf55b7l","msl000682","iti","img/motor_blank.png","null","75","motor","","","","","","",""
"771","","228071","HierDypdjwjvrk","kbajf55b7l","msl000682","motor","img/motor_3.png","68","68","motor","3","254","1","0","0","",""
"null","","228182","HierDypdjwjvrk","kbajf55b7l","msl000682","iti","img/motor_blank.png","null","68","motor","","","","","","",""
"432","","228623","HierDypdjwjvrk","kbajf55b7l","msl000682","motor","img/motor_8.png","76","76","motor","8","255","1","0","0","",""
"null","","228734","HierDypdjwjvrk","kbajf55b7l","msl000682","iti","img/motor_blank.png","null","76","motor","","","","","","",""
"804","","229548","HierDypdjwjvrk","kbajf55b7l","msl000682","motor","img/motor_3.png","68","68","motor","3","256","1","0","0","",""
"null","","229659","HierDypdjwjvrk","kbajf55b7l","msl000682","iti","img/motor_blank.png","null","68","motor","","","","","","",""
"967","","230634","HierDypdjwjvrk","kbajf55b7l","msl000682","motor","img/motor_7.png","75","75","motor","7","257","1","0","0","",""
"null","","230743","HierDypdjwjvrk","kbajf55b7l","msl000682","iti","img/motor_blank.png","null","75","motor","","","","","","",""
"389","","231142","HierDypdjwjvrk","kbajf55b7l","msl000682","motor","img/motor_1.png","65","65","motor","1","258","1","0","0","",""
"null","","231254","HierDypdjwjvrk","kbajf55b7l","msl000682","iti","img/motor_blank.png","null","65","motor","","","","","","",""
"568","","231830","HierDypdjwjvrk","kbajf55b7l","msl000682","motor","img/motor_6.png","74","74","motor","6","259","1","0","0","",""
"null","","231941","HierDypdjwjvrk","kbajf55b7l","msl000682","iti","img/motor_blank.png","null","74","motor","","","","","","",""
"356","","232308","HierDypdjwjvrk","kbajf55b7l","msl000682","motor","img/motor_7.png","74","75","motor","7","260","0","1","0","",""
"568","","232886","HierDypdjwjvrk","kbajf55b7l","msl000682","motorRepeat","img/motor_7.png","76","75","motor","7","260","0","1","0","",""
"335","","233230","HierDypdjwjvrk","kbajf55b7l","msl000682","motorRepeat","img/motor_7.png","75","75","motor","7","260","1","0","0","",""
"null","","233339","HierDypdjwjvrk","kbajf55b7l","msl000682","iti","img/motor_blank.png","null","75","motor","","","","","","",""
"871","","234219","HierDypdjwjvrk","kbajf55b7l","msl000682","motor","img/motor_4.png","70","70","motor","4","261","1","0","0","",""
"null","","234328","HierDypdjwjvrk","kbajf55b7l","msl000682","iti","img/motor_blank.png","null","70","motor","","","","","","",""
"474","","234813","HierDypdjwjvrk","kbajf55b7l","msl000682","motor","img/motor_3.png","68","68","motor","3","262","1","0","0","",""
"null","","234925","HierDypdjwjvrk","kbajf55b7l","msl000682","iti","img/motor_blank.png","null","68","motor","","","","","","",""
"544","","235478","HierDypdjwjvrk","kbajf55b7l","msl000682","motor","img/motor_5.png","72","72","motor","5","263","1","0","0","",""
"null","","235586","HierDypdjwjvrk","kbajf55b7l","msl000682","iti","img/motor_blank.png","null","72","motor","","","","","","",""
"589","","236186","HierDypdjwjvrk","kbajf55b7l","msl000682","motor","img/motor_4.png","70","70","motor","4","264","1","0","0","",""
"null","","236297","HierDypdjwjvrk","kbajf55b7l","msl000682","iti","img/motor_blank.png","null","70","motor","","","","","","",""
"591","","236899","HierDypdjwjvrk","kbajf55b7l","msl000682","motor","img/motor_3.png","68","68","motor","3","265","1","0","0","",""
"null","","237010","HierDypdjwjvrk","kbajf55b7l","msl000682","iti","img/motor_blank.png","null","68","motor","","","","","","",""
"326","","237343","HierDypdjwjvrk","kbajf55b7l","msl000682","motor","img/motor_3.png","68","68","motor","3","266","1","0","0","",""
"null","","237455","HierDypdjwjvrk","kbajf55b7l","msl000682","iti","img/motor_blank.png","null","68","motor","","","","","","",""
"432","","237897","HierDypdjwjvrk","kbajf55b7l","msl000682","motor","img/motor_4.png","70","70","motor","4","267","1","0","0","",""
"null","","238006","HierDypdjwjvrk","kbajf55b7l","msl000682","iti","img/motor_blank.png","null","70","motor","","","","","","",""
"327","","238342","HierDypdjwjvrk","kbajf55b7l","msl000682","motor","img/motor_3.png","68","68","motor","3","268","1","0","0","",""
"null","","238453","HierDypdjwjvrk","kbajf55b7l","msl000682","iti","img/motor_blank.png","null","68","motor","","","","","","",""
"856","","239319","HierDypdjwjvrk","kbajf55b7l","msl000682","motor","img/motor_6.png","74","74","motor","6","269","1","0","0","",""
"null","","239430","HierDypdjwjvrk","kbajf55b7l","msl000682","iti","img/motor_blank.png","null","74","motor","","","","","","",""
"483","","239922","HierDypdjwjvrk","kbajf55b7l","msl000682","motor","img/motor_3.png","68","68","motor","3","270","1","0","0","",""
"null","","240033","HierDypdjwjvrk","kbajf55b7l","msl000682","iti","img/motor_blank.png","null","68","motor","","","","","","",""
"635","","240677","HierDypdjwjvrk","kbajf55b7l","msl000682","motor","img/motor_5.png","72","72","motor","5","271","1","0","0","",""
"null","","240788","HierDypdjwjvrk","kbajf55b7l","msl000682","iti","img/motor_blank.png","null","72","motor","","","","","","",""
"444","","241240","HierDypdjwjvrk","kbajf55b7l","msl000682","motor","img/motor_6.png","74","74","motor","6","272","1","0","0","",""
"null","","241349","HierDypdjwjvrk","kbajf55b7l","msl000682","iti","img/motor_blank.png","null","74","motor","","","","","","",""
"891","","242250","HierDypdjwjvrk","kbajf55b7l","msl000682","motor","img/motor_5.png","72","72","motor","5","273","1","0","0","",""
"null","","242359","HierDypdjwjvrk","kbajf55b7l","msl000682","iti","img/motor_blank.png","null","72","motor","","","","","","",""
"414","","242783","HierDypdjwjvrk","kbajf55b7l","msl000682","motor","img/motor_3.png","68","68","motor","3","274","1","0","0","",""
"null","","242891","HierDypdjwjvrk","kbajf55b7l","msl000682","iti","img/motor_blank.png","null","68","motor","","","","","","",""
"617","","243519","HierDypdjwjvrk","kbajf55b7l","msl000682","motor","img/motor_8.png","76","76","motor","8","275","1","0","0","",""
"null","","243628","HierDypdjwjvrk","kbajf55b7l","msl000682","iti","img/motor_blank.png","null","76","motor","","","","","","",""
"950","","244586","HierDypdjwjvrk","kbajf55b7l","msl000682","motor","img/motor_4.png","70","70","motor","4","276","1","0","0","",""
"null","","244696","HierDypdjwjvrk","kbajf55b7l","msl000682","iti","img/motor_blank.png","null","70","motor","","","","","","",""
"639","","245342","HierDypdjwjvrk","kbajf55b7l","msl000682","motor","img/motor_2.png","83","83","motor","2","277","1","0","0","",""
"null","","245452","HierDypdjwjvrk","kbajf55b7l","msl000682","iti","img/motor_blank.png","null","83","motor","","","","","","",""
"501","","245963","HierDypdjwjvrk","kbajf55b7l","msl000682","motor","img/motor_1.png","65","65","motor","1","278","1","0","0","",""
"null","","246075","HierDypdjwjvrk","kbajf55b7l","msl000682","iti","img/motor_blank.png","null","65","motor","","","","","","",""
"459","","246543","HierDypdjwjvrk","kbajf55b7l","msl000682","motor","img/motor_6.png","74","74","motor","6","279","1","0","0","",""
"null","","246654","HierDypdjwjvrk","kbajf55b7l","msl000682","iti","img/motor_blank.png","null","74","motor","","","","","","",""
"382","","247046","HierDypdjwjvrk","kbajf55b7l","msl000682","motor","img/motor_8.png","76","76","motor","8","280","1","0","0","",""
"null","","247157","HierDypdjwjvrk","kbajf55b7l","msl000682","iti","img/motor_blank.png","null","76","motor","","","","","","",""
"574","","247740","HierDypdjwjvrk","kbajf55b7l","msl000682","motor","img/motor_6.png","74","74","motor","6","281","1","0","0","",""
"null","","247849","HierDypdjwjvrk","kbajf55b7l","msl000682","iti","img/motor_blank.png","null","74","motor","","","","","","",""
"512","","248370","HierDypdjwjvrk","kbajf55b7l","msl000682","motor","img/motor_3.png","68","68","motor","3","282","1","0","0","",""
"null","","248481","HierDypdjwjvrk","kbajf55b7l","msl000682","iti","img/motor_blank.png","null","68","motor","","","","","","",""
"394","","248884","HierDypdjwjvrk","kbajf55b7l","msl000682","motor","img/motor_1.png","65","65","motor","1","283","1","0","0","",""
"null","","248995","HierDypdjwjvrk","kbajf55b7l","msl000682","iti","img/motor_blank.png","null","65","motor","","","","","","",""
"460","","249465","HierDypdjwjvrk","kbajf55b7l","msl000682","motor","img/motor_8.png","76","76","motor","8","284","1","0","0","",""
"null","","249577","HierDypdjwjvrk","kbajf55b7l","msl000682","iti","img/motor_blank.png","null","76","motor","","","","","","",""
"412","","249998","HierDypdjwjvrk","kbajf55b7l","msl000682","motor","img/motor_1.png","65","65","motor","1","285","1","0","0","",""
"null","","250109","HierDypdjwjvrk","kbajf55b7l","msl000682","iti","img/motor_blank.png","null","65","motor","","","","","","",""
"493","","250610","HierDypdjwjvrk","kbajf55b7l","msl000682","motor","img/motor_2.png","83","83","motor","2","286","1","0","0","",""
"null","","250721","HierDypdjwjvrk","kbajf55b7l","msl000682","iti","img/motor_blank.png","null","83","motor","","","","","","",""
"861","","251591","HierDypdjwjvrk","kbajf55b7l","msl000682","motor","img/motor_6.png","74","74","motor","6","287","1","0","0","",""
"null","","251702","HierDypdjwjvrk","kbajf55b7l","msl000682","iti","img/motor_blank.png","null","74","motor","","","","","","",""
"925","","252636","HierDypdjwjvrk","kbajf55b7l","msl000682","motor","img/motor_8.png","76","76","motor","8","288","1","0","0","",""
"null","","252745","HierDypdjwjvrk","kbajf55b7l","msl000682","iti","img/motor_blank.png","null","76","motor","","","","","","",""
"574","","253330","HierDypdjwjvrk","kbajf55b7l","msl000682","motor","img/motor_8.png","76","76","motor","8","289","1","0","0","",""
"null","","253441","HierDypdjwjvrk","kbajf55b7l","msl000682","iti","img/motor_blank.png","null","76","motor","","","","","","",""
"787","","254238","HierDypdjwjvrk","kbajf55b7l","msl000682","motor","img/motor_3.png","68","68","motor","3","290","1","0","0","",""
"null","","254347","HierDypdjwjvrk","kbajf55b7l","msl000682","iti","img/motor_blank.png","null","68","motor","","","","","","",""
"478","","254834","HierDypdjwjvrk","kbajf55b7l","msl000682","motor","img/motor_1.png","65","65","motor","1","291","1","0","0","",""
"null","","254945","HierDypdjwjvrk","kbajf55b7l","msl000682","iti","img/motor_blank.png","null","65","motor","","","","","","",""
"461","","255416","HierDypdjwjvrk","kbajf55b7l","msl000682","motor","img/motor_8.png","76","76","motor","8","292","1","0","0","",""
"null","","255527","HierDypdjwjvrk","kbajf55b7l","msl000682","iti","img/motor_blank.png","null","76","motor","","","","","","",""
"685","","256222","HierDypdjwjvrk","kbajf55b7l","msl000682","motor","img/motor_2.png","83","83","motor","2","293","1","0","0","",""
"null","","256333","HierDypdjwjvrk","kbajf55b7l","msl000682","iti","img/motor_blank.png","null","83","motor","","","","","","",""
"494","","256836","HierDypdjwjvrk","kbajf55b7l","msl000682","motor","img/motor_4.png","70","70","motor","4","294","1","0","0","",""
"null","","256946","HierDypdjwjvrk","kbajf55b7l","msl000682","iti","img/motor_blank.png","null","70","motor","","","","","","",""
"516","","257471","HierDypdjwjvrk","kbajf55b7l","msl000682","motor","img/motor_1.png","65","65","motor","1","295","1","0","0","",""
"null","","257580","HierDypdjwjvrk","kbajf55b7l","msl000682","iti","img/motor_blank.png","null","65","motor","","","","","","",""
"652","","258243","HierDypdjwjvrk","kbajf55b7l","msl000682","motor","img/motor_2.png","68","83","motor","2","296","0","1","0","",""
"391","","258644","HierDypdjwjvrk","kbajf55b7l","msl000682","motorRepeat","img/motor_2.png","83","83","motor","2","296","1","0","0","",""
"null","","258754","HierDypdjwjvrk","kbajf55b7l","msl000682","iti","img/motor_blank.png","null","83","motor","","","","","","",""
"627","","259392","HierDypdjwjvrk","kbajf55b7l","msl000682","motor","img/motor_8.png","76","76","motor","8","297","1","0","0","",""
"null","","259502","HierDypdjwjvrk","kbajf55b7l","msl000682","iti","img/motor_blank.png","null","76","motor","","","","","","",""
"800","","260309","HierDypdjwjvrk","kbajf55b7l","msl000682","motor","img/motor_7.png","75","75","motor","7","298","1","0","0","",""
"null","","260420","HierDypdjwjvrk","kbajf55b7l","msl000682","iti","img/motor_blank.png","null","75","motor","","","","","","",""
"587","","261017","HierDypdjwjvrk","kbajf55b7l","msl000682","motor","img/motor_4.png","70","70","motor","4","299","1","0","0","",""
"null","","261127","HierDypdjwjvrk","kbajf55b7l","msl000682","iti","img/motor_blank.png","null","70","motor","","","","","","",""
"550","","261687","HierDypdjwjvrk","kbajf55b7l","msl000682","motor","img/motor_7.png","75","75","motor","7","300","1","0","0","",""
"null","","261798","HierDypdjwjvrk","kbajf55b7l","msl000682","iti","img/motor_blank.png","null","75","motor","","","","","","",""
"1172","","262980","HierDypdjwjvrk","kbajf55b7l","msl000682","motor","img/motor_8.png","76","76","motor","8","301","1","0","0","",""
"null","","263088","HierDypdjwjvrk","kbajf55b7l","msl000682","iti","img/motor_blank.png","null","76","motor","","","","","","",""
"710","","263810","HierDypdjwjvrk","kbajf55b7l","msl000682","motor","img/motor_5.png","72","72","motor","5","302","1","0","0","",""
"null","","263923","HierDypdjwjvrk","kbajf55b7l","msl000682","iti","img/motor_blank.png","null","72","motor","","","","","","",""
"565","","264499","HierDypdjwjvrk","kbajf55b7l","msl000682","motor","img/motor_6.png","72","74","motor","6","303","0","1","0","",""
"454","","264963","HierDypdjwjvrk","kbajf55b7l","msl000682","motorRepeat","img/motor_6.png","74","74","motor","6","303","1","0","0","",""
"null","","265074","HierDypdjwjvrk","kbajf55b7l","msl000682","iti","img/motor_blank.png","null","74","motor","","","","","","",""
"551","","265637","HierDypdjwjvrk","kbajf55b7l","msl000682","motor","img/motor_2.png","83","83","motor","2","304","1","0","0","",""
"null","","265748","HierDypdjwjvrk","kbajf55b7l","msl000682","iti","img/motor_blank.png","null","83","motor","","","","","","",""
"646","","266404","HierDypdjwjvrk","kbajf55b7l","msl000682","motor","img/motor_2.png","83","83","motor","2","305","1","0","0","",""
"null","","266514","HierDypdjwjvrk","kbajf55b7l","msl000682","iti","img/motor_blank.png","null","83","motor","","","","","","",""
"437","","266959","HierDypdjwjvrk","kbajf55b7l","msl000682","motor","img/motor_1.png","65","65","motor","1","306","1","0","0","",""
"null","","267071","HierDypdjwjvrk","kbajf55b7l","msl000682","iti","img/motor_blank.png","null","65","motor","","","","","","",""
"651","","267733","HierDypdjwjvrk","kbajf55b7l","msl000682","motor","img/motor_6.png","74","74","motor","6","307","1","0","0","",""
"null","","267845","HierDypdjwjvrk","kbajf55b7l","msl000682","iti","img/motor_blank.png","null","74","motor","","","","","","",""
"488","","268343","HierDypdjwjvrk","kbajf55b7l","msl000682","motor","img/motor_1.png","65","65","motor","1","308","1","0","0","",""
"null","","268455","HierDypdjwjvrk","kbajf55b7l","msl000682","iti","img/motor_blank.png","null","65","motor","","","","","","",""
"607","","269070","HierDypdjwjvrk","kbajf55b7l","msl000682","motor","img/motor_2.png","83","83","motor","2","309","1","0","0","",""
"null","","269181","HierDypdjwjvrk","kbajf55b7l","msl000682","iti","img/motor_blank.png","null","83","motor","","","","","","",""
"1288","","270478","HierDypdjwjvrk","kbajf55b7l","msl000682","motor","img/motor_5.png","72","72","motor","5","310","1","0","0","",""
"null","","270587","HierDypdjwjvrk","kbajf55b7l","msl000682","iti","img/motor_blank.png","null","72","motor","","","","","","",""
"804","","271403","HierDypdjwjvrk","kbajf55b7l","msl000682","motor","img/motor_7.png","75","75","motor","7","311","1","0","0","",""
"null","","271513","HierDypdjwjvrk","kbajf55b7l","msl000682","iti","img/motor_blank.png","null","75","motor","","","","","","",""
"480","","272003","HierDypdjwjvrk","kbajf55b7l","msl000682","motor","img/motor_5.png","72","72","motor","5","312","1","0","0","",""
"null","","272115","HierDypdjwjvrk","kbajf55b7l","msl000682","iti","img/motor_blank.png","null","72","motor","","","","","","",""
"424","","272550","HierDypdjwjvrk","kbajf55b7l","msl000682","motor","img/motor_8.png","76","76","motor","8","313","1","0","0","",""
"null","","272661","HierDypdjwjvrk","kbajf55b7l","msl000682","iti","img/motor_blank.png","null","76","motor","","","","","","",""
"749","","273418","HierDypdjwjvrk","kbajf55b7l","msl000682","motor","img/motor_6.png","74","74","motor","6","314","1","0","0","",""
"null","","273528","HierDypdjwjvrk","kbajf55b7l","msl000682","iti","img/motor_blank.png","null","74","motor","","","","","","",""
"446","","273985","HierDypdjwjvrk","kbajf55b7l","msl000682","motor","img/motor_1.png","65","65","motor","1","315","1","0","0","",""
"null","","274094","HierDypdjwjvrk","kbajf55b7l","msl000682","iti","img/motor_blank.png","null","65","motor","","","","","","",""
"784","","274889","HierDypdjwjvrk","kbajf55b7l","msl000682","motor","img/motor_3.png","68","68","motor","3","316","1","0","0","",""
"null","","275000","HierDypdjwjvrk","kbajf55b7l","msl000682","iti","img/motor_blank.png","null","68","motor","","","","","","",""
"641","","275650","HierDypdjwjvrk","kbajf55b7l","msl000682","motor","img/motor_5.png","72","72","motor","5","317","1","0","0","",""
"null","","275762","HierDypdjwjvrk","kbajf55b7l","msl000682","iti","img/motor_blank.png","null","72","motor","","","","","","",""
"425","","276198","HierDypdjwjvrk","kbajf55b7l","msl000682","motor","img/motor_3.png","83","68","motor","3","318","0","1","0","",""
"316","","276525","HierDypdjwjvrk","kbajf55b7l","msl000682","motorRepeat","img/motor_3.png","68","68","motor","3","318","1","0","0","",""
"null","","276636","HierDypdjwjvrk","kbajf55b7l","msl000682","iti","img/motor_blank.png","null","68","motor","","","","","","",""
"508","","277153","HierDypdjwjvrk","kbajf55b7l","msl000682","motor","img/motor_4.png","70","70","motor","4","319","1","0","0","",""
"null","","277264","HierDypdjwjvrk","kbajf55b7l","msl000682","iti","img/motor_blank.png","null","70","motor","","","","","","",""
"522","","277796","HierDypdjwjvrk","kbajf55b7l","msl000682","motor","img/motor_8.png","76","76","motor","8","320","1","0","0","",""
"null","","277907","HierDypdjwjvrk","kbajf55b7l","msl000682","iti","img/motor_blank.png","null","76","motor","","","","","","",""
"642","","278559","HierDypdjwjvrk","kbajf55b7l","msl000682","motor","img/motor_6.png","74","74","motor","6","321","1","0","0","",""
"null","","278668","HierDypdjwjvrk","kbajf55b7l","msl000682","iti","img/motor_blank.png","null","74","motor","","","","","","",""
"634","","279312","HierDypdjwjvrk","kbajf55b7l","msl000682","motor","img/motor_7.png","75","75","motor","7","322","1","0","0","",""
"null","","279424","HierDypdjwjvrk","kbajf55b7l","msl000682","iti","img/motor_blank.png","null","75","motor","","","","","","",""
"622","","280056","HierDypdjwjvrk","kbajf55b7l","msl000682","motor","img/motor_5.png","72","72","motor","5","323","1","0","0","",""
"null","","280165","HierDypdjwjvrk","kbajf55b7l","msl000682","iti","img/motor_blank.png","null","72","motor","","","","","","",""
"586","","280762","HierDypdjwjvrk","kbajf55b7l","msl000682","motor","img/motor_3.png","68","68","motor","3","324","1","0","0","",""
"null","","280873","HierDypdjwjvrk","kbajf55b7l","msl000682","iti","img/motor_blank.png","null","68","motor","","","","","","",""
"424","","281306","HierDypdjwjvrk","kbajf55b7l","msl000682","motor","img/motor_2.png","83","83","motor","2","325","1","0","0","",""
"null","","281418","HierDypdjwjvrk","kbajf55b7l","msl000682","iti","img/motor_blank.png","null","83","motor","","","","","","",""
"557","","281985","HierDypdjwjvrk","kbajf55b7l","msl000682","motor","img/motor_3.png","68","68","motor","3","326","1","0","0","",""
"null","","282093","HierDypdjwjvrk","kbajf55b7l","msl000682","iti","img/motor_blank.png","null","68","motor","","","","","","",""
"636","","282739","HierDypdjwjvrk","kbajf55b7l","msl000682","motor","img/motor_6.png","74","74","motor","6","327","1","0","0","",""
"null","","282848","HierDypdjwjvrk","kbajf55b7l","msl000682","iti","img/motor_blank.png","null","74","motor","","","","","","",""
"683","","283539","HierDypdjwjvrk","kbajf55b7l","msl000682","motor","img/motor_3.png","68","68","motor","3","328","1","0","0","",""
"null","","283651","HierDypdjwjvrk","kbajf55b7l","msl000682","iti","img/motor_blank.png","null","68","motor","","","","","","",""
"775","","284435","HierDypdjwjvrk","kbajf55b7l","msl000682","motor","img/motor_7.png","75","75","motor","7","329","1","0","0","",""
"null","","284547","HierDypdjwjvrk","kbajf55b7l","msl000682","iti","img/motor_blank.png","null","75","motor","","","","","","",""
"715","","285273","HierDypdjwjvrk","kbajf55b7l","msl000682","motor","img/motor_1.png","65","65","motor","1","330","1","0","0","",""
"null","","285383","HierDypdjwjvrk","kbajf55b7l","msl000682","iti","img/motor_blank.png","null","65","motor","","","","","","",""
"898","","286291","HierDypdjwjvrk","kbajf55b7l","msl000682","motor","img/motor_7.png","75","75","motor","7","331","1","0","0","",""
"null","","286403","HierDypdjwjvrk","kbajf55b7l","msl000682","iti","img/motor_blank.png","null","75","motor","","","","","","",""
"640","","287055","HierDypdjwjvrk","kbajf55b7l","msl000682","motor","img/motor_4.png","70","70","motor","4","332","1","0","0","",""
"null","","287167","HierDypdjwjvrk","kbajf55b7l","msl000682","iti","img/motor_blank.png","null","70","motor","","","","","","",""
"480","","287657","HierDypdjwjvrk","kbajf55b7l","msl000682","motor","img/motor_1.png","65","65","motor","1","333","1","0","0","",""
"null","","287768","HierDypdjwjvrk","kbajf55b7l","msl000682","iti","img/motor_blank.png","null","65","motor","","","","","","",""
"664","","288442","HierDypdjwjvrk","kbajf55b7l","msl000682","motor","img/motor_7.png","75","75","motor","7","334","1","0","0","",""
"null","","288554","HierDypdjwjvrk","kbajf55b7l","msl000682","iti","img/motor_blank.png","null","75","motor","","","","","","",""
"568","","289131","HierDypdjwjvrk","kbajf55b7l","msl000682","motor","img/motor_3.png","68","68","motor","3","335","1","0","0","",""
"null","","289240","HierDypdjwjvrk","kbajf55b7l","msl000682","iti","img/motor_blank.png","null","68","motor","","","","","","",""
"599","","289848","HierDypdjwjvrk","kbajf55b7l","msl000682","motor","img/motor_6.png","74","74","motor","6","336","1","0","0","",""
"null","","289958","HierDypdjwjvrk","kbajf55b7l","msl000682","iti","img/motor_blank.png","null","74","motor","","","","","","",""
"592","","290561","HierDypdjwjvrk","kbajf55b7l","msl000682","motor","img/motor_7.png","75","75","motor","7","337","1","0","0","",""
"null","","290671","HierDypdjwjvrk","kbajf55b7l","msl000682","iti","img/motor_blank.png","null","75","motor","","","","","","",""
"727","","291409","HierDypdjwjvrk","kbajf55b7l","msl000682","motor","img/motor_3.png","68","68","motor","3","338","1","0","0","",""
"null","","291517","HierDypdjwjvrk","kbajf55b7l","msl000682","iti","img/motor_blank.png","null","68","motor","","","","","","",""
"570","","292095","HierDypdjwjvrk","kbajf55b7l","msl000682","motor","img/motor_6.png","74","74","motor","6","339","1","0","0","",""
"null","","292207","HierDypdjwjvrk","kbajf55b7l","msl000682","iti","img/motor_blank.png","null","74","motor","","","","","","",""
"706","","292921","HierDypdjwjvrk","kbajf55b7l","msl000682","motor","img/motor_2.png","83","83","motor","2","340","1","0","0","",""
"null","","293032","HierDypdjwjvrk","kbajf55b7l","msl000682","iti","img/motor_blank.png","null","83","motor","","","","","","",""
"631","","293672","HierDypdjwjvrk","kbajf55b7l","msl000682","motor","img/motor_5.png","72","72","motor","5","341","1","0","0","",""
"null","","293784","HierDypdjwjvrk","kbajf55b7l","msl000682","iti","img/motor_blank.png","null","72","motor","","","","","","",""
"701","","294495","HierDypdjwjvrk","kbajf55b7l","msl000682","motor","img/motor_7.png","74","75","motor","7","342","0","1","0","",""
"462","","294967","HierDypdjwjvrk","kbajf55b7l","msl000682","motorRepeat","img/motor_7.png","75","75","motor","7","342","1","0","0","",""
"null","","295076","HierDypdjwjvrk","kbajf55b7l","msl000682","iti","img/motor_blank.png","null","75","motor","","","","","","",""
"521","","295605","HierDypdjwjvrk","kbajf55b7l","msl000682","motor","img/motor_1.png","65","65","motor","1","343","1","0","0","",""
"null","","295713","HierDypdjwjvrk","kbajf55b7l","msl000682","iti","img/motor_blank.png","null","65","motor","","","","","","",""
"564","","296288","HierDypdjwjvrk","kbajf55b7l","msl000682","motor","img/motor_5.png","72","72","motor","5","344","1","0","0","",""
"null","","296398","HierDypdjwjvrk","kbajf55b7l","msl000682","iti","img/motor_blank.png","null","72","motor","","","","","","",""
"601","","297009","HierDypdjwjvrk","kbajf55b7l","msl000682","motor","img/motor_4.png","70","70","motor","4","345","1","0","0","",""
"null","","297117","HierDypdjwjvrk","kbajf55b7l","msl000682","iti","img/motor_blank.png","null","70","motor","","","","","","",""
"640","","297765","HierDypdjwjvrk","kbajf55b7l","msl000682","motor","img/motor_6.png","74","74","motor","6","346","1","0","0","",""
"null","","297876","HierDypdjwjvrk","kbajf55b7l","msl000682","iti","img/motor_blank.png","null","74","motor","","","","","","",""
"965","","298850","HierDypdjwjvrk","kbajf55b7l","msl000682","motor","img/motor_2.png","83","83","motor","2","347","1","0","0","",""
"null","","298961","HierDypdjwjvrk","kbajf55b7l","msl000682","iti","img/motor_blank.png","null","83","motor","","","","","","",""
"725","","299696","HierDypdjwjvrk","kbajf55b7l","msl000682","motor","img/motor_7.png","75","75","motor","7","348","1","0","0","",""
"null","","299808","HierDypdjwjvrk","kbajf55b7l","msl000682","iti","img/motor_blank.png","null","75","motor","","","","","","",""
"570","","300386","HierDypdjwjvrk","kbajf55b7l","msl000682","motor","img/motor_7.png","75","75","motor","7","349","1","0","0","",""
"null","","300497","HierDypdjwjvrk","kbajf55b7l","msl000682","iti","img/motor_blank.png","null","75","motor","","","","","","",""
"491","","300999","HierDypdjwjvrk","kbajf55b7l","msl000682","motor","img/motor_2.png","83","83","motor","2","350","1","0","0","",""
"null","","301109","HierDypdjwjvrk","kbajf55b7l","msl000682","iti","img/motor_blank.png","null","83","motor","","","","","","",""
"472","","301590","HierDypdjwjvrk","kbajf55b7l","msl000682","motor","img/motor_4.png","70","70","motor","4","351","1","0","0","",""
"null","","301700","HierDypdjwjvrk","kbajf55b7l","msl000682","iti","img/motor_blank.png","null","70","motor","","","","","","",""
"460","","302168","HierDypdjwjvrk","kbajf55b7l","msl000682","motor","img/motor_7.png","75","75","motor","7","352","1","0","0","",""
"null","","302277","HierDypdjwjvrk","kbajf55b7l","msl000682","iti","img/motor_blank.png","null","75","motor","","","","","","",""
"508","","302795","HierDypdjwjvrk","kbajf55b7l","msl000682","motor","img/motor_1.png","65","65","motor","1","353","1","0","0","",""
"null","","302907","HierDypdjwjvrk","kbajf55b7l","msl000682","iti","img/motor_blank.png","null","65","motor","","","","","","",""
"1056","","303974","HierDypdjwjvrk","kbajf55b7l","msl000682","motor","img/motor_8.png","76","76","motor","8","354","1","0","0","",""
"null","","304083","HierDypdjwjvrk","kbajf55b7l","msl000682","iti","img/motor_blank.png","null","76","motor","","","","","","",""
"528","","304620","HierDypdjwjvrk","kbajf55b7l","msl000682","motor","img/motor_4.png","70","70","motor","4","355","1","0","0","",""
"null","","304731","HierDypdjwjvrk","kbajf55b7l","msl000682","iti","img/motor_blank.png","null","70","motor","","","","","","",""
"775","","305517","HierDypdjwjvrk","kbajf55b7l","msl000682","motor","img/motor_7.png","74","75","motor","7","356","0","1","0","",""
"1103","","306628","HierDypdjwjvrk","kbajf55b7l","msl000682","motorRepeat","img/motor_7.png","75","75","motor","7","356","1","0","0","",""
"null","","306740","HierDypdjwjvrk","kbajf55b7l","msl000682","iti","img/motor_blank.png","null","75","motor","","","","","","",""
"563","","307313","HierDypdjwjvrk","kbajf55b7l","msl000682","motor","img/motor_6.png","72","74","motor","6","357","0","1","0","",""
"503","","307826","HierDypdjwjvrk","kbajf55b7l","msl000682","motorRepeat","img/motor_6.png","74","74","motor","6","357","1","0","0","",""
"null","","307938","HierDypdjwjvrk","kbajf55b7l","msl000682","iti","img/motor_blank.png","null","74","motor","","","","","","",""
"483","","308430","HierDypdjwjvrk","kbajf55b7l","msl000682","motor","img/motor_1.png","65","65","motor","1","358","1","0","0","",""
"null","","308542","HierDypdjwjvrk","kbajf55b7l","msl000682","iti","img/motor_blank.png","null","65","motor","","","","","","",""
"831","","309384","HierDypdjwjvrk","kbajf55b7l","msl000682","motor","img/motor_5.png","72","72","motor","5","359","1","0","0","",""
"null","","309493","HierDypdjwjvrk","kbajf55b7l","msl000682","iti","img/motor_blank.png","null","72","motor","","","","","","",""
"551","","310055","HierDypdjwjvrk","kbajf55b7l","msl000682","motor","img/motor_1.png","65","65","motor","1","360","1","0","0","",""
"null","","310165","HierDypdjwjvrk","kbajf55b7l","msl000682","iti","img/motor_blank.png","null","65","motor","","","","","","",""
"547","","310722","HierDypdjwjvrk","kbajf55b7l","msl000682","motor","img/motor_6.png","74","74","motor","6","361","1","0","0","",""
"null","","310834","HierDypdjwjvrk","kbajf55b7l","msl000682","iti","img/motor_blank.png","null","74","motor","","","","","","",""
"478","","311322","HierDypdjwjvrk","kbajf55b7l","msl000682","motor","img/motor_8.png","76","76","motor","8","362","1","0","0","",""
"null","","311434","HierDypdjwjvrk","kbajf55b7l","msl000682","iti","img/motor_blank.png","null","76","motor","","","","","","",""
"631","","312075","HierDypdjwjvrk","kbajf55b7l","msl000682","motor","img/motor_2.png","83","83","motor","2","363","1","0","0","",""
"null","","312187","HierDypdjwjvrk","kbajf55b7l","msl000682","iti","img/motor_blank.png","null","83","motor","","","","","","",""
"542","","312739","HierDypdjwjvrk","kbajf55b7l","msl000682","motor","img/motor_8.png","76","76","motor","8","364","1","0","0","",""
"null","","312847","HierDypdjwjvrk","kbajf55b7l","msl000682","iti","img/motor_blank.png","null","76","motor","","","","","","",""
"752","","313608","HierDypdjwjvrk","kbajf55b7l","msl000682","motor","img/motor_3.png","68","68","motor","3","365","1","0","0","",""
"null","","313720","HierDypdjwjvrk","kbajf55b7l","msl000682","iti","img/motor_blank.png","null","68","motor","","","","","","",""
"404","","314133","HierDypdjwjvrk","kbajf55b7l","msl000682","motor","img/motor_1.png","65","65","motor","1","366","1","0","0","",""
"null","","314246","HierDypdjwjvrk","kbajf55b7l","msl000682","iti","img/motor_blank.png","null","65","motor","","","","","","",""
"480","","314736","HierDypdjwjvrk","kbajf55b7l","msl000682","motor","img/motor_8.png","76","76","motor","8","367","1","0","0","",""
"null","","314846","HierDypdjwjvrk","kbajf55b7l","msl000682","iti","img/motor_blank.png","null","76","motor","","","","","","",""
"636","","315493","HierDypdjwjvrk","kbajf55b7l","msl000682","motor","img/motor_7.png","75","75","motor","7","368","1","0","0","",""
"null","","315603","HierDypdjwjvrk","kbajf55b7l","msl000682","iti","img/motor_blank.png","null","75","motor","","","","","","",""
