"rt","time_elapsed","subject","subID","group","day","trialType","phase","key_press","stim","stimNum","corrresp","hierarchy","trialNum","corr","responses"
"1388.9999999999998","1391","HierDy20gonqgs","sub07","07","2","","","","","","","","","",""
"","7021","HierDy20gonqgs","sub07","07","2","fullscreen","","","","","","","","",""
"7353","14375","HierDy20gonqgs","sub07","07","2","","prac","","","","","","","",""
"4499.000000000004","18879","HierDy20gonqgs","sub07","07","2","","","75","","","","","","",""
"4253","23133","HierDy20gonqgs","sub07","07","2","","prac","","","","","","","",""
"1343","24480","HierDy20gonqgs","sub07","07","2","rl","test","65","img/b_c_stripes.png","5","72","pattern,color,shape","1","0",""
"null","25485","HierDy20gonqgs","sub07","07","2","feedback","test","null","","","na","","1","",""
"681","26168","HierDy20gonqgs","sub07","07","2","rl","test","65","img/o_s_dots.png","4","70","pattern,color,shape","2","0",""
"null","27171","HierDy20gonqgs","sub07","07","2","feedback","test","null","","","na","","2","",""
"null","29675","HierDy20gonqgs","sub07","07","2","rl","test","null","img/b_c_dots.png","1","65","pattern,color,shape","3","0",""
"null","30678","HierDy20gonqgs","sub07","07","2","feedback","test","null","","","na","","3","",""
"979","31660","HierDy20gonqgs","sub07","07","2","rl","test","76","img/o_c_dots.png","3","68","pattern,color,shape","4","0",""
"null","32663","HierDy20gonqgs","sub07","07","2","feedback","test","null","","","na","","4","",""
"897","33563","HierDy20gonqgs","sub07","07","2","rl","test","74","img/o_s_stripes.png","8","76","pattern,color,shape","5","0",""
"null","34566","HierDy20gonqgs","sub07","07","2","feedback","test","null","","","na","","5","",""
"901","35469","HierDy20gonqgs","sub07","07","2","rl","test","74","img/b_s_stripes.png","6","74","pattern,color,shape","6","1",""
"null","36473","HierDy20gonqgs","sub07","07","2","feedback","test","null","","","na","","6","",""
"1095","37570","HierDy20gonqgs","sub07","07","2","rl","test","83","img/b_s_dots.png","2","83","pattern,color,shape","7","1",""
"null","38573","HierDy20gonqgs","sub07","07","2","feedback","test","null","","","na","","7","",""
"1363","39938","HierDy20gonqgs","sub07","07","2","rl","test","72","img/o_c_stripes.png","7","75","pattern,color,shape","8","0",""
"null","40941","HierDy20gonqgs","sub07","07","2","feedback","test","null","","","na","","8","",""
"1450","42392","HierDy20gonqgs","sub07","07","2","rl","test","75","img/b_s_stripes.png","6","74","pattern,color,shape","9","0",""
"null","43396","HierDy20gonqgs","sub07","07","2","feedback","test","null","","","na","","9","",""
"854","44252","HierDy20gonqgs","sub07","07","2","rl","test","65","img/b_c_dots.png","1","65","pattern,color,shape","10","1",""
"null","45255","HierDy20gonqgs","sub07","07","2","feedback","test","null","","","na","","10","",""
"1086","46343","HierDy20gonqgs","sub07","07","2","rl","test","83","img/b_s_dots.png","2","83","pattern,color,shape","11","1",""
"null","47346","HierDy20gonqgs","sub07","07","2","feedback","test","null","","","na","","11","",""
"2296","49644","HierDy20gonqgs","sub07","07","2","rl","test","72","img/b_c_stripes.png","5","72","pattern,color,shape","12","1",""
"null","50647","HierDy20gonqgs","sub07","07","2","feedback","test","null","","","na","","12","",""
"899.9999999999927","51549","HierDy20gonqgs","sub07","07","2","rl","test","83","img/b_s_dots.png","2","83","pattern,color,shape","13","1",""
"null","52552","HierDy20gonqgs","sub07","07","2","feedback","test","null","","","na","","13","",""
"1415.0000000000073","53969","HierDy20gonqgs","sub07","07","2","rl","test","76","img/o_s_dots.png","4","70","pattern,color,shape","14","0",""
"null","54973","HierDy20gonqgs","sub07","07","2","feedback","test","null","","","na","","14","",""
"1276.9999999999927","56252","HierDy20gonqgs","sub07","07","2","rl","test","76","img/o_c_stripes.png","7","75","pattern,color,shape","15","0",""
"null","57255","HierDy20gonqgs","sub07","07","2","feedback","test","null","","","na","","15","",""
"1357","58614","HierDy20gonqgs","sub07","07","2","rl","test","76","img/o_s_stripes.png","8","76","pattern,color,shape","16","1",""
"null","59617","HierDy20gonqgs","sub07","07","2","feedback","test","null","","","na","","16","",""
"null","62121","HierDy20gonqgs","sub07","07","2","rl","test","null","img/o_c_dots.png","3","68","pattern,color,shape","17","0",""
"null","63124","HierDy20gonqgs","sub07","07","2","feedback","test","null","","","na","","17","",""
"953.9999999999927","64079","HierDy20gonqgs","sub07","07","2","rl","test","75","img/o_c_dots.png","3","68","pattern,color,shape","18","0",""
"null","65083","HierDy20gonqgs","sub07","07","2","feedback","test","null","","","na","","18","",""
"1624","66709","HierDy20gonqgs","sub07","07","2","rl","test","75","img/o_s_dots.png","4","70","pattern,color,shape","19","0",""
"null","67712","HierDy20gonqgs","sub07","07","2","feedback","test","null","","","na","","19","",""
"1489","69204","HierDy20gonqgs","sub07","07","2","rl","test","70","img/b_c_stripes.png","5","72","pattern,color,shape","20","0",""
"null","70207","HierDy20gonqgs","sub07","07","2","feedback","test","null","","","na","","20","",""
"1469.0000000000146","71677","HierDy20gonqgs","sub07","07","2","rl","test","74","img/b_s_stripes.png","6","74","pattern,color,shape","21","1",""
"null","72680","HierDy20gonqgs","sub07","07","2","feedback","test","null","","","na","","21","",""
"1817","74499","HierDy20gonqgs","sub07","07","2","rl","test","76","img/o_s_stripes.png","8","76","pattern,color,shape","22","1",""
"null","75502","HierDy20gonqgs","sub07","07","2","feedback","test","null","","","na","","22","",""
"614","76118","HierDy20gonqgs","sub07","07","2","rl","test","76","img/o_s_stripes.png","8","76","pattern,color,shape","23","1",""
"null","77121","HierDy20gonqgs","sub07","07","2","feedback","test","null","","","na","","23","",""
"723","77846","HierDy20gonqgs","sub07","07","2","rl","test","65","img/b_c_dots.png","1","65","pattern,color,shape","24","1",""
"null","78848","HierDy20gonqgs","sub07","07","2","feedback","test","null","","","na","","24","",""
"1631","80481","HierDy20gonqgs","sub07","07","2","rl","test","72","img/o_c_stripes.png","7","75","pattern,color,shape","25","0",""
"null","81484","HierDy20gonqgs","sub07","07","2","feedback","test","null","","","na","","25","",""
"849.0000000000146","82335","HierDy20gonqgs","sub07","07","2","rl","test","65","img/b_c_dots.png","1","65","pattern,color,shape","26","1",""
"null","83338","HierDy20gonqgs","sub07","07","2","feedback","test","null","","","na","","26","",""
"1489","84828","HierDy20gonqgs","sub07","07","2","rl","test","83","img/b_s_dots.png","2","83","pattern,color,shape","27","1",""
"null","85832","HierDy20gonqgs","sub07","07","2","feedback","test","null","","","na","","27","",""
"716.0000000000146","86549","HierDy20gonqgs","sub07","07","2","rl","test","75","img/o_c_stripes.png","7","75","pattern,color,shape","28","1",""
"null","87553","HierDy20gonqgs","sub07","07","2","feedback","test","null","","","na","","28","",""
"1912.9999999999854","89468","HierDy20gonqgs","sub07","07","2","rl","test","74","img/b_s_stripes.png","6","74","pattern,color,shape","29","1",""
"null","90471","HierDy20gonqgs","sub07","07","2","feedback","test","null","","","na","","29","",""
"1835.0000000000146","92308","HierDy20gonqgs","sub07","07","2","rl","test","75","img/o_c_dots.png","3","68","pattern,color,shape","30","0",""
"null","93311","HierDy20gonqgs","sub07","07","2","feedback","test","null","","","na","","30","",""
"1887","95200","HierDy20gonqgs","sub07","07","2","rl","test","76","img/b_c_stripes.png","5","72","pattern,color,shape","31","0",""
"null","96203","HierDy20gonqgs","sub07","07","2","feedback","test","null","","","na","","31","",""
"1387","97592","HierDy20gonqgs","sub07","07","2","rl","test","75","img/o_s_dots.png","4","70","pattern,color,shape","32","0",""
"null","98594","HierDy20gonqgs","sub07","07","2","feedback","test","null","","","na","","32","",""
"1384","99978","HierDy20gonqgs","sub07","07","2","rl","test","75","img/o_s_stripes.png","8","76","pattern,color,shape","33","0",""
"null","100981","HierDy20gonqgs","sub07","07","2","feedback","test","null","","","na","","33","",""
"1358.0000000000146","102341","HierDy20gonqgs","sub07","07","2","rl","test","83","img/b_s_dots.png","2","83","pattern,color,shape","34","1",""
"null","103344","HierDy20gonqgs","sub07","07","2","feedback","test","null","","","na","","34","",""
"726","104071","HierDy20gonqgs","sub07","07","2","rl","test","65","img/b_c_dots.png","1","65","pattern,color,shape","35","1",""
"null","105074","HierDy20gonqgs","sub07","07","2","feedback","test","null","","","na","","35","",""
"1991.9999999999854","107068","HierDy20gonqgs","sub07","07","2","rl","test","70","img/o_c_dots.png","3","68","pattern,color,shape","36","0",""
"null","108071","HierDy20gonqgs","sub07","07","2","feedback","test","null","","","na","","36","",""
"2059.9999999999854","110133","HierDy20gonqgs","sub07","07","2","rl","test","74","img/o_s_dots.png","4","70","pattern,color,shape","37","0",""
"null","111136","HierDy20gonqgs","sub07","07","2","feedback","test","null","","","na","","37","",""
"1758","112896","HierDy20gonqgs","sub07","07","2","rl","test","72","img/o_s_dots.png","4","70","pattern,color,shape","38","0",""
"null","113900","HierDy20gonqgs","sub07","07","2","feedback","test","null","","","na","","38","",""
"1330","115232","HierDy20gonqgs","sub07","07","2","rl","test","75","img/o_c_stripes.png","7","75","pattern,color,shape","39","1",""
"null","116235","HierDy20gonqgs","sub07","07","2","feedback","test","null","","","na","","39","",""
"957","117194","HierDy20gonqgs","sub07","07","2","rl","test","75","img/o_c_dots.png","3","68","pattern,color,shape","40","0",""
"null","118197","HierDy20gonqgs","sub07","07","2","feedback","test","null","","","na","","40","",""
"2072.9999999999854","120271","HierDy20gonqgs","sub07","07","2","rl","test","72","img/b_c_stripes.png","5","72","pattern,color,shape","41","1",""
"null","121274","HierDy20gonqgs","sub07","07","2","feedback","test","null","","","na","","41","",""
"1537","122812","HierDy20gonqgs","sub07","07","2","rl","test","72","img/o_c_stripes.png","7","75","pattern,color,shape","42","0",""
"null","123814","HierDy20gonqgs","sub07","07","2","feedback","test","null","","","na","","42","",""
"1552","125367","HierDy20gonqgs","sub07","07","2","rl","test","74","img/b_s_stripes.png","6","74","pattern,color,shape","43","1",""
"null","126371","HierDy20gonqgs","sub07","07","2","feedback","test","null","","","na","","43","",""
"682","127055","HierDy20gonqgs","sub07","07","2","rl","test","74","img/b_s_stripes.png","6","74","pattern,color,shape","44","1",""
"null","128058","HierDy20gonqgs","sub07","07","2","feedback","test","null","","","na","","44","",""
"1095.000000000029","129154","HierDy20gonqgs","sub07","07","2","rl","test","75","img/o_s_stripes.png","8","76","pattern,color,shape","45","0",""
"null","130157","HierDy20gonqgs","sub07","07","2","feedback","test","null","","","na","","45","",""
"995","131152","HierDy20gonqgs","sub07","07","2","rl","test","74","img/b_s_stripes.png","6","74","pattern,color,shape","46","1",""
"null","132155","HierDy20gonqgs","sub07","07","2","feedback","test","null","","","na","","46","",""
"1965","134123","HierDy20gonqgs","sub07","07","2","rl","test","68","img/b_c_stripes.png","5","72","pattern,color,shape","47","0",""
"null","135125","HierDy20gonqgs","sub07","07","2","feedback","test","null","","","na","","47","",""
"798","135926","HierDy20gonqgs","sub07","07","2","rl","test","83","img/b_s_dots.png","2","83","pattern,color,shape","48","1",""
"null","136930","HierDy20gonqgs","sub07","07","2","feedback","test","null","","","na","","48","",""
"2309","139240","HierDy20gonqgs","sub07","07","2","rl","test","75","img/o_c_dots.png","3","68","pattern,color,shape","49","0",""
"null","140243","HierDy20gonqgs","sub07","07","2","feedback","test","null","","","na","","49","",""
"1329","141575","HierDy20gonqgs","sub07","07","2","rl","test","65","img/b_c_dots.png","1","65","pattern,color,shape","50","1",""
"null","142577","HierDy20gonqgs","sub07","07","2","feedback","test","null","","","na","","50","",""
"1623","144202","HierDy20gonqgs","sub07","07","2","rl","test","83","img/b_s_dots.png","2","83","pattern,color,shape","51","1",""
"null","145206","HierDy20gonqgs","sub07","07","2","feedback","test","null","","","na","","51","",""
"736","145942","HierDy20gonqgs","sub07","07","2","rl","test","65","img/b_c_dots.png","1","65","pattern,color,shape","52","1",""
"null","146945","HierDy20gonqgs","sub07","07","2","feedback","test","null","","","na","","52","",""
"1712","148659","HierDy20gonqgs","sub07","07","2","rl","test","75","img/o_s_dots.png","4","70","pattern,color,shape","53","0",""
"null","149662","HierDy20gonqgs","sub07","07","2","feedback","test","null","","","na","","53","",""
"1815","151479","HierDy20gonqgs","sub07","07","2","rl","test","74","img/b_s_stripes.png","6","74","pattern,color,shape","54","1",""
"null","152482","HierDy20gonqgs","sub07","07","2","feedback","test","null","","","na","","54","",""
"1905","154390","HierDy20gonqgs","sub07","07","2","rl","test","75","img/o_c_stripes.png","7","75","pattern,color,shape","55","1",""
"null","155393","HierDy20gonqgs","sub07","07","2","feedback","test","null","","","na","","55","",""
"2392","157787","HierDy20gonqgs","sub07","07","2","rl","test","72","img/b_c_stripes.png","5","72","pattern,color,shape","56","1",""
"null","158790","HierDy20gonqgs","sub07","07","2","feedback","test","null","","","na","","56","",""
"1566","160357","HierDy20gonqgs","sub07","07","2","rl","test","75","img/o_s_stripes.png","8","76","pattern,color,shape","57","0",""
"null","161360","HierDy20gonqgs","sub07","07","2","feedback","test","null","","","na","","57","",""
"1040","162402","HierDy20gonqgs","sub07","07","2","rl","test","83","img/b_s_dots.png","2","83","pattern,color,shape","58","1",""
"null","163404","HierDy20gonqgs","sub07","07","2","feedback","test","null","","","na","","58","",""
"1111.000000000029","164517","HierDy20gonqgs","sub07","07","2","rl","test","76","img/o_c_stripes.png","7","75","pattern,color,shape","59","0",""
"null","165520","HierDy20gonqgs","sub07","07","2","feedback","test","null","","","na","","59","",""
"2018.999999999971","167541","HierDy20gonqgs","sub07","07","2","rl","test","74","img/b_c_stripes.png","5","72","pattern,color,shape","60","0",""
"null","168543","HierDy20gonqgs","sub07","07","2","feedback","test","null","","","na","","60","",""
"null","171046","HierDy20gonqgs","sub07","07","2","rl","test","null","img/o_s_dots.png","4","70","pattern,color,shape","61","0",""
"null","172051","HierDy20gonqgs","sub07","07","2","feedback","test","null","","","na","","61","",""
"1566","173619","HierDy20gonqgs","sub07","07","2","rl","test","72","img/o_s_stripes.png","8","76","pattern,color,shape","62","0",""
"null","174622","HierDy20gonqgs","sub07","07","2","feedback","test","null","","","na","","62","",""
"744","175369","HierDy20gonqgs","sub07","07","2","rl","test","68","img/b_c_dots.png","1","65","pattern,color,shape","63","0",""
"null","176371","HierDy20gonqgs","sub07","07","2","feedback","test","null","","","na","","63","",""
"793.9999999999709","177168","HierDy20gonqgs","sub07","07","2","rl","test","68","img/o_c_dots.png","3","68","pattern,color,shape","64","1",""
"null","178171","HierDy20gonqgs","sub07","07","2","feedback","test","null","","","na","","64","",""
"1906","180079","HierDy20gonqgs","sub07","07","2","rl","test","76","img/o_s_stripes.png","8","76","pattern,color,shape","65","1",""
"null","181082","HierDy20gonqgs","sub07","07","2","feedback","test","null","","","na","","65","",""
"1488","182572","HierDy20gonqgs","sub07","07","2","rl","test","72","img/o_c_dots.png","3","68","pattern,color,shape","66","0",""
"null","183574","HierDy20gonqgs","sub07","07","2","feedback","test","null","","","na","","66","",""
"1423.999999999971","185000","HierDy20gonqgs","sub07","07","2","rl","test","74","img/b_s_stripes.png","6","74","pattern,color,shape","67","1",""
"null","186003","HierDy20gonqgs","sub07","07","2","feedback","test","null","","","na","","67","",""
"858.9999999999709","186863","HierDy20gonqgs","sub07","07","2","rl","test","83","img/b_s_dots.png","2","83","pattern,color,shape","68","1",""
"null","187866","HierDy20gonqgs","sub07","07","2","feedback","test","null","","","na","","68","",""
"1400","189268","HierDy20gonqgs","sub07","07","2","rl","test","65","img/b_c_dots.png","1","65","pattern,color,shape","69","1",""
"null","190271","HierDy20gonqgs","sub07","07","2","feedback","test","null","","","na","","69","",""
"null","192774","HierDy20gonqgs","sub07","07","2","rl","test","null","img/o_s_dots.png","4","70","pattern,color,shape","70","0",""
"null","193777","HierDy20gonqgs","sub07","07","2","feedback","test","null","","","na","","70","",""
"941","194720","HierDy20gonqgs","sub07","07","2","rl","test","70","img/o_c_stripes.png","7","75","pattern,color,shape","71","0",""
"null","195724","HierDy20gonqgs","sub07","07","2","feedback","test","null","","","na","","71","",""
"1414","197140","HierDy20gonqgs","sub07","07","2","rl","test","75","img/o_s_stripes.png","8","76","pattern,color,shape","72","0",""
"null","198143","HierDy20gonqgs","sub07","07","2","feedback","test","null","","","na","","72","",""
"955","199100","HierDy20gonqgs","sub07","07","2","rl","test","83","img/b_s_dots.png","2","83","pattern,color,shape","73","1",""
"null","200103","HierDy20gonqgs","sub07","07","2","feedback","test","null","","","na","","73","",""
"753","200858","HierDy20gonqgs","sub07","07","2","rl","test","74","img/b_c_stripes.png","5","72","pattern,color,shape","74","0",""
"null","201862","HierDy20gonqgs","sub07","07","2","feedback","test","null","","","na","","74","",""
"687","202551","HierDy20gonqgs","sub07","07","2","rl","test","75","img/b_c_stripes.png","5","72","pattern,color,shape","75","0",""
"null","203554","HierDy20gonqgs","sub07","07","2","feedback","test","null","","","na","","75","",""
"1496.000000000029","205053","HierDy20gonqgs","sub07","07","2","rl","test","65","img/b_c_dots.png","1","65","pattern,color,shape","76","1",""
"null","206055","HierDy20gonqgs","sub07","07","2","feedback","test","null","","","na","","76","",""
"833","206891","HierDy20gonqgs","sub07","07","2","rl","test","68","img/b_s_stripes.png","6","74","pattern,color,shape","77","0",""
"null","207894","HierDy20gonqgs","sub07","07","2","feedback","test","null","","","na","","77","",""
"853","208749","HierDy20gonqgs","sub07","07","2","rl","test","75","img/o_s_dots.png","4","70","pattern,color,shape","78","0",""
"null","209752","HierDy20gonqgs","sub07","07","2","feedback","test","null","","","na","","78","",""
"1909.999999999971","211663","HierDy20gonqgs","sub07","07","2","rl","test","75","img/o_c_dots.png","3","68","pattern,color,shape","79","0",""
"null","212667","HierDy20gonqgs","sub07","07","2","feedback","test","null","","","na","","79","",""
"1193","213861","HierDy20gonqgs","sub07","07","2","rl","test","72","img/b_c_stripes.png","5","72","pattern,color,shape","80","1",""
"null","214864","HierDy20gonqgs","sub07","07","2","feedback","test","null","","","na","","80","",""
"938.9999999999709","215806","HierDy20gonqgs","sub07","07","2","rl","test","74","img/o_c_stripes.png","7","75","pattern,color,shape","81","0",""
"null","216809","HierDy20gonqgs","sub07","07","2","feedback","test","null","","","na","","81","",""
"1868","218680","HierDy20gonqgs","sub07","07","2","rl","test","75","img/o_s_dots.png","4","70","pattern,color,shape","82","0",""
"null","219683","HierDy20gonqgs","sub07","07","2","feedback","test","null","","","na","","82","",""
"1154","220839","HierDy20gonqgs","sub07","07","2","rl","test","74","img/b_s_stripes.png","6","74","pattern,color,shape","83","1",""
"null","221842","HierDy20gonqgs","sub07","07","2","feedback","test","null","","","na","","83","",""
"1468.999999999971","223312","HierDy20gonqgs","sub07","07","2","rl","test","68","img/o_c_stripes.png","7","75","pattern,color,shape","84","0",""
"null","224316","HierDy20gonqgs","sub07","07","2","feedback","test","null","","","na","","84","",""
"1045","225362","HierDy20gonqgs","sub07","07","2","rl","test","83","img/b_s_dots.png","2","83","pattern,color,shape","85","1",""
"null","226366","HierDy20gonqgs","sub07","07","2","feedback","test","null","","","na","","85","",""
"1880","228249","HierDy20gonqgs","sub07","07","2","rl","test","76","img/o_s_stripes.png","8","76","pattern,color,shape","86","1",""
"null","229252","HierDy20gonqgs","sub07","07","2","feedback","test","null","","","na","","86","",""
"816.9999999999709","230070","HierDy20gonqgs","sub07","07","2","rl","test","65","img/b_c_dots.png","1","65","pattern,color,shape","87","1",""
"null","231073","HierDy20gonqgs","sub07","07","2","feedback","test","null","","","na","","87","",""
"1797.999999999971","232874","HierDy20gonqgs","sub07","07","2","rl","test","83","img/o_c_dots.png","3","68","pattern,color,shape","88","0",""
"null","233877","HierDy20gonqgs","sub07","07","2","feedback","test","null","","","na","","88","",""
"721","234600","HierDy20gonqgs","sub07","07","2","rl","test","65","img/b_c_dots.png","1","65","pattern,color,shape","89","1",""
"null","235603","HierDy20gonqgs","sub07","07","2","feedback","test","null","","","na","","89","",""
"1375","236980","HierDy20gonqgs","sub07","07","2","rl","test","65","img/o_s_dots.png","4","70","pattern,color,shape","90","0",""
"null","237983","HierDy20gonqgs","sub07","07","2","feedback","test","null","","","na","","90","",""
"1168","239153","HierDy20gonqgs","sub07","07","2","rl","test","83","img/b_s_dots.png","2","83","pattern,color,shape","91","1",""
"null","240156","HierDy20gonqgs","sub07","07","2","feedback","test","null","","","na","","91","",""
"720.9999999999709","240879","HierDy20gonqgs","sub07","07","2","rl","test","83","img/b_s_dots.png","2","83","pattern,color,shape","92","1",""
"null","241883","HierDy20gonqgs","sub07","07","2","feedback","test","null","","","na","","92","",""
"1055","242940","HierDy20gonqgs","sub07","07","2","rl","test","76","img/o_s_stripes.png","8","76","pattern,color,shape","93","1",""
"null","243943","HierDy20gonqgs","sub07","07","2","feedback","test","null","","","na","","93","",""
"2251","246196","HierDy20gonqgs","sub07","07","2","rl","test","74","img/b_s_stripes.png","6","74","pattern,color,shape","94","1",""
"null","247199","HierDy20gonqgs","sub07","07","2","feedback","test","null","","","na","","94","",""
"935","248136","HierDy20gonqgs","sub07","07","2","rl","test","72","img/b_c_stripes.png","5","72","pattern,color,shape","95","1",""
"null","249139","HierDy20gonqgs","sub07","07","2","feedback","test","null","","","na","","95","",""
"842","249983","HierDy20gonqgs","sub07","07","2","rl","test","74","img/b_s_stripes.png","6","74","pattern,color,shape","96","1",""
"null","250985","HierDy20gonqgs","sub07","07","2","feedback","test","null","","","na","","96","",""
"1937","252923","HierDy20gonqgs","sub07","07","2","rl","test","75","img/o_c_stripes.png","7","75","pattern,color,shape","97","1",""
"null","253926","HierDy20gonqgs","sub07","07","2","feedback","test","null","","","na","","97","",""
"752","254680","HierDy20gonqgs","sub07","07","2","rl","test","76","img/o_s_stripes.png","8","76","pattern,color,shape","98","1",""
"null","255683","HierDy20gonqgs","sub07","07","2","feedback","test","null","","","na","","98","",""
"2271.000000000029","257956","HierDy20gonqgs","sub07","07","2","rl","test","68","img/o_c_dots.png","3","68","pattern,color,shape","99","1",""
"null","258959","HierDy20gonqgs","sub07","07","2","feedback","test","null","","","na","","99","",""
"629.0000000000291","259590","HierDy20gonqgs","sub07","07","2","rl","test","68","img/o_c_dots.png","3","68","pattern,color,shape","100","1",""
"null","260592","HierDy20gonqgs","sub07","07","2","feedback","test","null","","","na","","100","",""
"2170.999999999971","262764","HierDy20gonqgs","sub07","07","2","rl","test","75","img/o_c_stripes.png","7","75","pattern,color,shape","101","1",""
"null","263767","HierDy20gonqgs","sub07","07","2","feedback","test","null","","","na","","101","",""
"2045","265813","HierDy20gonqgs","sub07","07","2","rl","test","72","img/b_c_stripes.png","5","72","pattern,color,shape","102","1",""
"null","266815","HierDy20gonqgs","sub07","07","2","feedback","test","null","","","na","","102","",""
"858","267674","HierDy20gonqgs","sub07","07","2","rl","test","65","img/b_c_dots.png","1","65","pattern,color,shape","103","1",""
"null","268679","HierDy20gonqgs","sub07","07","2","feedback","test","null","","","na","","103","",""
"1727","270409","HierDy20gonqgs","sub07","07","2","rl","test","68","img/o_c_stripes.png","7","75","pattern,color,shape","104","0",""
"null","271412","HierDy20gonqgs","sub07","07","2","feedback","test","null","","","na","","104","",""
"1997","273410","HierDy20gonqgs","sub07","07","2","rl","test","75","img/o_s_dots.png","4","70","pattern,color,shape","105","0",""
"null","274413","HierDy20gonqgs","sub07","07","2","feedback","test","null","","","na","","105","",""
"1101","275517","HierDy20gonqgs","sub07","07","2","rl","test","74","img/b_s_stripes.png","6","74","pattern,color,shape","106","1",""
"null","276520","HierDy20gonqgs","sub07","07","2","feedback","test","null","","","na","","106","",""
"1104","277626","HierDy20gonqgs","sub07","07","2","rl","test","83","img/b_s_dots.png","2","83","pattern,color,shape","107","1",""
"null","278629","HierDy20gonqgs","sub07","07","2","feedback","test","null","","","na","","107","",""
"791.9999999999418","279422","HierDy20gonqgs","sub07","07","2","rl","test","65","img/b_c_dots.png","1","65","pattern,color,shape","108","1",""
"null","280425","HierDy20gonqgs","sub07","07","2","feedback","test","null","","","na","","108","",""
"2201","282627","HierDy20gonqgs","sub07","07","2","rl","test","75","img/o_s_dots.png","4","70","pattern,color,shape","109","0",""
"null","283630","HierDy20gonqgs","sub07","07","2","feedback","test","null","","","na","","109","",""
"1403","285035","HierDy20gonqgs","sub07","07","2","rl","test","72","img/b_c_stripes.png","5","72","pattern,color,shape","110","1",""
"null","286039","HierDy20gonqgs","sub07","07","2","feedback","test","null","","","na","","110","",""
"906","286949","HierDy20gonqgs","sub07","07","2","rl","test","76","img/o_s_stripes.png","8","76","pattern,color,shape","111","1",""
"null","287953","HierDy20gonqgs","sub07","07","2","feedback","test","null","","","na","","111","",""
"2368","290323","HierDy20gonqgs","sub07","07","2","rl","test","74","img/o_c_dots.png","3","68","pattern,color,shape","112","0",""
"null","291325","HierDy20gonqgs","sub07","07","2","feedback","test","null","","","na","","112","",""
"1560.9999999999418","292888","HierDy20gonqgs","sub07","07","2","rl","test","72","img/b_c_stripes.png","5","72","pattern,color,shape","113","1",""
"null","293891","HierDy20gonqgs","sub07","07","2","feedback","test","null","","","na","","113","",""
"1140","295033","HierDy20gonqgs","sub07","07","2","rl","test","75","img/o_c_dots.png","3","68","pattern,color,shape","114","0",""
"null","296036","HierDy20gonqgs","sub07","07","2","feedback","test","null","","","na","","114","",""
"2050.000000000058","298089","HierDy20gonqgs","sub07","07","2","rl","test","75","img/b_s_stripes.png","6","74","pattern,color,shape","115","0",""
"null","299092","HierDy20gonqgs","sub07","07","2","feedback","test","null","","","na","","115","",""
"2383","301477","HierDy20gonqgs","sub07","07","2","rl","test","76","img/o_s_stripes.png","8","76","pattern,color,shape","116","1",""
"null","302480","HierDy20gonqgs","sub07","07","2","feedback","test","null","","","na","","116","",""
"793","303275","HierDy20gonqgs","sub07","07","2","rl","test","83","img/b_s_dots.png","2","83","pattern,color,shape","117","1",""
"null","304277","HierDy20gonqgs","sub07","07","2","feedback","test","null","","","na","","117","",""
"2334","306613","HierDy20gonqgs","sub07","07","2","rl","test","72","img/o_c_stripes.png","7","75","pattern,color,shape","118","0",""
"null","307616","HierDy20gonqgs","sub07","07","2","feedback","test","null","","","na","","118","",""
"1076","308694","HierDy20gonqgs","sub07","07","2","rl","test","72","img/b_c_stripes.png","5","72","pattern,color,shape","119","1",""
"null","309697","HierDy20gonqgs","sub07","07","2","feedback","test","null","","","na","","119","",""
"1650","311348","HierDy20gonqgs","sub07","07","2","rl","test","76","img/o_s_dots.png","4","70","pattern,color,shape","120","0",""
"null","312351","HierDy20gonqgs","sub07","07","2","feedback","test","null","","","na","","120","",""
"894","313247","HierDy20gonqgs","sub07","07","2","rl","test","65","img/b_c_dots.png","1","65","pattern,color,shape","121","1",""
"null","314250","HierDy20gonqgs","sub07","07","2","feedback","test","null","","","na","","121","",""
"663","314914","HierDy20gonqgs","sub07","07","2","rl","test","65","img/b_c_dots.png","1","65","pattern,color,shape","122","1",""
"null","315917","HierDy20gonqgs","sub07","07","2","feedback","test","null","","","na","","122","",""
"1711","317631","HierDy20gonqgs","sub07","07","2","rl","test","70","img/o_s_dots.png","4","70","pattern,color,shape","123","1",""
"null","318634","HierDy20gonqgs","sub07","07","2","feedback","test","null","","","na","","123","",""
"1361.9999999999418","319999","HierDy20gonqgs","sub07","07","2","rl","test","76","img/o_s_stripes.png","8","76","pattern,color,shape","124","1",""
"null","321002","HierDy20gonqgs","sub07","07","2","feedback","test","null","","","na","","124","",""
"1201.9999999999418","322206","HierDy20gonqgs","sub07","07","2","rl","test","75","img/o_c_stripes.png","7","75","pattern,color,shape","125","1",""
"null","323208","HierDy20gonqgs","sub07","07","2","feedback","test","null","","","na","","125","",""
"1321","324532","HierDy20gonqgs","sub07","07","2","rl","test","83","img/b_s_dots.png","2","83","pattern,color,shape","126","1",""
"null","325535","HierDy20gonqgs","sub07","07","2","feedback","test","null","","","na","","126","",""
"1326","326864","HierDy20gonqgs","sub07","07","2","rl","test","74","img/b_s_stripes.png","6","74","pattern,color,shape","127","1",""
"null","327866","HierDy20gonqgs","sub07","07","2","feedback","test","null","","","na","","127","",""
"1350","329219","HierDy20gonqgs","sub07","07","2","rl","test","68","img/o_c_dots.png","3","68","pattern,color,shape","128","1",""
"null","330222","HierDy20gonqgs","sub07","07","2","feedback","test","null","","","na","","128","",""
"501.0000000000582","330725","HierDy20gonqgs","sub07","07","2","rl","test","68","img/o_c_dots.png","3","68","pattern,color,shape","129","1",""
"null","331728","HierDy20gonqgs","sub07","07","2","feedback","test","null","","","na","","129","",""
"1046","332776","HierDy20gonqgs","sub07","07","2","rl","test","76","img/o_s_stripes.png","8","76","pattern,color,shape","130","1",""
"null","333778","HierDy20gonqgs","sub07","07","2","feedback","test","null","","","na","","130","",""
"2254","336034","HierDy20gonqgs","sub07","07","2","rl","test","74","img/b_s_stripes.png","6","74","pattern,color,shape","131","1",""
"null","337037","HierDy20gonqgs","sub07","07","2","feedback","test","null","","","na","","131","",""
"880","337919","HierDy20gonqgs","sub07","07","2","rl","test","72","img/b_c_stripes.png","5","72","pattern,color,shape","132","1",""
"null","338924","HierDy20gonqgs","sub07","07","2","feedback","test","null","","","na","","132","",""
"1000","339926","HierDy20gonqgs","sub07","07","2","rl","test","65","img/b_c_dots.png","1","65","pattern,color,shape","133","1",""
"null","340929","HierDy20gonqgs","sub07","07","2","feedback","test","null","","","na","","133","",""
"2105","343036","HierDy20gonqgs","sub07","07","2","rl","test","75","img/o_c_stripes.png","7","75","pattern,color,shape","134","1",""
"null","344039","HierDy20gonqgs","sub07","07","2","feedback","test","null","","","na","","134","",""
"938","344980","HierDy20gonqgs","sub07","07","2","rl","test","65","img/b_c_dots.png","1","65","pattern,color,shape","135","1",""
"null","345983","HierDy20gonqgs","sub07","07","2","feedback","test","null","","","na","","135","",""
"663","346649","HierDy20gonqgs","sub07","07","2","rl","test","83","img/b_s_dots.png","2","83","pattern,color,shape","136","1",""
"null","347652","HierDy20gonqgs","sub07","07","2","feedback","test","null","","","na","","136","",""
"null","350155","HierDy20gonqgs","sub07","07","2","rl","test","null","img/o_s_dots.png","4","70","pattern,color,shape","137","0",""
"null","351160","HierDy20gonqgs","sub07","07","2","feedback","test","null","","","na","","137","",""
"1839","353002","HierDy20gonqgs","sub07","07","2","rl","test","68","img/o_c_stripes.png","7","75","pattern,color,shape","138","0",""
"null","354005","HierDy20gonqgs","sub07","07","2","feedback","test","null","","","na","","138","",""
"1655","355662","HierDy20gonqgs","sub07","07","2","rl","test","74","img/o_s_dots.png","4","70","pattern,color,shape","139","0",""
"null","356665","HierDy20gonqgs","sub07","07","2","feedback","test","null","","","na","","139","",""
"1352","358019","HierDy20gonqgs","sub07","07","2","rl","test","72","img/b_c_stripes.png","5","72","pattern,color,shape","140","1",""
"null","359022","HierDy20gonqgs","sub07","07","2","feedback","test","null","","","na","","140","",""
"1402.0000000000582","360426","HierDy20gonqgs","sub07","07","2","rl","test","75","img/o_c_dots.png","3","68","pattern,color,shape","141","0",""
"null","361428","HierDy20gonqgs","sub07","07","2","feedback","test","null","","","na","","141","",""
"860","362291","HierDy20gonqgs","sub07","07","2","rl","test","83","img/b_s_dots.png","2","83","pattern,color,shape","142","1",""
"null","363294","HierDy20gonqgs","sub07","07","2","feedback","test","null","","","na","","142","",""
"1932.9999999999418","365230","HierDy20gonqgs","sub07","07","2","rl","test","75","img/o_s_stripes.png","8","76","pattern,color,shape","143","0",""
"null","366232","HierDy20gonqgs","sub07","07","2","feedback","test","null","","","na","","143","",""
"1437.0000000000582","367672","HierDy20gonqgs","sub07","07","2","rl","test","68","img/o_c_dots.png","3","68","pattern,color,shape","144","1",""
"null","368675","HierDy20gonqgs","sub07","07","2","feedback","test","null","","","na","","144","",""
"1049","369727","HierDy20gonqgs","sub07","07","2","rl","test","68","img/o_c_stripes.png","7","75","pattern,color,shape","145","0",""
"null","370730","HierDy20gonqgs","sub07","07","2","feedback","test","null","","","na","","145","",""
"2115","372847","HierDy20gonqgs","sub07","07","2","rl","test","76","img/b_s_stripes.png","6","74","pattern,color,shape","146","0",""
"null","373850","HierDy20gonqgs","sub07","07","2","feedback","test","null","","","na","","146","",""
"1054","374905","HierDy20gonqgs","sub07","07","2","rl","test","83","img/b_s_dots.png","2","83","pattern,color,shape","147","1",""
"null","375908","HierDy20gonqgs","sub07","07","2","feedback","test","null","","","na","","147","",""
"1327","377237","HierDy20gonqgs","sub07","07","2","rl","test","72","img/b_c_stripes.png","5","72","pattern,color,shape","148","1",""
"null","378240","HierDy20gonqgs","sub07","07","2","feedback","test","null","","","na","","148","",""
"435","378677","HierDy20gonqgs","sub07","07","2","rl","test","74","img/b_s_stripes.png","6","74","pattern,color,shape","149","1",""
"null","379680","HierDy20gonqgs","sub07","07","2","feedback","test","null","","","na","","149","",""
"1178","380860","HierDy20gonqgs","sub07","07","2","rl","test","65","img/b_c_dots.png","1","65","pattern,color,shape","150","1",""
"null","381861","HierDy20gonqgs","sub07","07","2","feedback","test","null","","","na","","150","",""
"754","382617","HierDy20gonqgs","sub07","07","2","rl","test","65","img/b_c_dots.png","1","65","pattern,color,shape","151","1",""
"null","383620","HierDy20gonqgs","sub07","07","2","feedback","test","null","","","na","","151","",""
"1822","385444","HierDy20gonqgs","sub07","07","2","rl","test","75","img/o_s_stripes.png","8","76","pattern,color,shape","152","0",""
"null","386447","HierDy20gonqgs","sub07","07","2","feedback","test","null","","","na","","152","",""
"2219","388669","HierDy20gonqgs","sub07","07","2","rl","test","75","img/o_s_dots.png","4","70","pattern,color,shape","153","0",""
"null","389672","HierDy20gonqgs","sub07","07","2","feedback","test","null","","","na","","153","",""
"783","390458","HierDy20gonqgs","sub07","07","2","rl","test","74","img/b_s_stripes.png","6","74","pattern,color,shape","154","1",""
"null","391461","HierDy20gonqgs","sub07","07","2","feedback","test","null","","","na","","154","",""
"1873","393336","HierDy20gonqgs","sub07","07","2","rl","test","70","img/o_c_stripes.png","7","75","pattern,color,shape","155","0",""
"null","394339","HierDy20gonqgs","sub07","07","2","feedback","test","null","","","na","","155","",""
"802","395144","HierDy20gonqgs","sub07","07","2","rl","test","68","img/o_c_dots.png","3","68","pattern,color,shape","156","1",""
"null","396146","HierDy20gonqgs","sub07","07","2","feedback","test","null","","","na","","156","",""
"1597","397746","HierDy20gonqgs","sub07","07","2","rl","test","70","img/o_s_dots.png","4","70","pattern,color,shape","157","1",""
"null","398749","HierDy20gonqgs","sub07","07","2","feedback","test","null","","","na","","157","",""
"1709","400460","HierDy20gonqgs","sub07","07","2","rl","test","74","img/o_s_stripes.png","8","76","pattern,color,shape","158","0",""
"null","401463","HierDy20gonqgs","sub07","07","2","feedback","test","null","","","na","","158","",""
"2148","403613","HierDy20gonqgs","sub07","07","2","rl","test","74","img/b_c_stripes.png","5","72","pattern,color,shape","159","0",""
"null","404616","HierDy20gonqgs","sub07","07","2","feedback","test","null","","","na","","159","",""
"1103","405721","HierDy20gonqgs","sub07","07","2","rl","test","75","img/b_c_stripes.png","5","72","pattern,color,shape","160","0",""
"null","406724","HierDy20gonqgs","sub07","07","2","feedback","test","null","","","na","","160","",""
"955","407681","HierDy20gonqgs","sub07","07","2","rl","test","83","img/b_s_dots.png","2","83","pattern,color,shape","161","1",""
"null","408684","HierDy20gonqgs","sub07","07","2","feedback","test","null","","","na","","161","",""
"1633.0000000000582","410320","HierDy20gonqgs","sub07","07","2","rl","test","70","img/o_c_stripes.png","7","75","pattern,color,shape","162","0",""
"null","411323","HierDy20gonqgs","sub07","07","2","feedback","test","null","","","na","","162","",""
"850.0000000000582","412175","HierDy20gonqgs","sub07","07","2","rl","test","83","img/b_s_dots.png","2","83","pattern,color,shape","163","1",""
"null","413178","HierDy20gonqgs","sub07","07","2","feedback","test","null","","","na","","163","",""
"1578","414759","HierDy20gonqgs","sub07","07","2","rl","test","70","img/o_c_dots.png","3","68","pattern,color,shape","164","0",""
"null","415762","HierDy20gonqgs","sub07","07","2","feedback","test","null","","","na","","164","",""
"2106.999999999942","417871","HierDy20gonqgs","sub07","07","2","rl","test","74","img/b_s_stripes.png","6","74","pattern,color,shape","165","1",""
"null","418875","HierDy20gonqgs","sub07","07","2","feedback","test","null","","","na","","165","",""
"896","419773","HierDy20gonqgs","sub07","07","2","rl","test","65","img/b_c_dots.png","1","65","pattern,color,shape","166","1",""
"null","420776","HierDy20gonqgs","sub07","07","2","feedback","test","null","","","na","","166","",""
"null","423279","HierDy20gonqgs","sub07","07","2","rl","test","null","img/o_s_dots.png","4","70","pattern,color,shape","167","0",""
"null","424284","HierDy20gonqgs","sub07","07","2","feedback","test","null","","","na","","167","",""
"1143","425428","HierDy20gonqgs","sub07","07","2","rl","test","75","img/o_s_dots.png","4","70","pattern,color,shape","168","0",""
"null","426432","HierDy20gonqgs","sub07","07","2","feedback","test","null","","","na","","168","",""
"1349.0000000000582","427783","HierDy20gonqgs","sub07","07","2","rl","test","74","img/o_s_stripes.png","8","76","pattern,color,shape","169","0",""
"null","428786","HierDy20gonqgs","sub07","07","2","feedback","test","null","","","na","","169","",""
"956.9999999999418","429745","HierDy20gonqgs","sub07","07","2","rl","test","83","img/b_s_dots.png","2","83","pattern,color,shape","170","1",""
"null","430748","HierDy20gonqgs","sub07","07","2","feedback","test","null","","","na","","170","",""
"893","431643","HierDy20gonqgs","sub07","07","2","rl","test","75","img/b_s_stripes.png","6","74","pattern,color,shape","171","0",""
"null","432646","HierDy20gonqgs","sub07","07","2","feedback","test","null","","","na","","171","",""
"1480","434129","HierDy20gonqgs","sub07","07","2","rl","test","83","img/o_s_stripes.png","8","76","pattern,color,shape","172","0",""
"null","435132","HierDy20gonqgs","sub07","07","2","feedback","test","null","","","na","","172","",""
"1757.9999999999418","436892","HierDy20gonqgs","sub07","07","2","rl","test","72","img/b_c_stripes.png","5","72","pattern,color,shape","173","1",""
"null","437895","HierDy20gonqgs","sub07","07","2","feedback","test","null","","","na","","173","",""
"2208","440105","HierDy20gonqgs","sub07","07","2","rl","test","68","img/o_c_stripes.png","7","75","pattern,color,shape","174","0",""
"null","441108","HierDy20gonqgs","sub07","07","2","feedback","test","null","","","na","","174","",""
"1154.9999999999418","442265","HierDy20gonqgs","sub07","07","2","rl","test","65","img/b_c_dots.png","1","65","pattern,color,shape","175","1",""
"null","443268","HierDy20gonqgs","sub07","07","2","feedback","test","null","","","na","","175","",""
"1396","444666","HierDy20gonqgs","sub07","07","2","rl","test","74","img/b_s_stripes.png","6","74","pattern,color,shape","176","1",""
"null","445669","HierDy20gonqgs","sub07","07","2","feedback","test","null","","","na","","176","",""
"750","446421","HierDy20gonqgs","sub07","07","2","rl","test","65","img/b_c_dots.png","1","65","pattern,color,shape","177","1",""
"null","447424","HierDy20gonqgs","sub07","07","2","feedback","test","null","","","na","","177","",""
"2127","449554","HierDy20gonqgs","sub07","07","2","rl","test","74","img/o_c_stripes.png","7","75","pattern,color,shape","178","0",""
"null","450558","HierDy20gonqgs","sub07","07","2","feedback","test","null","","","na","","178","",""
"671","451231","HierDy20gonqgs","sub07","07","2","rl","test","68","img/o_c_dots.png","3","68","pattern,color,shape","179","1",""
"null","452234","HierDy20gonqgs","sub07","07","2","feedback","test","null","","","na","","179","",""
"1637","453873","HierDy20gonqgs","sub07","07","2","rl","test","83","img/b_s_dots.png","2","83","pattern,color,shape","180","1",""
"null","454876","HierDy20gonqgs","sub07","07","2","feedback","test","null","","","na","","180","",""
"1705","456583","HierDy20gonqgs","sub07","07","2","rl","test","68","img/o_s_dots.png","4","70","pattern,color,shape","181","0",""
"null","457586","HierDy20gonqgs","sub07","07","2","feedback","test","null","","","na","","181","",""
"1547","459136","HierDy20gonqgs","sub07","07","2","rl","test","75","img/b_c_stripes.png","5","72","pattern,color,shape","182","0",""
"null","460139","HierDy20gonqgs","sub07","07","2","feedback","test","null","","","na","","182","",""
"1674","461816","HierDy20gonqgs","sub07","07","2","rl","test","68","img/o_c_dots.png","3","68","pattern,color,shape","183","1",""
"null","462819","HierDy20gonqgs","sub07","07","2","feedback","test","null","","","na","","183","",""
"1537","464358","HierDy20gonqgs","sub07","07","2","rl","test","76","img/o_s_stripes.png","8","76","pattern,color,shape","184","1",""
"null","465361","HierDy20gonqgs","sub07","07","2","feedback","test","null","","","na","","184","",""
"1158.0000000000582","466520","HierDy20gonqgs","sub07","07","2","rl","test","76","img/o_s_stripes.png","8","76","pattern,color,shape","185","1",""
"null","467524","HierDy20gonqgs","sub07","07","2","feedback","test","null","","","na","","185","",""
"1029","468556","HierDy20gonqgs","sub07","07","2","rl","test","83","img/b_s_dots.png","2","83","pattern,color,shape","186","1",""
"null","469560","HierDy20gonqgs","sub07","07","2","feedback","test","null","","","na","","186","",""
"1151","470713","HierDy20gonqgs","sub07","07","2","rl","test","72","img/b_c_stripes.png","5","72","pattern,color,shape","187","1",""
"null","471716","HierDy20gonqgs","sub07","07","2","feedback","test","null","","","na","","187","",""
"2036","473754","HierDy20gonqgs","sub07","07","2","rl","test","75","img/o_s_dots.png","4","70","pattern,color,shape","188","0",""
"null","474757","HierDy20gonqgs","sub07","07","2","feedback","test","null","","","na","","188","",""
"1136.0000000000582","475895","HierDy20gonqgs","sub07","07","2","rl","test","72","img/b_c_stripes.png","5","72","pattern,color,shape","189","1",""
"null","476898","HierDy20gonqgs","sub07","07","2","feedback","test","null","","","na","","189","",""
"1097.9999999999418","477998","HierDy20gonqgs","sub07","07","2","rl","test","74","img/b_s_stripes.png","6","74","pattern,color,shape","190","1",""
"null","479002","HierDy20gonqgs","sub07","07","2","feedback","test","null","","","na","","190","",""
"1637","480641","HierDy20gonqgs","sub07","07","2","rl","test","68","img/o_c_dots.png","3","68","pattern,color,shape","191","1",""
"null","481643","HierDy20gonqgs","sub07","07","2","feedback","test","null","","","na","","191","",""
"793.9999999999418","482439","HierDy20gonqgs","sub07","07","2","rl","test","65","img/b_c_dots.png","1","65","pattern,color,shape","192","1",""
"null","483443","HierDy20gonqgs","sub07","07","2","feedback","test","null","","","na","","192","",""
"1487","484932","HierDy20gonqgs","sub07","07","2","rl","test","70","img/o_c_stripes.png","7","75","pattern,color,shape","193","0",""
"null","485935","HierDy20gonqgs","sub07","07","2","feedback","test","null","","","na","","193","",""
"1200","487137","HierDy20gonqgs","sub07","07","2","rl","test","68","img/o_c_dots.png","3","68","pattern,color,shape","194","1",""
"null","488140","HierDy20gonqgs","sub07","07","2","feedback","test","null","","","na","","194","",""
"850","488992","HierDy20gonqgs","sub07","07","2","rl","test","65","img/b_c_dots.png","1","65","pattern,color,shape","195","1",""
"null","489995","HierDy20gonqgs","sub07","07","2","feedback","test","null","","","na","","195","",""
"1282","491279","HierDy20gonqgs","sub07","07","2","rl","test","74","img/b_s_stripes.png","6","74","pattern,color,shape","196","1",""
"null","492281","HierDy20gonqgs","sub07","07","2","feedback","test","null","","","na","","196","",""
"1036","493319","HierDy20gonqgs","sub07","07","2","rl","test","74","img/o_s_stripes.png","8","76","pattern,color,shape","197","0",""
"null","494323","HierDy20gonqgs","sub07","07","2","feedback","test","null","","","na","","197","",""
"1786","496111","HierDy20gonqgs","sub07","07","2","rl","test","70","img/o_s_dots.png","4","70","pattern,color,shape","198","1",""
"null","497114","HierDy20gonqgs","sub07","07","2","feedback","test","null","","","na","","198","",""
"1638","498754","HierDy20gonqgs","sub07","07","2","rl","test","83","img/b_s_dots.png","2","83","pattern,color,shape","199","1",""
"null","499757","HierDy20gonqgs","sub07","07","2","feedback","test","null","","","na","","199","",""
"null","502259","HierDy20gonqgs","sub07","07","2","rl","test","null","img/o_c_stripes.png","7","75","pattern,color,shape","200","0",""
"null","503265","HierDy20gonqgs","sub07","07","2","feedback","test","null","","","na","","200","",""
"837","504104","HierDy20gonqgs","sub07","07","2","rl","test","83","img/b_s_dots.png","2","83","pattern,color,shape","201","1",""
"null","505108","HierDy20gonqgs","sub07","07","2","feedback","test","null","","","na","","201","",""
"968","506078","HierDy20gonqgs","sub07","07","2","rl","test","75","img/o_s_dots.png","4","70","pattern,color,shape","202","0",""
"null","507080","HierDy20gonqgs","sub07","07","2","feedback","test","null","","","na","","202","",""
"1436","508519","HierDy20gonqgs","sub07","07","2","rl","test","68","img/o_c_dots.png","3","68","pattern,color,shape","203","1",""
"null","509521","HierDy20gonqgs","sub07","07","2","feedback","test","null","","","na","","203","",""
"1645.9999999999418","511169","HierDy20gonqgs","sub07","07","2","rl","test","72","img/b_c_stripes.png","5","72","pattern,color,shape","204","1",""
"null","512173","HierDy20gonqgs","sub07","07","2","feedback","test","null","","","na","","204","",""
"2087","514262","HierDy20gonqgs","sub07","07","2","rl","test","76","img/o_s_stripes.png","8","76","pattern,color,shape","205","1",""
"null","515264","HierDy20gonqgs","sub07","07","2","feedback","test","null","","","na","","205","",""
"1548.9999999999418","516816","HierDy20gonqgs","sub07","07","2","rl","test","65","img/b_c_dots.png","1","65","pattern,color,shape","206","1",""
"null","517819","HierDy20gonqgs","sub07","07","2","feedback","test","null","","","na","","206","",""
"1926.0000000000582","519747","HierDy20gonqgs","sub07","07","2","rl","test","74","img/o_s_dots.png","4","70","pattern,color,shape","207","0",""
"null","520750","HierDy20gonqgs","sub07","07","2","feedback","test","null","","","na","","207","",""
"1958.9999999999418","522711","HierDy20gonqgs","sub07","07","2","rl","test","68","img/o_c_stripes.png","7","75","pattern,color,shape","208","0",""
"null","523714","HierDy20gonqgs","sub07","07","2","feedback","test","null","","","na","","208","",""
"1243","524960","HierDy20gonqgs","sub07","07","2","rl","test","75","img/o_c_stripes.png","7","75","pattern,color,shape","209","1",""
"null","525963","HierDy20gonqgs","sub07","07","2","feedback","test","null","","","na","","209","",""
"1731","527697","HierDy20gonqgs","sub07","07","2","rl","test","74","img/b_s_stripes.png","6","74","pattern,color,shape","210","1",""
"null","528701","HierDy20gonqgs","sub07","07","2","feedback","test","null","","","na","","210","",""
"1800.9999999998836","530504","HierDy20gonqgs","sub07","07","2","rl","test","74","img/b_s_stripes.png","6","74","pattern,color,shape","211","1",""
"null","531507","HierDy20gonqgs","sub07","07","2","feedback","test","null","","","na","","211","",""
"1102","532612","HierDy20gonqgs","sub07","07","2","rl","test","76","img/o_s_stripes.png","8","76","pattern,color,shape","212","1",""
"null","533615","HierDy20gonqgs","sub07","07","2","feedback","test","null","","","na","","212","",""
"1143","534759","HierDy20gonqgs","sub07","07","2","rl","test","68","img/o_c_dots.png","3","68","pattern,color,shape","213","1",""
"null","535763","HierDy20gonqgs","sub07","07","2","feedback","test","null","","","na","","213","",""
"945","536709","HierDy20gonqgs","sub07","07","2","rl","test","83","img/b_s_dots.png","2","83","pattern,color,shape","214","1",""
"null","537713","HierDy20gonqgs","sub07","07","2","feedback","test","null","","","na","","214","",""
"2453","540168","HierDy20gonqgs","sub07","07","2","rl","test","72","img/b_c_stripes.png","5","72","pattern,color,shape","215","1",""
"null","541170","HierDy20gonqgs","sub07","07","2","feedback","test","null","","","na","","215","",""
"1445","542617","HierDy20gonqgs","sub07","07","2","rl","test","76","img/o_s_stripes.png","8","76","pattern,color,shape","216","1",""
"null","543621","HierDy20gonqgs","sub07","07","2","feedback","test","null","","","na","","216","",""
"1502","545125","HierDy20gonqgs","sub07","07","2","rl","test","72","img/b_c_stripes.png","5","72","pattern,color,shape","217","1",""
"null","546129","HierDy20gonqgs","sub07","07","2","feedback","test","null","","","na","","217","",""
"1396","547527","HierDy20gonqgs","sub07","07","2","rl","test","65","img/b_c_dots.png","1","65","pattern,color,shape","218","1",""
"null","548530","HierDy20gonqgs","sub07","07","2","feedback","test","null","","","na","","218","",""
"1372.0000000001164","549905","HierDy20gonqgs","sub07","07","2","rl","test","68","img/o_c_dots.png","3","68","pattern,color,shape","219","1",""
"null","550908","HierDy20gonqgs","sub07","07","2","feedback","test","null","","","na","","219","",""
"1860.0000000001164","552770","HierDy20gonqgs","sub07","07","2","rl","test","74","img/b_s_stripes.png","6","74","pattern,color,shape","220","1",""
"null","553773","HierDy20gonqgs","sub07","07","2","feedback","test","null","","","na","","220","",""
"null","556277","HierDy20gonqgs","sub07","07","2","rl","test","null","img/o_s_dots.png","4","70","pattern,color,shape","221","0",""
"null","557280","HierDy20gonqgs","sub07","07","2","feedback","test","null","","","na","","221","",""
"92","557373","HierDy20gonqgs","sub07","07","2","rl","test","70","img/o_c_stripes.png","7","75","pattern,color,shape","222","0",""
"null","558374","HierDy20gonqgs","sub07","07","2","feedback","test","null","","","na","","222","",""
"870","559246","HierDy20gonqgs","sub07","07","2","rl","test","65","img/b_c_dots.png","1","65","pattern,color,shape","223","1",""
"null","560249","HierDy20gonqgs","sub07","07","2","feedback","test","null","","","na","","223","",""
"1678","561929","HierDy20gonqgs","sub07","07","2","rl","test","70","img/o_s_dots.png","4","70","pattern,color,shape","224","1",""
"null","562933","HierDy20gonqgs","sub07","07","2","feedback","test","null","","","na","","224","",""
"1075","564009","HierDy20gonqgs","sub07","07","2","rl","test","83","img/b_s_dots.png","2","83","pattern,color,shape","225","1",""
"null","565012","HierDy20gonqgs","sub07","07","2","feedback","test","null","","","na","","225","",""
"908","565922","HierDy20gonqgs","sub07","07","2","rl","test","76","img/o_s_stripes.png","8","76","pattern,color,shape","226","1",""
"null","566926","HierDy20gonqgs","sub07","07","2","feedback","test","null","","","na","","226","",""
"2298.9999999998836","569227","HierDy20gonqgs","sub07","07","2","rl","test","83","img/b_s_dots.png","2","83","pattern,color,shape","227","1",""
"null","570230","HierDy20gonqgs","sub07","07","2","feedback","test","null","","","na","","227","",""
"1019","571251","HierDy20gonqgs","sub07","07","2","rl","test","68","img/o_c_dots.png","3","68","pattern,color,shape","228","1",""
"null","572254","HierDy20gonqgs","sub07","07","2","feedback","test","null","","","na","","228","",""
"1197","573454","HierDy20gonqgs","sub07","07","2","rl","test","72","img/b_c_stripes.png","5","72","pattern,color,shape","229","1",""
"null","574457","HierDy20gonqgs","sub07","07","2","feedback","test","null","","","na","","229","",""
"1536.0000000001164","575995","HierDy20gonqgs","sub07","07","2","rl","test","65","img/b_c_dots.png","1","65","pattern,color,shape","230","1",""
"null","576997","HierDy20gonqgs","sub07","07","2","feedback","test","null","","","na","","230","",""
"797","577796","HierDy20gonqgs","sub07","07","2","rl","test","65","img/b_c_dots.png","1","65","pattern,color,shape","231","1",""
"null","578799","HierDy20gonqgs","sub07","07","2","feedback","test","null","","","na","","231","",""
"null","581303","HierDy20gonqgs","sub07","07","2","rl","test","null","img/o_c_stripes.png","7","75","pattern,color,shape","232","0",""
"null","582306","HierDy20gonqgs","sub07","07","2","feedback","test","null","","","na","","232","",""
"1507","583815","HierDy20gonqgs","sub07","07","2","rl","test","72","img/b_c_stripes.png","5","72","pattern,color,shape","233","1",""
"null","584818","HierDy20gonqgs","sub07","07","2","feedback","test","null","","","na","","233","",""
"1418","586238","HierDy20gonqgs","sub07","07","2","rl","test","74","img/b_s_stripes.png","6","74","pattern,color,shape","234","1",""
"null","587241","HierDy20gonqgs","sub07","07","2","feedback","test","null","","","na","","234","",""
"1593","588837","HierDy20gonqgs","sub07","07","2","rl","test","83","img/b_s_dots.png","2","83","pattern,color,shape","235","1",""
"null","589840","HierDy20gonqgs","sub07","07","2","feedback","test","null","","","na","","235","",""
"1787","591630","HierDy20gonqgs","sub07","07","2","rl","test","74","img/o_c_stripes.png","7","75","pattern,color,shape","236","0",""
"null","592632","HierDy20gonqgs","sub07","07","2","feedback","test","null","","","na","","236","",""
"1996","594631","HierDy20gonqgs","sub07","07","2","rl","test","74","img/b_s_stripes.png","6","74","pattern,color,shape","237","1",""
"null","595634","HierDy20gonqgs","sub07","07","2","feedback","test","null","","","na","","237","",""
"1444","597081","HierDy20gonqgs","sub07","07","2","rl","test","68","img/b_c_stripes.png","5","72","pattern,color,shape","238","0",""
"null","598084","HierDy20gonqgs","sub07","07","2","feedback","test","null","","","na","","238","",""
"1868","599954","HierDy20gonqgs","sub07","07","2","rl","test","75","img/o_s_dots.png","4","70","pattern,color,shape","239","0",""
"null","600958","HierDy20gonqgs","sub07","07","2","feedback","test","null","","","na","","239","",""
"956","601916","HierDy20gonqgs","sub07","07","2","rl","test","68","img/o_c_dots.png","3","68","pattern,color,shape","240","1",""
"null","602919","HierDy20gonqgs","sub07","07","2","feedback","test","null","","","na","","240","",""
"983","603904","HierDy20gonqgs","sub07","07","2","rl","test","76","img/o_s_stripes.png","8","76","pattern,color,shape","241","1",""
"null","604907","HierDy20gonqgs","sub07","07","2","feedback","test","null","","","na","","241","",""
"955","605864","HierDy20gonqgs","sub07","07","2","rl","test","68","img/o_c_stripes.png","7","75","pattern,color,shape","242","0",""
"null","606866","HierDy20gonqgs","sub07","07","2","feedback","test","null","","","na","","242","",""
"843","607711","HierDy20gonqgs","sub07","07","2","rl","test","68","img/o_c_dots.png","3","68","pattern,color,shape","243","1",""
"null","608714","HierDy20gonqgs","sub07","07","2","feedback","test","null","","","na","","243","",""
"1434","610149","HierDy20gonqgs","sub07","07","2","rl","test","74","img/b_s_stripes.png","6","74","pattern,color,shape","244","1",""
"null","611152","HierDy20gonqgs","sub07","07","2","feedback","test","null","","","na","","244","",""
"879","612033","HierDy20gonqgs","sub07","07","2","rl","test","72","img/o_s_dots.png","4","70","pattern,color,shape","245","0",""
"null","613035","HierDy20gonqgs","sub07","07","2","feedback","test","null","","","na","","245","",""
"1139","614175","HierDy20gonqgs","sub07","07","2","rl","test","65","img/b_c_dots.png","1","65","pattern,color,shape","246","1",""
"null","615178","HierDy20gonqgs","sub07","07","2","feedback","test","null","","","na","","246","",""
"1310.0000000001164","616490","HierDy20gonqgs","sub07","07","2","rl","test","83","img/b_c_stripes.png","5","72","pattern,color,shape","247","0",""
"null","617493","HierDy20gonqgs","sub07","07","2","feedback","test","null","","","na","","247","",""
"1127.9999999998836","618622","HierDy20gonqgs","sub07","07","2","rl","test","83","img/b_s_dots.png","2","83","pattern,color,shape","248","1",""
"null","619625","HierDy20gonqgs","sub07","07","2","feedback","test","null","","","na","","248","",""
"19966","639644","HierDy20gonqgs","sub07","07","2","","","","","","","","","","{""Q0"":""7""}"
"31251","670898","HierDy20gonqgs","sub07","07","2","","","","","","","","","","{""Q0"":""I tried to assign each letter to dot or stripes then I tried to organize by color ""}"
"8644","679542","HierDy20gonqgs","sub07","07","2","","","","","","","","","",""
