"rt","time_elapsed","subject","subID","group","day","trialType","key_press","stim","corrresp","phase","stimNum","trialNum","corr","repeatTrial","motorSwitch","pracCounter","hierarchy","responses"
"9629","9656","HierDyj766f0uy","sub07","07","1","","","","","","","","","","","","",""
"","11499","HierDyj766f0uy","sub07","07","1","fullscreen","","","","","","","","","","","",""
"369561","381073","HierDyj766f0uy","sub07","07","1","","","","","","","","","","","","",""
"1101","382185","HierDyj766f0uy","sub07","07","1","motor","76","img/motor_8.png","76","motor","8","1","1","0","0","","",""
"null","382299","HierDyj766f0uy","sub07","07","1","iti","null","img/motor_8.png","76","motor","","","","","","","",""
"862","383171","HierDyj766f0uy","sub07","07","1","motor","72","img/motor_5.png","72","motor","5","2","1","0","0","","",""
"null","383281","HierDyj766f0uy","sub07","07","1","iti","null","img/motor_5.png","72","motor","","","","","","","",""
"855","384147","HierDyj766f0uy","sub07","07","1","motor","70","img/motor_4.png","70","motor","4","3","1","0","0","","",""
"null","384258","HierDyj766f0uy","sub07","07","1","iti","null","img/motor_4.png","70","motor","","","","","","","",""
"550","384818","HierDyj766f0uy","sub07","07","1","motor","65","img/motor_1.png","65","motor","1","4","1","0","0","","",""
"null","384928","HierDyj766f0uy","sub07","07","1","iti","null","img/motor_1.png","65","motor","","","","","","","",""
"843","385779","HierDyj766f0uy","sub07","07","1","motor","65","img/motor_1.png","65","motor","1","5","1","0","0","","",""
"null","385891","HierDyj766f0uy","sub07","07","1","iti","null","img/motor_1.png","65","motor","","","","","","","",""
"640","386540","HierDyj766f0uy","sub07","07","1","motor","76","img/motor_8.png","76","motor","8","6","1","0","0","","",""
"null","386652","HierDyj766f0uy","sub07","07","1","iti","null","img/motor_8.png","76","motor","","","","","","","",""
"1008","387669","HierDyj766f0uy","sub07","07","1","motor","68","img/motor_3.png","68","motor","3","7","1","0","0","","",""
"null","387779","HierDyj766f0uy","sub07","07","1","iti","null","img/motor_3.png","68","motor","","","","","","","",""
"894","388683","HierDyj766f0uy","sub07","07","1","motor","72","img/motor_5.png","72","motor","5","8","1","0","0","","",""
"null","388791","HierDyj766f0uy","sub07","07","1","iti","null","img/motor_5.png","72","motor","","","","","","","",""
"715","389517","HierDyj766f0uy","sub07","07","1","motor","74","img/motor_6.png","74","motor","6","9","1","0","0","","",""
"null","389627","HierDyj766f0uy","sub07","07","1","iti","null","img/motor_6.png","74","motor","","","","","","","",""
"677","390311","HierDyj766f0uy","sub07","07","1","motor","68","img/motor_2.png","83","motor","2","10","0","1","0","","",""
"440","390761","HierDyj766f0uy","sub07","07","1","motorRepeat","83","img/motor_2.png","83","motor","2","10","1","0","0","","",""
"null","390873","HierDyj766f0uy","sub07","07","1","iti","null","img/motor_2.png","83","motor","","","","","","","",""
"591","391469","HierDyj766f0uy","sub07","07","1","motor","76","img/motor_8.png","76","motor","8","11","1","0","0","","",""
"null","391578","HierDyj766f0uy","sub07","07","1","iti","null","img/motor_8.png","76","motor","","","","","","","",""
"1115","392700","HierDyj766f0uy","sub07","07","1","motor","65","img/motor_1.png","65","motor","1","12","1","0","0","","",""
"null","392810","HierDyj766f0uy","sub07","07","1","iti","null","img/motor_1.png","65","motor","","","","","","","",""
"473","393291","HierDyj766f0uy","sub07","07","1","motor","83","img/motor_2.png","83","motor","2","13","1","0","0","","",""
"null","393400","HierDyj766f0uy","sub07","07","1","iti","null","img/motor_2.png","83","motor","","","","","","","",""
"957","394367","HierDyj766f0uy","sub07","07","1","motor","83","img/motor_2.png","83","motor","2","14","1","0","0","","",""
"null","394475","HierDyj766f0uy","sub07","07","1","iti","null","img/motor_2.png","83","motor","","","","","","","",""
"483","394967","HierDyj766f0uy","sub07","07","1","motor","68","img/motor_3.png","68","motor","3","15","1","0","0","","",""
"null","395075","HierDyj766f0uy","sub07","07","1","iti","null","img/motor_3.png","68","motor","","","","","","","",""
"508","395592","HierDyj766f0uy","sub07","07","1","motor","76","img/motor_8.png","76","motor","8","16","1","0","0","","",""
"null","395701","HierDyj766f0uy","sub07","07","1","iti","null","img/motor_8.png","76","motor","","","","","","","",""
"495","396202","HierDyj766f0uy","sub07","07","1","motor","72","img/motor_5.png","72","motor","5","17","1","0","0","","",""
"null","396311","HierDyj766f0uy","sub07","07","1","iti","null","img/motor_5.png","72","motor","","","","","","","",""
"784","397102","HierDyj766f0uy","sub07","07","1","motor","70","img/motor_4.png","70","motor","4","18","1","0","0","","",""
"null","397211","HierDyj766f0uy","sub07","07","1","iti","null","img/motor_4.png","70","motor","","","","","","","",""
"524","397742","HierDyj766f0uy","sub07","07","1","motor","72","img/motor_5.png","72","motor","5","19","1","0","0","","",""
"null","397852","HierDyj766f0uy","sub07","07","1","iti","null","img/motor_5.png","72","motor","","","","","","","",""
"516","398374","HierDyj766f0uy","sub07","07","1","motor","74","img/motor_7.png","75","motor","7","20","0","1","0","","",""
"354","398735","HierDyj766f0uy","sub07","07","1","motorRepeat","75","img/motor_7.png","75","motor","7","20","1","0","0","","",""
"null","398844","HierDyj766f0uy","sub07","07","1","iti","null","img/motor_7.png","75","motor","","","","","","","",""
"1129","399980","HierDyj766f0uy","sub07","07","1","motor","68","img/motor_3.png","68","motor","3","21","1","0","0","","",""
"null","400089","HierDyj766f0uy","sub07","07","1","iti","null","img/motor_3.png","68","motor","","","","","","","",""
"561","400657","HierDyj766f0uy","sub07","07","1","motor","83","img/motor_1.png","65","motor","1","22","0","1","0","","",""
"325","400991","HierDyj766f0uy","sub07","07","1","motorRepeat","65","img/motor_1.png","65","motor","1","22","1","0","0","","",""
"null","401101","HierDyj766f0uy","sub07","07","1","iti","null","img/motor_1.png","65","motor","","","","","","","",""
"649","401758","HierDyj766f0uy","sub07","07","1","motor","68","img/motor_3.png","68","motor","3","23","1","0","0","","",""
"null","401867","HierDyj766f0uy","sub07","07","1","iti","null","img/motor_3.png","68","motor","","","","","","","",""
"630","402505","HierDyj766f0uy","sub07","07","1","motor","76","img/motor_8.png","76","motor","8","24","1","0","0","","",""
"null","402614","HierDyj766f0uy","sub07","07","1","iti","null","img/motor_8.png","76","motor","","","","","","","",""
"496","403119","HierDyj766f0uy","sub07","07","1","motor","75","img/motor_7.png","75","motor","7","25","1","0","0","","",""
"null","403226","HierDyj766f0uy","sub07","07","1","iti","null","img/motor_7.png","75","motor","","","","","","","",""
"706","403941","HierDyj766f0uy","sub07","07","1","motor","70","img/motor_4.png","70","motor","4","26","1","0","0","","",""
"null","404050","HierDyj766f0uy","sub07","07","1","iti","null","img/motor_4.png","70","motor","","","","","","","",""
"537","404596","HierDyj766f0uy","sub07","07","1","motor","83","img/motor_2.png","83","motor","2","27","1","0","0","","",""
"null","404704","HierDyj766f0uy","sub07","07","1","iti","null","img/motor_2.png","83","motor","","","","","","","",""
"871","405583","HierDyj766f0uy","sub07","07","1","motor","74","img/motor_6.png","74","motor","6","28","1","0","0","","",""
"null","405692","HierDyj766f0uy","sub07","07","1","iti","null","img/motor_6.png","74","motor","","","","","","","",""
"636","406336","HierDyj766f0uy","sub07","07","1","motor","65","img/motor_1.png","65","motor","1","29","1","0","0","","",""
"null","406445","HierDyj766f0uy","sub07","07","1","iti","null","img/motor_1.png","65","motor","","","","","","","",""
"552","407005","HierDyj766f0uy","sub07","07","1","motor","83","img/motor_2.png","83","motor","2","30","1","0","0","","",""
"null","407113","HierDyj766f0uy","sub07","07","1","iti","null","img/motor_2.png","83","motor","","","","","","","",""
"505","407627","HierDyj766f0uy","sub07","07","1","motor","65","img/motor_1.png","65","motor","1","31","1","0","0","","",""
"null","407735","HierDyj766f0uy","sub07","07","1","iti","null","img/motor_1.png","65","motor","","","","","","","",""
"921","408665","HierDyj766f0uy","sub07","07","1","motor","75","img/motor_6.png","74","motor","6","32","0","1","0","","",""
"288","408961","HierDyj766f0uy","sub07","07","1","motorRepeat","74","img/motor_6.png","74","motor","6","32","1","0","0","","",""
"null","409072","HierDyj766f0uy","sub07","07","1","iti","null","img/motor_6.png","74","motor","","","","","","","",""
"765","409844","HierDyj766f0uy","sub07","07","1","motor","74","img/motor_6.png","74","motor","6","33","1","0","0","","",""
"null","409954","HierDyj766f0uy","sub07","07","1","iti","null","img/motor_6.png","74","motor","","","","","","","",""
"542","410503","HierDyj766f0uy","sub07","07","1","motor","75","img/motor_7.png","75","motor","7","34","1","0","0","","",""
"null","410613","HierDyj766f0uy","sub07","07","1","iti","null","img/motor_7.png","75","motor","","","","","","","",""
"1218","411838","HierDyj766f0uy","sub07","07","1","motor","68","img/motor_3.png","68","motor","3","35","1","0","0","","",""
"null","411947","HierDyj766f0uy","sub07","07","1","iti","null","img/motor_3.png","68","motor","","","","","","","",""
"882","412836","HierDyj766f0uy","sub07","07","1","motor","70","img/motor_4.png","70","motor","4","36","1","0","0","","",""
"null","412948","HierDyj766f0uy","sub07","07","1","iti","null","img/motor_4.png","70","motor","","","","","","","",""
"617","413574","HierDyj766f0uy","sub07","07","1","motor","76","img/motor_8.png","76","motor","8","37","1","0","0","","",""
"null","413684","HierDyj766f0uy","sub07","07","1","iti","null","img/motor_8.png","76","motor","","","","","","","",""
"511","414202","HierDyj766f0uy","sub07","07","1","motor","70","img/motor_4.png","70","motor","4","38","1","0","0","","",""
"null","414314","HierDyj766f0uy","sub07","07","1","iti","null","img/motor_4.png","70","motor","","","","","","","",""
"633","414957","HierDyj766f0uy","sub07","07","1","motor","72","img/motor_5.png","72","motor","5","39","1","0","0","","",""
"null","415068","HierDyj766f0uy","sub07","07","1","iti","null","img/motor_5.png","72","motor","","","","","","","",""
"428","415506","HierDyj766f0uy","sub07","07","1","motor","74","img/motor_7.png","75","motor","7","40","0","1","0","","",""
"352","415867","HierDyj766f0uy","sub07","07","1","motorRepeat","75","img/motor_7.png","75","motor","7","40","1","0","0","","",""
"null","415978","HierDyj766f0uy","sub07","07","1","iti","null","img/motor_7.png","75","motor","","","","","","","",""
"621","416606","HierDyj766f0uy","sub07","07","1","motor","72","img/motor_5.png","72","motor","5","41","1","0","0","","",""
"null","416717","HierDyj766f0uy","sub07","07","1","iti","null","img/motor_5.png","72","motor","","","","","","","",""
"420","417146","HierDyj766f0uy","sub07","07","1","motor","75","img/motor_7.png","75","motor","7","42","1","0","0","","",""
"null","417258","HierDyj766f0uy","sub07","07","1","iti","null","img/motor_7.png","75","motor","","","","","","","",""
"1258","418524","HierDyj766f0uy","sub07","07","1","motor","83","img/motor_2.png","83","motor","2","43","1","0","0","","",""
"null","418635","HierDyj766f0uy","sub07","07","1","iti","null","img/motor_2.png","83","motor","","","","","","","",""
"488","419133","HierDyj766f0uy","sub07","07","1","motor","76","img/motor_8.png","76","motor","8","44","1","0","0","","",""
"null","419242","HierDyj766f0uy","sub07","07","1","iti","null","img/motor_8.png","76","motor","","","","","","","",""
"598","419850","HierDyj766f0uy","sub07","07","1","motor","70","img/motor_4.png","70","motor","4","45","1","0","0","","",""
"null","419958","HierDyj766f0uy","sub07","07","1","iti","null","img/motor_4.png","70","motor","","","","","","","",""
"692","420658","HierDyj766f0uy","sub07","07","1","motor","68","img/motor_3.png","68","motor","3","46","1","0","0","","",""
"null","420768","HierDyj766f0uy","sub07","07","1","iti","null","img/motor_3.png","68","motor","","","","","","","",""
"757","421531","HierDyj766f0uy","sub07","07","1","motor","74","img/motor_6.png","74","motor","6","47","1","0","0","","",""
"null","421640","HierDyj766f0uy","sub07","07","1","iti","null","img/motor_6.png","74","motor","","","","","","","",""
"917","422565","HierDyj766f0uy","sub07","07","1","motor","72","img/motor_5.png","72","motor","5","48","1","0","0","","",""
"null","422673","HierDyj766f0uy","sub07","07","1","iti","null","img/motor_5.png","72","motor","","","","","","","",""
"972","423657","HierDyj766f0uy","sub07","07","1","motor","68","img/motor_3.png","68","motor","3","49","1","0","0","","",""
"null","423768","HierDyj766f0uy","sub07","07","1","iti","null","img/motor_3.png","68","motor","","","","","","","",""
"625","424401","HierDyj766f0uy","sub07","07","1","motor","76","img/motor_8.png","76","motor","8","50","1","0","0","","",""
"null","424510","HierDyj766f0uy","sub07","07","1","iti","null","img/motor_8.png","76","motor","","","","","","","",""
"527","425046","HierDyj766f0uy","sub07","07","1","motor","83","img/motor_2.png","83","motor","2","51","1","0","0","","",""
"null","425159","HierDyj766f0uy","sub07","07","1","iti","null","img/motor_2.png","83","motor","","","","","","","",""
"798","425964","HierDyj766f0uy","sub07","07","1","motor","75","img/motor_7.png","75","motor","7","52","1","0","0","","",""
"null","426072","HierDyj766f0uy","sub07","07","1","iti","null","img/motor_7.png","75","motor","","","","","","","",""
"847","426926","HierDyj766f0uy","sub07","07","1","motor","68","img/motor_3.png","68","motor","3","53","1","0","0","","",""
"null","427034","HierDyj766f0uy","sub07","07","1","iti","null","img/motor_3.png","68","motor","","","","","","","",""
"660","427702","HierDyj766f0uy","sub07","07","1","motor","83","img/motor_3.png","68","motor","3","54","0","1","0","","",""
"322","428031","HierDyj766f0uy","sub07","07","1","motorRepeat","68","img/motor_3.png","68","motor","3","54","1","0","0","","",""
"null","428140","HierDyj766f0uy","sub07","07","1","iti","null","img/motor_3.png","68","motor","","","","","","","",""
"490","428637","HierDyj766f0uy","sub07","07","1","motor","83","img/motor_2.png","83","motor","2","55","1","0","0","","",""
"null","428747","HierDyj766f0uy","sub07","07","1","iti","null","img/motor_2.png","83","motor","","","","","","","",""
"461","429216","HierDyj766f0uy","sub07","07","1","motor","76","img/motor_8.png","76","motor","8","56","1","0","0","","",""
"null","429325","HierDyj766f0uy","sub07","07","1","iti","null","img/motor_8.png","76","motor","","","","","","","",""
"482","429815","HierDyj766f0uy","sub07","07","1","motor","83","img/motor_2.png","83","motor","2","57","1","0","0","","",""
"null","429923","HierDyj766f0uy","sub07","07","1","iti","null","img/motor_2.png","83","motor","","","","","","","",""
"458","430388","HierDyj766f0uy","sub07","07","1","motor","68","img/motor_3.png","68","motor","3","58","1","0","0","","",""
"null","430496","HierDyj766f0uy","sub07","07","1","iti","null","img/motor_3.png","68","motor","","","","","","","",""
"558","431063","HierDyj766f0uy","sub07","07","1","motor","65","img/motor_1.png","65","motor","1","59","1","0","0","","",""
"null","431170","HierDyj766f0uy","sub07","07","1","iti","null","img/motor_1.png","65","motor","","","","","","","",""
"594","431772","HierDyj766f0uy","sub07","07","1","motor","70","img/motor_4.png","70","motor","4","60","1","0","0","","",""
"null","431880","HierDyj766f0uy","sub07","07","1","iti","null","img/motor_4.png","70","motor","","","","","","","",""
"564","432452","HierDyj766f0uy","sub07","07","1","motor","83","img/motor_2.png","83","motor","2","61","1","0","0","","",""
"null","432561","HierDyj766f0uy","sub07","07","1","iti","null","img/motor_2.png","83","motor","","","","","","","",""
"764","433332","HierDyj766f0uy","sub07","07","1","motor","74","img/motor_7.png","75","motor","7","62","0","1","0","","",""
"323","433664","HierDyj766f0uy","sub07","07","1","motorRepeat","75","img/motor_7.png","75","motor","7","62","1","0","0","","",""
"null","433771","HierDyj766f0uy","sub07","07","1","iti","null","img/motor_7.png","75","motor","","","","","","","",""
"638","434416","HierDyj766f0uy","sub07","07","1","motor","70","img/motor_4.png","70","motor","4","63","1","0","0","","",""
"null","434524","HierDyj766f0uy","sub07","07","1","iti","null","img/motor_4.png","70","motor","","","","","","","",""
"514","435044","HierDyj766f0uy","sub07","07","1","motor","68","img/motor_3.png","68","motor","3","64","1","0","0","","",""
"null","435153","HierDyj766f0uy","sub07","07","1","iti","null","img/motor_3.png","68","motor","","","","","","","",""
"470","435632","HierDyj766f0uy","sub07","07","1","motor","74","img/motor_7.png","75","motor","7","65","0","1","0","","",""
"278","435915","HierDyj766f0uy","sub07","07","1","motorRepeat","75","img/motor_7.png","75","motor","7","65","1","0","0","","",""
"29","436023","HierDyj766f0uy","sub07","07","1","iti","74","img/motor_7.png","75","motor","","","","","","","",""
"978","437005","HierDyj766f0uy","sub07","07","1","motor","68","img/motor_3.png","68","motor","3","66","1","0","0","","",""
"null","437114","HierDyj766f0uy","sub07","07","1","iti","null","img/motor_3.png","68","motor","","","","","","","",""
"657","437779","HierDyj766f0uy","sub07","07","1","motor","72","img/motor_5.png","72","motor","5","67","1","0","0","","",""
"null","437888","HierDyj766f0uy","sub07","07","1","iti","null","img/motor_5.png","72","motor","","","","","","","",""
"407","438302","HierDyj766f0uy","sub07","07","1","motor","68","img/motor_3.png","68","motor","3","68","1","0","0","","",""
"null","438411","HierDyj766f0uy","sub07","07","1","iti","null","img/motor_3.png","68","motor","","","","","","","",""
"446","438865","HierDyj766f0uy","sub07","07","1","motor","68","img/motor_3.png","68","motor","3","69","1","0","0","","",""
"null","438973","HierDyj766f0uy","sub07","07","1","iti","null","img/motor_3.png","68","motor","","","","","","","",""
"500","439481","HierDyj766f0uy","sub07","07","1","motor","83","img/motor_2.png","83","motor","2","70","1","0","0","","",""
"null","439589","HierDyj766f0uy","sub07","07","1","iti","null","img/motor_2.png","83","motor","","","","","","","",""
"650","440247","HierDyj766f0uy","sub07","07","1","motor","72","img/motor_5.png","72","motor","5","71","1","0","0","","",""
"null","440357","HierDyj766f0uy","sub07","07","1","iti","null","img/motor_5.png","72","motor","","","","","","","",""
"743","441106","HierDyj766f0uy","sub07","07","1","motor","65","img/motor_1.png","65","motor","1","72","1","0","0","","",""
"null","441215","HierDyj766f0uy","sub07","07","1","iti","null","img/motor_1.png","65","motor","","","","","","","",""
"474","441697","HierDyj766f0uy","sub07","07","1","motor","76","img/motor_8.png","76","motor","8","73","1","0","0","","",""
"null","441805","HierDyj766f0uy","sub07","07","1","iti","null","img/motor_8.png","76","motor","","","","","","","",""
"406","442217","HierDyj766f0uy","sub07","07","1","motor","65","img/motor_1.png","65","motor","1","74","1","0","0","","",""
"null","442326","HierDyj766f0uy","sub07","07","1","iti","null","img/motor_1.png","65","motor","","","","","","","",""
"361","442695","HierDyj766f0uy","sub07","07","1","motor","76","img/motor_8.png","76","motor","8","75","1","0","0","","",""
"null","442802","HierDyj766f0uy","sub07","07","1","iti","null","img/motor_8.png","76","motor","","","","","","","",""
"421","443232","HierDyj766f0uy","sub07","07","1","motor","83","img/motor_2.png","83","motor","2","76","1","0","0","","",""
"null","443341","HierDyj766f0uy","sub07","07","1","iti","null","img/motor_2.png","83","motor","","","","","","","",""
"441","443788","HierDyj766f0uy","sub07","07","1","motor","65","img/motor_1.png","65","motor","1","77","1","0","0","","",""
"null","443897","HierDyj766f0uy","sub07","07","1","iti","null","img/motor_1.png","65","motor","","","","","","","",""
"472","444378","HierDyj766f0uy","sub07","07","1","motor","83","img/motor_2.png","83","motor","2","78","1","0","0","","",""
"null","444485","HierDyj766f0uy","sub07","07","1","iti","null","img/motor_2.png","83","motor","","","","","","","",""
"330","444823","HierDyj766f0uy","sub07","07","1","motor","65","img/motor_1.png","65","motor","1","79","1","0","0","","",""
"null","444931","HierDyj766f0uy","sub07","07","1","iti","null","img/motor_1.png","65","motor","","","","","","","",""
"496","445435","HierDyj766f0uy","sub07","07","1","motor","76","img/motor_7.png","75","motor","7","80","0","1","0","","",""
"239","445682","HierDyj766f0uy","sub07","07","1","motorRepeat","75","img/motor_7.png","75","motor","7","80","1","0","0","","",""
"null","445789","HierDyj766f0uy","sub07","07","1","iti","null","img/motor_7.png","75","motor","","","","","","","",""
"767","446563","HierDyj766f0uy","sub07","07","1","motor","74","img/motor_6.png","74","motor","6","81","1","0","0","","",""
"null","446672","HierDyj766f0uy","sub07","07","1","iti","null","img/motor_6.png","74","motor","","","","","","","",""
"507","447186","HierDyj766f0uy","sub07","07","1","motor","83","img/motor_2.png","83","motor","2","82","1","0","0","","",""
"null","447296","HierDyj766f0uy","sub07","07","1","iti","null","img/motor_2.png","83","motor","","","","","","","",""
"590","447894","HierDyj766f0uy","sub07","07","1","motor","72","img/motor_4.png","70","motor","4","83","0","1","0","","",""
"453","448356","HierDyj766f0uy","sub07","07","1","motorRepeat","72","img/motor_4.png","70","motor","4","83","0","1","0","","",""
"218","448581","HierDyj766f0uy","sub07","07","1","motorRepeat","68","img/motor_4.png","70","motor","4","83","0","1","0","","",""
"22","448610","HierDyj766f0uy","sub07","07","1","motorRepeat","70","img/motor_4.png","70","motor","4","83","1","0","0","","",""
"null","448721","HierDyj766f0uy","sub07","07","1","iti","null","img/motor_4.png","70","motor","","","","","","","",""
"487","449214","HierDyj766f0uy","sub07","07","1","motor","75","img/motor_8.png","76","motor","8","84","0","1","0","","",""
"551","449771","HierDyj766f0uy","sub07","07","1","motorRepeat","76","img/motor_8.png","76","motor","8","84","1","0","0","","",""
"null","449879","HierDyj766f0uy","sub07","07","1","iti","null","img/motor_8.png","76","motor","","","","","","","",""
"1086","450971","HierDyj766f0uy","sub07","07","1","motor","83","img/motor_2.png","83","motor","2","85","1","0","0","","",""
"null","451079","HierDyj766f0uy","sub07","07","1","iti","null","img/motor_2.png","83","motor","","","","","","","",""
"891","451977","HierDyj766f0uy","sub07","07","1","motor","72","img/motor_4.png","70","motor","4","86","0","1","0","","",""
"373","452356","HierDyj766f0uy","sub07","07","1","motorRepeat","70","img/motor_4.png","70","motor","4","86","1","0","0","","",""
"null","452466","HierDyj766f0uy","sub07","07","1","iti","null","img/motor_4.png","70","motor","","","","","","","",""
"746","453220","HierDyj766f0uy","sub07","07","1","motor","75","img/motor_7.png","75","motor","7","87","1","0","0","","",""
"null","453328","HierDyj766f0uy","sub07","07","1","iti","null","img/motor_7.png","75","motor","","","","","","","",""
"494","453829","HierDyj766f0uy","sub07","07","1","motor","76","img/motor_8.png","76","motor","8","88","1","0","0","","",""
"null","453937","HierDyj766f0uy","sub07","07","1","iti","null","img/motor_8.png","76","motor","","","","","","","",""
"563","454507","HierDyj766f0uy","sub07","07","1","motor","72","img/motor_5.png","72","motor","5","89","1","0","0","","",""
"null","454615","HierDyj766f0uy","sub07","07","1","iti","null","img/motor_5.png","72","motor","","","","","","","",""
"1225","455845","HierDyj766f0uy","sub07","07","1","motor","83","img/motor_2.png","83","motor","2","90","1","0","0","","",""
"null","455955","HierDyj766f0uy","sub07","07","1","iti","null","img/motor_2.png","83","motor","","","","","","","",""
"481","456443","HierDyj766f0uy","sub07","07","1","motor","72","img/motor_5.png","72","motor","5","91","1","0","0","","",""
"null","456551","HierDyj766f0uy","sub07","07","1","iti","null","img/motor_5.png","72","motor","","","","","","","",""
"465","457025","HierDyj766f0uy","sub07","07","1","motor","65","img/motor_1.png","65","motor","1","92","1","0","0","","",""
"null","457135","HierDyj766f0uy","sub07","07","1","iti","null","img/motor_1.png","65","motor","","","","","","","",""
"811","457953","HierDyj766f0uy","sub07","07","1","motor","83","img/motor_2.png","83","motor","2","93","1","0","0","","",""
"null","458065","HierDyj766f0uy","sub07","07","1","iti","null","img/motor_2.png","83","motor","","","","","","","",""
"961","459033","HierDyj766f0uy","sub07","07","1","motor","72","img/motor_6.png","74","motor","6","94","0","1","0","","",""
"531","459572","HierDyj766f0uy","sub07","07","1","motorRepeat","74","img/motor_6.png","74","motor","6","94","1","0","0","","",""
"null","459680","HierDyj766f0uy","sub07","07","1","iti","null","img/motor_6.png","74","motor","","","","","","","",""
"481","460168","HierDyj766f0uy","sub07","07","1","motor","75","img/motor_7.png","75","motor","7","95","1","0","0","","",""
"null","460276","HierDyj766f0uy","sub07","07","1","iti","null","img/motor_7.png","75","motor","","","","","","","",""
"713","460997","HierDyj766f0uy","sub07","07","1","motor","74","img/motor_6.png","74","motor","6","96","1","0","0","","",""
"null","461105","HierDyj766f0uy","sub07","07","1","iti","null","img/motor_6.png","74","motor","","","","","","","",""
"464","461576","HierDyj766f0uy","sub07","07","1","motor","76","img/motor_8.png","76","motor","8","97","1","0","0","","",""
"null","461684","HierDyj766f0uy","sub07","07","1","iti","null","img/motor_8.png","76","motor","","","","","","","",""
"484","462176","HierDyj766f0uy","sub07","07","1","motor","75","img/motor_7.png","75","motor","7","98","1","0","0","","",""
"null","462284","HierDyj766f0uy","sub07","07","1","iti","null","img/motor_7.png","75","motor","","","","","","","",""
"611","462903","HierDyj766f0uy","sub07","07","1","motor","83","img/motor_2.png","83","motor","2","99","1","0","0","","",""
"null","463012","HierDyj766f0uy","sub07","07","1","iti","null","img/motor_2.png","83","motor","","","","","","","",""
"401","463421","HierDyj766f0uy","sub07","07","1","motor","68","img/motor_4.png","70","motor","4","100","0","1","0","","",""
"304","463733","HierDyj766f0uy","sub07","07","1","motorRepeat","72","img/motor_4.png","70","motor","4","100","0","1","0","","",""
"185","463925","HierDyj766f0uy","sub07","07","1","motorRepeat","70","img/motor_4.png","70","motor","4","100","1","0","0","","",""
"null","464034","HierDyj766f0uy","sub07","07","1","iti","null","img/motor_4.png","70","motor","","","","","","","",""
"1318","465359","HierDyj766f0uy","sub07","07","1","motor","75","img/motor_7.png","75","motor","7","101","1","0","0","","",""
"null","465469","HierDyj766f0uy","sub07","07","1","iti","null","img/motor_7.png","75","motor","","","","","","","",""
"440","465917","HierDyj766f0uy","sub07","07","1","motor","70","img/motor_2.png","83","motor","2","102","0","1","0","","",""
"404","466329","HierDyj766f0uy","sub07","07","1","motorRepeat","68","img/motor_2.png","83","motor","2","102","0","1","0","","",""
"92","466429","HierDyj766f0uy","sub07","07","1","motorRepeat","83","img/motor_2.png","83","motor","2","102","1","0","0","","",""
"null","466538","HierDyj766f0uy","sub07","07","1","iti","null","img/motor_2.png","83","motor","","","","","","","",""
"605","467152","HierDyj766f0uy","sub07","07","1","motor","72","img/motor_5.png","72","motor","5","103","1","0","0","","",""
"null","467261","HierDyj766f0uy","sub07","07","1","iti","null","img/motor_5.png","72","motor","","","","","","","",""
"364","467633","HierDyj766f0uy","sub07","07","1","motor","72","img/motor_5.png","72","motor","5","104","1","0","0","","",""
"null","467741","HierDyj766f0uy","sub07","07","1","iti","null","img/motor_5.png","72","motor","","","","","","","",""
"472","468222","HierDyj766f0uy","sub07","07","1","motor","75","img/motor_6.png","74","motor","6","105","0","1","0","","",""
"332","468562","HierDyj766f0uy","sub07","07","1","motorRepeat","74","img/motor_6.png","74","motor","6","105","1","0","0","","",""
"null","468671","HierDyj766f0uy","sub07","07","1","iti","null","img/motor_6.png","74","motor","","","","","","","",""
"1319","469997","HierDyj766f0uy","sub07","07","1","motor","70","img/motor_4.png","70","motor","4","106","1","0","0","","",""
"null","470108","HierDyj766f0uy","sub07","07","1","iti","null","img/motor_4.png","70","motor","","","","","","","",""
"1011","471126","HierDyj766f0uy","sub07","07","1","motor","72","img/motor_5.png","72","motor","5","107","1","0","0","","",""
"null","471236","HierDyj766f0uy","sub07","07","1","iti","null","img/motor_5.png","72","motor","","","","","","","",""
"1785","473029","HierDyj766f0uy","sub07","07","1","motor","83","img/motor_2.png","83","motor","2","108","1","0","0","","",""
"null","473141","HierDyj766f0uy","sub07","07","1","iti","null","img/motor_2.png","83","motor","","","","","","","",""
"701","473849","HierDyj766f0uy","sub07","07","1","motor","65","img/motor_1.png","65","motor","1","109","1","0","0","","",""
"null","473958","HierDyj766f0uy","sub07","07","1","iti","null","img/motor_1.png","65","motor","","","","","","","",""
"1169","475137","HierDyj766f0uy","sub07","07","1","motor","75","img/motor_6.png","74","motor","6","110","0","1","0","","",""
"473","475621","HierDyj766f0uy","sub07","07","1","motorRepeat","74","img/motor_6.png","74","motor","6","110","1","0","0","","",""
"null","475734","HierDyj766f0uy","sub07","07","1","iti","null","img/motor_6.png","74","motor","","","","","","","",""
"506","476248","HierDyj766f0uy","sub07","07","1","motor","75","img/motor_7.png","75","motor","7","111","1","0","0","","",""
"null","476360","HierDyj766f0uy","sub07","07","1","iti","null","img/motor_7.png","75","motor","","","","","","","",""
"607","476975","HierDyj766f0uy","sub07","07","1","motor","65","img/motor_1.png","65","motor","1","112","1","0","0","","",""
"null","477085","HierDyj766f0uy","sub07","07","1","iti","null","img/motor_1.png","65","motor","","","","","","","",""
"474","477567","HierDyj766f0uy","sub07","07","1","motor","76","img/motor_8.png","76","motor","8","113","1","0","0","","",""
"null","477676","HierDyj766f0uy","sub07","07","1","iti","null","img/motor_8.png","76","motor","","","","","","","",""
"608","478291","HierDyj766f0uy","sub07","07","1","motor","68","img/motor_3.png","68","motor","3","114","1","0","0","","",""
"null","478399","HierDyj766f0uy","sub07","07","1","iti","null","img/motor_3.png","68","motor","","","","","","","",""
"662","479069","HierDyj766f0uy","sub07","07","1","motor","74","img/motor_7.png","75","motor","7","115","0","1","0","","",""
"383","479461","HierDyj766f0uy","sub07","07","1","motorRepeat","75","img/motor_7.png","75","motor","7","115","1","0","0","","",""
"null","479569","HierDyj766f0uy","sub07","07","1","iti","null","img/motor_7.png","75","motor","","","","","","","",""
"1537","481115","HierDyj766f0uy","sub07","07","1","motor","74","img/motor_6.png","74","motor","6","116","1","0","0","","",""
"null","481228","HierDyj766f0uy","sub07","07","1","iti","null","img/motor_6.png","74","motor","","","","","","","",""
"431","481669","HierDyj766f0uy","sub07","07","1","motor","72","img/motor_5.png","72","motor","5","117","1","0","0","","",""
"null","481779","HierDyj766f0uy","sub07","07","1","iti","null","img/motor_5.png","72","motor","","","","","","","",""
"395","482184","HierDyj766f0uy","sub07","07","1","motor","76","img/motor_8.png","76","motor","8","118","1","0","0","","",""
"null","482295","HierDyj766f0uy","sub07","07","1","iti","null","img/motor_8.png","76","motor","","","","","","","",""
"572","482875","HierDyj766f0uy","sub07","07","1","motor","70","img/motor_4.png","70","motor","4","119","1","0","0","","",""
"null","482987","HierDyj766f0uy","sub07","07","1","iti","null","img/motor_4.png","70","motor","","","","","","","",""
"564","483563","HierDyj766f0uy","sub07","07","1","motor","74","img/motor_6.png","74","motor","6","120","1","0","0","","",""
"null","483676","HierDyj766f0uy","sub07","07","1","iti","null","img/motor_6.png","74","motor","","","","","","","",""
"646","484335","HierDyj766f0uy","sub07","07","1","motor","72","img/motor_5.png","72","motor","5","121","1","0","0","","",""
"null","484448","HierDyj766f0uy","sub07","07","1","iti","null","img/motor_5.png","72","motor","","","","","","","",""
"835","485292","HierDyj766f0uy","sub07","07","1","motor","68","img/motor_3.png","68","motor","3","122","1","0","0","","",""
"null","485405","HierDyj766f0uy","sub07","07","1","iti","null","img/motor_3.png","68","motor","","","","","","","",""
"705","486120","HierDyj766f0uy","sub07","07","1","motor","74","img/motor_6.png","74","motor","6","123","1","0","0","","",""
"null","486231","HierDyj766f0uy","sub07","07","1","iti","null","img/motor_6.png","74","motor","","","","","","","",""
"733","486975","HierDyj766f0uy","sub07","07","1","motor","65","img/motor_1.png","65","motor","1","124","1","0","0","","",""
"null","487087","HierDyj766f0uy","sub07","07","1","iti","null","img/motor_1.png","65","motor","","","","","","","",""
"454","487554","HierDyj766f0uy","sub07","07","1","motor","74","img/motor_5.png","72","motor","5","125","0","1","0","","",""
"286","487850","HierDyj766f0uy","sub07","07","1","motorRepeat","72","img/motor_5.png","72","motor","5","125","1","0","0","","",""
"null","487960","HierDyj766f0uy","sub07","07","1","iti","null","img/motor_5.png","72","motor","","","","","","","",""
"450","488421","HierDyj766f0uy","sub07","07","1","motor","74","img/motor_6.png","74","motor","6","126","1","0","0","","",""
"null","488531","HierDyj766f0uy","sub07","07","1","iti","null","img/motor_6.png","74","motor","","","","","","","",""
"906","489446","HierDyj766f0uy","sub07","07","1","motor","83","img/motor_2.png","83","motor","2","127","1","0","0","","",""
"null","489555","HierDyj766f0uy","sub07","07","1","iti","null","img/motor_2.png","83","motor","","","","","","","",""
"901","490464","HierDyj766f0uy","sub07","07","1","motor","70","img/motor_4.png","70","motor","4","128","1","0","0","","",""
"null","490576","HierDyj766f0uy","sub07","07","1","iti","null","img/motor_4.png","70","motor","","","","","","","",""
"1206","491791","HierDyj766f0uy","sub07","07","1","motor","83","img/motor_2.png","83","motor","2","129","1","0","0","","",""
"null","491903","HierDyj766f0uy","sub07","07","1","iti","null","img/motor_2.png","83","motor","","","","","","","",""
"718","492631","HierDyj766f0uy","sub07","07","1","motor","65","img/motor_1.png","65","motor","1","130","1","0","0","","",""
"null","492742","HierDyj766f0uy","sub07","07","1","iti","null","img/motor_1.png","65","motor","","","","","","","",""
"727","493479","HierDyj766f0uy","sub07","07","1","motor","75","img/motor_6.png","74","motor","6","131","0","1","0","","",""
"328","493818","HierDyj766f0uy","sub07","07","1","motorRepeat","74","img/motor_6.png","74","motor","6","131","1","0","0","","",""
"null","493929","HierDyj766f0uy","sub07","07","1","iti","null","img/motor_6.png","74","motor","","","","","","","",""
"558","494496","HierDyj766f0uy","sub07","07","1","motor","74","img/motor_7.png","75","motor","7","132","0","1","0","","",""
"359","494864","HierDyj766f0uy","sub07","07","1","motorRepeat","75","img/motor_7.png","75","motor","7","132","1","0","0","","",""
"null","494973","HierDyj766f0uy","sub07","07","1","iti","null","img/motor_7.png","75","motor","","","","","","","",""
"430","495412","HierDyj766f0uy","sub07","07","1","motor","75","img/motor_7.png","75","motor","7","133","1","0","0","","",""
"null","495522","HierDyj766f0uy","sub07","07","1","iti","null","img/motor_7.png","75","motor","","","","","","","",""
"723","496255","HierDyj766f0uy","sub07","07","1","motor","72","img/motor_4.png","70","motor","4","134","0","1","0","","",""
"293","496557","HierDyj766f0uy","sub07","07","1","motorRepeat","70","img/motor_4.png","70","motor","4","134","1","0","0","","",""
"null","496668","HierDyj766f0uy","sub07","07","1","iti","null","img/motor_4.png","70","motor","","","","","","","",""
"602","497279","HierDyj766f0uy","sub07","07","1","motor","68","img/motor_3.png","68","motor","3","135","1","0","0","","",""
"null","497390","HierDyj766f0uy","sub07","07","1","iti","null","img/motor_3.png","68","motor","","","","","","","",""
"588","497986","HierDyj766f0uy","sub07","07","1","motor","72","img/motor_5.png","72","motor","5","136","1","0","0","","",""
"null","498094","HierDyj766f0uy","sub07","07","1","iti","null","img/motor_5.png","72","motor","","","","","","","",""
"467","498568","HierDyj766f0uy","sub07","07","1","motor","76","img/motor_8.png","76","motor","8","137","1","0","0","","",""
"null","498676","HierDyj766f0uy","sub07","07","1","iti","null","img/motor_8.png","76","motor","","","","","","","",""
"596","499281","HierDyj766f0uy","sub07","07","1","motor","65","img/motor_1.png","65","motor","1","138","1","0","0","","",""
"null","499390","HierDyj766f0uy","sub07","07","1","iti","null","img/motor_1.png","65","motor","","","","","","","",""
"601","499997","HierDyj766f0uy","sub07","07","1","motor","68","img/motor_3.png","68","motor","3","139","1","0","0","","",""
"null","500105","HierDyj766f0uy","sub07","07","1","iti","null","img/motor_3.png","68","motor","","","","","","","",""
"487","500601","HierDyj766f0uy","sub07","07","1","motor","68","img/motor_3.png","68","motor","3","140","1","0","0","","",""
"null","500708","HierDyj766f0uy","sub07","07","1","iti","null","img/motor_3.png","68","motor","","","","","","","",""
"577","501294","HierDyj766f0uy","sub07","07","1","motor","75","img/motor_7.png","75","motor","7","141","1","0","0","","",""
"null","501403","HierDyj766f0uy","sub07","07","1","iti","null","img/motor_7.png","75","motor","","","","","","","",""
"382","501790","HierDyj766f0uy","sub07","07","1","motor","75","img/motor_7.png","75","motor","7","142","1","0","0","","",""
"null","501896","HierDyj766f0uy","sub07","07","1","iti","null","img/motor_7.png","75","motor","","","","","","","",""
"736","502641","HierDyj766f0uy","sub07","07","1","motor","83","img/motor_2.png","83","motor","2","143","1","0","0","","",""
"null","502748","HierDyj766f0uy","sub07","07","1","iti","null","img/motor_2.png","83","motor","","","","","","","",""
"602","503356","HierDyj766f0uy","sub07","07","1","motor","76","img/motor_8.png","76","motor","8","144","1","0","0","","",""
"null","503465","HierDyj766f0uy","sub07","07","1","iti","null","img/motor_8.png","76","motor","","","","","","","",""
"442","503912","HierDyj766f0uy","sub07","07","1","motor","65","img/motor_1.png","65","motor","1","145","1","0","0","","",""
"null","504018","HierDyj766f0uy","sub07","07","1","iti","null","img/motor_1.png","65","motor","","","","","","","",""
"718","504744","HierDyj766f0uy","sub07","07","1","motor","70","img/motor_3.png","68","motor","3","146","0","1","0","","",""
"490","505241","HierDyj766f0uy","sub07","07","1","motorRepeat","68","img/motor_3.png","68","motor","3","146","1","0","0","","",""
"null","505350","HierDyj766f0uy","sub07","07","1","iti","null","img/motor_3.png","68","motor","","","","","","","",""
"888","506244","HierDyj766f0uy","sub07","07","1","motor","72","img/motor_8.png","76","motor","8","147","0","1","0","","",""
"644","506895","HierDyj766f0uy","sub07","07","1","motorRepeat","76","img/motor_8.png","76","motor","8","147","1","0","0","","",""
"null","507002","HierDyj766f0uy","sub07","07","1","iti","null","img/motor_8.png","76","motor","","","","","","","",""
"3157","510168","HierDyj766f0uy","sub07","07","1","motor","68","img/motor_3.png","68","motor","3","148","1","0","0","","",""
"null","510276","HierDyj766f0uy","sub07","07","1","iti","null","img/motor_3.png","68","motor","","","","","","","",""
"517","510801","HierDyj766f0uy","sub07","07","1","motor","76","img/motor_8.png","76","motor","8","149","1","0","0","","",""
"null","510910","HierDyj766f0uy","sub07","07","1","iti","null","img/motor_8.png","76","motor","","","","","","","",""
"781","511699","HierDyj766f0uy","sub07","07","1","motor","65","img/motor_1.png","65","motor","1","150","1","0","0","","",""
"null","511811","HierDyj766f0uy","sub07","07","1","iti","null","img/motor_1.png","65","motor","","","","","","","",""
"580","512400","HierDyj766f0uy","sub07","07","1","motor","75","img/motor_7.png","75","motor","7","151","1","0","0","","",""
"null","512508","HierDyj766f0uy","sub07","07","1","iti","null","img/motor_7.png","75","motor","","","","","","","",""
"920","513436","HierDyj766f0uy","sub07","07","1","motor","83","img/motor_2.png","83","motor","2","152","1","0","0","","",""
"null","513547","HierDyj766f0uy","sub07","07","1","iti","null","img/motor_2.png","83","motor","","","","","","","",""
"928","514482","HierDyj766f0uy","sub07","07","1","motor","76","img/motor_8.png","76","motor","8","153","1","0","0","","",""
"null","514590","HierDyj766f0uy","sub07","07","1","iti","null","img/motor_8.png","76","motor","","","","","","","",""
"456","515055","HierDyj766f0uy","sub07","07","1","motor","75","img/motor_7.png","75","motor","7","154","1","0","0","","",""
"null","515163","HierDyj766f0uy","sub07","07","1","iti","null","img/motor_7.png","75","motor","","","","","","","",""
"496","515667","HierDyj766f0uy","sub07","07","1","motor","76","img/motor_8.png","76","motor","8","155","1","0","0","","",""
"null","515774","HierDyj766f0uy","sub07","07","1","iti","null","img/motor_8.png","76","motor","","","","","","","",""
"347","516129","HierDyj766f0uy","sub07","07","1","motor","75","img/motor_6.png","74","motor","6","156","0","1","0","","",""
"271","516407","HierDyj766f0uy","sub07","07","1","motorRepeat","74","img/motor_6.png","74","motor","6","156","1","0","0","","",""
"null","516514","HierDyj766f0uy","sub07","07","1","iti","null","img/motor_6.png","74","motor","","","","","","","",""
"495","517018","HierDyj766f0uy","sub07","07","1","motor","72","img/motor_5.png","72","motor","5","157","1","0","0","","",""
"null","517123","HierDyj766f0uy","sub07","07","1","iti","null","img/motor_5.png","72","motor","","","","","","","",""
"444","517576","HierDyj766f0uy","sub07","07","1","motor","76","img/motor_8.png","76","motor","8","158","1","0","0","","",""
"null","517683","HierDyj766f0uy","sub07","07","1","iti","null","img/motor_8.png","76","motor","","","","","","","",""
"727","518418","HierDyj766f0uy","sub07","07","1","motor","75","img/motor_6.png","74","motor","6","159","0","1","0","","",""
"248","518674","HierDyj766f0uy","sub07","07","1","motorRepeat","74","img/motor_6.png","74","motor","6","159","1","0","0","","",""
"null","518781","HierDyj766f0uy","sub07","07","1","iti","null","img/motor_6.png","74","motor","","","","","","","",""
"417","519207","HierDyj766f0uy","sub07","07","1","motor","72","img/motor_8.png","76","motor","8","160","0","1","0","","",""
"364","519578","HierDyj766f0uy","sub07","07","1","motorRepeat","75","img/motor_8.png","76","motor","8","160","0","1","0","","",""
"342","519930","HierDyj766f0uy","sub07","07","1","motorRepeat","76","img/motor_8.png","76","motor","8","160","1","0","0","","",""
"null","520038","HierDyj766f0uy","sub07","07","1","iti","null","img/motor_8.png","76","motor","","","","","","","",""
"819","520865","HierDyj766f0uy","sub07","07","1","motor","70","img/motor_3.png","68","motor","3","161","0","1","0","","",""
"425","521297","HierDyj766f0uy","sub07","07","1","motorRepeat","68","img/motor_3.png","68","motor","3","161","1","0","0","","",""
"null","521406","HierDyj766f0uy","sub07","07","1","iti","null","img/motor_3.png","68","motor","","","","","","","",""
"981","522394","HierDyj766f0uy","sub07","07","1","motor","83","img/motor_2.png","83","motor","2","162","1","0","0","","",""
"null","522505","HierDyj766f0uy","sub07","07","1","iti","null","img/motor_2.png","83","motor","","","","","","","",""
"1455","523968","HierDyj766f0uy","sub07","07","1","motor","74","img/motor_6.png","74","motor","6","163","1","0","0","","",""
"null","524080","HierDyj766f0uy","sub07","07","1","iti","null","img/motor_6.png","74","motor","","","","","","","",""
"494","524581","HierDyj766f0uy","sub07","07","1","motor","74","img/motor_6.png","74","motor","6","164","1","0","0","","",""
"null","524690","HierDyj766f0uy","sub07","07","1","iti","null","img/motor_6.png","74","motor","","","","","","","",""
"478","525175","HierDyj766f0uy","sub07","07","1","motor","75","img/motor_7.png","75","motor","7","165","1","0","0","","",""
"null","525283","HierDyj766f0uy","sub07","07","1","iti","null","img/motor_7.png","75","motor","","","","","","","",""
"649","525940","HierDyj766f0uy","sub07","07","1","motor","68","img/motor_3.png","68","motor","3","166","1","0","0","","",""
"null","526051","HierDyj766f0uy","sub07","07","1","iti","null","img/motor_3.png","68","motor","","","","","","","",""
"547","526606","HierDyj766f0uy","sub07","07","1","motor","74","img/motor_6.png","74","motor","6","167","1","0","0","","",""
"null","526714","HierDyj766f0uy","sub07","07","1","iti","null","img/motor_6.png","74","motor","","","","","","","",""
"469","527191","HierDyj766f0uy","sub07","07","1","motor","68","img/motor_3.png","68","motor","3","168","1","0","0","","",""
"null","527301","HierDyj766f0uy","sub07","07","1","iti","null","img/motor_3.png","68","motor","","","","","","","",""
"553","527866","HierDyj766f0uy","sub07","07","1","motor","83","img/motor_2.png","83","motor","2","169","1","0","0","","",""
"null","527978","HierDyj766f0uy","sub07","07","1","iti","null","img/motor_2.png","83","motor","","","","","","","",""
"531","528517","HierDyj766f0uy","sub07","07","1","motor","74","img/motor_6.png","74","motor","6","170","1","0","0","","",""
"null","528625","HierDyj766f0uy","sub07","07","1","iti","null","img/motor_6.png","74","motor","","","","","","","",""
"536","529168","HierDyj766f0uy","sub07","07","1","motor","68","img/motor_3.png","68","motor","3","171","1","0","0","","",""
"null","529279","HierDyj766f0uy","sub07","07","1","iti","null","img/motor_3.png","68","motor","","","","","","","",""
"630","529918","HierDyj766f0uy","sub07","07","1","motor","70","img/motor_4.png","70","motor","4","172","1","0","0","","",""
"null","530028","HierDyj766f0uy","sub07","07","1","iti","null","img/motor_4.png","70","motor","","","","","","","",""
"472","530507","HierDyj766f0uy","sub07","07","1","motor","72","img/motor_5.png","72","motor","5","173","1","0","0","","",""
"null","530614","HierDyj766f0uy","sub07","07","1","iti","null","img/motor_5.png","72","motor","","","","","","","",""
"654","531276","HierDyj766f0uy","sub07","07","1","motor","70","img/motor_4.png","70","motor","4","174","1","0","0","","",""
"null","531383","HierDyj766f0uy","sub07","07","1","iti","null","img/motor_4.png","70","motor","","","","","","","",""
"1010","532403","HierDyj766f0uy","sub07","07","1","motor","83","img/motor_1.png","65","motor","1","175","0","1","0","","",""
"402","532816","HierDyj766f0uy","sub07","07","1","motorRepeat","65","img/motor_1.png","65","motor","1","175","1","0","0","","",""
"null","532924","HierDyj766f0uy","sub07","07","1","iti","null","img/motor_1.png","65","motor","","","","","","","",""
"543","533475","HierDyj766f0uy","sub07","07","1","motor","72","img/motor_5.png","72","motor","5","176","1","0","0","","",""
"null","533582","HierDyj766f0uy","sub07","07","1","iti","null","img/motor_5.png","72","motor","","","","","","","",""
"315","533901","HierDyj766f0uy","sub07","07","1","motor","74","img/motor_5.png","72","motor","5","177","0","1","0","","",""
"39","533946","HierDyj766f0uy","sub07","07","1","motorRepeat","72","img/motor_5.png","72","motor","5","177","1","0","0","","",""
"null","534053","HierDyj766f0uy","sub07","07","1","iti","null","img/motor_5.png","72","motor","","","","","","","",""
"212","534270","HierDyj766f0uy","sub07","07","1","motor","72","img/motor_3.png","68","motor","3","178","0","1","0","","",""
"426","534704","HierDyj766f0uy","sub07","07","1","motorRepeat","70","img/motor_3.png","68","motor","3","178","0","1","0","","",""
"23","534732","HierDyj766f0uy","sub07","07","1","motorRepeat","68","img/motor_3.png","68","motor","3","178","1","0","0","","",""
"null","534839","HierDyj766f0uy","sub07","07","1","iti","null","img/motor_3.png","68","motor","","","","","","","",""
"551","535398","HierDyj766f0uy","sub07","07","1","motor","72","img/motor_5.png","72","motor","5","179","1","0","0","","",""
"null","535507","HierDyj766f0uy","sub07","07","1","iti","null","img/motor_5.png","72","motor","","","","","","","",""
"1280","536794","HierDyj766f0uy","sub07","07","1","motor","74","img/motor_4.png","70","motor","4","180","0","1","0","","",""
"398","537203","HierDyj766f0uy","sub07","07","1","motorRepeat","70","img/motor_4.png","70","motor","4","180","1","0","0","","",""
"null","537315","HierDyj766f0uy","sub07","07","1","iti","null","img/motor_4.png","70","motor","","","","","","","",""
"506","537831","HierDyj766f0uy","sub07","07","1","motor","72","img/motor_5.png","72","motor","5","181","1","0","0","","",""
"null","537942","HierDyj766f0uy","sub07","07","1","iti","null","img/motor_5.png","72","motor","","","","","","","",""
"682","538632","HierDyj766f0uy","sub07","07","1","motor","68","img/motor_3.png","68","motor","3","182","1","0","0","","",""
"null","538741","HierDyj766f0uy","sub07","07","1","iti","null","img/motor_3.png","68","motor","","","","","","","",""
"422","539172","HierDyj766f0uy","sub07","07","1","motor","83","img/motor_1.png","65","motor","1","183","0","1","0","","",""
"301","539479","HierDyj766f0uy","sub07","07","1","motorRepeat","65","img/motor_1.png","65","motor","1","183","1","0","0","","",""
"null","539588","HierDyj766f0uy","sub07","07","1","iti","null","img/motor_1.png","65","motor","","","","","","","",""
"691","540287","HierDyj766f0uy","sub07","07","1","motor","76","img/motor_7.png","75","motor","7","184","0","1","0","","",""
"390","540681","HierDyj766f0uy","sub07","07","1","motorRepeat","75","img/motor_7.png","75","motor","7","184","1","0","0","","",""
"null","540788","HierDyj766f0uy","sub07","07","1","iti","null","img/motor_7.png","75","motor","","","","","","","",""
"1026","541822","HierDyj766f0uy","sub07","07","1","motor","72","img/motor_5.png","72","motor","5","185","1","0","0","","",""
"null","541931","HierDyj766f0uy","sub07","07","1","iti","null","img/motor_5.png","72","motor","","","","","","","",""
"323","542266","HierDyj766f0uy","sub07","07","1","motor","72","img/motor_5.png","72","motor","5","186","1","0","0","","",""
"null","542377","HierDyj766f0uy","sub07","07","1","iti","null","img/motor_5.png","72","motor","","","","","","","",""
"528","542914","HierDyj766f0uy","sub07","07","1","motor","83","img/motor_2.png","83","motor","2","187","1","0","0","","",""
"null","543022","HierDyj766f0uy","sub07","07","1","iti","null","img/motor_2.png","83","motor","","","","","","","",""
"430","543461","HierDyj766f0uy","sub07","07","1","motor","72","img/motor_5.png","72","motor","5","188","1","0","0","","",""
"null","543571","HierDyj766f0uy","sub07","07","1","iti","null","img/motor_5.png","72","motor","","","","","","","",""
"484","544063","HierDyj766f0uy","sub07","07","1","motor","75","img/motor_7.png","75","motor","7","189","1","0","0","","",""
"null","544170","HierDyj766f0uy","sub07","07","1","iti","null","img/motor_7.png","75","motor","","","","","","","",""
"418","544596","HierDyj766f0uy","sub07","07","1","motor","75","img/motor_5.png","72","motor","5","190","0","1","0","","",""
"222","544826","HierDyj766f0uy","sub07","07","1","motorRepeat","72","img/motor_5.png","72","motor","5","190","1","0","0","","",""
"null","544934","HierDyj766f0uy","sub07","07","1","iti","null","img/motor_5.png","72","motor","","","","","","","",""
"611","545554","HierDyj766f0uy","sub07","07","1","motor","83","img/motor_4.png","70","motor","4","191","0","1","0","","",""
"257","545819","HierDyj766f0uy","sub07","07","1","motorRepeat","70","img/motor_4.png","70","motor","4","191","1","0","0","","",""
"null","545927","HierDyj766f0uy","sub07","07","1","iti","null","img/motor_4.png","70","motor","","","","","","","",""
"368","546303","HierDyj766f0uy","sub07","07","1","motor","70","img/motor_4.png","70","motor","4","192","1","0","0","","",""
"null","546411","HierDyj766f0uy","sub07","07","1","iti","null","img/motor_4.png","70","motor","","","","","","","",""
"832","547251","HierDyj766f0uy","sub07","07","1","motor","74","img/motor_6.png","74","motor","6","193","1","0","0","","",""
"null","547359","HierDyj766f0uy","sub07","07","1","iti","null","img/motor_6.png","74","motor","","","","","","","",""
"838","548207","HierDyj766f0uy","sub07","07","1","motor","83","img/motor_1.png","65","motor","1","194","0","1","0","","",""
"715","548933","HierDyj766f0uy","sub07","07","1","motorRepeat","68","img/motor_1.png","65","motor","1","194","0","1","0","","",""
"51","548992","HierDyj766f0uy","sub07","07","1","motorRepeat","70","img/motor_1.png","65","motor","1","194","0","1","0","","",""
"551","549550","HierDyj766f0uy","sub07","07","1","motorRepeat","65","img/motor_1.png","65","motor","1","194","1","0","0","","",""
"null","549659","HierDyj766f0uy","sub07","07","1","iti","null","img/motor_1.png","65","motor","","","","","","","",""
"1173","550841","HierDyj766f0uy","sub07","07","1","motor","65","img/motor_4.png","70","motor","4","195","0","1","0","","",""
"593","551443","HierDyj766f0uy","sub07","07","1","motorRepeat","72","img/motor_4.png","70","motor","4","195","0","1","0","","",""
"424","551879","HierDyj766f0uy","sub07","07","1","motorRepeat","68","img/motor_4.png","70","motor","4","195","0","1","0","","",""
"490","552378","HierDyj766f0uy","sub07","07","1","motorRepeat","68","img/motor_4.png","70","motor","4","195","0","1","0","","",""
"556","552943","HierDyj766f0uy","sub07","07","1","motorRepeat","83","img/motor_4.png","70","motor","4","195","0","1","0","","",""
"399","553350","HierDyj766f0uy","sub07","07","1","motorRepeat","70","img/motor_4.png","70","motor","4","195","1","0","0","","",""
"null","553457","HierDyj766f0uy","sub07","07","1","iti","null","img/motor_4.png","70","motor","","","","","","","",""
"659","554125","HierDyj766f0uy","sub07","07","1","motor","83","img/motor_2.png","83","motor","2","196","1","0","0","","",""
"null","554232","HierDyj766f0uy","sub07","07","1","iti","null","img/motor_2.png","83","motor","","","","","","","",""
"666","554906","HierDyj766f0uy","sub07","07","1","motor","68","img/motor_3.png","68","motor","3","197","1","0","0","","",""
"null","555014","HierDyj766f0uy","sub07","07","1","iti","null","img/motor_3.png","68","motor","","","","","","","",""
"522","555544","HierDyj766f0uy","sub07","07","1","motor","75","img/motor_7.png","75","motor","7","198","1","0","0","","",""
"null","555650","HierDyj766f0uy","sub07","07","1","iti","null","img/motor_7.png","75","motor","","","","","","","",""
"571","556230","HierDyj766f0uy","sub07","07","1","motor","76","img/motor_8.png","76","motor","8","199","1","0","0","","",""
"null","556336","HierDyj766f0uy","sub07","07","1","iti","null","img/motor_8.png","76","motor","","","","","","","",""
"508","556852","HierDyj766f0uy","sub07","07","1","motor","75","img/motor_7.png","75","motor","7","200","1","0","0","","",""
"null","556959","HierDyj766f0uy","sub07","07","1","iti","null","img/motor_7.png","75","motor","","","","","","","",""
"670","557638","HierDyj766f0uy","sub07","07","1","motor","65","img/motor_1.png","65","motor","1","201","1","0","0","","",""
"null","557745","HierDyj766f0uy","sub07","07","1","iti","null","img/motor_1.png","65","motor","","","","","","","",""
"673","558426","HierDyj766f0uy","sub07","07","1","motor","72","img/motor_5.png","72","motor","5","202","1","0","0","","",""
"null","558534","HierDyj766f0uy","sub07","07","1","iti","null","img/motor_5.png","72","motor","","","","","","","",""
"597","559142","HierDyj766f0uy","sub07","07","1","motor","65","img/motor_1.png","65","motor","1","203","1","0","0","","",""
"null","559254","HierDyj766f0uy","sub07","07","1","iti","null","img/motor_1.png","65","motor","","","","","","","",""
"527","559790","HierDyj766f0uy","sub07","07","1","motor","76","img/motor_8.png","76","motor","8","204","1","0","0","","",""
"null","559900","HierDyj766f0uy","sub07","07","1","iti","null","img/motor_8.png","76","motor","","","","","","","",""
"603","560513","HierDyj766f0uy","sub07","07","1","motor","75","img/motor_7.png","75","motor","7","205","1","0","0","","",""
"null","560625","HierDyj766f0uy","sub07","07","1","iti","null","img/motor_7.png","75","motor","","","","","","","",""
"412","561046","HierDyj766f0uy","sub07","07","1","motor","74","img/motor_6.png","74","motor","6","206","1","0","0","","",""
"null","561157","HierDyj766f0uy","sub07","07","1","iti","null","img/motor_6.png","74","motor","","","","","","","",""
"425","561592","HierDyj766f0uy","sub07","07","1","motor","65","img/motor_1.png","65","motor","1","207","1","0","0","","",""
"null","561703","HierDyj766f0uy","sub07","07","1","iti","null","img/motor_1.png","65","motor","","","","","","","",""
"412","562125","HierDyj766f0uy","sub07","07","1","motor","83","img/motor_2.png","83","motor","2","208","1","0","0","","",""
"null","562236","HierDyj766f0uy","sub07","07","1","iti","null","img/motor_2.png","83","motor","","","","","","","",""
"415","562661","HierDyj766f0uy","sub07","07","1","motor","76","img/motor_8.png","76","motor","8","209","1","0","0","","",""
"null","562772","HierDyj766f0uy","sub07","07","1","iti","null","img/motor_8.png","76","motor","","","","","","","",""
"531","563314","HierDyj766f0uy","sub07","07","1","motor","76","img/motor_8.png","76","motor","8","210","1","0","0","","",""
"null","563427","HierDyj766f0uy","sub07","07","1","iti","null","img/motor_8.png","76","motor","","","","","","","",""
"450","563884","HierDyj766f0uy","sub07","07","1","motor","83","img/motor_1.png","65","motor","1","211","0","1","0","","",""
"393","564285","HierDyj766f0uy","sub07","07","1","motorRepeat","65","img/motor_1.png","65","motor","1","211","1","0","0","","",""
"null","564394","HierDyj766f0uy","sub07","07","1","iti","null","img/motor_1.png","65","motor","","","","","","","",""
"536","564938","HierDyj766f0uy","sub07","07","1","motor","68","img/motor_3.png","68","motor","3","212","1","0","0","","",""
"null","565047","HierDyj766f0uy","sub07","07","1","iti","null","img/motor_3.png","68","motor","","","","","","","",""
"802","565856","HierDyj766f0uy","sub07","07","1","motor","70","img/motor_4.png","70","motor","4","213","1","0","0","","",""
"null","565965","HierDyj766f0uy","sub07","07","1","iti","null","img/motor_4.png","70","motor","","","","","","","",""
"729","566704","HierDyj766f0uy","sub07","07","1","motor","72","img/motor_5.png","72","motor","5","214","1","0","0","","",""
"null","566813","HierDyj766f0uy","sub07","07","1","iti","null","img/motor_5.png","72","motor","","","","","","","",""
"476","567299","HierDyj766f0uy","sub07","07","1","motor","74","img/motor_3.png","68","motor","3","215","0","1","0","","",""
"388","567699","HierDyj766f0uy","sub07","07","1","motorRepeat","68","img/motor_3.png","68","motor","3","215","1","0","0","","",""
"null","567811","HierDyj766f0uy","sub07","07","1","iti","null","img/motor_3.png","68","motor","","","","","","","",""
"657","568478","HierDyj766f0uy","sub07","07","1","motor","72","img/motor_5.png","72","motor","5","216","1","0","0","","",""
"null","568588","HierDyj766f0uy","sub07","07","1","iti","null","img/motor_5.png","72","motor","","","","","","","",""
"506","569105","HierDyj766f0uy","sub07","07","1","motor","74","img/motor_6.png","74","motor","6","217","1","0","0","","",""
"null","569217","HierDyj766f0uy","sub07","07","1","iti","null","img/motor_6.png","74","motor","","","","","","","",""
"618","569844","HierDyj766f0uy","sub07","07","1","motor","70","img/motor_4.png","70","motor","4","218","1","0","0","","",""
"null","569954","HierDyj766f0uy","sub07","07","1","iti","null","img/motor_4.png","70","motor","","","","","","","",""
"655","570619","HierDyj766f0uy","sub07","07","1","motor","68","img/motor_2.png","83","motor","2","219","0","1","0","","",""
"478","571106","HierDyj766f0uy","sub07","07","1","motorRepeat","83","img/motor_2.png","83","motor","2","219","1","0","0","","",""
"null","571217","HierDyj766f0uy","sub07","07","1","iti","null","img/motor_2.png","83","motor","","","","","","","",""
"539","571765","HierDyj766f0uy","sub07","07","1","motor","76","img/motor_7.png","75","motor","7","220","0","1","0","","",""
"465","572241","HierDyj766f0uy","sub07","07","1","motorRepeat","75","img/motor_7.png","75","motor","7","220","1","0","0","","",""
"null","572353","HierDyj766f0uy","sub07","07","1","iti","null","img/motor_7.png","75","motor","","","","","","","",""
"599","572961","HierDyj766f0uy","sub07","07","1","motor","74","img/motor_6.png","74","motor","6","221","1","0","0","","",""
"null","573070","HierDyj766f0uy","sub07","07","1","iti","null","img/motor_6.png","74","motor","","","","","","","",""
"743","573820","HierDyj766f0uy","sub07","07","1","motor","75","img/motor_7.png","75","motor","7","222","1","0","0","","",""
"null","573930","HierDyj766f0uy","sub07","07","1","iti","null","img/motor_7.png","75","motor","","","","","","","",""
"925","574867","HierDyj766f0uy","sub07","07","1","motor","68","img/motor_3.png","68","motor","3","223","1","0","0","","",""
"null","574975","HierDyj766f0uy","sub07","07","1","iti","null","img/motor_3.png","68","motor","","","","","","","",""
"494","575476","HierDyj766f0uy","sub07","07","1","motor","70","img/motor_4.png","70","motor","4","224","1","0","0","","",""
"null","575584","HierDyj766f0uy","sub07","07","1","iti","null","img/motor_4.png","70","motor","","","","","","","",""
"396","575986","HierDyj766f0uy","sub07","07","1","motor","68","img/motor_7.png","75","motor","7","225","0","1","0","","",""
"507","576501","HierDyj766f0uy","sub07","07","1","motorRepeat","74","img/motor_7.png","75","motor","7","225","0","1","0","","",""
"386","576896","HierDyj766f0uy","sub07","07","1","motorRepeat","75","img/motor_7.png","75","motor","7","225","1","0","0","","",""
"null","577005","HierDyj766f0uy","sub07","07","1","iti","null","img/motor_7.png","75","motor","","","","","","","",""
"824","577835","HierDyj766f0uy","sub07","07","1","motor","68","img/motor_3.png","68","motor","3","226","1","0","0","","",""
"null","577944","HierDyj766f0uy","sub07","07","1","iti","null","img/motor_3.png","68","motor","","","","","","","",""
"1018","578969","HierDyj766f0uy","sub07","07","1","motor","68","img/motor_2.png","83","motor","2","227","0","1","0","","",""
"255","579231","HierDyj766f0uy","sub07","07","1","motorRepeat","83","img/motor_2.png","83","motor","2","227","1","0","0","","",""
"null","579339","HierDyj766f0uy","sub07","07","1","iti","null","img/motor_2.png","83","motor","","","","","","","",""
"932","580280","HierDyj766f0uy","sub07","07","1","motor","68","img/motor_3.png","68","motor","3","228","1","0","0","","",""
"null","580388","HierDyj766f0uy","sub07","07","1","iti","null","img/motor_3.png","68","motor","","","","","","","",""
"497","580892","HierDyj766f0uy","sub07","07","1","motor","76","img/motor_8.png","76","motor","8","229","1","0","0","","",""
"null","581000","HierDyj766f0uy","sub07","07","1","iti","null","img/motor_8.png","76","motor","","","","","","","",""
"457","581464","HierDyj766f0uy","sub07","07","1","motor","68","img/motor_3.png","68","motor","3","230","1","0","0","","",""
"null","581572","HierDyj766f0uy","sub07","07","1","iti","null","img/motor_3.png","68","motor","","","","","","","",""
"589","582169","HierDyj766f0uy","sub07","07","1","motor","72","img/motor_5.png","72","motor","5","231","1","0","0","","",""
"null","582277","HierDyj766f0uy","sub07","07","1","iti","null","img/motor_5.png","72","motor","","","","","","","",""
"374","582659","HierDyj766f0uy","sub07","07","1","motor","74","img/motor_6.png","74","motor","6","232","1","0","0","","",""
"null","582768","HierDyj766f0uy","sub07","07","1","iti","null","img/motor_6.png","74","motor","","","","","","","",""
"325","583101","HierDyj766f0uy","sub07","07","1","motor","75","img/motor_8.png","76","motor","8","233","0","1","0","","",""
"310","583419","HierDyj766f0uy","sub07","07","1","motorRepeat","76","img/motor_8.png","76","motor","8","233","1","0","0","","",""
"null","583527","HierDyj766f0uy","sub07","07","1","iti","null","img/motor_8.png","76","motor","","","","","","","",""
"481","584017","HierDyj766f0uy","sub07","07","1","motor","74","img/motor_6.png","74","motor","6","234","1","0","0","","",""
"null","584125","HierDyj766f0uy","sub07","07","1","iti","null","img/motor_6.png","74","motor","","","","","","","",""
"1021","585154","HierDyj766f0uy","sub07","07","1","motor","83","img/motor_2.png","83","motor","2","235","1","0","0","","",""
"null","585262","HierDyj766f0uy","sub07","07","1","iti","null","img/motor_2.png","83","motor","","","","","","","",""
"677","585947","HierDyj766f0uy","sub07","07","1","motor","65","img/motor_1.png","65","motor","1","236","1","0","0","","",""
"null","586056","HierDyj766f0uy","sub07","07","1","iti","null","img/motor_1.png","65","motor","","","","","","","",""
"646","586710","HierDyj766f0uy","sub07","07","1","motor","65","img/motor_1.png","65","motor","1","237","1","0","0","","",""
"null","586819","HierDyj766f0uy","sub07","07","1","iti","null","img/motor_1.png","65","motor","","","","","","","",""
"657","587485","HierDyj766f0uy","sub07","07","1","motor","72","img/motor_5.png","72","motor","5","238","1","0","0","","",""
"null","587593","HierDyj766f0uy","sub07","07","1","iti","null","img/motor_5.png","72","motor","","","","","","","",""
"426","588030","HierDyj766f0uy","sub07","07","1","motor","76","img/motor_8.png","76","motor","8","239","1","0","0","","",""
"null","588142","HierDyj766f0uy","sub07","07","1","iti","null","img/motor_8.png","76","motor","","","","","","","",""
"565","588717","HierDyj766f0uy","sub07","07","1","motor","70","img/motor_4.png","70","motor","4","240","1","0","0","","",""
"null","588830","HierDyj766f0uy","sub07","07","1","iti","null","img/motor_4.png","70","motor","","","","","","","",""
"491","589331","HierDyj766f0uy","sub07","07","1","motor","83","img/motor_2.png","83","motor","2","241","1","0","0","","",""
"null","589443","HierDyj766f0uy","sub07","07","1","iti","null","img/motor_2.png","83","motor","","","","","","","",""
"815","590266","HierDyj766f0uy","sub07","07","1","motor","74","img/motor_6.png","74","motor","6","242","1","0","0","","",""
"null","590375","HierDyj766f0uy","sub07","07","1","iti","null","img/motor_6.png","74","motor","","","","","","","",""
"797","591183","HierDyj766f0uy","sub07","07","1","motor","70","img/motor_4.png","70","motor","4","243","1","0","0","","",""
"null","591296","HierDyj766f0uy","sub07","07","1","iti","null","img/motor_4.png","70","motor","","","","","","","",""
"408","591711","HierDyj766f0uy","sub07","07","1","motor","76","img/motor_8.png","76","motor","8","244","1","0","0","","",""
"null","591821","HierDyj766f0uy","sub07","07","1","iti","null","img/motor_8.png","76","motor","","","","","","","",""
"515","592345","HierDyj766f0uy","sub07","07","1","motor","76","img/motor_5.png","72","motor","5","245","0","1","0","","",""
"259","592612","HierDyj766f0uy","sub07","07","1","motorRepeat","72","img/motor_5.png","72","motor","5","245","1","0","0","","",""
"null","592720","HierDyj766f0uy","sub07","07","1","iti","null","img/motor_5.png","72","motor","","","","","","","",""
"444","593172","HierDyj766f0uy","sub07","07","1","motor","65","img/motor_1.png","65","motor","1","246","1","0","0","","",""
"null","593279","HierDyj766f0uy","sub07","07","1","iti","null","img/motor_1.png","65","motor","","","","","","","",""
"600","593885","HierDyj766f0uy","sub07","07","1","motor","68","img/motor_3.png","68","motor","3","247","1","0","0","","",""
"null","593991","HierDyj766f0uy","sub07","07","1","iti","null","img/motor_3.png","68","motor","","","","","","","",""
"455","594452","HierDyj766f0uy","sub07","07","1","motor","65","img/motor_1.png","65","motor","1","248","1","0","0","","",""
"null","594560","HierDyj766f0uy","sub07","07","1","iti","null","img/motor_1.png","65","motor","","","","","","","",""
"769","595335","HierDyj766f0uy","sub07","07","1","motor","70","img/motor_4.png","70","motor","4","249","1","0","0","","",""
"null","595442","HierDyj766f0uy","sub07","07","1","iti","null","img/motor_4.png","70","motor","","","","","","","",""
"378","595826","HierDyj766f0uy","sub07","07","1","motor","70","img/motor_4.png","70","motor","4","250","1","0","0","","",""
"null","595933","HierDyj766f0uy","sub07","07","1","iti","null","img/motor_4.png","70","motor","","","","","","","",""
"439","596379","HierDyj766f0uy","sub07","07","1","motor","70","img/motor_3.png","68","motor","3","251","0","1","0","","",""
"598","596982","HierDyj766f0uy","sub07","07","1","motorRepeat","83","img/motor_3.png","68","motor","3","251","0","1","0","","",""
"405","597394","HierDyj766f0uy","sub07","07","1","motorRepeat","68","img/motor_3.png","68","motor","3","251","1","0","0","","",""
"null","597502","HierDyj766f0uy","sub07","07","1","iti","null","img/motor_3.png","68","motor","","","","","","","",""
"988","598499","HierDyj766f0uy","sub07","07","1","motor","74","img/motor_7.png","75","motor","7","252","0","1","0","","",""
"283","598790","HierDyj766f0uy","sub07","07","1","motorRepeat","75","img/motor_7.png","75","motor","7","252","1","0","0","","",""
"null","598898","HierDyj766f0uy","sub07","07","1","iti","null","img/motor_7.png","75","motor","","","","","","","",""
"963","599870","HierDyj766f0uy","sub07","07","1","motor","83","img/motor_2.png","83","motor","2","253","1","0","0","","",""
"null","599978","HierDyj766f0uy","sub07","07","1","iti","null","img/motor_2.png","83","motor","","","","","","","",""
"928","600916","HierDyj766f0uy","sub07","07","1","motor","72","img/motor_5.png","72","motor","5","254","1","0","0","","",""
"null","601026","HierDyj766f0uy","sub07","07","1","iti","null","img/motor_5.png","72","motor","","","","","","","",""
"445","601480","HierDyj766f0uy","sub07","07","1","motor","70","img/motor_4.png","70","motor","4","255","1","0","0","","",""
"null","601592","HierDyj766f0uy","sub07","07","1","iti","null","img/motor_4.png","70","motor","","","","","","","",""
"516","602119","HierDyj766f0uy","sub07","07","1","motor","76","img/motor_8.png","76","motor","8","256","1","0","0","","",""
"null","602232","HierDyj766f0uy","sub07","07","1","iti","null","img/motor_8.png","76","motor","","","","","","","",""
"503","602746","HierDyj766f0uy","sub07","07","1","motor","83","img/motor_2.png","83","motor","2","257","1","0","0","","",""
"null","602856","HierDyj766f0uy","sub07","07","1","iti","null","img/motor_2.png","83","motor","","","","","","","",""
"582","603449","HierDyj766f0uy","sub07","07","1","motor","75","img/motor_7.png","75","motor","7","258","1","0","0","","",""
"null","603560","HierDyj766f0uy","sub07","07","1","iti","null","img/motor_7.png","75","motor","","","","","","","",""
"667","604238","HierDyj766f0uy","sub07","07","1","motor","70","img/motor_4.png","70","motor","4","259","1","0","0","","",""
"null","604350","HierDyj766f0uy","sub07","07","1","iti","null","img/motor_4.png","70","motor","","","","","","","",""
"448","604807","HierDyj766f0uy","sub07","07","1","motor","76","img/motor_8.png","76","motor","8","260","1","0","0","","",""
"null","604920","HierDyj766f0uy","sub07","07","1","iti","null","img/motor_8.png","76","motor","","","","","","","",""
"630","605559","HierDyj766f0uy","sub07","07","1","motor","68","img/motor_3.png","68","motor","3","261","1","0","0","","",""
"null","605667","HierDyj766f0uy","sub07","07","1","iti","null","img/motor_3.png","68","motor","","","","","","","",""
"599","606276","HierDyj766f0uy","sub07","07","1","motor","74","img/motor_5.png","72","motor","5","262","0","1","0","","",""
"249","606531","HierDyj766f0uy","sub07","07","1","motorRepeat","72","img/motor_5.png","72","motor","5","262","1","0","0","","",""
"null","606639","HierDyj766f0uy","sub07","07","1","iti","null","img/motor_5.png","72","motor","","","","","","","",""
"573","607220","HierDyj766f0uy","sub07","07","1","motor","76","img/motor_8.png","76","motor","8","263","1","0","0","","",""
"null","607329","HierDyj766f0uy","sub07","07","1","iti","null","img/motor_8.png","76","motor","","","","","","","",""
"460","607796","HierDyj766f0uy","sub07","07","1","motor","76","img/motor_8.png","76","motor","8","264","1","0","0","","",""
"null","607904","HierDyj766f0uy","sub07","07","1","iti","null","img/motor_8.png","76","motor","","","","","","","",""
"584","608495","HierDyj766f0uy","sub07","07","1","motor","74","img/motor_7.png","75","motor","7","265","0","1","0","","",""
"326","608828","HierDyj766f0uy","sub07","07","1","motorRepeat","75","img/motor_7.png","75","motor","7","265","1","0","0","","",""
"null","608937","HierDyj766f0uy","sub07","07","1","iti","null","img/motor_7.png","75","motor","","","","","","","",""
"696","609638","HierDyj766f0uy","sub07","07","1","motor","65","img/motor_1.png","65","motor","1","266","1","0","0","","",""
"null","609745","HierDyj766f0uy","sub07","07","1","iti","null","img/motor_1.png","65","motor","","","","","","","",""
"692","610442","HierDyj766f0uy","sub07","07","1","motor","75","img/motor_7.png","75","motor","7","267","1","0","0","","",""
"null","610548","HierDyj766f0uy","sub07","07","1","iti","null","img/motor_7.png","75","motor","","","","","","","",""
"440","610996","HierDyj766f0uy","sub07","07","1","motor","76","img/motor_8.png","76","motor","8","268","1","0","0","","",""
"null","611104","HierDyj766f0uy","sub07","07","1","iti","null","img/motor_8.png","76","motor","","","","","","","",""
"565","611677","HierDyj766f0uy","sub07","07","1","motor","83","img/motor_2.png","83","motor","2","269","1","0","0","","",""
"null","611786","HierDyj766f0uy","sub07","07","1","iti","null","img/motor_2.png","83","motor","","","","","","","",""
"443","612241","HierDyj766f0uy","sub07","07","1","motor","83","img/motor_2.png","83","motor","2","270","1","0","0","","",""
"null","612353","HierDyj766f0uy","sub07","07","1","iti","null","img/motor_2.png","83","motor","","","","","","","",""
"547","612908","HierDyj766f0uy","sub07","07","1","motor","72","img/motor_5.png","72","motor","5","271","1","0","0","","",""
"null","613019","HierDyj766f0uy","sub07","07","1","iti","null","img/motor_5.png","72","motor","","","","","","","",""
"544","613572","HierDyj766f0uy","sub07","07","1","motor","68","img/motor_3.png","68","motor","3","272","1","0","0","","",""
"null","613682","HierDyj766f0uy","sub07","07","1","iti","null","img/motor_3.png","68","motor","","","","","","","",""
"866","614556","HierDyj766f0uy","sub07","07","1","motor","72","img/motor_5.png","72","motor","5","273","1","0","0","","",""
"null","614665","HierDyj766f0uy","sub07","07","1","iti","null","img/motor_5.png","72","motor","","","","","","","",""
"611","615286","HierDyj766f0uy","sub07","07","1","motor","83","img/motor_2.png","83","motor","2","274","1","0","0","","",""
"null","615398","HierDyj766f0uy","sub07","07","1","iti","null","img/motor_2.png","83","motor","","","","","","","",""
"504","615912","HierDyj766f0uy","sub07","07","1","motor","75","img/motor_7.png","75","motor","7","275","1","0","0","","",""
"null","616021","HierDyj766f0uy","sub07","07","1","iti","null","img/motor_7.png","75","motor","","","","","","","",""
"410","616444","HierDyj766f0uy","sub07","07","1","motor","75","img/motor_7.png","75","motor","7","276","1","0","0","","",""
"null","616555","HierDyj766f0uy","sub07","07","1","iti","null","img/motor_7.png","75","motor","","","","","","","",""
"504","617068","HierDyj766f0uy","sub07","07","1","motor","72","img/motor_5.png","72","motor","5","277","1","0","0","","",""
"null","617177","HierDyj766f0uy","sub07","07","1","iti","null","img/motor_5.png","72","motor","","","","","","","",""
"1242","618425","HierDyj766f0uy","sub07","07","1","motor","70","img/motor_3.png","68","motor","3","278","0","1","0","","",""
"418","618853","HierDyj766f0uy","sub07","07","1","motorRepeat","68","img/motor_3.png","68","motor","3","278","1","0","0","","",""
"null","618961","HierDyj766f0uy","sub07","07","1","iti","null","img/motor_3.png","68","motor","","","","","","","",""
"525","619495","HierDyj766f0uy","sub07","07","1","motor","72","img/motor_8.png","76","motor","8","279","0","1","0","","",""
"198","619702","HierDyj766f0uy","sub07","07","1","motorRepeat","76","img/motor_8.png","76","motor","8","279","1","0","0","","",""
"null","619809","HierDyj766f0uy","sub07","07","1","iti","null","img/motor_8.png","76","motor","","","","","","","",""
"666","620484","HierDyj766f0uy","sub07","07","1","motor","75","img/motor_7.png","75","motor","7","280","1","0","0","","",""
"null","620593","HierDyj766f0uy","sub07","07","1","iti","null","img/motor_7.png","75","motor","","","","","","","",""
"484","621085","HierDyj766f0uy","sub07","07","1","motor","74","img/motor_6.png","74","motor","6","281","1","0","0","","",""
"null","621194","HierDyj766f0uy","sub07","07","1","iti","null","img/motor_6.png","74","motor","","","","","","","",""
"451","621653","HierDyj766f0uy","sub07","07","1","motor","76","img/motor_8.png","76","motor","8","282","1","0","0","","",""
"null","621762","HierDyj766f0uy","sub07","07","1","iti","null","img/motor_8.png","76","motor","","","","","","","",""
"462","622229","HierDyj766f0uy","sub07","07","1","motor","72","img/motor_4.png","70","motor","4","283","0","1","0","","",""
"346","622581","HierDyj766f0uy","sub07","07","1","motorRepeat","70","img/motor_4.png","70","motor","4","283","1","0","0","","",""
"null","622689","HierDyj766f0uy","sub07","07","1","iti","null","img/motor_4.png","70","motor","","","","","","","",""
"515","623209","HierDyj766f0uy","sub07","07","1","motor","70","img/motor_4.png","70","motor","4","284","1","0","0","","",""
"null","623316","HierDyj766f0uy","sub07","07","1","iti","null","img/motor_4.png","70","motor","","","","","","","",""
"715","624038","HierDyj766f0uy","sub07","07","1","motor","74","img/motor_6.png","74","motor","6","285","1","0","0","","",""
"null","624147","HierDyj766f0uy","sub07","07","1","iti","null","img/motor_6.png","74","motor","","","","","","","",""
"751","624905","HierDyj766f0uy","sub07","07","1","motor","68","img/motor_3.png","68","motor","3","286","1","0","0","","",""
"null","625012","HierDyj766f0uy","sub07","07","1","iti","null","img/motor_3.png","68","motor","","","","","","","",""
"710","625730","HierDyj766f0uy","sub07","07","1","motor","65","img/motor_1.png","65","motor","1","287","1","0","0","","",""
"null","625838","HierDyj766f0uy","sub07","07","1","iti","null","img/motor_1.png","65","motor","","","","","","","",""
"863","626708","HierDyj766f0uy","sub07","07","1","motor","68","img/motor_2.png","83","motor","2","288","0","1","0","","",""
"381","627095","HierDyj766f0uy","sub07","07","1","motorRepeat","83","img/motor_2.png","83","motor","2","288","1","0","0","","",""
"null","627202","HierDyj766f0uy","sub07","07","1","iti","null","img/motor_2.png","83","motor","","","","","","","",""
"1530","628737","HierDyj766f0uy","sub07","07","1","motor","70","img/motor_4.png","70","motor","4","289","1","0","0","","",""
"null","628846","HierDyj766f0uy","sub07","07","1","iti","null","img/motor_4.png","70","motor","","","","","","","",""
"376","629232","HierDyj766f0uy","sub07","07","1","motor","70","img/motor_2.png","83","motor","2","290","0","1","0","","",""
"406","629647","HierDyj766f0uy","sub07","07","1","motorRepeat","83","img/motor_2.png","83","motor","2","290","1","0","0","","",""
"null","629757","HierDyj766f0uy","sub07","07","1","iti","null","img/motor_2.png","83","motor","","","","","","","",""
"786","630552","HierDyj766f0uy","sub07","07","1","motor","68","img/motor_3.png","68","motor","3","291","1","0","0","","",""
"null","630665","HierDyj766f0uy","sub07","07","1","iti","null","img/motor_3.png","68","motor","","","","","","","",""
"480","631153","HierDyj766f0uy","sub07","07","1","motor","83","img/motor_2.png","83","motor","2","292","1","0","0","","",""
"null","631262","HierDyj766f0uy","sub07","07","1","iti","null","img/motor_2.png","83","motor","","","","","","","",""
"597","631869","HierDyj766f0uy","sub07","07","1","motor","76","img/motor_8.png","76","motor","8","293","1","0","0","","",""
"null","631981","HierDyj766f0uy","sub07","07","1","iti","null","img/motor_8.png","76","motor","","","","","","","",""
"1444","633434","HierDyj766f0uy","sub07","07","1","motor","74","img/motor_6.png","74","motor","6","294","1","0","0","","",""
"null","633543","HierDyj766f0uy","sub07","07","1","iti","null","img/motor_6.png","74","motor","","","","","","","",""
"811","634365","HierDyj766f0uy","sub07","07","1","motor","72","img/motor_5.png","72","motor","5","295","1","0","0","","",""
"null","634476","HierDyj766f0uy","sub07","07","1","iti","null","img/motor_5.png","72","motor","","","","","","","",""
"564","635051","HierDyj766f0uy","sub07","07","1","motor","65","img/motor_1.png","65","motor","1","296","1","0","0","","",""
"null","635163","HierDyj766f0uy","sub07","07","1","iti","null","img/motor_1.png","65","motor","","","","","","","",""
"993","636167","HierDyj766f0uy","sub07","07","1","motor","68","img/motor_3.png","68","motor","3","297","1","0","0","","",""
"null","636276","HierDyj766f0uy","sub07","07","1","iti","null","img/motor_3.png","68","motor","","","","","","","",""
"533","636819","HierDyj766f0uy","sub07","07","1","motor","74","img/motor_6.png","74","motor","6","298","1","0","0","","",""
"null","636931","HierDyj766f0uy","sub07","07","1","iti","null","img/motor_6.png","74","motor","","","","","","","",""
"440","637383","HierDyj766f0uy","sub07","07","1","motor","68","img/motor_3.png","68","motor","3","299","1","0","0","","",""
"null","637495","HierDyj766f0uy","sub07","07","1","iti","null","img/motor_3.png","68","motor","","","","","","","",""
"621","638126","HierDyj766f0uy","sub07","07","1","motor","83","img/motor_2.png","83","motor","2","300","1","0","0","","",""
"null","638238","HierDyj766f0uy","sub07","07","1","iti","null","img/motor_2.png","83","motor","","","","","","","",""
"493","638739","HierDyj766f0uy","sub07","07","1","motor","72","img/motor_4.png","70","motor","4","301","0","1","0","","",""
"274","639023","HierDyj766f0uy","sub07","07","1","motorRepeat","70","img/motor_4.png","70","motor","4","301","1","0","0","","",""
"null","639135","HierDyj766f0uy","sub07","07","1","iti","null","img/motor_4.png","70","motor","","","","","","","",""
"588","639733","HierDyj766f0uy","sub07","07","1","motor","83","img/motor_2.png","83","motor","2","302","1","0","0","","",""
"null","639841","HierDyj766f0uy","sub07","07","1","iti","null","img/motor_2.png","83","motor","","","","","","","",""
"513","640362","HierDyj766f0uy","sub07","07","1","motor","83","img/motor_2.png","83","motor","2","303","1","0","0","","",""
"null","640471","HierDyj766f0uy","sub07","07","1","iti","null","img/motor_2.png","83","motor","","","","","","","",""
"468","640947","HierDyj766f0uy","sub07","07","1","motor","75","img/motor_7.png","75","motor","7","304","1","0","0","","",""
"null","641056","HierDyj766f0uy","sub07","07","1","iti","null","img/motor_7.png","75","motor","","","","","","","",""
"512","641575","HierDyj766f0uy","sub07","07","1","motor","72","img/motor_5.png","72","motor","5","305","1","0","0","","",""
"null","641684","HierDyj766f0uy","sub07","07","1","iti","null","img/motor_5.png","72","motor","","","","","","","",""
"442","642134","HierDyj766f0uy","sub07","07","1","motor","83","img/motor_1.png","65","motor","1","306","0","1","0","","",""
"53","642194","HierDyj766f0uy","sub07","07","1","motorRepeat","65","img/motor_1.png","65","motor","1","306","1","0","0","","",""
"null","642303","HierDyj766f0uy","sub07","07","1","iti","null","img/motor_1.png","65","motor","","","","","","","",""
"425","642735","HierDyj766f0uy","sub07","07","1","motor","75","img/motor_5.png","72","motor","5","307","0","1","0","","",""
"369","643113","HierDyj766f0uy","sub07","07","1","motorRepeat","72","img/motor_5.png","72","motor","5","307","1","0","0","","",""
"null","643222","HierDyj766f0uy","sub07","07","1","iti","null","img/motor_5.png","72","motor","","","","","","","",""
"632","643861","HierDyj766f0uy","sub07","07","1","motor","68","img/motor_2.png","83","motor","2","308","0","1","0","","",""
"548","644418","HierDyj766f0uy","sub07","07","1","motorRepeat","72","img/motor_2.png","83","motor","2","308","0","1","0","","",""
"398","644825","HierDyj766f0uy","sub07","07","1","motorRepeat","70","img/motor_2.png","83","motor","2","308","0","1","0","","",""
"338","645171","HierDyj766f0uy","sub07","07","1","motorRepeat","83","img/motor_2.png","83","motor","2","308","1","0","0","","",""
"null","645279","HierDyj766f0uy","sub07","07","1","iti","null","img/motor_2.png","83","motor","","","","","","","",""
"461","645748","HierDyj766f0uy","sub07","07","1","motor","83","img/motor_2.png","83","motor","2","309","1","0","0","","",""
"null","645856","HierDyj766f0uy","sub07","07","1","iti","null","img/motor_2.png","83","motor","","","","","","","",""
"736","646601","HierDyj766f0uy","sub07","07","1","motor","70","img/motor_4.png","70","motor","4","310","1","0","0","","",""
"null","646710","HierDyj766f0uy","sub07","07","1","iti","null","img/motor_4.png","70","motor","","","","","","","",""
"706","647425","HierDyj766f0uy","sub07","07","1","motor","68","img/motor_3.png","68","motor","3","311","1","0","0","","",""
"null","647534","HierDyj766f0uy","sub07","07","1","iti","null","img/motor_3.png","68","motor","","","","","","","",""
"992","648536","HierDyj766f0uy","sub07","07","1","motor","65","img/motor_1.png","65","motor","1","312","1","0","0","","",""
"null","648647","HierDyj766f0uy","sub07","07","1","iti","null","img/motor_1.png","65","motor","","","","","","","",""
"453","649105","HierDyj766f0uy","sub07","07","1","motor","75","img/motor_7.png","75","motor","7","313","1","0","0","","",""
"null","649213","HierDyj766f0uy","sub07","07","1","iti","null","img/motor_7.png","75","motor","","","","","","","",""
"593","649813","HierDyj766f0uy","sub07","07","1","motor","72","img/motor_5.png","72","motor","5","314","1","0","0","","",""
"null","649919","HierDyj766f0uy","sub07","07","1","iti","null","img/motor_5.png","72","motor","","","","","","","",""
"360","650285","HierDyj766f0uy","sub07","07","1","motor","72","img/motor_5.png","72","motor","5","315","1","0","0","","",""
"null","650391","HierDyj766f0uy","sub07","07","1","iti","null","img/motor_5.png","72","motor","","","","","","","",""
"1209","651609","HierDyj766f0uy","sub07","07","1","motor","75","img/motor_7.png","75","motor","7","316","1","0","0","","",""
"null","651720","HierDyj766f0uy","sub07","07","1","iti","null","img/motor_7.png","75","motor","","","","","","","",""
"614","652344","HierDyj766f0uy","sub07","07","1","motor","65","img/motor_1.png","65","motor","1","317","1","0","0","","",""
"null","652451","HierDyj766f0uy","sub07","07","1","iti","null","img/motor_1.png","65","motor","","","","","","","",""
"648","653106","HierDyj766f0uy","sub07","07","1","motor","70","img/motor_4.png","70","motor","4","318","1","0","0","","",""
"null","653217","HierDyj766f0uy","sub07","07","1","iti","null","img/motor_4.png","70","motor","","","","","","","",""
"455","653678","HierDyj766f0uy","sub07","07","1","motor","65","img/motor_1.png","65","motor","1","319","1","0","0","","",""
"null","653788","HierDyj766f0uy","sub07","07","1","iti","null","img/motor_1.png","65","motor","","","","","","","",""
"493","654290","HierDyj766f0uy","sub07","07","1","motor","76","img/motor_8.png","76","motor","8","320","1","0","0","","",""
"null","654399","HierDyj766f0uy","sub07","07","1","iti","null","img/motor_8.png","76","motor","","","","","","","",""
"463","654871","HierDyj766f0uy","sub07","07","1","motor","70","img/motor_4.png","70","motor","4","321","1","0","0","","",""
"null","654981","HierDyj766f0uy","sub07","07","1","iti","null","img/motor_4.png","70","motor","","","","","","","",""
"694","655683","HierDyj766f0uy","sub07","07","1","motor","74","img/motor_6.png","74","motor","6","322","1","0","0","","",""
"null","655792","HierDyj766f0uy","sub07","07","1","iti","null","img/motor_6.png","74","motor","","","","","","","",""
"430","656230","HierDyj766f0uy","sub07","07","1","motor","70","img/motor_4.png","70","motor","4","323","1","0","0","","",""
"null","656339","HierDyj766f0uy","sub07","07","1","iti","null","img/motor_4.png","70","motor","","","","","","","",""
"347","656693","HierDyj766f0uy","sub07","07","1","motor","74","img/motor_7.png","75","motor","7","324","0","1","0","","",""
"262","656964","HierDyj766f0uy","sub07","07","1","motorRepeat","75","img/motor_7.png","75","motor","7","324","1","0","0","","",""
"null","657072","HierDyj766f0uy","sub07","07","1","iti","null","img/motor_7.png","75","motor","","","","","","","",""
"517","657596","HierDyj766f0uy","sub07","07","1","motor","70","img/motor_2.png","83","motor","2","325","0","1","0","","",""
"361","657964","HierDyj766f0uy","sub07","07","1","motorRepeat","83","img/motor_2.png","83","motor","2","325","1","0","0","","",""
"null","658072","HierDyj766f0uy","sub07","07","1","iti","null","img/motor_2.png","83","motor","","","","","","","",""
"608","658685","HierDyj766f0uy","sub07","07","1","motor","76","img/motor_8.png","76","motor","8","326","1","0","0","","",""
"null","658793","HierDyj766f0uy","sub07","07","1","iti","null","img/motor_8.png","76","motor","","","","","","","",""
"451","659249","HierDyj766f0uy","sub07","07","1","motor","65","img/motor_1.png","65","motor","1","327","1","0","0","","",""
"18","659355","HierDyj766f0uy","sub07","07","1","iti","83","img/motor_1.png","65","motor","","","","","","","",""
"640","660001","HierDyj766f0uy","sub07","07","1","motor","65","img/motor_5.png","72","motor","5","328","0","1","0","","",""
"384","660391","HierDyj766f0uy","sub07","07","1","motorRepeat","72","img/motor_5.png","72","motor","5","328","1","0","0","","",""
"null","660500","HierDyj766f0uy","sub07","07","1","iti","null","img/motor_5.png","72","motor","","","","","","","",""
"591","661101","HierDyj766f0uy","sub07","07","1","motor","76","img/motor_8.png","76","motor","8","329","1","0","0","","",""
"null","661208","HierDyj766f0uy","sub07","07","1","iti","null","img/motor_8.png","76","motor","","","","","","","",""
"594","661809","HierDyj766f0uy","sub07","07","1","motor","76","img/motor_8.png","76","motor","8","330","1","0","0","","",""
"null","661918","HierDyj766f0uy","sub07","07","1","iti","null","img/motor_8.png","76","motor","","","","","","","",""
"456","662380","HierDyj766f0uy","sub07","07","1","motor","65","img/motor_1.png","65","motor","1","331","1","0","0","","",""
"null","662492","HierDyj766f0uy","sub07","07","1","iti","null","img/motor_1.png","65","motor","","","","","","","",""
"654","663153","HierDyj766f0uy","sub07","07","1","motor","70","img/motor_4.png","70","motor","4","332","1","0","0","","",""
"null","663264","HierDyj766f0uy","sub07","07","1","iti","null","img/motor_4.png","70","motor","","","","","","","",""
"473","663746","HierDyj766f0uy","sub07","07","1","motor","72","img/motor_5.png","72","motor","5","333","1","0","0","","",""
"null","663859","HierDyj766f0uy","sub07","07","1","iti","null","img/motor_5.png","72","motor","","","","","","","",""
"287","664156","HierDyj766f0uy","sub07","07","1","motor","72","img/motor_5.png","72","motor","5","334","1","0","0","","",""
"null","664268","HierDyj766f0uy","sub07","07","1","iti","null","img/motor_5.png","72","motor","","","","","","","",""
"389","664668","HierDyj766f0uy","sub07","07","1","motor","65","img/motor_1.png","65","motor","1","335","1","0","0","","",""
"null","664777","HierDyj766f0uy","sub07","07","1","iti","null","img/motor_1.png","65","motor","","","","","","","",""
"427","665217","HierDyj766f0uy","sub07","07","1","motor","72","img/motor_3.png","68","motor","3","336","0","1","0","","",""
"279","665506","HierDyj766f0uy","sub07","07","1","motorRepeat","83","img/motor_3.png","68","motor","3","336","0","1","0","","",""
"367","665883","HierDyj766f0uy","sub07","07","1","motorRepeat","68","img/motor_3.png","68","motor","3","336","1","0","0","","",""
"null","665996","HierDyj766f0uy","sub07","07","1","iti","null","img/motor_3.png","68","motor","","","","","","","",""
"454","666461","HierDyj766f0uy","sub07","07","1","motor","65","img/motor_1.png","65","motor","1","337","1","0","0","","",""
"null","666573","HierDyj766f0uy","sub07","07","1","iti","null","img/motor_1.png","65","motor","","","","","","","",""
"575","667159","HierDyj766f0uy","sub07","07","1","motor","72","img/motor_8.png","76","motor","8","338","0","1","0","","",""
"342","667510","HierDyj766f0uy","sub07","07","1","motorRepeat","76","img/motor_8.png","76","motor","8","338","1","0","0","","",""
"null","667622","HierDyj766f0uy","sub07","07","1","iti","null","img/motor_8.png","76","motor","","","","","","","",""
"495","668127","HierDyj766f0uy","sub07","07","1","motor","70","img/motor_3.png","68","motor","3","339","0","1","0","","",""
"552","668689","HierDyj766f0uy","sub07","07","1","motorRepeat","68","img/motor_3.png","68","motor","3","339","1","0","0","","",""
"null","668798","HierDyj766f0uy","sub07","07","1","iti","null","img/motor_3.png","68","motor","","","","","","","",""
"624","669431","HierDyj766f0uy","sub07","07","1","motor","76","img/motor_7.png","75","motor","7","340","0","1","0","","",""
"271","669713","HierDyj766f0uy","sub07","07","1","motorRepeat","74","img/motor_7.png","75","motor","7","340","0","1","0","","",""
"1229","670950","HierDyj766f0uy","sub07","07","1","motorRepeat","75","img/motor_7.png","75","motor","7","340","1","0","0","","",""
"null","671059","HierDyj766f0uy","sub07","07","1","iti","null","img/motor_7.png","75","motor","","","","","","","",""
"627","671694","HierDyj766f0uy","sub07","07","1","motor","76","img/motor_8.png","76","motor","8","341","1","0","0","","",""
"null","671802","HierDyj766f0uy","sub07","07","1","iti","null","img/motor_8.png","76","motor","","","","","","","",""
"481","672292","HierDyj766f0uy","sub07","07","1","motor","70","img/motor_5.png","72","motor","5","342","0","1","0","","",""
"368","672668","HierDyj766f0uy","sub07","07","1","motorRepeat","72","img/motor_5.png","72","motor","5","342","1","0","0","","",""
"null","672775","HierDyj766f0uy","sub07","07","1","iti","null","img/motor_5.png","72","motor","","","","","","","",""
"1451","674235","HierDyj766f0uy","sub07","07","1","motor","72","img/motor_6.png","74","motor","6","343","0","1","0","","",""
"265","674509","HierDyj766f0uy","sub07","07","1","motorRepeat","74","img/motor_6.png","74","motor","6","343","1","0","0","","",""
"null","674621","HierDyj766f0uy","sub07","07","1","iti","null","img/motor_6.png","74","motor","","","","","","","",""
"906","675535","HierDyj766f0uy","sub07","07","1","motor","83","img/motor_1.png","65","motor","1","344","0","1","0","","",""
"338","675885","HierDyj766f0uy","sub07","07","1","motorRepeat","65","img/motor_1.png","65","motor","1","344","1","0","0","","",""
"null","675997","HierDyj766f0uy","sub07","07","1","iti","null","img/motor_1.png","65","motor","","","","","","","",""
"572","676581","HierDyj766f0uy","sub07","07","1","motor","70","img/motor_4.png","70","motor","4","345","1","0","0","","",""
"null","676693","HierDyj766f0uy","sub07","07","1","iti","null","img/motor_4.png","70","motor","","","","","","","",""
"489","677195","HierDyj766f0uy","sub07","07","1","motor","83","img/motor_3.png","68","motor","3","346","0","1","0","","",""
"298","677502","HierDyj766f0uy","sub07","07","1","motorRepeat","68","img/motor_3.png","68","motor","3","346","1","0","0","","",""
"null","677615","HierDyj766f0uy","sub07","07","1","iti","null","img/motor_3.png","68","motor","","","","","","","",""
"638","678265","HierDyj766f0uy","sub07","07","1","motor","70","img/motor_4.png","70","motor","4","347","1","0","0","","",""
"null","678377","HierDyj766f0uy","sub07","07","1","iti","null","img/motor_4.png","70","motor","","","","","","","",""
"645","679030","HierDyj766f0uy","sub07","07","1","motor","75","img/motor_7.png","75","motor","7","348","1","0","0","","",""
"null","679143","HierDyj766f0uy","sub07","07","1","iti","null","img/motor_7.png","75","motor","","","","","","","",""
"477","679631","HierDyj766f0uy","sub07","07","1","motor","70","img/motor_4.png","70","motor","4","349","1","0","0","","",""
"null","679743","HierDyj766f0uy","sub07","07","1","iti","null","img/motor_4.png","70","motor","","","","","","","",""
"364","680119","HierDyj766f0uy","sub07","07","1","motor","75","img/motor_8.png","76","motor","8","350","0","1","0","","",""
"273","680404","HierDyj766f0uy","sub07","07","1","motorRepeat","76","img/motor_8.png","76","motor","8","350","1","0","0","","",""
"null","680517","HierDyj766f0uy","sub07","07","1","iti","null","img/motor_8.png","76","motor","","","","","","","",""
"659","681184","HierDyj766f0uy","sub07","07","1","motor","72","img/motor_5.png","72","motor","5","351","1","0","0","","",""
"null","681292","HierDyj766f0uy","sub07","07","1","iti","null","img/motor_5.png","72","motor","","","","","","","",""
"490","681789","HierDyj766f0uy","sub07","07","1","motor","75","img/motor_7.png","75","motor","7","352","1","0","0","","",""
"null","681896","HierDyj766f0uy","sub07","07","1","iti","null","img/motor_7.png","75","motor","","","","","","","",""
"348","682251","HierDyj766f0uy","sub07","07","1","motor","75","img/motor_7.png","75","motor","7","353","1","0","0","","",""
"null","682359","HierDyj766f0uy","sub07","07","1","iti","null","img/motor_7.png","75","motor","","","","","","","",""
"372","682737","HierDyj766f0uy","sub07","07","1","motor","68","img/motor_3.png","68","motor","3","354","1","0","0","","",""
"null","682847","HierDyj766f0uy","sub07","07","1","iti","null","img/motor_3.png","68","motor","","","","","","","",""
"588","683444","HierDyj766f0uy","sub07","07","1","motor","68","img/motor_4.png","70","motor","4","355","0","1","0","","",""
"417","683869","HierDyj766f0uy","sub07","07","1","motorRepeat","70","img/motor_4.png","70","motor","4","355","1","0","0","","",""
"null","683980","HierDyj766f0uy","sub07","07","1","iti","null","img/motor_4.png","70","motor","","","","","","","",""
"550","684538","HierDyj766f0uy","sub07","07","1","motor","72","img/motor_5.png","72","motor","5","356","1","0","0","","",""
"null","684647","HierDyj766f0uy","sub07","07","1","iti","null","img/motor_5.png","72","motor","","","","","","","",""
"595","685252","HierDyj766f0uy","sub07","07","1","motor","65","img/motor_1.png","65","motor","1","357","1","0","0","","",""
"null","685359","HierDyj766f0uy","sub07","07","1","iti","null","img/motor_1.png","65","motor","","","","","","","",""
"1323","686691","HierDyj766f0uy","sub07","07","1","motor","72","img/motor_6.png","74","motor","6","358","0","1","0","","",""
"238","686939","HierDyj766f0uy","sub07","07","1","motorRepeat","74","img/motor_6.png","74","motor","6","358","1","0","0","","",""
"null","687052","HierDyj766f0uy","sub07","07","1","iti","null","img/motor_6.png","74","motor","","","","","","","",""
"631","687693","HierDyj766f0uy","sub07","07","1","motor","68","img/motor_3.png","68","motor","3","359","1","0","0","","",""
"null","687801","HierDyj766f0uy","sub07","07","1","iti","null","img/motor_3.png","68","motor","","","","","","","",""
