"rt","time_elapsed","subject","subID","group","day","trialType","phase","key_press","stim","stimNum","corrresp","hierarchy","trialNum","corr","responses"
"2726.5","2729","HierDyls1lv8qq","sub24","12","06","","","","","","","","","",""
"","4955","HierDyls1lv8qq","sub24","12","06","fullscreen","","","","","","","","",""
"1741.5","6698","HierDyls1lv8qq","sub24","12","06","","prac","","","","","","","",""
"1242.5999999996275","7945","HierDyls1lv8qq","sub24","12","06","","","32","","","","","","",""
"1052.9000000003725","8998","HierDyls1lv8qq","sub24","12","06","","prac","","","","","","","",""
"1214.300000000745","10215","HierDyls1lv8qq","sub24","12","06","rl","test","72","img/r_d_stripes.png","5","72","shape,color,pattern","1","1",""
"null","11227","HierDyls1lv8qq","sub24","12","06","feedback","test","null","","","na","","1","",""
"1403.0999999996275","12633","HierDyls1lv8qq","sub24","12","06","rl","test","76","img/b_d_check.png","8","76","shape,color,pattern","2","1",""
"null","13639","HierDyls1lv8qq","sub24","12","06","feedback","test","null","","","na","","2","",""
"901","14542","HierDyls1lv8qq","sub24","12","06","rl","test","65","img/r_t_stripes.png","1","65","shape,color,pattern","3","1",""
"null","15555","HierDyls1lv8qq","sub24","12","06","feedback","test","null","","","na","","3","",""
"1113.7999999988824","16670","HierDyls1lv8qq","sub24","12","06","rl","test","74","img/r_d_check.png","6","74","shape,color,pattern","4","1",""
"null","17683","HierDyls1lv8qq","sub24","12","06","feedback","test","null","","","na","","4","",""
"851.4000000003725","18536","HierDyls1lv8qq","sub24","12","06","rl","test","70","img/b_t_check.png","4","70","shape,color,pattern","5","1",""
"null","19543","HierDyls1lv8qq","sub24","12","06","feedback","test","null","","","na","","5","",""
"1180.4000000003725","20726","HierDyls1lv8qq","sub24","12","06","rl","test","83","img/r_t_check.png","2","83","shape,color,pattern","6","1",""
"null","21738","HierDyls1lv8qq","sub24","12","06","feedback","test","null","","","na","","6","",""
"1431.800000000745","23172","HierDyls1lv8qq","sub24","12","06","rl","test","75","img/b_d_stripes.png","7","75","shape,color,pattern","7","1",""
"null","24185","HierDyls1lv8qq","sub24","12","06","feedback","test","null","","","na","","7","",""
"1702.5","25889","HierDyls1lv8qq","sub24","12","06","rl","test","68","img/b_t_stripes.png","3","68","shape,color,pattern","8","1",""
"null","26896","HierDyls1lv8qq","sub24","12","06","feedback","test","null","","","na","","8","",""
"1938.4000000003725","28836","HierDyls1lv8qq","sub24","12","06","rl","test","83","img/r_t_check.png","2","83","shape,color,pattern","9","1",""
"null","29847","HierDyls1lv8qq","sub24","12","06","feedback","test","null","","","na","","9","",""
"592.6999999992549","30442","HierDyls1lv8qq","sub24","12","06","rl","test","65","img/r_t_stripes.png","1","65","shape,color,pattern","10","1",""
"null","31450","HierDyls1lv8qq","sub24","12","06","feedback","test","null","","","na","","10","",""
"1242.800000000745","32695","HierDyls1lv8qq","sub24","12","06","rl","test","68","img/b_t_stripes.png","3","68","shape,color,pattern","11","1",""
"null","33702","HierDyls1lv8qq","sub24","12","06","feedback","test","null","","","na","","11","",""
"1065.2000000011176","34770","HierDyls1lv8qq","sub24","12","06","rl","test","75","img/b_d_stripes.png","7","75","shape,color,pattern","12","1",""
"null","35778","HierDyls1lv8qq","sub24","12","06","feedback","test","null","","","na","","12","",""
"1018.1999999992549","36799","HierDyls1lv8qq","sub24","12","06","rl","test","76","img/b_d_check.png","8","76","shape,color,pattern","13","1",""
"null","37810","HierDyls1lv8qq","sub24","12","06","feedback","test","null","","","na","","13","",""
"1420","39233","HierDyls1lv8qq","sub24","12","06","rl","test","74","img/r_d_stripes.png","5","72","shape,color,pattern","14","0",""
"null","40241","HierDyls1lv8qq","sub24","12","06","feedback","test","null","","","na","","14","",""
"640.8000000007451","40884","HierDyls1lv8qq","sub24","12","06","rl","test","72","img/r_d_stripes.png","5","72","shape,color,pattern","15","1",""
"null","41897","HierDyls1lv8qq","sub24","12","06","feedback","test","null","","","na","","15","",""
"471.30000000074506","42369","HierDyls1lv8qq","sub24","12","06","rl","test","74","img/r_d_check.png","6","74","shape,color,pattern","16","1",""
"null","43376","HierDyls1lv8qq","sub24","12","06","feedback","test","null","","","na","","16","",""
"2038.699999999255","45417","HierDyls1lv8qq","sub24","12","06","rl","test","76","img/b_d_check.png","8","76","shape,color,pattern","17","1",""
"null","46426","HierDyls1lv8qq","sub24","12","06","feedback","test","null","","","na","","17","",""
"1193.5999999996275","47622","HierDyls1lv8qq","sub24","12","06","rl","test","83","img/r_t_check.png","2","83","shape,color,pattern","18","1",""
"null","48633","HierDyls1lv8qq","sub24","12","06","feedback","test","null","","","na","","18","",""
"1098.9000000003725","49734","HierDyls1lv8qq","sub24","12","06","rl","test","70","img/b_t_check.png","4","70","shape,color,pattern","19","1",""
"null","50745","HierDyls1lv8qq","sub24","12","06","feedback","test","null","","","na","","19","",""
"1499.699999999255","52247","HierDyls1lv8qq","sub24","12","06","rl","test","75","img/b_d_stripes.png","7","75","shape,color,pattern","20","1",""
"null","53254","HierDyls1lv8qq","sub24","12","06","feedback","test","null","","","na","","20","",""
"1377.7000000011176","54634","HierDyls1lv8qq","sub24","12","06","rl","test","70","img/b_t_check.png","4","70","shape,color,pattern","21","1",""
"null","55639","HierDyls1lv8qq","sub24","12","06","feedback","test","null","","","na","","21","",""
"1054.2999999988824","56695","HierDyls1lv8qq","sub24","12","06","rl","test","74","img/r_d_check.png","6","74","shape,color,pattern","22","1",""
"null","57703","HierDyls1lv8qq","sub24","12","06","feedback","test","null","","","na","","22","",""
"1879.2999999988824","59585","HierDyls1lv8qq","sub24","12","06","rl","test","83","img/r_t_check.png","2","83","shape,color,pattern","23","1",""
"null","60590","HierDyls1lv8qq","sub24","12","06","feedback","test","null","","","na","","23","",""
"458","61050","HierDyls1lv8qq","sub24","12","06","rl","test","65","img/r_t_stripes.png","1","65","shape,color,pattern","24","1",""
"null","62054","HierDyls1lv8qq","sub24","12","06","feedback","test","null","","","na","","24","",""
"927.0999999996275","62984","HierDyls1lv8qq","sub24","12","06","rl","test","68","img/b_t_stripes.png","3","68","shape,color,pattern","25","1",""
"null","63993","HierDyls1lv8qq","sub24","12","06","feedback","test","null","","","na","","25","",""
"638.2999999988824","64634","HierDyls1lv8qq","sub24","12","06","rl","test","68","img/b_t_stripes.png","3","68","shape,color,pattern","26","1",""
"null","65640","HierDyls1lv8qq","sub24","12","06","feedback","test","null","","","na","","26","",""
"1134.300000000745","66777","HierDyls1lv8qq","sub24","12","06","rl","test","75","img/b_d_stripes.png","7","75","shape,color,pattern","27","1",""
"null","67783","HierDyls1lv8qq","sub24","12","06","feedback","test","null","","","na","","27","",""
"908.5","68693","HierDyls1lv8qq","sub24","12","06","rl","test","76","img/b_d_check.png","8","76","shape,color,pattern","28","1",""
"null","69706","HierDyls1lv8qq","sub24","12","06","feedback","test","null","","","na","","28","",""
"843","70551","HierDyls1lv8qq","sub24","12","06","rl","test","65","img/r_t_stripes.png","1","65","shape,color,pattern","29","1",""
"null","71558","HierDyls1lv8qq","sub24","12","06","feedback","test","null","","","na","","29","",""
"999.8000000007451","72560","HierDyls1lv8qq","sub24","12","06","rl","test","72","img/r_d_stripes.png","5","72","shape,color,pattern","30","1",""
"null","73567","HierDyls1lv8qq","sub24","12","06","feedback","test","null","","","na","","30","",""
"832.4000000003725","74401","HierDyls1lv8qq","sub24","12","06","rl","test","70","img/b_t_check.png","4","70","shape,color,pattern","31","1",""
"null","75409","HierDyls1lv8qq","sub24","12","06","feedback","test","null","","","na","","31","",""
"1205.699999999255","76617","HierDyls1lv8qq","sub24","12","06","rl","test","74","img/r_d_check.png","6","74","shape,color,pattern","32","1",""
"null","77626","HierDyls1lv8qq","sub24","12","06","feedback","test","null","","","na","","32","",""
"1276.7999999988824","78904","HierDyls1lv8qq","sub24","12","06","rl","test","70","img/b_t_check.png","4","70","shape,color,pattern","33","1",""
"null","79911","HierDyls1lv8qq","sub24","12","06","feedback","test","null","","","na","","33","",""
"630.6999999992549","80544","HierDyls1lv8qq","sub24","12","06","rl","test","68","img/b_t_stripes.png","3","68","shape,color,pattern","34","1",""
"null","81553","HierDyls1lv8qq","sub24","12","06","feedback","test","null","","","na","","34","",""
"2285.0999999996275","83840","HierDyls1lv8qq","sub24","12","06","rl","test","83","img/r_t_check.png","2","83","shape,color,pattern","35","1",""
"null","84848","HierDyls1lv8qq","sub24","12","06","feedback","test","null","","","na","","35","",""
"656","85506","HierDyls1lv8qq","sub24","12","06","rl","test","65","img/r_t_stripes.png","1","65","shape,color,pattern","36","1",""
"null","86521","HierDyls1lv8qq","sub24","12","06","feedback","test","null","","","na","","36","",""
"1039.7000000011176","87563","HierDyls1lv8qq","sub24","12","06","rl","test","65","img/r_t_stripes.png","1","65","shape,color,pattern","37","1",""
"null","88577","HierDyls1lv8qq","sub24","12","06","feedback","test","null","","","na","","37","",""
"null","91089","HierDyls1lv8qq","sub24","12","06","rl","test","null","img/r_d_check.png","6","74","shape,color,pattern","38","0",""
"null","92096","HierDyls1lv8qq","sub24","12","06","feedback","test","null","","","na","","38","",""
"1214.4000000003725","93313","HierDyls1lv8qq","sub24","12","06","rl","test","76","img/b_d_check.png","8","76","shape,color,pattern","39","1",""
"null","94321","HierDyls1lv8qq","sub24","12","06","feedback","test","null","","","na","","39","",""
"654.4000000003725","94978","HierDyls1lv8qq","sub24","12","06","rl","test","75","img/b_d_stripes.png","7","75","shape,color,pattern","40","1",""
"null","95983","HierDyls1lv8qq","sub24","12","06","feedback","test","null","","","na","","40","",""
"658.0999999996275","96643","HierDyls1lv8qq","sub24","12","06","rl","test","74","img/r_d_check.png","6","74","shape,color,pattern","41","1",""
"null","97657","HierDyls1lv8qq","sub24","12","06","feedback","test","null","","","na","","41","",""
"790.5","98450","HierDyls1lv8qq","sub24","12","06","rl","test","75","img/b_d_stripes.png","7","75","shape,color,pattern","42","1",""
"null","99456","HierDyls1lv8qq","sub24","12","06","feedback","test","null","","","na","","42","",""
"815","100274","HierDyls1lv8qq","sub24","12","06","rl","test","68","img/b_t_stripes.png","3","68","shape,color,pattern","43","1",""
"null","101288","HierDyls1lv8qq","sub24","12","06","feedback","test","null","","","na","","43","",""
"777.9000000003725","102068","HierDyls1lv8qq","sub24","12","06","rl","test","72","img/r_d_stripes.png","5","72","shape,color,pattern","44","1",""
"null","103080","HierDyls1lv8qq","sub24","12","06","feedback","test","null","","","na","","44","",""
"967.1999999992549","104050","HierDyls1lv8qq","sub24","12","06","rl","test","76","img/b_d_check.png","8","76","shape,color,pattern","45","1",""
"null","105063","HierDyls1lv8qq","sub24","12","06","feedback","test","null","","","na","","45","",""
"892.4000000003725","105957","HierDyls1lv8qq","sub24","12","06","rl","test","70","img/b_t_check.png","4","70","shape,color,pattern","46","1",""
"null","106965","HierDyls1lv8qq","sub24","12","06","feedback","test","null","","","na","","46","",""
"551.7999999988824","107519","HierDyls1lv8qq","sub24","12","06","rl","test","68","img/b_t_stripes.png","3","68","shape,color,pattern","47","1",""
"null","108528","HierDyls1lv8qq","sub24","12","06","feedback","test","null","","","na","","47","",""
"831.5999999996275","109362","HierDyls1lv8qq","sub24","12","06","rl","test","72","img/r_d_stripes.png","5","72","shape,color,pattern","48","1",""
"null","110377","HierDyls1lv8qq","sub24","12","06","feedback","test","null","","","na","","48","",""
"935.7999999988824","111315","HierDyls1lv8qq","sub24","12","06","rl","test","70","img/b_t_check.png","4","70","shape,color,pattern","49","1",""
"null","112329","HierDyls1lv8qq","sub24","12","06","feedback","test","null","","","na","","49","",""
"1106","113437","HierDyls1lv8qq","sub24","12","06","rl","test","83","img/r_t_check.png","2","83","shape,color,pattern","50","1",""
"null","114446","HierDyls1lv8qq","sub24","12","06","feedback","test","null","","","na","","50","",""
"1253.699999999255","115702","HierDyls1lv8qq","sub24","12","06","rl","test","74","img/r_d_check.png","6","74","shape,color,pattern","51","1",""
"null","116708","HierDyls1lv8qq","sub24","12","06","feedback","test","null","","","na","","51","",""
"857.5","117568","HierDyls1lv8qq","sub24","12","06","rl","test","65","img/r_t_stripes.png","1","65","shape,color,pattern","52","1",""
"null","118572","HierDyls1lv8qq","sub24","12","06","feedback","test","null","","","na","","52","",""
"1797.5","120372","HierDyls1lv8qq","sub24","12","06","rl","test","76","img/b_d_check.png","8","76","shape,color,pattern","53","1",""
"null","121381","HierDyls1lv8qq","sub24","12","06","feedback","test","null","","","na","","53","",""
"473","121856","HierDyls1lv8qq","sub24","12","06","rl","test","75","img/b_d_stripes.png","7","75","shape,color,pattern","54","1",""
"null","122864","HierDyls1lv8qq","sub24","12","06","feedback","test","null","","","na","","54","",""
"681.0999999996275","123547","HierDyls1lv8qq","sub24","12","06","rl","test","72","img/r_d_stripes.png","5","72","shape,color,pattern","55","1",""
"null","124556","HierDyls1lv8qq","sub24","12","06","feedback","test","null","","","na","","55","",""
"492.3999999985099","125051","HierDyls1lv8qq","sub24","12","06","rl","test","74","img/r_d_check.png","6","74","shape,color,pattern","56","1",""
"null","126064","HierDyls1lv8qq","sub24","12","06","feedback","test","null","","","na","","56","",""
"1627.699999999255","127694","HierDyls1lv8qq","sub24","12","06","rl","test","83","img/r_t_check.png","2","83","shape,color,pattern","57","1",""
"null","128704","HierDyls1lv8qq","sub24","12","06","feedback","test","null","","","na","","57","",""
"764.1999999992549","129470","HierDyls1lv8qq","sub24","12","06","rl","test","70","img/b_t_check.png","4","70","shape,color,pattern","58","1",""
"null","130476","HierDyls1lv8qq","sub24","12","06","feedback","test","null","","","na","","58","",""
"908.2999999988824","131386","HierDyls1lv8qq","sub24","12","06","rl","test","83","img/r_t_check.png","2","83","shape,color,pattern","59","1",""
"null","132399","HierDyls1lv8qq","sub24","12","06","feedback","test","null","","","na","","59","",""
"1242.1000000014901","133643","HierDyls1lv8qq","sub24","12","06","rl","test","75","img/b_d_stripes.png","7","75","shape,color,pattern","60","1",""
"null","134656","HierDyls1lv8qq","sub24","12","06","feedback","test","null","","","na","","60","",""
"941.8999999985099","135600","HierDyls1lv8qq","sub24","12","06","rl","test","75","img/b_d_check.png","8","76","shape,color,pattern","61","0",""
"null","136607","HierDyls1lv8qq","sub24","12","06","feedback","test","null","","","na","","61","",""
"832","137441","HierDyls1lv8qq","sub24","12","06","rl","test","68","img/b_t_stripes.png","3","68","shape,color,pattern","62","1",""
"null","138453","HierDyls1lv8qq","sub24","12","06","feedback","test","null","","","na","","62","",""
"735.5","139191","HierDyls1lv8qq","sub24","12","06","rl","test","65","img/r_t_stripes.png","1","65","shape,color,pattern","63","1",""
"null","140200","HierDyls1lv8qq","sub24","12","06","feedback","test","null","","","na","","63","",""
"845.7999999988824","141048","HierDyls1lv8qq","sub24","12","06","rl","test","72","img/r_d_stripes.png","5","72","shape,color,pattern","64","1",""
"null","142052","HierDyls1lv8qq","sub24","12","06","feedback","test","null","","","na","","64","",""
"548.1999999992549","142602","HierDyls1lv8qq","sub24","12","06","rl","test","72","img/r_d_stripes.png","5","72","shape,color,pattern","65","1",""
"null","143612","HierDyls1lv8qq","sub24","12","06","feedback","test","null","","","na","","65","",""
"517.3000000007451","144132","HierDyls1lv8qq","sub24","12","06","rl","test","74","img/r_d_check.png","6","74","shape,color,pattern","66","1",""
"null","145140","HierDyls1lv8qq","sub24","12","06","feedback","test","null","","","na","","66","",""
"1036.8999999985099","146179","HierDyls1lv8qq","sub24","12","06","rl","test","65","img/r_t_stripes.png","1","65","shape,color,pattern","67","1",""
"null","147192","HierDyls1lv8qq","sub24","12","06","feedback","test","null","","","na","","67","",""
"1828.5999999996275","149023","HierDyls1lv8qq","sub24","12","06","rl","test","72","img/r_d_stripes.png","5","72","shape,color,pattern","68","1",""
"null","150028","HierDyls1lv8qq","sub24","12","06","feedback","test","null","","","na","","68","",""
"1331.5","151362","HierDyls1lv8qq","sub24","12","06","rl","test","70","img/b_t_check.png","4","70","shape,color,pattern","69","1",""
"null","152373","HierDyls1lv8qq","sub24","12","06","feedback","test","null","","","na","","69","",""
"1985.199999999255","154360","HierDyls1lv8qq","sub24","12","06","rl","test","76","img/b_d_check.png","8","76","shape,color,pattern","70","1",""
"null","155372","HierDyls1lv8qq","sub24","12","06","feedback","test","null","","","na","","70","",""
"1161.199999999255","156535","HierDyls1lv8qq","sub24","12","06","rl","test","83","img/r_t_check.png","2","83","shape,color,pattern","71","1",""
"null","157544","HierDyls1lv8qq","sub24","12","06","feedback","test","null","","","na","","71","",""
"927.2999999988824","158473","HierDyls1lv8qq","sub24","12","06","rl","test","65","img/r_t_stripes.png","1","65","shape,color,pattern","72","1",""
"null","159483","HierDyls1lv8qq","sub24","12","06","feedback","test","null","","","na","","72","",""
"null","161987","HierDyls1lv8qq","sub24","12","06","rl","test","null","img/b_d_stripes.png","7","75","shape,color,pattern","73","0",""
"null","162999","HierDyls1lv8qq","sub24","12","06","feedback","test","null","","","na","","73","",""
"1721","164723","HierDyls1lv8qq","sub24","12","06","rl","test","70","img/b_t_stripes.png","3","68","shape,color,pattern","74","0",""
"null","165727","HierDyls1lv8qq","sub24","12","06","feedback","test","null","","","na","","74","",""
"571","166300","HierDyls1lv8qq","sub24","12","06","rl","test","68","img/b_t_stripes.png","3","68","shape,color,pattern","75","1",""
"null","167309","HierDyls1lv8qq","sub24","12","06","feedback","test","null","","","na","","75","",""
"1065","168376","HierDyls1lv8qq","sub24","12","06","rl","test","75","img/b_d_stripes.png","7","75","shape,color,pattern","76","1",""
"null","169382","HierDyls1lv8qq","sub24","12","06","feedback","test","null","","","na","","76","",""
"708","170093","HierDyls1lv8qq","sub24","12","06","rl","test","70","img/b_t_check.png","4","70","shape,color,pattern","77","1",""
"null","171100","HierDyls1lv8qq","sub24","12","06","feedback","test","null","","","na","","77","",""
"912.9000000003725","172016","HierDyls1lv8qq","sub24","12","06","rl","test","83","img/r_t_check.png","2","83","shape,color,pattern","78","1",""
"null","173021","HierDyls1lv8qq","sub24","12","06","feedback","test","null","","","na","","78","",""
"1983","175006","HierDyls1lv8qq","sub24","12","06","rl","test","74","img/r_d_check.png","6","74","shape,color,pattern","79","1",""
"null","176011","HierDyls1lv8qq","sub24","12","06","feedback","test","null","","","na","","79","",""
"1350.9000000003725","177364","HierDyls1lv8qq","sub24","12","06","rl","test","76","img/b_d_check.png","8","76","shape,color,pattern","80","1",""
"null","178371","HierDyls1lv8qq","sub24","12","06","feedback","test","null","","","na","","80","",""
"857.5","179231","HierDyls1lv8qq","sub24","12","06","rl","test","70","img/b_t_check.png","4","70","shape,color,pattern","81","1",""
"null","180239","HierDyls1lv8qq","sub24","12","06","feedback","test","null","","","na","","81","",""
"1605.300000000745","181846","HierDyls1lv8qq","sub24","12","06","rl","test","72","img/r_d_stripes.png","5","72","shape,color,pattern","82","1",""
"null","182853","HierDyls1lv8qq","sub24","12","06","feedback","test","null","","","na","","82","",""
"1075.199999999255","183929","HierDyls1lv8qq","sub24","12","06","rl","test","83","img/r_t_check.png","2","83","shape,color,pattern","83","1",""
"null","184940","HierDyls1lv8qq","sub24","12","06","feedback","test","null","","","na","","83","",""
"785","185727","HierDyls1lv8qq","sub24","12","06","rl","test","72","img/r_d_stripes.png","5","72","shape,color,pattern","84","1",""
"null","186732","HierDyls1lv8qq","sub24","12","06","feedback","test","null","","","na","","84","",""
"1083","187817","HierDyls1lv8qq","sub24","12","06","rl","test","74","img/r_d_check.png","6","74","shape,color,pattern","85","1",""
"null","188831","HierDyls1lv8qq","sub24","12","06","feedback","test","null","","","na","","85","",""
"1804","190637","HierDyls1lv8qq","sub24","12","06","rl","test","68","img/b_t_stripes.png","3","68","shape,color,pattern","86","1",""
"null","191644","HierDyls1lv8qq","sub24","12","06","feedback","test","null","","","na","","86","",""
"944.1999999992549","192590","HierDyls1lv8qq","sub24","12","06","rl","test","65","img/r_t_stripes.png","1","65","shape,color,pattern","87","1",""
"null","193598","HierDyls1lv8qq","sub24","12","06","feedback","test","null","","","na","","87","",""
"643.1999999992549","194243","HierDyls1lv8qq","sub24","12","06","rl","test","65","img/r_t_stripes.png","1","65","shape,color,pattern","88","1",""
"null","195251","HierDyls1lv8qq","sub24","12","06","feedback","test","null","","","na","","88","",""
"1611.5","196864","HierDyls1lv8qq","sub24","12","06","rl","test","75","img/b_d_stripes.png","7","75","shape,color,pattern","89","1",""
"null","197876","HierDyls1lv8qq","sub24","12","06","feedback","test","null","","","na","","89","",""
"499.59999999962747","198377","HierDyls1lv8qq","sub24","12","06","rl","test","76","img/b_d_check.png","8","76","shape,color,pattern","90","1",""
"null","199390","HierDyls1lv8qq","sub24","12","06","feedback","test","null","","","na","","90","",""
"1353.7999999988824","200746","HierDyls1lv8qq","sub24","12","06","rl","test","83","img/r_t_check.png","2","83","shape,color,pattern","91","1",""
"null","201754","HierDyls1lv8qq","sub24","12","06","feedback","test","null","","","na","","91","",""
"1222.7000000011176","202979","HierDyls1lv8qq","sub24","12","06","rl","test","74","img/r_d_check.png","6","74","shape,color,pattern","92","1",""
"null","203989","HierDyls1lv8qq","sub24","12","06","feedback","test","null","","","na","","92","",""
"994.7000000011176","204986","HierDyls1lv8qq","sub24","12","06","rl","test","70","img/b_t_check.png","4","70","shape,color,pattern","93","1",""
"null","205996","HierDyls1lv8qq","sub24","12","06","feedback","test","null","","","na","","93","",""
"1382.4000000003725","207381","HierDyls1lv8qq","sub24","12","06","rl","test","76","img/b_d_check.png","8","76","shape,color,pattern","94","1",""
"null","208387","HierDyls1lv8qq","sub24","12","06","feedback","test","null","","","na","","94","",""
"907.1999999992549","209296","HierDyls1lv8qq","sub24","12","06","rl","test","68","img/b_t_stripes.png","3","68","shape,color,pattern","95","1",""
"null","210310","HierDyls1lv8qq","sub24","12","06","feedback","test","null","","","na","","95","",""
"1138.4000000003725","211451","HierDyls1lv8qq","sub24","12","06","rl","test","68","img/b_t_stripes.png","3","68","shape,color,pattern","96","1",""
"null","212462","HierDyls1lv8qq","sub24","12","06","feedback","test","null","","","na","","96","",""
"1648.2999999988824","214113","HierDyls1lv8qq","sub24","12","06","rl","test","83","img/r_t_check.png","2","83","shape,color,pattern","97","1",""
"null","215124","HierDyls1lv8qq","sub24","12","06","feedback","test","null","","","na","","97","",""
"1265.2999999988824","216391","HierDyls1lv8qq","sub24","12","06","rl","test","72","img/r_d_stripes.png","5","72","shape,color,pattern","98","1",""
"null","217402","HierDyls1lv8qq","sub24","12","06","feedback","test","null","","","na","","98","",""
"1732.9000000003725","219137","HierDyls1lv8qq","sub24","12","06","rl","test","65","img/r_t_stripes.png","1","65","shape,color,pattern","99","1",""
"null","220146","HierDyls1lv8qq","sub24","12","06","feedback","test","null","","","na","","99","",""
"2148.800000000745","222297","HierDyls1lv8qq","sub24","12","06","rl","test","75","img/b_d_stripes.png","7","75","shape,color,pattern","100","1",""
"null","223310","HierDyls1lv8qq","sub24","12","06","feedback","test","null","","","na","","100","",""
"1201.699999999255","224514","HierDyls1lv8qq","sub24","12","06","rl","test","83","img/r_t_check.png","2","83","shape,color,pattern","101","1",""
"null","225523","HierDyls1lv8qq","sub24","12","06","feedback","test","null","","","na","","101","",""
"1962.9000000003725","227487","HierDyls1lv8qq","sub24","12","06","rl","test","75","img/b_d_stripes.png","7","75","shape,color,pattern","102","1",""
"null","228498","HierDyls1lv8qq","sub24","12","06","feedback","test","null","","","na","","102","",""
"681.7999999988824","229182","HierDyls1lv8qq","sub24","12","06","rl","test","72","img/r_d_stripes.png","5","72","shape,color,pattern","103","1",""
"null","230186","HierDyls1lv8qq","sub24","12","06","feedback","test","null","","","na","","103","",""
"1001.5999999996275","231189","HierDyls1lv8qq","sub24","12","06","rl","test","76","img/b_d_check.png","8","76","shape,color,pattern","104","1",""
"null","232196","HierDyls1lv8qq","sub24","12","06","feedback","test","null","","","na","","104","",""
"453.1000000014901","232651","HierDyls1lv8qq","sub24","12","06","rl","test","74","img/r_d_check.png","6","74","shape,color,pattern","105","1",""
"null","233660","HierDyls1lv8qq","sub24","12","06","feedback","test","null","","","na","","105","",""
"779","234441","HierDyls1lv8qq","sub24","12","06","rl","test","72","img/r_d_stripes.png","5","72","shape,color,pattern","106","1",""
"null","235451","HierDyls1lv8qq","sub24","12","06","feedback","test","null","","","na","","106","",""
"835.1999999992549","236288","HierDyls1lv8qq","sub24","12","06","rl","test","70","img/b_t_check.png","4","70","shape,color,pattern","107","1",""
"null","237302","HierDyls1lv8qq","sub24","12","06","feedback","test","null","","","na","","107","",""
"606.3000000007451","237910","HierDyls1lv8qq","sub24","12","06","rl","test","70","img/b_t_check.png","4","70","shape,color,pattern","108","1",""
"null","238918","HierDyls1lv8qq","sub24","12","06","feedback","test","null","","","na","","108","",""
"2279.2999999988824","241199","HierDyls1lv8qq","sub24","12","06","rl","test","76","img/b_d_check.png","8","76","shape,color,pattern","109","1",""
"null","242209","HierDyls1lv8qq","sub24","12","06","feedback","test","null","","","na","","109","",""
"979.7000000011176","243191","HierDyls1lv8qq","sub24","12","06","rl","test","68","img/b_t_stripes.png","3","68","shape,color,pattern","110","1",""
"null","244203","HierDyls1lv8qq","sub24","12","06","feedback","test","null","","","na","","110","",""
"2143.9000000003725","246349","HierDyls1lv8qq","sub24","12","06","rl","test","75","img/b_d_stripes.png","7","75","shape,color,pattern","111","1",""
"null","247356","HierDyls1lv8qq","sub24","12","06","feedback","test","null","","","na","","111","",""
"1284.5","248642","HierDyls1lv8qq","sub24","12","06","rl","test","74","img/r_d_check.png","6","74","shape,color,pattern","112","1",""
"null","249652","HierDyls1lv8qq","sub24","12","06","feedback","test","null","","","na","","112","",""
"994.2999999988824","250648","HierDyls1lv8qq","sub24","12","06","rl","test","75","img/b_d_stripes.png","7","75","shape,color,pattern","113","1",""
"null","251656","HierDyls1lv8qq","sub24","12","06","feedback","test","null","","","na","","113","",""
"1267.7999999988824","252926","HierDyls1lv8qq","sub24","12","06","rl","test","65","img/r_t_stripes.png","1","65","shape,color,pattern","114","1",""
"null","253941","HierDyls1lv8qq","sub24","12","06","feedback","test","null","","","na","","114","",""
"2028.199999999255","255971","HierDyls1lv8qq","sub24","12","06","rl","test","76","img/b_d_check.png","8","76","shape,color,pattern","115","1",""
"null","256978","HierDyls1lv8qq","sub24","12","06","feedback","test","null","","","na","","115","",""
"1455.7000000011176","258436","HierDyls1lv8qq","sub24","12","06","rl","test","83","img/r_t_check.png","2","83","shape,color,pattern","116","1",""
"null","259444","HierDyls1lv8qq","sub24","12","06","feedback","test","null","","","na","","116","",""
"1855.9000000003725","261302","HierDyls1lv8qq","sub24","12","06","rl","test","65","img/r_t_stripes.png","1","65","shape,color,pattern","117","1",""
"null","262315","HierDyls1lv8qq","sub24","12","06","feedback","test","null","","","na","","117","",""
"651.0999999996275","262968","HierDyls1lv8qq","sub24","12","06","rl","test","68","img/b_t_stripes.png","3","68","shape,color,pattern","118","1",""
"null","263979","HierDyls1lv8qq","sub24","12","06","feedback","test","null","","","na","","118","",""
"420.7000000011176","264402","HierDyls1lv8qq","sub24","12","06","rl","test","70","img/b_t_check.png","4","70","shape,color,pattern","119","1",""
"null","265408","HierDyls1lv8qq","sub24","12","06","feedback","test","null","","","na","","119","",""
"1804.9000000003725","267215","HierDyls1lv8qq","sub24","12","06","rl","test","74","img/r_d_check.png","6","74","shape,color,pattern","120","1",""
"null","268225","HierDyls1lv8qq","sub24","12","06","feedback","test","null","","","na","","120","",""
"543.7999999988824","268771","HierDyls1lv8qq","sub24","12","06","rl","test","72","img/r_d_stripes.png","5","72","shape,color,pattern","121","1",""
"null","269779","HierDyls1lv8qq","sub24","12","06","feedback","test","null","","","na","","121","",""
"956.1999999992549","270737","HierDyls1lv8qq","sub24","12","06","rl","test","65","img/r_t_stripes.png","1","65","shape,color,pattern","122","1",""
"null","271746","HierDyls1lv8qq","sub24","12","06","feedback","test","null","","","na","","122","",""
"1120.9000000003725","272869","HierDyls1lv8qq","sub24","12","06","rl","test","75","img/b_d_stripes.png","7","75","shape,color,pattern","123","1",""
"null","273873","HierDyls1lv8qq","sub24","12","06","feedback","test","null","","","na","","123","",""
"1907.1000000014901","275782","HierDyls1lv8qq","sub24","12","06","rl","test","74","img/r_d_check.png","6","74","shape,color,pattern","124","1",""
"null","276794","HierDyls1lv8qq","sub24","12","06","feedback","test","null","","","na","","124","",""
"918","277715","HierDyls1lv8qq","sub24","12","06","rl","test","65","img/b_t_stripes.png","3","68","shape,color,pattern","125","0",""
"null","278722","HierDyls1lv8qq","sub24","12","06","feedback","test","null","","","na","","125","",""
"2225.0999999996275","280950","HierDyls1lv8qq","sub24","12","06","rl","test","74","img/r_d_check.png","6","74","shape,color,pattern","126","1",""
"null","281961","HierDyls1lv8qq","sub24","12","06","feedback","test","null","","","na","","126","",""
"1221.300000000745","283183","HierDyls1lv8qq","sub24","12","06","rl","test","76","img/b_d_check.png","8","76","shape,color,pattern","127","1",""
"null","284192","HierDyls1lv8qq","sub24","12","06","feedback","test","null","","","na","","127","",""
"2221.0999999996275","286415","HierDyls1lv8qq","sub24","12","06","rl","test","83","img/r_t_check.png","2","83","shape,color,pattern","128","1",""
"null","287427","HierDyls1lv8qq","sub24","12","06","feedback","test","null","","","na","","128","",""
"993.6000000014901","288423","HierDyls1lv8qq","sub24","12","06","rl","test","75","img/b_d_stripes.png","7","75","shape,color,pattern","129","1",""
"null","289434","HierDyls1lv8qq","sub24","12","06","feedback","test","null","","","na","","129","",""
"858","290294","HierDyls1lv8qq","sub24","12","06","rl","test","72","img/r_d_stripes.png","5","72","shape,color,pattern","130","1",""
"null","291306","HierDyls1lv8qq","sub24","12","06","feedback","test","null","","","na","","130","",""
"1102.5999999996275","292411","HierDyls1lv8qq","sub24","12","06","rl","test","83","img/r_t_check.png","2","83","shape,color,pattern","131","1",""
"null","293420","HierDyls1lv8qq","sub24","12","06","feedback","test","null","","","na","","131","",""
"798.5999999996275","294221","HierDyls1lv8qq","sub24","12","06","rl","test","70","img/b_t_check.png","4","70","shape,color,pattern","132","1",""
"null","295236","HierDyls1lv8qq","sub24","12","06","feedback","test","null","","","na","","132","",""
"1031.7000000011176","296269","HierDyls1lv8qq","sub24","12","06","rl","test","70","img/b_t_check.png","4","70","shape,color,pattern","133","1",""
"null","297284","HierDyls1lv8qq","sub24","12","06","feedback","test","null","","","na","","133","",""
"814.7000000011176","298101","HierDyls1lv8qq","sub24","12","06","rl","test","65","img/r_t_stripes.png","1","65","shape,color,pattern","134","1",""
"null","299106","HierDyls1lv8qq","sub24","12","06","feedback","test","null","","","na","","134","",""
"1363.5","300472","HierDyls1lv8qq","sub24","12","06","rl","test","68","img/b_t_stripes.png","3","68","shape,color,pattern","135","1",""
"null","301480","HierDyls1lv8qq","sub24","12","06","feedback","test","null","","","na","","135","",""
"1248.800000000745","302731","HierDyls1lv8qq","sub24","12","06","rl","test","76","img/b_d_check.png","8","76","shape,color,pattern","136","1",""
"null","303740","HierDyls1lv8qq","sub24","12","06","feedback","test","null","","","na","","136","",""
"800.4000000003725","304543","HierDyls1lv8qq","sub24","12","06","rl","test","74","img/r_d_check.png","6","74","shape,color,pattern","137","1",""
"null","305548","HierDyls1lv8qq","sub24","12","06","feedback","test","null","","","na","","137","",""
"1028.8999999985099","306579","HierDyls1lv8qq","sub24","12","06","rl","test","65","img/r_t_stripes.png","1","65","shape,color,pattern","138","1",""
"null","307588","HierDyls1lv8qq","sub24","12","06","feedback","test","null","","","na","","138","",""
"603.6000000014901","308194","HierDyls1lv8qq","sub24","12","06","rl","test","70","img/b_t_check.png","4","70","shape,color,pattern","139","1",""
"null","309204","HierDyls1lv8qq","sub24","12","06","feedback","test","null","","","na","","139","",""
"656.5","309863","HierDyls1lv8qq","sub24","12","06","rl","test","68","img/b_t_stripes.png","3","68","shape,color,pattern","140","1",""
"null","310872","HierDyls1lv8qq","sub24","12","06","feedback","test","null","","","na","","140","",""
"644.5","311519","HierDyls1lv8qq","sub24","12","06","rl","test","70","img/b_t_check.png","4","70","shape,color,pattern","141","1",""
"null","312529","HierDyls1lv8qq","sub24","12","06","feedback","test","null","","","na","","141","",""
"1353.699999999255","313885","HierDyls1lv8qq","sub24","12","06","rl","test","75","img/b_d_stripes.png","7","75","shape,color,pattern","142","1",""
"null","314889","HierDyls1lv8qq","sub24","12","06","feedback","test","null","","","na","","142","",""
"825.6999999992549","315717","HierDyls1lv8qq","sub24","12","06","rl","test","76","img/b_d_check.png","8","76","shape,color,pattern","143","1",""
"null","316732","HierDyls1lv8qq","sub24","12","06","feedback","test","null","","","na","","143","",""
"1263.3999999985099","317998","HierDyls1lv8qq","sub24","12","06","rl","test","72","img/r_d_stripes.png","5","72","shape,color,pattern","144","1",""
"null","319012","HierDyls1lv8qq","sub24","12","06","feedback","test","null","","","na","","144","",""
"1277.5999999996275","320292","HierDyls1lv8qq","sub24","12","06","rl","test","83","img/r_t_check.png","2","83","shape,color,pattern","145","1",""
"null","321297","HierDyls1lv8qq","sub24","12","06","feedback","test","null","","","na","","145","",""
"697.6999999992549","321997","HierDyls1lv8qq","sub24","12","06","rl","test","83","img/r_t_check.png","2","83","shape,color,pattern","146","1",""
"null","323007","HierDyls1lv8qq","sub24","12","06","feedback","test","null","","","na","","146","",""
"1120.7999999988824","324130","HierDyls1lv8qq","sub24","12","06","rl","test","72","img/r_d_stripes.png","5","72","shape,color,pattern","147","1",""
"null","325140","HierDyls1lv8qq","sub24","12","06","feedback","test","null","","","na","","147","",""
"711","325853","HierDyls1lv8qq","sub24","12","06","rl","test","68","img/b_t_stripes.png","3","68","shape,color,pattern","148","1",""
"null","326859","HierDyls1lv8qq","sub24","12","06","feedback","test","null","","","na","","148","",""
"1237.0999999996275","328099","HierDyls1lv8qq","sub24","12","06","rl","test","75","img/b_d_stripes.png","7","75","shape,color,pattern","149","1",""
"null","329103","HierDyls1lv8qq","sub24","12","06","feedback","test","null","","","na","","149","",""
"1777.9000000003725","330883","HierDyls1lv8qq","sub24","12","06","rl","test","74","img/r_d_check.png","6","74","shape,color,pattern","150","1",""
"null","331886","HierDyls1lv8qq","sub24","12","06","feedback","test","null","","","na","","150","",""
"1145.0999999996275","333034","HierDyls1lv8qq","sub24","12","06","rl","test","76","img/b_d_check.png","8","76","shape,color,pattern","151","1",""
"null","334043","HierDyls1lv8qq","sub24","12","06","feedback","test","null","","","na","","151","",""
"803.7000000011176","334849","HierDyls1lv8qq","sub24","12","06","rl","test","65","img/r_t_stripes.png","1","65","shape,color,pattern","152","1",""
"null","335852","HierDyls1lv8qq","sub24","12","06","feedback","test","null","","","na","","152","",""
"809.9000000003725","336664","HierDyls1lv8qq","sub24","12","06","rl","test","70","img/b_t_check.png","4","70","shape,color,pattern","153","1",""
"null","337672","HierDyls1lv8qq","sub24","12","06","feedback","test","null","","","na","","153","",""
"2156","339830","HierDyls1lv8qq","sub24","12","06","rl","test","76","img/b_d_check.png","8","76","shape,color,pattern","154","1",""
"null","340843","HierDyls1lv8qq","sub24","12","06","feedback","test","null","","","na","","154","",""
"1800.5","342646","HierDyls1lv8qq","sub24","12","06","rl","test","83","img/r_t_check.png","2","83","shape,color,pattern","155","1",""
"null","343657","HierDyls1lv8qq","sub24","12","06","feedback","test","null","","","na","","155","",""
"1378.4000000003725","345037","HierDyls1lv8qq","sub24","12","06","rl","test","74","img/r_d_check.png","6","74","shape,color,pattern","156","1",""
"null","346051","HierDyls1lv8qq","sub24","12","06","feedback","test","null","","","na","","156","",""
"699.1999999992549","346752","HierDyls1lv8qq","sub24","12","06","rl","test","72","img/r_d_stripes.png","5","72","shape,color,pattern","157","1",""
"null","347763","HierDyls1lv8qq","sub24","12","06","feedback","test","null","","","na","","157","",""
"1157.199999999255","348922","HierDyls1lv8qq","sub24","12","06","rl","test","75","img/b_d_stripes.png","7","75","shape,color,pattern","158","1",""
"null","349930","HierDyls1lv8qq","sub24","12","06","feedback","test","null","","","na","","158","",""
"935.6999999992549","350868","HierDyls1lv8qq","sub24","12","06","rl","test","68","img/b_t_stripes.png","3","68","shape,color,pattern","159","1",""
"null","351879","HierDyls1lv8qq","sub24","12","06","feedback","test","null","","","na","","159","",""
"1153.8999999985099","353035","HierDyls1lv8qq","sub24","12","06","rl","test","83","img/r_t_check.png","2","83","shape,color,pattern","160","1",""
"null","354043","HierDyls1lv8qq","sub24","12","06","feedback","test","null","","","na","","160","",""
"1642.8999999985099","355688","HierDyls1lv8qq","sub24","12","06","rl","test","68","img/b_t_stripes.png","3","68","shape,color,pattern","161","1",""
"null","356697","HierDyls1lv8qq","sub24","12","06","feedback","test","null","","","na","","161","",""
"839","357538","HierDyls1lv8qq","sub24","12","06","rl","test","65","img/r_t_stripes.png","1","65","shape,color,pattern","162","1",""
"null","358546","HierDyls1lv8qq","sub24","12","06","feedback","test","null","","","na","","162","",""
"728.0999999996275","359276","HierDyls1lv8qq","sub24","12","06","rl","test","65","img/r_t_stripes.png","1","65","shape,color,pattern","163","1",""
"null","360289","HierDyls1lv8qq","sub24","12","06","feedback","test","null","","","na","","163","",""
"2216.4000000003725","362507","HierDyls1lv8qq","sub24","12","06","rl","test","74","img/r_d_stripes.png","5","72","shape,color,pattern","164","0",""
"null","363519","HierDyls1lv8qq","sub24","12","06","feedback","test","null","","","na","","164","",""
"1210.7000000011176","364732","HierDyls1lv8qq","sub24","12","06","rl","test","70","img/b_t_check.png","4","70","shape,color,pattern","165","1",""
"null","365744","HierDyls1lv8qq","sub24","12","06","feedback","test","null","","","na","","165","",""
"1131.800000000745","366878","HierDyls1lv8qq","sub24","12","06","rl","test","75","img/b_d_stripes.png","7","75","shape,color,pattern","166","1",""
"null","367888","HierDyls1lv8qq","sub24","12","06","feedback","test","null","","","na","","166","",""
"1313.4000000003725","369203","HierDyls1lv8qq","sub24","12","06","rl","test","65","img/r_t_stripes.png","1","65","shape,color,pattern","167","1",""
"null","370218","HierDyls1lv8qq","sub24","12","06","feedback","test","null","","","na","","167","",""
"907.4000000003725","371127","HierDyls1lv8qq","sub24","12","06","rl","test","75","img/b_d_check.png","8","76","shape,color,pattern","168","0",""
"null","372134","HierDyls1lv8qq","sub24","12","06","feedback","test","null","","","na","","168","",""
"826.2000000011176","372963","HierDyls1lv8qq","sub24","12","06","rl","test","74","img/r_d_check.png","6","74","shape,color,pattern","169","1",""
"null","373970","HierDyls1lv8qq","sub24","12","06","feedback","test","null","","","na","","169","",""
"907.2999999988824","374880","HierDyls1lv8qq","sub24","12","06","rl","test","76","img/b_d_check.png","8","76","shape,color,pattern","170","1",""
"null","375889","HierDyls1lv8qq","sub24","12","06","feedback","test","null","","","na","","170","",""
"1475.199999999255","377366","HierDyls1lv8qq","sub24","12","06","rl","test","83","img/r_t_check.png","2","83","shape,color,pattern","171","1",""
"null","378377","HierDyls1lv8qq","sub24","12","06","feedback","test","null","","","na","","171","",""
"1159.7999999988824","379539","HierDyls1lv8qq","sub24","12","06","rl","test","74","img/r_d_check.png","6","74","shape,color,pattern","172","1",""
"null","380546","HierDyls1lv8qq","sub24","12","06","feedback","test","null","","","na","","172","",""
"547.1999999992549","381096","HierDyls1lv8qq","sub24","12","06","rl","test","74","img/r_d_check.png","6","74","shape,color,pattern","173","1",""
"null","382106","HierDyls1lv8qq","sub24","12","06","feedback","test","null","","","na","","173","",""
"919.4000000003725","383028","HierDyls1lv8qq","sub24","12","06","rl","test","70","img/b_t_check.png","4","70","shape,color,pattern","174","1",""
"null","384038","HierDyls1lv8qq","sub24","12","06","feedback","test","null","","","na","","174","",""
"1732","385772","HierDyls1lv8qq","sub24","12","06","rl","test","83","img/r_t_check.png","2","83","shape,color,pattern","175","1",""
"null","386786","HierDyls1lv8qq","sub24","12","06","feedback","test","null","","","na","","175","",""
"1004","387792","HierDyls1lv8qq","sub24","12","06","rl","test","68","img/b_t_stripes.png","3","68","shape,color,pattern","176","1",""
"null","388801","HierDyls1lv8qq","sub24","12","06","feedback","test","null","","","na","","176","",""
"1907.3999999985099","390710","HierDyls1lv8qq","sub24","12","06","rl","test","75","img/b_d_stripes.png","7","75","shape,color,pattern","177","1",""
"null","391721","HierDyls1lv8qq","sub24","12","06","feedback","test","null","","","na","","177","",""
"1031.800000000745","392755","HierDyls1lv8qq","sub24","12","06","rl","test","72","img/r_d_stripes.png","5","72","shape,color,pattern","178","1",""
"null","393766","HierDyls1lv8qq","sub24","12","06","feedback","test","null","","","na","","178","",""
"772.4000000003725","394541","HierDyls1lv8qq","sub24","12","06","rl","test","70","img/b_t_check.png","4","70","shape,color,pattern","179","1",""
"null","395549","HierDyls1lv8qq","sub24","12","06","feedback","test","null","","","na","","179","",""
"1972.0999999996275","397523","HierDyls1lv8qq","sub24","12","06","rl","test","72","img/r_d_stripes.png","5","72","shape,color,pattern","180","1",""
"null","398538","HierDyls1lv8qq","sub24","12","06","feedback","test","null","","","na","","180","",""
"1157.9000000003725","399698","HierDyls1lv8qq","sub24","12","06","rl","test","75","img/b_d_stripes.png","7","75","shape,color,pattern","181","1",""
"null","400705","HierDyls1lv8qq","sub24","12","06","feedback","test","null","","","na","","181","",""
"973.3999999985099","401681","HierDyls1lv8qq","sub24","12","06","rl","test","65","img/r_t_stripes.png","1","65","shape,color,pattern","182","1",""
"null","402689","HierDyls1lv8qq","sub24","12","06","feedback","test","null","","","na","","182","",""
"707.4000000003725","403399","HierDyls1lv8qq","sub24","12","06","rl","test","68","img/b_t_stripes.png","3","68","shape,color,pattern","183","1",""
"null","404410","HierDyls1lv8qq","sub24","12","06","feedback","test","null","","","na","","183","",""
"639.7999999988824","405052","HierDyls1lv8qq","sub24","12","06","rl","test","70","img/b_t_check.png","4","70","shape,color,pattern","184","1",""
"null","406062","HierDyls1lv8qq","sub24","12","06","feedback","test","null","","","na","","184","",""
"2078.699999999255","408143","HierDyls1lv8qq","sub24","12","06","rl","test","75","img/b_d_check.png","8","76","shape,color,pattern","185","0",""
"null","409149","HierDyls1lv8qq","sub24","12","06","feedback","test","null","","","na","","185","",""
"839.0999999996275","409990","HierDyls1lv8qq","sub24","12","06","rl","test","72","img/r_d_stripes.png","5","72","shape,color,pattern","186","1",""
"null","411001","HierDyls1lv8qq","sub24","12","06","feedback","test","null","","","na","","186","",""
"1280.7999999988824","412284","HierDyls1lv8qq","sub24","12","06","rl","test","83","img/r_t_check.png","2","83","shape,color,pattern","187","1",""
"null","413297","HierDyls1lv8qq","sub24","12","06","feedback","test","null","","","na","","187","",""
"1932.7999999988824","415232","HierDyls1lv8qq","sub24","12","06","rl","test","74","img/r_d_check.png","6","74","shape,color,pattern","188","1",""
"null","416238","HierDyls1lv8qq","sub24","12","06","feedback","test","null","","","na","","188","",""
"686.3000000007451","416926","HierDyls1lv8qq","sub24","12","06","rl","test","68","img/b_t_stripes.png","3","68","shape,color,pattern","189","1",""
"null","417936","HierDyls1lv8qq","sub24","12","06","feedback","test","null","","","na","","189","",""
"870.0999999996275","418808","HierDyls1lv8qq","sub24","12","06","rl","test","65","img/r_t_stripes.png","1","65","shape,color,pattern","190","1",""
"null","419817","HierDyls1lv8qq","sub24","12","06","feedback","test","null","","","na","","190","",""
"1037.699999999255","420857","HierDyls1lv8qq","sub24","12","06","rl","test","75","img/b_d_stripes.png","7","75","shape,color,pattern","191","1",""
"null","421860","HierDyls1lv8qq","sub24","12","06","feedback","test","null","","","na","","191","",""
"858.4000000003725","422721","HierDyls1lv8qq","sub24","12","06","rl","test","76","img/b_d_check.png","8","76","shape,color,pattern","192","1",""
"null","423729","HierDyls1lv8qq","sub24","12","06","feedback","test","null","","","na","","192","",""
"696.4000000003725","424428","HierDyls1lv8qq","sub24","12","06","rl","test","76","img/b_d_check.png","8","76","shape,color,pattern","193","1",""
"null","425439","HierDyls1lv8qq","sub24","12","06","feedback","test","null","","","na","","193","",""
"989.8000000007451","426431","HierDyls1lv8qq","sub24","12","06","rl","test","75","img/b_d_stripes.png","7","75","shape,color,pattern","194","1",""
"null","427441","HierDyls1lv8qq","sub24","12","06","feedback","test","null","","","na","","194","",""
"1180.5","428624","HierDyls1lv8qq","sub24","12","06","rl","test","68","img/b_t_stripes.png","3","68","shape,color,pattern","195","1",""
"null","429629","HierDyls1lv8qq","sub24","12","06","feedback","test","null","","","na","","195","",""
"1880.5","431512","HierDyls1lv8qq","sub24","12","06","rl","test","72","img/r_d_stripes.png","5","72","shape,color,pattern","196","1",""
"null","432519","HierDyls1lv8qq","sub24","12","06","feedback","test","null","","","na","","196","",""
"1002.0999999996275","433524","HierDyls1lv8qq","sub24","12","06","rl","test","70","img/b_t_check.png","4","70","shape,color,pattern","197","1",""
"null","434537","HierDyls1lv8qq","sub24","12","06","feedback","test","null","","","na","","197","",""
"2223","436762","HierDyls1lv8qq","sub24","12","06","rl","test","83","img/r_t_check.png","2","83","shape,color,pattern","198","1",""
"null","437773","HierDyls1lv8qq","sub24","12","06","feedback","test","null","","","na","","198","",""
"777.5999999996275","438553","HierDyls1lv8qq","sub24","12","06","rl","test","65","img/r_t_stripes.png","1","65","shape,color,pattern","199","1",""
"null","439556","HierDyls1lv8qq","sub24","12","06","feedback","test","null","","","na","","199","",""
"1508.0999999996275","441066","HierDyls1lv8qq","sub24","12","06","rl","test","74","img/r_d_check.png","6","74","shape,color,pattern","200","1",""
"null","442079","HierDyls1lv8qq","sub24","12","06","feedback","test","null","","","na","","200","",""
"667.4000000003725","442749","HierDyls1lv8qq","sub24","12","06","rl","test","72","img/r_d_stripes.png","5","72","shape,color,pattern","201","1",""
"null","443761","HierDyls1lv8qq","sub24","12","06","feedback","test","null","","","na","","201","",""
"1927.3999999985099","445690","HierDyls1lv8qq","sub24","12","06","rl","test","75","img/b_d_stripes.png","7","75","shape,color,pattern","202","1",""
"null","446703","HierDyls1lv8qq","sub24","12","06","feedback","test","null","","","na","","202","",""
"1260.5999999996275","447965","HierDyls1lv8qq","sub24","12","06","rl","test","74","img/r_d_check.png","6","74","shape,color,pattern","203","1",""
"null","448972","HierDyls1lv8qq","sub24","12","06","feedback","test","null","","","na","","203","",""
"1254.2999999988824","450228","HierDyls1lv8qq","sub24","12","06","rl","test","65","img/r_t_stripes.png","1","65","shape,color,pattern","204","1",""
"null","451240","HierDyls1lv8qq","sub24","12","06","feedback","test","null","","","na","","204","",""
"1033.5999999996275","452276","HierDyls1lv8qq","sub24","12","06","rl","test","83","img/r_t_check.png","2","83","shape,color,pattern","205","1",""
"null","453284","HierDyls1lv8qq","sub24","12","06","feedback","test","null","","","na","","205","",""
"2436.9000000003725","455724","HierDyls1lv8qq","sub24","12","06","rl","test","74","img/b_d_check.png","8","76","shape,color,pattern","206","0",""
"null","456736","HierDyls1lv8qq","sub24","12","06","feedback","test","null","","","na","","206","",""
"1378","458116","HierDyls1lv8qq","sub24","12","06","rl","test","83","img/r_t_check.png","2","83","shape,color,pattern","207","1",""
"null","459127","HierDyls1lv8qq","sub24","12","06","feedback","test","null","","","na","","207","",""
"1335.5999999996275","460465","HierDyls1lv8qq","sub24","12","06","rl","test","70","img/b_t_check.png","4","70","shape,color,pattern","208","1",""
"null","461477","HierDyls1lv8qq","sub24","12","06","feedback","test","null","","","na","","208","",""
"423","461902","HierDyls1lv8qq","sub24","12","06","rl","test","68","img/b_t_stripes.png","3","68","shape,color,pattern","209","1",""
"null","462908","HierDyls1lv8qq","sub24","12","06","feedback","test","null","","","na","","209","",""
"450.5","463360","HierDyls1lv8qq","sub24","12","06","rl","test","68","img/b_t_stripes.png","3","68","shape,color,pattern","210","1",""
"null","464366","HierDyls1lv8qq","sub24","12","06","feedback","test","null","","","na","","210","",""
"1759.4000000003725","466127","HierDyls1lv8qq","sub24","12","06","rl","test","83","img/r_t_check.png","2","83","shape,color,pattern","211","1",""
"null","467134","HierDyls1lv8qq","sub24","12","06","feedback","test","null","","","na","","211","",""
"1873.800000000745","469010","HierDyls1lv8qq","sub24","12","06","rl","test","76","img/b_d_check.png","8","76","shape,color,pattern","212","1",""
"null","470023","HierDyls1lv8qq","sub24","12","06","feedback","test","null","","","na","","212","",""
"981.8000000007451","471007","HierDyls1lv8qq","sub24","12","06","rl","test","65","img/r_t_stripes.png","1","65","shape,color,pattern","213","1",""
"null","472013","HierDyls1lv8qq","sub24","12","06","feedback","test","null","","","na","","213","",""
"849","472864","HierDyls1lv8qq","sub24","12","06","rl","test","75","img/b_d_stripes.png","7","75","shape,color,pattern","214","1",""
"null","473870","HierDyls1lv8qq","sub24","12","06","feedback","test","null","","","na","","214","",""
"966","474838","HierDyls1lv8qq","sub24","12","06","rl","test","72","img/r_d_stripes.png","5","72","shape,color,pattern","215","1",""
"null","475847","HierDyls1lv8qq","sub24","12","06","feedback","test","null","","","na","","215","",""
"934.8000000007451","476784","HierDyls1lv8qq","sub24","12","06","rl","test","76","img/b_d_check.png","8","76","shape,color,pattern","216","1",""
"null","477791","HierDyls1lv8qq","sub24","12","06","feedback","test","null","","","na","","216","",""
"863.9000000003725","478657","HierDyls1lv8qq","sub24","12","06","rl","test","70","img/b_t_check.png","4","70","shape,color,pattern","217","1",""
"null","479672","HierDyls1lv8qq","sub24","12","06","feedback","test","null","","","na","","217","",""
"1779.9000000003725","481454","HierDyls1lv8qq","sub24","12","06","rl","test","74","img/r_d_check.png","6","74","shape,color,pattern","218","1",""
"null","482460","HierDyls1lv8qq","sub24","12","06","feedback","test","null","","","na","","218","",""
"706.8999999985099","483169","HierDyls1lv8qq","sub24","12","06","rl","test","74","img/r_d_check.png","6","74","shape,color,pattern","219","1",""
"null","484184","HierDyls1lv8qq","sub24","12","06","feedback","test","null","","","na","","219","",""
"894.4000000003725","485080","HierDyls1lv8qq","sub24","12","06","rl","test","70","img/b_t_check.png","4","70","shape,color,pattern","220","1",""
"null","486091","HierDyls1lv8qq","sub24","12","06","feedback","test","null","","","na","","220","",""
"748.9000000003725","486842","HierDyls1lv8qq","sub24","12","06","rl","test","65","img/r_t_stripes.png","1","65","shape,color,pattern","221","1",""
"null","487845","HierDyls1lv8qq","sub24","12","06","feedback","test","null","","","na","","221","",""
"736.6999999992549","488584","HierDyls1lv8qq","sub24","12","06","rl","test","70","img/b_t_check.png","4","70","shape,color,pattern","222","1",""
"null","489591","HierDyls1lv8qq","sub24","12","06","feedback","test","null","","","na","","222","",""
"775.4000000003725","490368","HierDyls1lv8qq","sub24","12","06","rl","test","68","img/b_t_stripes.png","3","68","shape,color,pattern","223","1",""
"null","491380","HierDyls1lv8qq","sub24","12","06","feedback","test","null","","","na","","223","",""
"1925.5","493308","HierDyls1lv8qq","sub24","12","06","rl","test","75","img/b_d_stripes.png","7","75","shape,color,pattern","224","1",""
"null","494318","HierDyls1lv8qq","sub24","12","06","feedback","test","null","","","na","","224","",""
"806.0999999996275","495126","HierDyls1lv8qq","sub24","12","06","rl","test","72","img/r_d_stripes.png","5","72","shape,color,pattern","225","1",""
"null","496135","HierDyls1lv8qq","sub24","12","06","feedback","test","null","","","na","","225","",""
"1707.3999999985099","497844","HierDyls1lv8qq","sub24","12","06","rl","test","83","img/r_t_check.png","2","83","shape,color,pattern","226","1",""
"null","498853","HierDyls1lv8qq","sub24","12","06","feedback","test","null","","","na","","226","",""
"1563.1000000014901","500418","HierDyls1lv8qq","sub24","12","06","rl","test","68","img/b_t_stripes.png","3","68","shape,color,pattern","227","1",""
"null","501430","HierDyls1lv8qq","sub24","12","06","feedback","test","null","","","na","","227","",""
"1769.0999999996275","503202","HierDyls1lv8qq","sub24","12","06","rl","test","76","img/b_d_check.png","8","76","shape,color,pattern","228","1",""
"null","504212","HierDyls1lv8qq","sub24","12","06","feedback","test","null","","","na","","228","",""
"754.5","504969","HierDyls1lv8qq","sub24","12","06","rl","test","75","img/b_d_stripes.png","7","75","shape,color,pattern","229","1",""
"null","505979","HierDyls1lv8qq","sub24","12","06","feedback","test","null","","","na","","229","",""
"2495.7999999988824","508477","HierDyls1lv8qq","sub24","12","06","rl","test","74","img/r_d_check.png","6","74","shape,color,pattern","230","1",""
"null","509484","HierDyls1lv8qq","sub24","12","06","feedback","test","null","","","na","","230","",""
"504.90000000037253","509991","HierDyls1lv8qq","sub24","12","06","rl","test","72","img/r_d_stripes.png","5","72","shape,color,pattern","231","1",""
"null","510995","HierDyls1lv8qq","sub24","12","06","feedback","test","null","","","na","","231","",""
"555.1999999992549","511553","HierDyls1lv8qq","sub24","12","06","rl","test","74","img/r_d_check.png","6","74","shape,color,pattern","232","1",""
"null","512563","HierDyls1lv8qq","sub24","12","06","feedback","test","null","","","na","","232","",""
"1723.5999999996275","514289","HierDyls1lv8qq","sub24","12","06","rl","test","83","img/r_t_check.png","2","83","shape,color,pattern","233","1",""
"null","515303","HierDyls1lv8qq","sub24","12","06","feedback","test","null","","","na","","233","",""
"1012.0999999996275","516317","HierDyls1lv8qq","sub24","12","06","rl","test","65","img/r_t_stripes.png","1","65","shape,color,pattern","234","1",""
"null","517323","HierDyls1lv8qq","sub24","12","06","feedback","test","null","","","na","","234","",""
"532.7999999988824","517858","HierDyls1lv8qq","sub24","12","06","rl","test","65","img/r_t_stripes.png","1","65","shape,color,pattern","235","1",""
"null","518871","HierDyls1lv8qq","sub24","12","06","feedback","test","null","","","na","","235","",""
"1618.4000000003725","520492","HierDyls1lv8qq","sub24","12","06","rl","test","76","img/b_d_check.png","8","76","shape,color,pattern","236","1",""
"null","521501","HierDyls1lv8qq","sub24","12","06","feedback","test","null","","","na","","236","",""
"981.5","522485","HierDyls1lv8qq","sub24","12","06","rl","test","70","img/b_t_check.png","4","70","shape,color,pattern","237","1",""
"null","523495","HierDyls1lv8qq","sub24","12","06","feedback","test","null","","","na","","237","",""
"691.5","524189","HierDyls1lv8qq","sub24","12","06","rl","test","65","img/r_t_stripes.png","1","65","shape,color,pattern","238","1",""
"null","525196","HierDyls1lv8qq","sub24","12","06","feedback","test","null","","","na","","238","",""
"1685.7000000011176","526884","HierDyls1lv8qq","sub24","12","06","rl","test","75","img/b_d_stripes.png","7","75","shape,color,pattern","239","1",""
"null","527891","HierDyls1lv8qq","sub24","12","06","feedback","test","null","","","na","","239","",""
"1234.7999999988824","529128","HierDyls1lv8qq","sub24","12","06","rl","test","72","img/r_d_stripes.png","5","72","shape,color,pattern","240","1",""
"null","530140","HierDyls1lv8qq","sub24","12","06","feedback","test","null","","","na","","240","",""
"1164.0999999996275","531306","HierDyls1lv8qq","sub24","12","06","rl","test","68","img/b_t_stripes.png","3","68","shape,color,pattern","241","1",""
"null","532318","HierDyls1lv8qq","sub24","12","06","feedback","test","null","","","na","","241","",""
"1978.0999999996275","534299","HierDyls1lv8qq","sub24","12","06","rl","test","76","img/b_d_check.png","8","76","shape,color,pattern","242","1",""
"null","535309","HierDyls1lv8qq","sub24","12","06","feedback","test","null","","","na","","242","",""
"1090.2000000011176","536402","HierDyls1lv8qq","sub24","12","06","rl","test","68","img/b_t_stripes.png","3","68","shape,color,pattern","243","1",""
"null","537410","HierDyls1lv8qq","sub24","12","06","feedback","test","null","","","na","","243","",""
"2045.9000000003725","539458","HierDyls1lv8qq","sub24","12","06","rl","test","75","img/b_d_stripes.png","7","75","shape,color,pattern","244","1",""
"null","540470","HierDyls1lv8qq","sub24","12","06","feedback","test","null","","","na","","244","",""
"1485.5999999996275","541958","HierDyls1lv8qq","sub24","12","06","rl","test","70","img/b_t_check.png","4","70","shape,color,pattern","245","1",""
"null","542965","HierDyls1lv8qq","sub24","12","06","feedback","test","null","","","na","","245","",""
"2326.300000000745","545294","HierDyls1lv8qq","sub24","12","06","rl","test","83","img/r_t_check.png","2","83","shape,color,pattern","246","1",""
"null","546301","HierDyls1lv8qq","sub24","12","06","feedback","test","null","","","na","","246","",""
"null","548812","HierDyls1lv8qq","sub24","12","06","rl","test","null","img/r_d_check.png","6","74","shape,color,pattern","247","0",""
"null","549818","HierDyls1lv8qq","sub24","12","06","feedback","test","null","","","na","","247","",""
"1151.699999999255","550972","HierDyls1lv8qq","sub24","12","06","rl","test","75","img/b_d_stripes.png","7","75","shape,color,pattern","248","1",""
"null","551982","HierDyls1lv8qq","sub24","12","06","feedback","test","null","","","na","","248","",""
"9204.5","561194","HierDyls1lv8qq","sub24","12","06","","","","","","","","","","{""Q0"":""6""}"
"25329.599999999627","586527","HierDyls1lv8qq","sub24","12","06","","","","","","","","","","{""Q0"":""I pressed the keys associated with the shapes as soon as I recalled which correct key corresponded""}"
"4006.800000000745","590535","HierDyls1lv8qq","sub24","12","06","","","","","","","","","",""
