"rt","time_elapsed","subject","subID","group","day","trialType","phase","key_press","stim","stimNum","corrresp","hierarchy","trialNum","corr","responses"
"11804.200000047684","11806","HierDyklb70uzk","sub24","12","02","","","","","","","","","",""
"","15128","HierDyklb70uzk","sub24","12","02","fullscreen","","","","","","","","",""
"37689.199999809265","52817","HierDyklb70uzk","sub24","12","02","","prac","","","","","","","",""
"7657.200000047684","60479","HierDyklb70uzk","sub24","12","02","","","32","","","","","","",""
"4470.799999952316","64951","HierDyklb70uzk","sub24","12","02","","prac","","","","","","","",""
"1215.5","66169","HierDyklb70uzk","sub24","12","02","rl","test","72","img/r_d_stripes.png","5","72","shape,color,pattern","1","1",""
"null","67181","HierDyklb70uzk","sub24","12","02","feedback","test","null","","","na","","1","",""
"1308.3000001907349","68492","HierDyklb70uzk","sub24","12","02","rl","test","65","img/r_t_stripes.png","1","65","shape,color,pattern","2","1",""
"null","69503","HierDyklb70uzk","sub24","12","02","feedback","test","null","","","na","","2","",""
"685.5","70191","HierDyklb70uzk","sub24","12","02","rl","test","70","img/b_t_check.png","4","70","shape,color,pattern","3","1",""
"null","71196","HierDyklb70uzk","sub24","12","02","feedback","test","null","","","na","","3","",""
"1170.8000001907349","72369","HierDyklb70uzk","sub24","12","02","rl","test","72","img/r_d_check.png","6","74","shape,color,pattern","4","0",""
"null","73383","HierDyklb70uzk","sub24","12","02","feedback","test","null","","","na","","4","",""
"896.0999999046326","74281","HierDyklb70uzk","sub24","12","02","rl","test","68","img/b_t_stripes.png","3","68","shape,color,pattern","5","1",""
"null","75291","HierDyklb70uzk","sub24","12","02","feedback","test","null","","","na","","5","",""
"1252.2000000476837","76546","HierDyklb70uzk","sub24","12","02","rl","test","83","img/r_t_check.png","2","83","shape,color,pattern","6","1",""
"null","77558","HierDyklb70uzk","sub24","12","02","feedback","test","null","","","na","","6","",""
"1621.6000001430511","79182","HierDyklb70uzk","sub24","12","02","rl","test","75","img/b_d_stripes.png","7","75","shape,color,pattern","7","1",""
"null","80185","HierDyklb70uzk","sub24","12","02","feedback","test","null","","","na","","7","",""
"865.5999999046326","81052","HierDyklb70uzk","sub24","12","02","rl","test","68","img/b_t_stripes.png","3","68","shape,color,pattern","8","1",""
"null","82059","HierDyklb70uzk","sub24","12","02","feedback","test","null","","","na","","8","",""
"1488.5999999046326","83549","HierDyklb70uzk","sub24","12","02","rl","test","75","img/b_d_check.png","8","76","shape,color,pattern","9","0",""
"null","84557","HierDyklb70uzk","sub24","12","02","feedback","test","null","","","na","","9","",""
"646.5","85205","HierDyklb70uzk","sub24","12","02","rl","test","76","img/b_d_check.png","8","76","shape,color,pattern","10","1",""
"null","86213","HierDyklb70uzk","sub24","12","02","feedback","test","null","","","na","","10","",""
"1356.8999998569489","87572","HierDyklb70uzk","sub24","12","02","rl","test","83","img/r_t_check.png","2","83","shape,color,pattern","11","1",""
"null","88578","HierDyklb70uzk","sub24","12","02","feedback","test","null","","","na","","11","",""
"1982.2999999523163","90562","HierDyklb70uzk","sub24","12","02","rl","test","72","img/r_d_stripes.png","5","72","shape,color,pattern","12","1",""
"null","91571","HierDyklb70uzk","sub24","12","02","feedback","test","null","","","na","","12","",""
"1132.5999999046326","92706","HierDyklb70uzk","sub24","12","02","rl","test","75","img/b_d_stripes.png","7","75","shape,color,pattern","13","1",""
"null","93715","HierDyklb70uzk","sub24","12","02","feedback","test","null","","","na","","13","",""
"929.0999999046326","94647","HierDyklb70uzk","sub24","12","02","rl","test","74","img/r_d_check.png","6","74","shape,color,pattern","14","1",""
"null","95655","HierDyklb70uzk","sub24","12","02","feedback","test","null","","","na","","14","",""
"1148.8999998569489","96806","HierDyklb70uzk","sub24","12","02","rl","test","65","img/r_t_stripes.png","1","65","shape,color,pattern","15","1",""
"null","97812","HierDyklb70uzk","sub24","12","02","feedback","test","null","","","na","","15","",""
"883.5","98698","HierDyklb70uzk","sub24","12","02","rl","test","70","img/b_t_check.png","4","70","shape,color,pattern","16","1",""
"null","99710","HierDyklb70uzk","sub24","12","02","feedback","test","null","","","na","","16","",""
"1643.7999999523163","101356","HierDyklb70uzk","sub24","12","02","rl","test","75","img/b_d_check.png","8","76","shape,color,pattern","17","0",""
"null","102365","HierDyklb70uzk","sub24","12","02","feedback","test","null","","","na","","17","",""
"1318.8000001907349","103686","HierDyklb70uzk","sub24","12","02","rl","test","83","img/b_t_check.png","4","70","shape,color,pattern","18","0",""
"null","104690","HierDyklb70uzk","sub24","12","02","feedback","test","null","","","na","","18","",""
"1330.7999999523163","106023","HierDyklb70uzk","sub24","12","02","rl","test","65","img/r_t_check.png","2","83","shape,color,pattern","19","0",""
"null","107026","HierDyklb70uzk","sub24","12","02","feedback","test","null","","","na","","19","",""
"1005.9000000953674","108034","HierDyklb70uzk","sub24","12","02","rl","test","65","img/r_t_stripes.png","1","65","shape,color,pattern","20","1",""
"null","109043","HierDyklb70uzk","sub24","12","02","feedback","test","null","","","na","","20","",""
"675.5","109720","HierDyklb70uzk","sub24","12","02","rl","test","68","img/b_t_stripes.png","3","68","shape,color,pattern","21","1",""
"null","110734","HierDyklb70uzk","sub24","12","02","feedback","test","null","","","na","","21","",""
"1996.5999999046326","112733","HierDyklb70uzk","sub24","12","02","rl","test","65","img/r_t_stripes.png","1","65","shape,color,pattern","22","1",""
"null","113740","HierDyklb70uzk","sub24","12","02","feedback","test","null","","","na","","22","",""
"1169.7000000476837","114912","HierDyklb70uzk","sub24","12","02","rl","test","72","img/r_d_stripes.png","5","72","shape,color,pattern","23","1",""
"null","115925","HierDyklb70uzk","sub24","12","02","feedback","test","null","","","na","","23","",""
"842.5999999046326","116769","HierDyklb70uzk","sub24","12","02","rl","test","68","img/b_t_stripes.png","3","68","shape,color,pattern","24","1",""
"null","117779","HierDyklb70uzk","sub24","12","02","feedback","test","null","","","na","","24","",""
"null","120286","HierDyklb70uzk","sub24","12","02","rl","test","null","img/b_d_stripes.png","7","75","shape,color,pattern","25","0",""
"null","121290","HierDyklb70uzk","sub24","12","02","feedback","test","null","","","na","","25","",""
"678.7999999523163","121971","HierDyklb70uzk","sub24","12","02","rl","test","75","img/b_d_stripes.png","7","75","shape,color,pattern","26","1",""
"null","122982","HierDyklb70uzk","sub24","12","02","feedback","test","null","","","na","","26","",""
"1328.1999998092651","124312","HierDyklb70uzk","sub24","12","02","rl","test","72","img/r_d_stripes.png","5","72","shape,color,pattern","27","1",""
"null","125321","HierDyklb70uzk","sub24","12","02","feedback","test","null","","","na","","27","",""
"944.5999999046326","126268","HierDyklb70uzk","sub24","12","02","rl","test","74","img/r_d_check.png","6","74","shape,color,pattern","28","1",""
"null","127275","HierDyklb70uzk","sub24","12","02","feedback","test","null","","","na","","28","",""
"800.1999998092651","128077","HierDyklb70uzk","sub24","12","02","rl","test","74","img/r_d_check.png","6","74","shape,color,pattern","29","1",""
"null","129085","HierDyklb70uzk","sub24","12","02","feedback","test","null","","","na","","29","",""
"1312.1999998092651","130399","HierDyklb70uzk","sub24","12","02","rl","test","70","img/b_t_check.png","4","70","shape,color,pattern","30","1",""
"null","131411","HierDyklb70uzk","sub24","12","02","feedback","test","null","","","na","","30","",""
"1549.2999999523163","132962","HierDyklb70uzk","sub24","12","02","rl","test","75","img/b_d_check.png","8","76","shape,color,pattern","31","0",""
"null","133971","HierDyklb70uzk","sub24","12","02","feedback","test","null","","","na","","31","",""
"1315.5999999046326","135289","HierDyklb70uzk","sub24","12","02","rl","test","70","img/b_t_check.png","4","70","shape,color,pattern","32","1",""
"null","136298","HierDyklb70uzk","sub24","12","02","feedback","test","null","","","na","","32","",""
"1516.0999999046326","137816","HierDyklb70uzk","sub24","12","02","rl","test","83","img/r_t_check.png","2","83","shape,color,pattern","33","1",""
"null","138826","HierDyklb70uzk","sub24","12","02","feedback","test","null","","","na","","33","",""
"1764","140592","HierDyklb70uzk","sub24","12","02","rl","test","72","img/r_d_check.png","6","74","shape,color,pattern","34","0",""
"null","141606","HierDyklb70uzk","sub24","12","02","feedback","test","null","","","na","","34","",""
"2201.0999999046326","143809","HierDyklb70uzk","sub24","12","02","rl","test","75","img/b_d_stripes.png","7","75","shape,color,pattern","35","1",""
"null","144817","HierDyklb70uzk","sub24","12","02","feedback","test","null","","","na","","35","",""
"2404.5999999046326","147223","HierDyklb70uzk","sub24","12","02","rl","test","83","img/r_t_check.png","2","83","shape,color,pattern","36","1",""
"null","148237","HierDyklb70uzk","sub24","12","02","feedback","test","null","","","na","","36","",""
"700","148940","HierDyklb70uzk","sub24","12","02","rl","test","65","img/r_t_stripes.png","1","65","shape,color,pattern","37","1",""
"null","149944","HierDyklb70uzk","sub24","12","02","feedback","test","null","","","na","","37","",""
"1058.2999999523163","151005","HierDyklb70uzk","sub24","12","02","rl","test","72","img/r_d_stripes.png","5","72","shape,color,pattern","38","1",""
"null","152013","HierDyklb70uzk","sub24","12","02","feedback","test","null","","","na","","38","",""
"759.4000000953674","152774","HierDyklb70uzk","sub24","12","02","rl","test","68","img/b_t_stripes.png","3","68","shape,color,pattern","39","1",""
"null","153779","HierDyklb70uzk","sub24","12","02","feedback","test","null","","","na","","39","",""
"801.0999999046326","154582","HierDyklb70uzk","sub24","12","02","rl","test","70","img/b_t_check.png","4","70","shape,color,pattern","40","1",""
"null","155597","HierDyklb70uzk","sub24","12","02","feedback","test","null","","","na","","40","",""
"1921.5","157521","HierDyklb70uzk","sub24","12","02","rl","test","75","img/b_d_check.png","8","76","shape,color,pattern","41","0",""
"null","158533","HierDyklb70uzk","sub24","12","02","feedback","test","null","","","na","","41","",""
"961.5","159497","HierDyklb70uzk","sub24","12","02","rl","test","75","img/b_d_stripes.png","7","75","shape,color,pattern","42","1",""
"null","160504","HierDyklb70uzk","sub24","12","02","feedback","test","null","","","na","","42","",""
"1636.7000000476837","162143","HierDyklb70uzk","sub24","12","02","rl","test","65","img/r_t_stripes.png","1","65","shape,color,pattern","43","1",""
"null","163157","HierDyklb70uzk","sub24","12","02","feedback","test","null","","","na","","43","",""
"942.7999999523163","164102","HierDyklb70uzk","sub24","12","02","rl","test","70","img/b_t_check.png","4","70","shape,color,pattern","44","1",""
"null","165105","HierDyklb70uzk","sub24","12","02","feedback","test","null","","","na","","44","",""
"1180.5999999046326","166288","HierDyklb70uzk","sub24","12","02","rl","test","83","img/r_t_check.png","2","83","shape,color,pattern","45","1",""
"null","167301","HierDyklb70uzk","sub24","12","02","feedback","test","null","","","na","","45","",""
"624.7999999523163","167927","HierDyklb70uzk","sub24","12","02","rl","test","68","img/b_t_stripes.png","3","68","shape,color,pattern","46","1",""
"null","168941","HierDyklb70uzk","sub24","12","02","feedback","test","null","","","na","","46","",""
"2465.7000000476837","171409","HierDyklb70uzk","sub24","12","02","rl","test","76","img/b_d_check.png","8","76","shape,color,pattern","47","1",""
"null","172421","HierDyklb70uzk","sub24","12","02","feedback","test","null","","","na","","47","",""
"909.2999999523163","173332","HierDyklb70uzk","sub24","12","02","rl","test","72","img/r_d_stripes.png","5","72","shape,color,pattern","48","1",""
"null","174337","HierDyklb70uzk","sub24","12","02","feedback","test","null","","","na","","48","",""
"2288.2000000476837","176627","HierDyklb70uzk","sub24","12","02","rl","test","74","img/r_d_check.png","6","74","shape,color,pattern","49","1",""
"null","177636","HierDyklb70uzk","sub24","12","02","feedback","test","null","","","na","","49","",""
"1580.6000001430511","179219","HierDyklb70uzk","sub24","12","02","rl","test","76","img/b_d_check.png","8","76","shape,color,pattern","50","1",""
"null","180229","HierDyklb70uzk","sub24","12","02","feedback","test","null","","","na","","50","",""
"1172.5","181403","HierDyklb70uzk","sub24","12","02","rl","test","65","img/r_t_stripes.png","1","65","shape,color,pattern","51","1",""
"null","182413","HierDyklb70uzk","sub24","12","02","feedback","test","null","","","na","","51","",""
"956.5999999046326","183371","HierDyklb70uzk","sub24","12","02","rl","test","72","img/r_d_stripes.png","5","72","shape,color,pattern","52","1",""
"null","184379","HierDyklb70uzk","sub24","12","02","feedback","test","null","","","na","","52","",""
"2396.4000000953674","186777","HierDyklb70uzk","sub24","12","02","rl","test","75","img/b_d_stripes.png","7","75","shape,color,pattern","53","1",""
"null","187788","HierDyklb70uzk","sub24","12","02","feedback","test","null","","","na","","53","",""
"2182.2000000476837","189972","HierDyklb70uzk","sub24","12","02","rl","test","74","img/r_d_check.png","6","74","shape,color,pattern","54","1",""
"null","190979","HierDyklb70uzk","sub24","12","02","feedback","test","null","","","na","","54","",""
"1815.7999999523163","192797","HierDyklb70uzk","sub24","12","02","rl","test","75","img/b_d_stripes.png","7","75","shape,color,pattern","55","1",""
"null","193804","HierDyklb70uzk","sub24","12","02","feedback","test","null","","","na","","55","",""
"1252.4000000953674","195059","HierDyklb70uzk","sub24","12","02","rl","test","72","img/r_d_stripes.png","5","72","shape,color,pattern","56","1",""
"null","196067","HierDyklb70uzk","sub24","12","02","feedback","test","null","","","na","","56","",""
"1454.7999999523163","197524","HierDyklb70uzk","sub24","12","02","rl","test","83","img/r_t_check.png","2","83","shape,color,pattern","57","1",""
"null","198530","HierDyklb70uzk","sub24","12","02","feedback","test","null","","","na","","57","",""
"615.5999999046326","199148","HierDyklb70uzk","sub24","12","02","rl","test","83","img/r_t_check.png","2","83","shape,color,pattern","58","1",""
"null","200153","HierDyklb70uzk","sub24","12","02","feedback","test","null","","","na","","58","",""
"911.8999998569489","201067","HierDyklb70uzk","sub24","12","02","rl","test","70","img/b_t_check.png","4","70","shape,color,pattern","59","1",""
"null","202073","HierDyklb70uzk","sub24","12","02","feedback","test","null","","","na","","59","",""
"641.2000000476837","202716","HierDyklb70uzk","sub24","12","02","rl","test","68","img/b_t_stripes.png","3","68","shape,color,pattern","60","1",""
"null","203724","HierDyklb70uzk","sub24","12","02","feedback","test","null","","","na","","60","",""
"null","206234","HierDyklb70uzk","sub24","12","02","rl","test","null","img/b_d_check.png","8","76","shape,color,pattern","61","0",""
"null","207242","HierDyklb70uzk","sub24","12","02","feedback","test","null","","","na","","61","",""
"1957.0999999046326","209201","HierDyklb70uzk","sub24","12","02","rl","test","74","img/r_d_check.png","6","74","shape,color,pattern","62","1",""
"null","210209","HierDyklb70uzk","sub24","12","02","feedback","test","null","","","na","","62","",""
"763.9000000953674","210975","HierDyklb70uzk","sub24","12","02","rl","test","68","img/b_t_stripes.png","3","68","shape,color,pattern","63","1",""
"null","211985","HierDyklb70uzk","sub24","12","02","feedback","test","null","","","na","","63","",""
"1072.0999999046326","213059","HierDyklb70uzk","sub24","12","02","rl","test","65","img/r_t_stripes.png","1","65","shape,color,pattern","64","1",""
"null","214067","HierDyklb70uzk","sub24","12","02","feedback","test","null","","","na","","64","",""
"2420.9000000953674","216490","HierDyklb70uzk","sub24","12","02","rl","test","83","img/r_t_check.png","2","83","shape,color,pattern","65","1",""
"null","217497","HierDyklb70uzk","sub24","12","02","feedback","test","null","","","na","","65","",""
"1112.3000001907349","218612","HierDyklb70uzk","sub24","12","02","rl","test","72","img/r_d_stripes.png","5","72","shape,color,pattern","66","1",""
"null","219618","HierDyklb70uzk","sub24","12","02","feedback","test","null","","","na","","66","",""
"1465.2000000476837","221085","HierDyklb70uzk","sub24","12","02","rl","test","74","img/r_d_check.png","6","74","shape,color,pattern","67","1",""
"null","222096","HierDyklb70uzk","sub24","12","02","feedback","test","null","","","na","","67","",""
"902.4000000953674","223000","HierDyklb70uzk","sub24","12","02","rl","test","70","img/b_t_check.png","4","70","shape,color,pattern","68","1",""
"null","224009","HierDyklb70uzk","sub24","12","02","feedback","test","null","","","na","","68","",""
"1846.9000000953674","225858","HierDyklb70uzk","sub24","12","02","rl","test","72","img/b_d_stripes.png","7","75","shape,color,pattern","69","0",""
"null","226865","HierDyklb70uzk","sub24","12","02","feedback","test","null","","","na","","69","",""
"1188.6000001430511","228056","HierDyklb70uzk","sub24","12","02","rl","test","65","img/r_t_stripes.png","1","65","shape,color,pattern","70","1",""
"null","229064","HierDyklb70uzk","sub24","12","02","feedback","test","null","","","na","","70","",""
"1262.7999999523163","230328","HierDyklb70uzk","sub24","12","02","rl","test","75","img/b_d_stripes.png","7","75","shape,color,pattern","71","1",""
"null","231337","HierDyklb70uzk","sub24","12","02","feedback","test","null","","","na","","71","",""
"829","232168","HierDyklb70uzk","sub24","12","02","rl","test","68","img/b_t_stripes.png","3","68","shape,color,pattern","72","1",""
"null","233177","HierDyklb70uzk","sub24","12","02","feedback","test","null","","","na","","72","",""
"1207.4000000953674","234386","HierDyklb70uzk","sub24","12","02","rl","test","76","img/b_d_check.png","8","76","shape,color,pattern","73","1",""
"null","235391","HierDyklb70uzk","sub24","12","02","feedback","test","null","","","na","","73","",""
"898","236291","HierDyklb70uzk","sub24","12","02","rl","test","76","img/b_d_check.png","8","76","shape,color,pattern","74","1",""
"null","237298","HierDyklb70uzk","sub24","12","02","feedback","test","null","","","na","","74","",""
"2177.399999856949","239478","HierDyklb70uzk","sub24","12","02","rl","test","70","img/b_t_check.png","4","70","shape,color,pattern","75","1",""
"null","240491","HierDyklb70uzk","sub24","12","02","feedback","test","null","","","na","","75","",""
"887.3000001907349","241381","HierDyklb70uzk","sub24","12","02","rl","test","72","img/r_d_stripes.png","5","72","shape,color,pattern","76","1",""
"null","242395","HierDyklb70uzk","sub24","12","02","feedback","test","null","","","na","","76","",""
"1795.7999999523163","244193","HierDyklb70uzk","sub24","12","02","rl","test","83","img/r_t_check.png","2","83","shape,color,pattern","77","1",""
"null","245202","HierDyklb70uzk","sub24","12","02","feedback","test","null","","","na","","77","",""
"1344","246549","HierDyklb70uzk","sub24","12","02","rl","test","74","img/r_d_check.png","6","74","shape,color,pattern","78","1",""
"null","247562","HierDyklb70uzk","sub24","12","02","feedback","test","null","","","na","","78","",""
"null","250072","HierDyklb70uzk","sub24","12","02","rl","test","null","img/r_t_check.png","2","83","shape,color,pattern","79","0",""
"null","251079","HierDyklb70uzk","sub24","12","02","feedback","test","null","","","na","","79","",""
"780","251861","HierDyklb70uzk","sub24","12","02","rl","test","68","img/b_t_stripes.png","3","68","shape,color,pattern","80","1",""
"null","252874","HierDyklb70uzk","sub24","12","02","feedback","test","null","","","na","","80","",""
"1756.8999998569489","254633","HierDyklb70uzk","sub24","12","02","rl","test","74","img/r_d_check.png","6","74","shape,color,pattern","81","1",""
"null","255643","HierDyklb70uzk","sub24","12","02","feedback","test","null","","","na","","81","",""
"1083.8999998569489","256729","HierDyklb70uzk","sub24","12","02","rl","test","65","img/r_t_stripes.png","1","65","shape,color,pattern","82","1",""
"null","257735","HierDyklb70uzk","sub24","12","02","feedback","test","null","","","na","","82","",""
"811.2000000476837","258549","HierDyklb70uzk","sub24","12","02","rl","test","65","img/r_t_stripes.png","1","65","shape,color,pattern","83","1",""
"null","259559","HierDyklb70uzk","sub24","12","02","feedback","test","null","","","na","","83","",""
"2353.7999999523163","261914","HierDyklb70uzk","sub24","12","02","rl","test","75","img/b_d_stripes.png","7","75","shape,color,pattern","84","1",""
"null","262919","HierDyklb70uzk","sub24","12","02","feedback","test","null","","","na","","84","",""
"828.2000000476837","263749","HierDyklb70uzk","sub24","12","02","rl","test","68","img/b_t_stripes.png","3","68","shape,color,pattern","85","1",""
"null","264760","HierDyklb70uzk","sub24","12","02","feedback","test","null","","","na","","85","",""
"1564.4000000953674","266326","HierDyklb70uzk","sub24","12","02","rl","test","65","img/r_t_stripes.png","1","65","shape,color,pattern","86","1",""
"null","267337","HierDyklb70uzk","sub24","12","02","feedback","test","null","","","na","","86","",""
"1246.9000000953674","268587","HierDyklb70uzk","sub24","12","02","rl","test","75","img/b_d_check.png","8","76","shape,color,pattern","87","0",""
"null","269590","HierDyklb70uzk","sub24","12","02","feedback","test","null","","","na","","87","",""
"961.3000001907349","270554","HierDyklb70uzk","sub24","12","02","rl","test","70","img/b_t_check.png","4","70","shape,color,pattern","88","1",""
"null","271562","HierDyklb70uzk","sub24","12","02","feedback","test","null","","","na","","88","",""
"799.4000000953674","272363","HierDyklb70uzk","sub24","12","02","rl","test","68","img/b_t_stripes.png","3","68","shape,color,pattern","89","1",""
"null","273376","HierDyklb70uzk","sub24","12","02","feedback","test","null","","","na","","89","",""
"1636.5999999046326","275015","HierDyklb70uzk","sub24","12","02","rl","test","72","img/r_d_stripes.png","5","72","shape,color,pattern","90","1",""
"null","276024","HierDyklb70uzk","sub24","12","02","feedback","test","null","","","na","","90","",""
"1817.2000000476837","277843","HierDyklb70uzk","sub24","12","02","rl","test","75","img/b_d_check.png","8","76","shape,color,pattern","91","0",""
"null","278855","HierDyklb70uzk","sub24","12","02","feedback","test","null","","","na","","91","",""
"669.3999998569489","279526","HierDyklb70uzk","sub24","12","02","rl","test","75","img/b_d_stripes.png","7","75","shape,color,pattern","92","1",""
"null","280538","HierDyklb70uzk","sub24","12","02","feedback","test","null","","","na","","92","",""
"1334.0999999046326","281874","HierDyklb70uzk","sub24","12","02","rl","test","83","img/r_t_check.png","2","83","shape,color,pattern","93","1",""
"null","282880","HierDyklb70uzk","sub24","12","02","feedback","test","null","","","na","","93","",""
"1051","283934","HierDyklb70uzk","sub24","12","02","rl","test","70","img/b_t_check.png","4","70","shape,color,pattern","94","1",""
"null","284945","HierDyklb70uzk","sub24","12","02","feedback","test","null","","","na","","94","",""
"1196.7999999523163","286144","HierDyklb70uzk","sub24","12","02","rl","test","72","img/r_d_stripes.png","5","72","shape,color,pattern","95","1",""
"null","287151","HierDyklb70uzk","sub24","12","02","feedback","test","null","","","na","","95","",""
"1672.4000000953674","288826","HierDyklb70uzk","sub24","12","02","rl","test","74","img/r_d_check.png","6","74","shape,color,pattern","96","1",""
"null","289833","HierDyklb70uzk","sub24","12","02","feedback","test","null","","","na","","96","",""
"725.6000001430511","290561","HierDyklb70uzk","sub24","12","02","rl","test","72","img/r_d_stripes.png","5","72","shape,color,pattern","97","1",""
"null","291570","HierDyklb70uzk","sub24","12","02","feedback","test","null","","","na","","97","",""
"1107.7999999523163","292680","HierDyklb70uzk","sub24","12","02","rl","test","75","img/b_d_stripes.png","7","75","shape,color,pattern","98","1",""
"null","293687","HierDyklb70uzk","sub24","12","02","feedback","test","null","","","na","","98","",""
"1134.4000000953674","294824","HierDyklb70uzk","sub24","12","02","rl","test","68","img/b_t_stripes.png","3","68","shape,color,pattern","99","1",""
"null","295834","HierDyklb70uzk","sub24","12","02","feedback","test","null","","","na","","99","",""
"2367.899999856949","298204","HierDyklb70uzk","sub24","12","02","rl","test","83","img/r_t_check.png","2","83","shape,color,pattern","100","1",""
"null","299214","HierDyklb70uzk","sub24","12","02","feedback","test","null","","","na","","100","",""
"681.4000000953674","299897","HierDyklb70uzk","sub24","12","02","rl","test","65","img/r_t_stripes.png","1","65","shape,color,pattern","101","1",""
"null","300902","HierDyklb70uzk","sub24","12","02","feedback","test","null","","","na","","101","",""
"1734.7000000476837","302638","HierDyklb70uzk","sub24","12","02","rl","test","75","img/b_d_check.png","8","76","shape,color,pattern","102","0",""
"null","303646","HierDyklb70uzk","sub24","12","02","feedback","test","null","","","na","","102","",""
"1192.9000000953674","304840","HierDyklb70uzk","sub24","12","02","rl","test","70","img/b_t_check.png","4","70","shape,color,pattern","103","1",""
"null","305845","HierDyklb70uzk","sub24","12","02","feedback","test","null","","","na","","103","",""
"1507.5","307355","HierDyklb70uzk","sub24","12","02","rl","test","70","img/b_t_check.png","4","70","shape,color,pattern","104","1",""
"null","308370","HierDyklb70uzk","sub24","12","02","feedback","test","null","","","na","","104","",""
"1235.9000000953674","309607","HierDyklb70uzk","sub24","12","02","rl","test","74","img/r_d_check.png","6","74","shape,color,pattern","105","1",""
"null","310617","HierDyklb70uzk","sub24","12","02","feedback","test","null","","","na","","105","",""
"1475.8000001907349","312095","HierDyklb70uzk","sub24","12","02","rl","test","83","img/r_t_check.png","2","83","shape,color,pattern","106","1",""
"null","313098","HierDyklb70uzk","sub24","12","02","feedback","test","null","","","na","","106","",""
"1580.1999998092651","314681","HierDyklb70uzk","sub24","12","02","rl","test","76","img/b_d_check.png","8","76","shape,color,pattern","107","1",""
"null","315688","HierDyklb70uzk","sub24","12","02","feedback","test","null","","","na","","107","",""
"1740.7000000476837","317431","HierDyklb70uzk","sub24","12","02","rl","test","65","img/r_t_stripes.png","1","65","shape,color,pattern","108","1",""
"null","318437","HierDyklb70uzk","sub24","12","02","feedback","test","null","","","na","","108","",""
"2346.399999856949","320785","HierDyklb70uzk","sub24","12","02","rl","test","75","img/b_d_stripes.png","7","75","shape,color,pattern","109","1",""
"null","321791","HierDyklb70uzk","sub24","12","02","feedback","test","null","","","na","","109","",""
"880.6000001430511","322674","HierDyklb70uzk","sub24","12","02","rl","test","72","img/r_d_stripes.png","5","72","shape,color,pattern","110","1",""
"null","323681","HierDyklb70uzk","sub24","12","02","feedback","test","null","","","na","","110","",""
"949.0999999046326","324632","HierDyklb70uzk","sub24","12","02","rl","test","68","img/b_t_stripes.png","3","68","shape,color,pattern","111","1",""
"null","325640","HierDyklb70uzk","sub24","12","02","feedback","test","null","","","na","","111","",""
"1923.7999999523163","327566","HierDyklb70uzk","sub24","12","02","rl","test","74","img/r_d_check.png","6","74","shape,color,pattern","112","1",""
"null","328575","HierDyklb70uzk","sub24","12","02","feedback","test","null","","","na","","112","",""
"826.0999999046326","329403","HierDyklb70uzk","sub24","12","02","rl","test","68","img/b_t_stripes.png","3","68","shape,color,pattern","113","1",""
"null","330412","HierDyklb70uzk","sub24","12","02","feedback","test","null","","","na","","113","",""
"1013.3999998569489","331428","HierDyklb70uzk","sub24","12","02","rl","test","72","img/r_d_stripes.png","5","72","shape,color,pattern","114","1",""
"null","332441","HierDyklb70uzk","sub24","12","02","feedback","test","null","","","na","","114","",""
"1143.5","333587","HierDyklb70uzk","sub24","12","02","rl","test","74","img/r_d_check.png","6","74","shape,color,pattern","115","1",""
"null","334598","HierDyklb70uzk","sub24","12","02","feedback","test","null","","","na","","115","",""
"1975.4000000953674","336575","HierDyklb70uzk","sub24","12","02","rl","test","65","img/r_t_stripes.png","1","65","shape,color,pattern","116","1",""
"null","337582","HierDyklb70uzk","sub24","12","02","feedback","test","null","","","na","","116","",""
"1573","339157","HierDyklb70uzk","sub24","12","02","rl","test","76","img/b_d_check.png","8","76","shape,color,pattern","117","1",""
"null","340165","HierDyklb70uzk","sub24","12","02","feedback","test","null","","","na","","117","",""
"1047.1000001430511","341215","HierDyklb70uzk","sub24","12","02","rl","test","70","img/b_t_check.png","4","70","shape,color,pattern","118","1",""
"null","342220","HierDyklb70uzk","sub24","12","02","feedback","test","null","","","na","","118","",""
"695.2000000476837","342917","HierDyklb70uzk","sub24","12","02","rl","test","70","img/b_t_check.png","4","70","shape,color,pattern","119","1",""
"null","343925","HierDyklb70uzk","sub24","12","02","feedback","test","null","","","na","","119","",""
"1325.5","345252","HierDyklb70uzk","sub24","12","02","rl","test","83","img/r_t_check.png","2","83","shape,color,pattern","120","1",""
"null","346261","HierDyklb70uzk","sub24","12","02","feedback","test","null","","","na","","120","",""
"1952.1000001430511","348215","HierDyklb70uzk","sub24","12","02","rl","test","75","img/b_d_stripes.png","7","75","shape,color,pattern","121","1",""
"null","349221","HierDyklb70uzk","sub24","12","02","feedback","test","null","","","na","","121","",""
"1849.2000000476837","351072","HierDyklb70uzk","sub24","12","02","rl","test","83","img/r_t_check.png","2","83","shape,color,pattern","122","1",""
"null","352079","HierDyklb70uzk","sub24","12","02","feedback","test","null","","","na","","122","",""
"null","354589","HierDyklb70uzk","sub24","12","02","rl","test","null","img/b_d_check.png","8","76","shape,color,pattern","123","0",""
"null","355599","HierDyklb70uzk","sub24","12","02","feedback","test","null","","","na","","123","",""
"1116.4000000953674","356718","HierDyklb70uzk","sub24","12","02","rl","test","68","img/b_t_stripes.png","3","68","shape,color,pattern","124","1",""
"null","357724","HierDyklb70uzk","sub24","12","02","feedback","test","null","","","na","","124","",""
"943.5999999046326","358670","HierDyklb70uzk","sub24","12","02","rl","test","65","img/r_t_stripes.png","1","65","shape,color,pattern","125","1",""
"null","359676","HierDyklb70uzk","sub24","12","02","feedback","test","null","","","na","","125","",""
"1535.0999999046326","361214","HierDyklb70uzk","sub24","12","02","rl","test","75","img/b_d_stripes.png","7","75","shape,color,pattern","126","1",""
"null","362220","HierDyklb70uzk","sub24","12","02","feedback","test","null","","","na","","126","",""
"747.2000000476837","362969","HierDyklb70uzk","sub24","12","02","rl","test","72","img/r_d_stripes.png","5","72","shape,color,pattern","127","1",""
"null","363984","HierDyklb70uzk","sub24","12","02","feedback","test","null","","","na","","127","",""
"758.7000000476837","364745","HierDyklb70uzk","sub24","12","02","rl","test","72","img/r_d_stripes.png","5","72","shape,color,pattern","128","1",""
"null","365748","HierDyklb70uzk","sub24","12","02","feedback","test","null","","","na","","128","",""
"1055.5","366806","HierDyklb70uzk","sub24","12","02","rl","test","70","img/b_t_check.png","4","70","shape,color,pattern","129","1",""
"null","367814","HierDyklb70uzk","sub24","12","02","feedback","test","null","","","na","","129","",""
"1537.5","369353","HierDyklb70uzk","sub24","12","02","rl","test","74","img/r_d_check.png","6","74","shape,color,pattern","130","1",""
"null","370366","HierDyklb70uzk","sub24","12","02","feedback","test","null","","","na","","130","",""
"1376.2999999523163","371745","HierDyklb70uzk","sub24","12","02","rl","test","76","img/b_d_check.png","8","76","shape,color,pattern","131","1",""
"null","372751","HierDyklb70uzk","sub24","12","02","feedback","test","null","","","na","","131","",""
"1064.7999999523163","373817","HierDyklb70uzk","sub24","12","02","rl","test","65","img/r_t_check.png","2","83","shape,color,pattern","132","0",""
"null","374832","HierDyklb70uzk","sub24","12","02","feedback","test","null","","","na","","132","",""
"1482.6000001430511","376317","HierDyklb70uzk","sub24","12","02","rl","test","74","img/r_d_check.png","6","74","shape,color,pattern","133","1",""
"null","377325","HierDyklb70uzk","sub24","12","02","feedback","test","null","","","na","","133","",""
"1120.5999999046326","378447","HierDyklb70uzk","sub24","12","02","rl","test","65","img/r_t_stripes.png","1","65","shape,color,pattern","134","1",""
"null","379454","HierDyklb70uzk","sub24","12","02","feedback","test","null","","","na","","134","",""
"1265.2000000476837","380721","HierDyklb70uzk","sub24","12","02","rl","test","76","img/b_d_check.png","8","76","shape,color,pattern","135","1",""
"null","381732","HierDyklb70uzk","sub24","12","02","feedback","test","null","","","na","","135","",""
"2060.9000000953674","383795","HierDyklb70uzk","sub24","12","02","rl","test","68","img/b_t_stripes.png","3","68","shape,color,pattern","136","1",""
"null","384805","HierDyklb70uzk","sub24","12","02","feedback","test","null","","","na","","136","",""
"1612.8999998569489","386420","HierDyklb70uzk","sub24","12","02","rl","test","75","img/b_d_stripes.png","7","75","shape,color,pattern","137","1",""
"null","387429","HierDyklb70uzk","sub24","12","02","feedback","test","null","","","na","","137","",""
"1076.2999999523163","388507","HierDyklb70uzk","sub24","12","02","rl","test","65","img/r_t_stripes.png","1","65","shape,color,pattern","138","1",""
"null","389517","HierDyklb70uzk","sub24","12","02","feedback","test","null","","","na","","138","",""
"1753.2000000476837","391273","HierDyklb70uzk","sub24","12","02","rl","test","68","img/b_t_stripes.png","3","68","shape,color,pattern","139","1",""
"null","392287","HierDyklb70uzk","sub24","12","02","feedback","test","null","","","na","","139","",""
"1691.7000000476837","393980","HierDyklb70uzk","sub24","12","02","rl","test","83","img/r_t_check.png","2","83","shape,color,pattern","140","1",""
"null","394992","HierDyklb70uzk","sub24","12","02","feedback","test","null","","","na","","140","",""
"964.2000000476837","395958","HierDyklb70uzk","sub24","12","02","rl","test","72","img/r_d_stripes.png","5","72","shape,color,pattern","141","1",""
"null","396964","HierDyklb70uzk","sub24","12","02","feedback","test","null","","","na","","141","",""
"1275.1000001430511","398241","HierDyklb70uzk","sub24","12","02","rl","test","75","img/b_d_stripes.png","7","75","shape,color,pattern","142","1",""
"null","399251","HierDyklb70uzk","sub24","12","02","feedback","test","null","","","na","","142","",""
"992.7999999523163","400246","HierDyklb70uzk","sub24","12","02","rl","test","70","img/b_t_check.png","4","70","shape,color,pattern","143","1",""
"null","401250","HierDyklb70uzk","sub24","12","02","feedback","test","null","","","na","","143","",""
"null","403758","HierDyklb70uzk","sub24","12","02","rl","test","null","img/r_d_check.png","6","74","shape,color,pattern","144","0",""
"null","404764","HierDyklb70uzk","sub24","12","02","feedback","test","null","","","na","","144","",""
"1038.9000000953674","405805","HierDyklb70uzk","sub24","12","02","rl","test","74","img/r_d_check.png","6","74","shape,color,pattern","145","1",""
"null","406811","HierDyklb70uzk","sub24","12","02","feedback","test","null","","","na","","145","",""
"1256.7000000476837","408070","HierDyklb70uzk","sub24","12","02","rl","test","83","img/r_t_check.png","2","83","shape,color,pattern","146","1",""
"null","409076","HierDyklb70uzk","sub24","12","02","feedback","test","null","","","na","","146","",""
"578.5","409656","HierDyklb70uzk","sub24","12","02","rl","test","74","img/r_d_check.png","6","74","shape,color,pattern","147","1",""
"null","410669","HierDyklb70uzk","sub24","12","02","feedback","test","null","","","na","","147","",""
"760","411431","HierDyklb70uzk","sub24","12","02","rl","test","72","img/r_d_stripes.png","5","72","shape,color,pattern","148","1",""
"null","412437","HierDyklb70uzk","sub24","12","02","feedback","test","null","","","na","","148","",""
"1609.4000000953674","414049","HierDyklb70uzk","sub24","12","02","rl","test","70","img/b_t_check.png","4","70","shape,color,pattern","149","1",""
"null","415063","HierDyklb70uzk","sub24","12","02","feedback","test","null","","","na","","149","",""
"1356.4000000953674","416421","HierDyklb70uzk","sub24","12","02","rl","test","76","img/b_d_check.png","8","76","shape,color,pattern","150","1",""
"null","417430","HierDyklb70uzk","sub24","12","02","feedback","test","null","","","na","","150","",""
"929.4000000953674","418362","HierDyklb70uzk","sub24","12","02","rl","test","75","img/b_d_stripes.png","7","75","shape,color,pattern","151","1",""
"null","419375","HierDyklb70uzk","sub24","12","02","feedback","test","null","","","na","","151","",""
"844.2999999523163","420221","HierDyklb70uzk","sub24","12","02","rl","test","68","img/b_t_stripes.png","3","68","shape,color,pattern","152","1",""
"null","421228","HierDyklb70uzk","sub24","12","02","feedback","test","null","","","na","","152","",""
"1478.2999999523163","422708","HierDyklb70uzk","sub24","12","02","rl","test","65","img/r_t_stripes.png","1","65","shape,color,pattern","153","1",""
"null","423718","HierDyklb70uzk","sub24","12","02","feedback","test","null","","","na","","153","",""
"786.5999999046326","424507","HierDyklb70uzk","sub24","12","02","rl","test","70","img/b_t_check.png","4","70","shape,color,pattern","154","1",""
"null","425515","HierDyklb70uzk","sub24","12","02","feedback","test","null","","","na","","154","",""
"1274.6000001430511","426791","HierDyklb70uzk","sub24","12","02","rl","test","75","img/b_d_stripes.png","7","75","shape,color,pattern","155","1",""
"null","427799","HierDyklb70uzk","sub24","12","02","feedback","test","null","","","na","","155","",""
"1193.0999999046326","428994","HierDyklb70uzk","sub24","12","02","rl","test","83","img/r_t_check.png","2","83","shape,color,pattern","156","1",""
"null","430004","HierDyklb70uzk","sub24","12","02","feedback","test","null","","","na","","156","",""
"1373.7999999523163","431380","HierDyklb70uzk","sub24","12","02","rl","test","76","img/b_d_check.png","8","76","shape,color,pattern","157","1",""
"null","432386","HierDyklb70uzk","sub24","12","02","feedback","test","null","","","na","","157","",""
"2041","434429","HierDyklb70uzk","sub24","12","02","rl","test","83","img/r_t_check.png","2","83","shape,color,pattern","158","1",""
"null","435437","HierDyklb70uzk","sub24","12","02","feedback","test","null","","","na","","158","",""
"2173.0999999046326","437612","HierDyklb70uzk","sub24","12","02","rl","test","74","img/r_d_check.png","6","74","shape,color,pattern","159","1",""
"null","438619","HierDyklb70uzk","sub24","12","02","feedback","test","null","","","na","","159","",""
"822.9000000953674","439443","HierDyklb70uzk","sub24","12","02","rl","test","68","img/b_t_stripes.png","3","68","shape,color,pattern","160","1",""
"null","440452","HierDyklb70uzk","sub24","12","02","feedback","test","null","","","na","","160","",""
"705","441159","HierDyklb70uzk","sub24","12","02","rl","test","72","img/r_d_stripes.png","5","72","shape,color,pattern","161","1",""
"null","442173","HierDyklb70uzk","sub24","12","02","feedback","test","null","","","na","","161","",""
"698.2999999523163","442874","HierDyklb70uzk","sub24","12","02","rl","test","72","img/r_d_stripes.png","5","72","shape,color,pattern","162","1",""
"null","443886","HierDyklb70uzk","sub24","12","02","feedback","test","null","","","na","","162","",""
"1265.7000000476837","445154","HierDyklb70uzk","sub24","12","02","rl","test","65","img/r_t_stripes.png","1","65","shape,color,pattern","163","1",""
"null","446163","HierDyklb70uzk","sub24","12","02","feedback","test","null","","","na","","163","",""
"646.1999998092651","446811","HierDyklb70uzk","sub24","12","02","rl","test","65","img/r_t_stripes.png","1","65","shape,color,pattern","164","1",""
"null","447818","HierDyklb70uzk","sub24","12","02","feedback","test","null","","","na","","164","",""
"1455.7000000476837","449276","HierDyklb70uzk","sub24","12","02","rl","test","70","img/b_t_check.png","4","70","shape,color,pattern","165","1",""
"null","450286","HierDyklb70uzk","sub24","12","02","feedback","test","null","","","na","","165","",""
"2327.7000000476837","452616","HierDyklb70uzk","sub24","12","02","rl","test","76","img/b_d_check.png","8","76","shape,color,pattern","166","1",""
"null","453628","HierDyklb70uzk","sub24","12","02","feedback","test","null","","","na","","166","",""
"917.2000000476837","454547","HierDyklb70uzk","sub24","12","02","rl","test","75","img/b_d_stripes.png","7","75","shape,color,pattern","167","1",""
"null","455555","HierDyklb70uzk","sub24","12","02","feedback","test","null","","","na","","167","",""
"892.4000000953674","456450","HierDyklb70uzk","sub24","12","02","rl","test","68","img/b_t_stripes.png","3","68","shape,color,pattern","168","1",""
"null","457462","HierDyklb70uzk","sub24","12","02","feedback","test","null","","","na","","168","",""
"1666.7000000476837","459131","HierDyklb70uzk","sub24","12","02","rl","test","76","img/b_d_check.png","8","76","shape,color,pattern","169","1",""
"null","460141","HierDyklb70uzk","sub24","12","02","feedback","test","null","","","na","","169","",""
"910.6000001430511","461054","HierDyklb70uzk","sub24","12","02","rl","test","68","img/b_t_stripes.png","3","68","shape,color,pattern","170","1",""
"null","462061","HierDyklb70uzk","sub24","12","02","feedback","test","null","","","na","","170","",""
"1313","463376","HierDyklb70uzk","sub24","12","02","rl","test","76","img/b_d_stripes.png","7","75","shape,color,pattern","171","0",""
"null","464390","HierDyklb70uzk","sub24","12","02","feedback","test","null","","","na","","171","",""
"null","466900","HierDyklb70uzk","sub24","12","02","rl","test","null","img/r_t_check.png","2","83","shape,color,pattern","172","0",""
"null","467908","HierDyklb70uzk","sub24","12","02","feedback","test","null","","","na","","172","",""
"1667","469577","HierDyklb70uzk","sub24","12","02","rl","test","74","img/r_d_check.png","6","74","shape,color,pattern","173","1",""
"null","470590","HierDyklb70uzk","sub24","12","02","feedback","test","null","","","na","","173","",""
"1310.2000000476837","471902","HierDyklb70uzk","sub24","12","02","rl","test","75","img/b_d_stripes.png","7","75","shape,color,pattern","174","1",""
"null","472908","HierDyklb70uzk","sub24","12","02","feedback","test","null","","","na","","174","",""
"1057.2000000476837","473968","HierDyklb70uzk","sub24","12","02","rl","test","76","img/b_d_check.png","8","76","shape,color,pattern","175","1",""
"null","474979","HierDyklb70uzk","sub24","12","02","feedback","test","null","","","na","","175","",""
"837.5","475819","HierDyklb70uzk","sub24","12","02","rl","test","70","img/b_t_check.png","4","70","shape,color,pattern","176","1",""
"null","476828","HierDyklb70uzk","sub24","12","02","feedback","test","null","","","na","","176","",""
"1528.4000000953674","478358","HierDyklb70uzk","sub24","12","02","rl","test","72","img/r_d_stripes.png","5","72","shape,color,pattern","177","1",""
"null","479364","HierDyklb70uzk","sub24","12","02","feedback","test","null","","","na","","177","",""
"776.9000000953674","480143","HierDyklb70uzk","sub24","12","02","rl","test","74","img/r_d_check.png","6","74","shape,color,pattern","178","1",""
"null","481155","HierDyklb70uzk","sub24","12","02","feedback","test","null","","","na","","178","",""
"null","483668","HierDyklb70uzk","sub24","12","02","rl","test","null","img/r_t_stripes.png","1","65","shape,color,pattern","179","0",""
"null","484674","HierDyklb70uzk","sub24","12","02","feedback","test","null","","","na","","179","",""
"941.4000000953674","485617","HierDyklb70uzk","sub24","12","02","rl","test","83","img/r_t_check.png","2","83","shape,color,pattern","180","1",""
"null","486628","HierDyklb70uzk","sub24","12","02","feedback","test","null","","","na","","180","",""
"523.7000000476837","487154","HierDyklb70uzk","sub24","12","02","rl","test","65","img/r_t_stripes.png","1","65","shape,color,pattern","181","1",""
"null","488164","HierDyklb70uzk","sub24","12","02","feedback","test","null","","","na","","181","",""
"777.5","488943","HierDyklb70uzk","sub24","12","02","rl","test","70","img/b_t_check.png","4","70","shape,color,pattern","182","1",""
"null","489955","HierDyklb70uzk","sub24","12","02","feedback","test","null","","","na","","182","",""
"586.7000000476837","490544","HierDyklb70uzk","sub24","12","02","rl","test","68","img/b_t_stripes.png","3","68","shape,color,pattern","183","1",""
"null","491557","HierDyklb70uzk","sub24","12","02","feedback","test","null","","","na","","183","",""
"977.5","492537","HierDyklb70uzk","sub24","12","02","rl","test","72","img/r_d_stripes.png","5","72","shape,color,pattern","184","1",""
"null","493548","HierDyklb70uzk","sub24","12","02","feedback","test","null","","","na","","184","",""
"838.2999999523163","494389","HierDyklb70uzk","sub24","12","02","rl","test","70","img/b_t_check.png","4","70","shape,color,pattern","185","1",""
"null","495393","HierDyklb70uzk","sub24","12","02","feedback","test","null","","","na","","185","",""
"1360.3999998569489","496755","HierDyklb70uzk","sub24","12","02","rl","test","65","img/r_t_stripes.png","1","65","shape,color,pattern","186","1",""
"null","497763","HierDyklb70uzk","sub24","12","02","feedback","test","null","","","na","","186","",""
"952.5","498718","HierDyklb70uzk","sub24","12","02","rl","test","68","img/b_t_stripes.png","3","68","shape,color,pattern","187","1",""
"null","499733","HierDyklb70uzk","sub24","12","02","feedback","test","null","","","na","","187","",""
"2365.2999999523163","502100","HierDyklb70uzk","sub24","12","02","rl","test","75","img/b_d_stripes.png","7","75","shape,color,pattern","188","1",""
"null","503107","HierDyklb70uzk","sub24","12","02","feedback","test","null","","","na","","188","",""
"1204.8999998569489","504314","HierDyklb70uzk","sub24","12","02","rl","test","83","img/r_t_check.png","2","83","shape,color,pattern","189","1",""
"null","505323","HierDyklb70uzk","sub24","12","02","feedback","test","null","","","na","","189","",""
"656.7000000476837","505982","HierDyklb70uzk","sub24","12","02","rl","test","75","img/b_d_check.png","8","76","shape,color,pattern","190","0",""
"null","506989","HierDyklb70uzk","sub24","12","02","feedback","test","null","","","na","","190","",""
"948.9000000953674","507940","HierDyklb70uzk","sub24","12","02","rl","test","72","img/r_d_stripes.png","5","72","shape,color,pattern","191","1",""
"null","508949","HierDyklb70uzk","sub24","12","02","feedback","test","null","","","na","","191","",""
"980.4000000953674","509931","HierDyklb70uzk","sub24","12","02","rl","test","74","img/r_d_check.png","6","74","shape,color,pattern","192","1",""
"null","510938","HierDyklb70uzk","sub24","12","02","feedback","test","null","","","na","","192","",""
"560.1000001430511","511501","HierDyklb70uzk","sub24","12","02","rl","test","74","img/r_d_check.png","6","74","shape,color,pattern","193","1",""
"null","512509","HierDyklb70uzk","sub24","12","02","feedback","test","null","","","na","","193","",""
"1049.4000000953674","513560","HierDyklb70uzk","sub24","12","02","rl","test","72","img/r_d_stripes.png","5","72","shape,color,pattern","194","1",""
"null","514569","HierDyklb70uzk","sub24","12","02","feedback","test","null","","","na","","194","",""
"1387.2000000476837","515958","HierDyklb70uzk","sub24","12","02","rl","test","83","img/b_t_check.png","4","70","shape,color,pattern","195","0",""
"null","516972","HierDyklb70uzk","sub24","12","02","feedback","test","null","","","na","","195","",""
"1915.2000000476837","518890","HierDyklb70uzk","sub24","12","02","rl","test","76","img/b_d_check.png","8","76","shape,color,pattern","196","1",""
"null","519896","HierDyklb70uzk","sub24","12","02","feedback","test","null","","","na","","196","",""
"1102.3999998569489","521001","HierDyklb70uzk","sub24","12","02","rl","test","65","img/r_t_stripes.png","1","65","shape,color,pattern","197","1",""
"null","522008","HierDyklb70uzk","sub24","12","02","feedback","test","null","","","na","","197","",""
"1255","523265","HierDyklb70uzk","sub24","12","02","rl","test","75","img/b_d_stripes.png","7","75","shape,color,pattern","198","1",""
"null","524276","HierDyklb70uzk","sub24","12","02","feedback","test","null","","","na","","198","",""
"867.2999999523163","525146","HierDyklb70uzk","sub24","12","02","rl","test","68","img/b_t_stripes.png","3","68","shape,color,pattern","199","1",""
"null","526152","HierDyklb70uzk","sub24","12","02","feedback","test","null","","","na","","199","",""
"1294.2999999523163","527448","HierDyklb70uzk","sub24","12","02","rl","test","74","img/r_d_check.png","6","74","shape,color,pattern","200","1",""
"null","528457","HierDyklb70uzk","sub24","12","02","feedback","test","null","","","na","","200","",""
"1280.2000000476837","529739","HierDyklb70uzk","sub24","12","02","rl","test","83","img/r_t_check.png","2","83","shape,color,pattern","201","1",""
"null","530748","HierDyklb70uzk","sub24","12","02","feedback","test","null","","","na","","201","",""
"1367.3999998569489","532118","HierDyklb70uzk","sub24","12","02","rl","test","72","img/r_d_stripes.png","5","72","shape,color,pattern","202","1",""
"null","533131","HierDyklb70uzk","sub24","12","02","feedback","test","null","","","na","","202","",""
"836.9000000953674","533970","HierDyklb70uzk","sub24","12","02","rl","test","68","img/b_t_stripes.png","3","68","shape,color,pattern","203","1",""
"null","534980","HierDyklb70uzk","sub24","12","02","feedback","test","null","","","na","","203","",""
"725.2999999523163","535708","HierDyklb70uzk","sub24","12","02","rl","test","70","img/b_t_check.png","4","70","shape,color,pattern","204","1",""
"null","536715","HierDyklb70uzk","sub24","12","02","feedback","test","null","","","na","","204","",""
"1279.0999999046326","537996","HierDyklb70uzk","sub24","12","02","rl","test","83","img/r_t_check.png","2","83","shape,color,pattern","205","1",""
"null","539003","HierDyklb70uzk","sub24","12","02","feedback","test","null","","","na","","205","",""
"1643.1999998092651","540648","HierDyklb70uzk","sub24","12","02","rl","test","74","img/b_d_check.png","8","76","shape,color,pattern","206","0",""
"null","541656","HierDyklb70uzk","sub24","12","02","feedback","test","null","","","na","","206","",""
"574.2000000476837","542232","HierDyklb70uzk","sub24","12","02","rl","test","76","img/b_d_check.png","8","76","shape,color,pattern","207","1",""
"null","543239","HierDyklb70uzk","sub24","12","02","feedback","test","null","","","na","","207","",""
"986.7000000476837","544228","HierDyklb70uzk","sub24","12","02","rl","test","68","img/b_t_stripes.png","3","68","shape,color,pattern","208","1",""
"null","545234","HierDyklb70uzk","sub24","12","02","feedback","test","null","","","na","","208","",""
"892.4000000953674","546129","HierDyklb70uzk","sub24","12","02","rl","test","70","img/b_t_check.png","4","70","shape,color,pattern","209","1",""
"null","547135","HierDyklb70uzk","sub24","12","02","feedback","test","null","","","na","","209","",""
"1087.3999998569489","548225","HierDyklb70uzk","sub24","12","02","rl","test","65","img/r_t_stripes.png","1","65","shape,color,pattern","210","1",""
"null","549236","HierDyklb70uzk","sub24","12","02","feedback","test","null","","","na","","210","",""
"1889.1000001430511","551127","HierDyklb70uzk","sub24","12","02","rl","test","75","img/b_d_stripes.png","7","75","shape,color,pattern","211","1",""
"null","552138","HierDyklb70uzk","sub24","12","02","feedback","test","null","","","na","","211","",""
"1190.2999999523163","553330","HierDyklb70uzk","sub24","12","02","rl","test","65","img/r_t_stripes.png","1","65","shape,color,pattern","212","1",""
"null","554338","HierDyklb70uzk","sub24","12","02","feedback","test","null","","","na","","212","",""
"992.8999998569489","555332","HierDyklb70uzk","sub24","12","02","rl","test","75","img/b_d_stripes.png","7","75","shape,color,pattern","213","1",""
"null","556335","HierDyklb70uzk","sub24","12","02","feedback","test","null","","","na","","213","",""
"1125.6999998092651","557463","HierDyklb70uzk","sub24","12","02","rl","test","74","img/r_d_check.png","6","74","shape,color,pattern","214","1",""
"null","558476","HierDyklb70uzk","sub24","12","02","feedback","test","null","","","na","","214","",""
"680.3000001907349","559158","HierDyklb70uzk","sub24","12","02","rl","test","72","img/r_d_stripes.png","5","72","shape,color,pattern","215","1",""
"null","560170","HierDyklb70uzk","sub24","12","02","feedback","test","null","","","na","","215","",""
"1638.1000001430511","561812","HierDyklb70uzk","sub24","12","02","rl","test","83","img/r_t_check.png","2","83","shape,color,pattern","216","1",""
"null","562831","HierDyklb70uzk","sub24","12","02","feedback","test","null","","","na","","216","",""
"592.2999999523163","563425","HierDyklb70uzk","sub24","12","02","rl","test","83","img/r_t_check.png","2","83","shape,color,pattern","217","1",""
"null","564430","HierDyklb70uzk","sub24","12","02","feedback","test","null","","","na","","217","",""
"803.6000001430511","565235","HierDyklb70uzk","sub24","12","02","rl","test","70","img/b_t_check.png","4","70","shape,color,pattern","218","1",""
"null","566243","HierDyklb70uzk","sub24","12","02","feedback","test","null","","","na","","218","",""
"1240.2999999523163","567484","HierDyklb70uzk","sub24","12","02","rl","test","76","img/b_d_check.png","8","76","shape,color,pattern","219","1",""
"null","568491","HierDyklb70uzk","sub24","12","02","feedback","test","null","","","na","","219","",""
"719.7999999523163","569213","HierDyklb70uzk","sub24","12","02","rl","test","75","img/b_d_stripes.png","7","75","shape,color,pattern","220","1",""
"null","570224","HierDyklb70uzk","sub24","12","02","feedback","test","null","","","na","","220","",""
"944.3999998569489","571170","HierDyklb70uzk","sub24","12","02","rl","test","72","img/r_d_stripes.png","5","72","shape,color,pattern","221","1",""
"null","572177","HierDyklb70uzk","sub24","12","02","feedback","test","null","","","na","","221","",""
"681.2999999523163","572860","HierDyklb70uzk","sub24","12","02","rl","test","74","img/r_d_check.png","6","74","shape,color,pattern","222","1",""
"null","573863","HierDyklb70uzk","sub24","12","02","feedback","test","null","","","na","","222","",""
"2213.399999856949","576079","HierDyklb70uzk","sub24","12","02","rl","test","68","img/b_t_stripes.png","3","68","shape,color,pattern","223","1",""
"null","577088","HierDyklb70uzk","sub24","12","02","feedback","test","null","","","na","","223","",""
"1539.7999999523163","578630","HierDyklb70uzk","sub24","12","02","rl","test","72","img/r_d_stripes.png","5","72","shape,color,pattern","224","1",""
"null","579639","HierDyklb70uzk","sub24","12","02","feedback","test","null","","","na","","224","",""
"664.4000000953674","580306","HierDyklb70uzk","sub24","12","02","rl","test","74","img/r_d_check.png","6","74","shape,color,pattern","225","1",""
"null","581311","HierDyklb70uzk","sub24","12","02","feedback","test","null","","","na","","225","",""
"1868.4000000953674","583181","HierDyklb70uzk","sub24","12","02","rl","test","65","img/r_t_stripes.png","1","65","shape,color,pattern","226","1",""
"null","584194","HierDyklb70uzk","sub24","12","02","feedback","test","null","","","na","","226","",""
"613.1000001430511","584810","HierDyklb70uzk","sub24","12","02","rl","test","83","img/r_t_check.png","2","83","shape,color,pattern","227","1",""
"null","585816","HierDyklb70uzk","sub24","12","02","feedback","test","null","","","na","","227","",""
"761.4000000953674","586580","HierDyklb70uzk","sub24","12","02","rl","test","68","img/b_t_stripes.png","3","68","shape,color,pattern","228","1",""
"null","587584","HierDyklb70uzk","sub24","12","02","feedback","test","null","","","na","","228","",""
"1984.0999999046326","589570","HierDyklb70uzk","sub24","12","02","rl","test","72","img/b_d_stripes.png","7","75","shape,color,pattern","229","0",""
"null","590578","HierDyklb70uzk","sub24","12","02","feedback","test","null","","","na","","229","",""
"1310.3999998569489","591890","HierDyklb70uzk","sub24","12","02","rl","test","70","img/b_t_check.png","4","70","shape,color,pattern","230","1",""
"null","592898","HierDyklb70uzk","sub24","12","02","feedback","test","null","","","na","","230","",""
"1606.7000000476837","594507","HierDyklb70uzk","sub24","12","02","rl","test","70","img/b_t_check.png","4","70","shape,color,pattern","231","1",""
"null","595511","HierDyklb70uzk","sub24","12","02","feedback","test","null","","","na","","231","",""
"938.4000000953674","596452","HierDyklb70uzk","sub24","12","02","rl","test","65","img/r_t_stripes.png","1","65","shape,color,pattern","232","1",""
"null","597467","HierDyklb70uzk","sub24","12","02","feedback","test","null","","","na","","232","",""
"1461","598930","HierDyklb70uzk","sub24","12","02","rl","test","74","img/r_d_check.png","6","74","shape,color,pattern","233","1",""
"null","599937","HierDyklb70uzk","sub24","12","02","feedback","test","null","","","na","","233","",""
"1994.2000000476837","601934","HierDyklb70uzk","sub24","12","02","rl","test","76","img/b_d_check.png","8","76","shape,color,pattern","234","1",""
"null","602942","HierDyklb70uzk","sub24","12","02","feedback","test","null","","","na","","234","",""
"1039.5999999046326","603984","HierDyklb70uzk","sub24","12","02","rl","test","68","img/b_t_stripes.png","3","68","shape,color,pattern","235","1",""
"null","604992","HierDyklb70uzk","sub24","12","02","feedback","test","null","","","na","","235","",""
"787.5","605782","HierDyklb70uzk","sub24","12","02","rl","test","65","img/r_t_stripes.png","1","65","shape,color,pattern","236","1",""
"null","606790","HierDyklb70uzk","sub24","12","02","feedback","test","null","","","na","","236","",""
"2101.5999999046326","608893","HierDyklb70uzk","sub24","12","02","rl","test","75","img/b_d_stripes.png","7","75","shape,color,pattern","237","1",""
"null","609904","HierDyklb70uzk","sub24","12","02","feedback","test","null","","","na","","237","",""
"1506.9000000953674","611413","HierDyklb70uzk","sub24","12","02","rl","test","83","img/r_t_check.png","2","83","shape,color,pattern","238","1",""
"null","612425","HierDyklb70uzk","sub24","12","02","feedback","test","null","","","na","","238","",""
"1976.1999998092651","614403","HierDyklb70uzk","sub24","12","02","rl","test","72","img/r_d_stripes.png","5","72","shape,color,pattern","239","1",""
"null","615414","HierDyklb70uzk","sub24","12","02","feedback","test","null","","","na","","239","",""
"954.2999999523163","616370","HierDyklb70uzk","sub24","12","02","rl","test","76","img/b_d_check.png","8","76","shape,color,pattern","240","1",""
"null","617374","HierDyklb70uzk","sub24","12","02","feedback","test","null","","","na","","240","",""
"544.2000000476837","617921","HierDyklb70uzk","sub24","12","02","rl","test","72","img/r_d_stripes.png","5","72","shape,color,pattern","241","1",""
"null","618927","HierDyklb70uzk","sub24","12","02","feedback","test","null","","","na","","241","",""
"1408.6000001430511","620338","HierDyklb70uzk","sub24","12","02","rl","test","75","img/b_d_stripes.png","7","75","shape,color,pattern","242","1",""
"null","621346","HierDyklb70uzk","sub24","12","02","feedback","test","null","","","na","","242","",""
"1130.4000000953674","622478","HierDyklb70uzk","sub24","12","02","rl","test","74","img/r_d_check.png","6","74","shape,color,pattern","243","1",""
"null","623485","HierDyklb70uzk","sub24","12","02","feedback","test","null","","","na","","243","",""
"1994.2999999523163","625482","HierDyklb70uzk","sub24","12","02","rl","test","76","img/b_d_check.png","8","76","shape,color,pattern","244","1",""
"null","626489","HierDyklb70uzk","sub24","12","02","feedback","test","null","","","na","","244","",""
"1497.6000001430511","627988","HierDyklb70uzk","sub24","12","02","rl","test","83","img/r_t_check.png","2","83","shape,color,pattern","245","1",""
"null","629002","HierDyklb70uzk","sub24","12","02","feedback","test","null","","","na","","245","",""
"1494.0999999046326","630498","HierDyklb70uzk","sub24","12","02","rl","test","70","img/b_t_check.png","4","70","shape,color,pattern","246","1",""
"null","631504","HierDyklb70uzk","sub24","12","02","feedback","test","null","","","na","","246","",""
"767.2000000476837","632273","HierDyklb70uzk","sub24","12","02","rl","test","68","img/b_t_stripes.png","3","68","shape,color,pattern","247","1",""
"null","633282","HierDyklb70uzk","sub24","12","02","feedback","test","null","","","na","","247","",""
"728.1000001430511","634012","HierDyklb70uzk","sub24","12","02","rl","test","70","img/b_t_check.png","4","70","shape,color,pattern","248","1",""
"null","635023","HierDyklb70uzk","sub24","12","02","feedback","test","null","","","na","","248","",""
"10338.899999856949","645368","HierDyklb70uzk","sub24","12","02","","","","","","","","","","{""Q0"":""7""}"
"42563.299999952316","687934","HierDyklb70uzk","sub24","12","02","","","","","","","","","","{""Q0"":""I tried to remember each of the keys associated with the shapes and make a selection when I knew which one it was ""}"
"6944.200000047684","694879","HierDyklb70uzk","sub24","12","02","","","","","","","","","",""
