"rt","time_elapsed","subject","subID","group","day","trialType","phase","key_press","stim","stimNum","corrresp","hierarchy","trialNum","corr","responses"
"1852.9000000953674","1855","HierDye5p9ewsb","sub24","12","04","","","","","","","","","",""
"","3794","HierDye5p9ewsb","sub24","12","04","fullscreen","","","","","","","","",""
"4775.399999856949","8571","HierDye5p9ewsb","sub24","12","04","","prac","","","","","","","",""
"762","9335","HierDye5p9ewsb","sub24","12","04","","","32","","","","","","",""
"1037.7000000476837","10373","HierDye5p9ewsb","sub24","12","04","","prac","","","","","","","",""
"2007.2999999523163","12384","HierDye5p9ewsb","sub24","12","04","rl","test","83","img/r_t_check.png","2","83","shape,color,pattern","1","1",""
"null","13394","HierDye5p9ewsb","sub24","12","04","feedback","test","null","","","na","","1","",""
"830.4000000953674","14227","HierDye5p9ewsb","sub24","12","04","rl","test","72","img/r_d_stripes.png","5","72","shape,color,pattern","2","1",""
"null","15239","HierDye5p9ewsb","sub24","12","04","feedback","test","null","","","na","","2","",""
"992","16233","HierDye5p9ewsb","sub24","12","04","rl","test","68","img/b_t_stripes.png","3","68","shape,color,pattern","3","1",""
"null","17242","HierDye5p9ewsb","sub24","12","04","feedback","test","null","","","na","","3","",""
"1956.5999999046326","19201","HierDye5p9ewsb","sub24","12","04","rl","test","74","img/r_d_check.png","6","74","shape,color,pattern","4","1",""
"null","20206","HierDye5p9ewsb","sub24","12","04","feedback","test","null","","","na","","4","",""
"1009.7000000476837","21218","HierDye5p9ewsb","sub24","12","04","rl","test","65","img/r_t_stripes.png","1","65","shape,color,pattern","5","1",""
"null","22225","HierDye5p9ewsb","sub24","12","04","feedback","test","null","","","na","","5","",""
"779.4000000953674","23006","HierDye5p9ewsb","sub24","12","04","rl","test","70","img/b_t_check.png","4","70","shape,color,pattern","6","1",""
"null","24013","HierDye5p9ewsb","sub24","12","04","feedback","test","null","","","na","","6","",""
"1386.8000001907349","25401","HierDye5p9ewsb","sub24","12","04","rl","test","76","img/b_d_check.png","8","76","shape,color,pattern","7","1",""
"null","26406","HierDye5p9ewsb","sub24","12","04","feedback","test","null","","","na","","7","",""
"420.2999999523163","26829","HierDye5p9ewsb","sub24","12","04","rl","test","75","img/b_d_stripes.png","7","75","shape,color,pattern","8","1",""
"null","27842","HierDye5p9ewsb","sub24","12","04","feedback","test","null","","","na","","8","",""
"934.3999998569489","28778","HierDye5p9ewsb","sub24","12","04","rl","test","65","img/r_t_stripes.png","1","65","shape,color,pattern","9","1",""
"null","29785","HierDye5p9ewsb","sub24","12","04","feedback","test","null","","","na","","9","",""
"1092.7000000476837","30880","HierDye5p9ewsb","sub24","12","04","rl","test","75","img/b_d_check.png","8","76","shape,color,pattern","10","0",""
"null","31889","HierDye5p9ewsb","sub24","12","04","feedback","test","null","","","na","","10","",""
"699.0999999046326","32590","HierDye5p9ewsb","sub24","12","04","rl","test","72","img/r_d_stripes.png","5","72","shape,color,pattern","11","1",""
"null","33602","HierDye5p9ewsb","sub24","12","04","feedback","test","null","","","na","","11","",""
"707","34311","HierDye5p9ewsb","sub24","12","04","rl","test","74","img/r_d_check.png","6","74","shape,color,pattern","12","1",""
"null","35322","HierDye5p9ewsb","sub24","12","04","feedback","test","null","","","na","","12","",""
"1158.0999999046326","36482","HierDye5p9ewsb","sub24","12","04","rl","test","75","img/b_d_stripes.png","7","75","shape,color,pattern","13","1",""
"null","37488","HierDye5p9ewsb","sub24","12","04","feedback","test","null","","","na","","13","",""
"1207","38697","HierDye5p9ewsb","sub24","12","04","rl","test","83","img/r_t_check.png","2","83","shape,color,pattern","14","1",""
"null","39703","HierDye5p9ewsb","sub24","12","04","feedback","test","null","","","na","","14","",""
"1391.2000000476837","41096","HierDye5p9ewsb","sub24","12","04","rl","test","75","img/b_d_stripes.png","7","75","shape,color,pattern","15","1",""
"null","42103","HierDye5p9ewsb","sub24","12","04","feedback","test","null","","","na","","15","",""
"888.9000000953674","42994","HierDye5p9ewsb","sub24","12","04","rl","test","70","img/b_t_check.png","4","70","shape,color,pattern","16","1",""
"null","43999","HierDye5p9ewsb","sub24","12","04","feedback","test","null","","","na","","16","",""
"701.5","44702","HierDye5p9ewsb","sub24","12","04","rl","test","68","img/b_t_stripes.png","3","68","shape,color,pattern","17","1",""
"null","45710","HierDye5p9ewsb","sub24","12","04","feedback","test","null","","","na","","17","",""
"754.9000000953674","46467","HierDye5p9ewsb","sub24","12","04","rl","test","70","img/b_t_stripes.png","3","68","shape,color,pattern","18","0",""
"null","47479","HierDye5p9ewsb","sub24","12","04","feedback","test","null","","","na","","18","",""
"1251.3999998569489","48732","HierDye5p9ewsb","sub24","12","04","rl","test","70","img/b_t_check.png","4","70","shape,color,pattern","19","1",""
"null","49741","HierDye5p9ewsb","sub24","12","04","feedback","test","null","","","na","","19","",""
"1128.3999998569489","50872","HierDye5p9ewsb","sub24","12","04","rl","test","65","img/r_t_stripes.png","1","65","shape,color,pattern","20","1",""
"null","51879","HierDye5p9ewsb","sub24","12","04","feedback","test","null","","","na","","20","",""
"1687.1999998092651","53569","HierDye5p9ewsb","sub24","12","04","rl","test","76","img/b_d_check.png","8","76","shape,color,pattern","21","1",""
"null","54577","HierDye5p9ewsb","sub24","12","04","feedback","test","null","","","na","","21","",""
"1033.0999999046326","55612","HierDye5p9ewsb","sub24","12","04","rl","test","65","img/r_t_stripes.png","1","65","shape,color,pattern","22","1",""
"null","56624","HierDye5p9ewsb","sub24","12","04","feedback","test","null","","","na","","22","",""
"1508.4000000953674","58135","HierDye5p9ewsb","sub24","12","04","rl","test","72","img/r_d_stripes.png","5","72","shape,color,pattern","23","1",""
"null","59145","HierDye5p9ewsb","sub24","12","04","feedback","test","null","","","na","","23","",""
"785.3000001907349","59932","HierDye5p9ewsb","sub24","12","04","rl","test","72","img/r_d_stripes.png","5","72","shape,color,pattern","24","1",""
"null","60940","HierDye5p9ewsb","sub24","12","04","feedback","test","null","","","na","","24","",""
"625.5","61568","HierDye5p9ewsb","sub24","12","04","rl","test","74","img/r_d_check.png","6","74","shape,color,pattern","25","1",""
"null","62577","HierDye5p9ewsb","sub24","12","04","feedback","test","null","","","na","","25","",""
"1206.2999999523163","63785","HierDye5p9ewsb","sub24","12","04","rl","test","83","img/r_t_check.png","2","83","shape,color,pattern","26","1",""
"null","64789","HierDye5p9ewsb","sub24","12","04","feedback","test","null","","","na","","26","",""
"1616.2999999523163","66407","HierDye5p9ewsb","sub24","12","04","rl","test","76","img/b_d_check.png","8","76","shape,color,pattern","27","1",""
"null","67414","HierDye5p9ewsb","sub24","12","04","feedback","test","null","","","na","","27","",""
"891.3999998569489","68307","HierDye5p9ewsb","sub24","12","04","rl","test","68","img/b_t_stripes.png","3","68","shape,color,pattern","28","1",""
"null","69321","HierDye5p9ewsb","sub24","12","04","feedback","test","null","","","na","","28","",""
"1451.6999998092651","70774","HierDye5p9ewsb","sub24","12","04","rl","test","74","img/r_d_check.png","6","74","shape,color,pattern","29","1",""
"null","71783","HierDye5p9ewsb","sub24","12","04","feedback","test","null","","","na","","29","",""
"878.1999998092651","72663","HierDye5p9ewsb","sub24","12","04","rl","test","75","img/b_d_stripes.png","7","75","shape,color,pattern","30","1",""
"null","73673","HierDye5p9ewsb","sub24","12","04","feedback","test","null","","","na","","30","",""
"1244.2999999523163","74919","HierDye5p9ewsb","sub24","12","04","rl","test","83","img/r_t_check.png","2","83","shape,color,pattern","31","1",""
"null","75926","HierDye5p9ewsb","sub24","12","04","feedback","test","null","","","na","","31","",""
"927","76855","HierDye5p9ewsb","sub24","12","04","rl","test","68","img/b_t_check.png","4","70","shape,color,pattern","32","0",""
"null","77860","HierDye5p9ewsb","sub24","12","04","feedback","test","null","","","na","","32","",""
"792.8999998569489","78655","HierDye5p9ewsb","sub24","12","04","rl","test","70","img/b_t_check.png","4","70","shape,color,pattern","33","1",""
"null","79663","HierDye5p9ewsb","sub24","12","04","feedback","test","null","","","na","","33","",""
"791.2000000476837","80456","HierDye5p9ewsb","sub24","12","04","rl","test","68","img/b_t_stripes.png","3","68","shape,color,pattern","34","1",""
"null","81465","HierDye5p9ewsb","sub24","12","04","feedback","test","null","","","na","","34","",""
"833.5","82300","HierDye5p9ewsb","sub24","12","04","rl","test","72","img/r_d_stripes.png","5","72","shape,color,pattern","35","1",""
"null","83313","HierDye5p9ewsb","sub24","12","04","feedback","test","null","","","na","","35","",""
"1176.2999999523163","84491","HierDye5p9ewsb","sub24","12","04","rl","test","65","img/r_t_stripes.png","1","65","shape,color,pattern","36","1",""
"null","85500","HierDye5p9ewsb","sub24","12","04","feedback","test","null","","","na","","36","",""
"1603","87105","HierDye5p9ewsb","sub24","12","04","rl","test","74","img/r_d_check.png","6","74","shape,color,pattern","37","1",""
"null","88116","HierDye5p9ewsb","sub24","12","04","feedback","test","null","","","na","","37","",""
"1212.7000000476837","89330","HierDye5p9ewsb","sub24","12","04","rl","test","83","img/r_t_check.png","2","83","shape,color,pattern","38","1",""
"null","90341","HierDye5p9ewsb","sub24","12","04","feedback","test","null","","","na","","38","",""
"1013.2000000476837","91356","HierDye5p9ewsb","sub24","12","04","rl","test","75","img/b_d_stripes.png","7","75","shape,color,pattern","39","1",""
"null","92367","HierDye5p9ewsb","sub24","12","04","feedback","test","null","","","na","","39","",""
"1013.2000000476837","93383","HierDye5p9ewsb","sub24","12","04","rl","test","74","img/r_d_check.png","6","74","shape,color,pattern","40","1",""
"null","94389","HierDye5p9ewsb","sub24","12","04","feedback","test","null","","","na","","40","",""
"1155.3999998569489","95547","HierDye5p9ewsb","sub24","12","04","rl","test","76","img/b_d_check.png","8","76","shape,color,pattern","41","1",""
"null","96559","HierDye5p9ewsb","sub24","12","04","feedback","test","null","","","na","","41","",""
"1038.2000000476837","97599","HierDye5p9ewsb","sub24","12","04","rl","test","83","img/r_t_check.png","2","83","shape,color,pattern","42","1",""
"null","98605","HierDye5p9ewsb","sub24","12","04","feedback","test","null","","","na","","42","",""
"null","101119","HierDye5p9ewsb","sub24","12","04","rl","test","null","img/b_d_check.png","8","76","shape,color,pattern","43","0",""
"null","102125","HierDye5p9ewsb","sub24","12","04","feedback","test","null","","","na","","43","",""
"1643.2000000476837","103771","HierDye5p9ewsb","sub24","12","04","rl","test","70","img/b_t_check.png","4","70","shape,color,pattern","44","1",""
"null","104782","HierDye5p9ewsb","sub24","12","04","feedback","test","null","","","na","","44","",""
"749.1999998092651","105534","HierDye5p9ewsb","sub24","12","04","rl","test","75","img/b_d_stripes.png","7","75","shape,color,pattern","45","1",""
"null","106543","HierDye5p9ewsb","sub24","12","04","feedback","test","null","","","na","","45","",""
"1025.0999999046326","107571","HierDye5p9ewsb","sub24","12","04","rl","test","65","img/r_t_stripes.png","1","65","shape,color,pattern","46","1",""
"null","108583","HierDye5p9ewsb","sub24","12","04","feedback","test","null","","","na","","46","",""
"1004.2000000476837","109589","HierDye5p9ewsb","sub24","12","04","rl","test","72","img/r_d_stripes.png","5","72","shape,color,pattern","47","1",""
"null","110599","HierDye5p9ewsb","sub24","12","04","feedback","test","null","","","na","","47","",""
"759.7999999523163","111361","HierDye5p9ewsb","sub24","12","04","rl","test","68","img/b_t_stripes.png","3","68","shape,color,pattern","48","1",""
"null","112367","HierDye5p9ewsb","sub24","12","04","feedback","test","null","","","na","","48","",""
"884.2999999523163","113254","HierDye5p9ewsb","sub24","12","04","rl","test","72","img/r_d_stripes.png","5","72","shape,color,pattern","49","1",""
"null","114264","HierDye5p9ewsb","sub24","12","04","feedback","test","null","","","na","","49","",""
"1651.4000000953674","115918","HierDye5p9ewsb","sub24","12","04","rl","test","65","img/r_t_stripes.png","1","65","shape,color,pattern","50","1",""
"null","116927","HierDye5p9ewsb","sub24","12","04","feedback","test","null","","","na","","50","",""
"655.5","117584","HierDye5p9ewsb","sub24","12","04","rl","test","83","img/r_t_check.png","2","83","shape,color,pattern","51","1",""
"null","118588","HierDye5p9ewsb","sub24","12","04","feedback","test","null","","","na","","51","",""
"718.0999999046326","119308","HierDye5p9ewsb","sub24","12","04","rl","test","70","img/b_t_check.png","4","70","shape,color,pattern","52","1",""
"null","120319","HierDye5p9ewsb","sub24","12","04","feedback","test","null","","","na","","52","",""
"464.5","120786","HierDye5p9ewsb","sub24","12","04","rl","test","68","img/b_t_stripes.png","3","68","shape,color,pattern","53","1",""
"null","121800","HierDye5p9ewsb","sub24","12","04","feedback","test","null","","","na","","53","",""
"630","122432","HierDye5p9ewsb","sub24","12","04","rl","test","68","img/b_t_stripes.png","3","68","shape,color,pattern","54","1",""
"null","123440","HierDye5p9ewsb","sub24","12","04","feedback","test","null","","","na","","54","",""
"1435","124877","HierDye5p9ewsb","sub24","12","04","rl","test","74","img/r_d_check.png","6","74","shape,color,pattern","55","1",""
"null","125887","HierDye5p9ewsb","sub24","12","04","feedback","test","null","","","na","","55","",""
"891.3999998569489","126781","HierDye5p9ewsb","sub24","12","04","rl","test","76","img/b_d_check.png","8","76","shape,color,pattern","56","1",""
"null","127787","HierDye5p9ewsb","sub24","12","04","feedback","test","null","","","na","","56","",""
"1004.2999999523163","128794","HierDye5p9ewsb","sub24","12","04","rl","test","65","img/r_t_stripes.png","1","65","shape,color,pattern","57","1",""
"null","129808","HierDye5p9ewsb","sub24","12","04","feedback","test","null","","","na","","57","",""
"780.7000000476837","130591","HierDye5p9ewsb","sub24","12","04","rl","test","75","img/b_d_stripes.png","7","75","shape,color,pattern","58","1",""
"null","131598","HierDye5p9ewsb","sub24","12","04","feedback","test","null","","","na","","58","",""
"822.1999998092651","132422","HierDye5p9ewsb","sub24","12","04","rl","test","76","img/b_d_check.png","8","76","shape,color,pattern","59","1",""
"null","133428","HierDye5p9ewsb","sub24","12","04","feedback","test","null","","","na","","59","",""
"1328.4000000953674","134758","HierDye5p9ewsb","sub24","12","04","rl","test","83","img/r_t_check.png","2","83","shape,color,pattern","60","1",""
"null","135763","HierDye5p9ewsb","sub24","12","04","feedback","test","null","","","na","","60","",""
"1851","137616","HierDye5p9ewsb","sub24","12","04","rl","test","75","img/b_d_stripes.png","7","75","shape,color,pattern","61","1",""
"null","138621","HierDye5p9ewsb","sub24","12","04","feedback","test","null","","","na","","61","",""
"844.5","139467","HierDye5p9ewsb","sub24","12","04","rl","test","70","img/b_t_check.png","4","70","shape,color,pattern","62","1",""
"null","140475","HierDye5p9ewsb","sub24","12","04","feedback","test","null","","","na","","62","",""
"1548.3999998569489","142025","HierDye5p9ewsb","sub24","12","04","rl","test","74","img/r_d_check.png","6","74","shape,color,pattern","63","1",""
"null","143037","HierDye5p9ewsb","sub24","12","04","feedback","test","null","","","na","","63","",""
"569","143608","HierDye5p9ewsb","sub24","12","04","rl","test","72","img/r_d_stripes.png","5","72","shape,color,pattern","64","1",""
"null","144611","HierDye5p9ewsb","sub24","12","04","feedback","test","null","","","na","","64","",""
"1419.5","146032","HierDye5p9ewsb","sub24","12","04","rl","test","75","img/b_d_stripes.png","7","75","shape,color,pattern","65","1",""
"null","147037","HierDye5p9ewsb","sub24","12","04","feedback","test","null","","","na","","65","",""
"1167.1000001430511","148206","HierDye5p9ewsb","sub24","12","04","rl","test","68","img/b_t_stripes.png","3","68","shape,color,pattern","66","1",""
"null","149212","HierDye5p9ewsb","sub24","12","04","feedback","test","null","","","na","","66","",""
"588.6000001430511","149803","HierDye5p9ewsb","sub24","12","04","rl","test","70","img/b_t_check.png","4","70","shape,color,pattern","67","1",""
"null","150814","HierDye5p9ewsb","sub24","12","04","feedback","test","null","","","na","","67","",""
"2116.7999999523163","152933","HierDye5p9ewsb","sub24","12","04","rl","test","65","img/r_t_stripes.png","1","65","shape,color,pattern","68","1",""
"null","153941","HierDye5p9ewsb","sub24","12","04","feedback","test","null","","","na","","68","",""
"1525.7999999523163","155469","HierDye5p9ewsb","sub24","12","04","rl","test","74","img/r_d_check.png","6","74","shape,color,pattern","69","1",""
"null","156476","HierDye5p9ewsb","sub24","12","04","feedback","test","null","","","na","","69","",""
"622.7999999523163","157101","HierDye5p9ewsb","sub24","12","04","rl","test","72","img/r_d_stripes.png","5","72","shape,color,pattern","70","1",""
"null","158110","HierDye5p9ewsb","sub24","12","04","feedback","test","null","","","na","","70","",""
"582.9000000953674","158694","HierDye5p9ewsb","sub24","12","04","rl","test","74","img/r_d_check.png","6","74","shape,color,pattern","71","1",""
"null","159701","HierDye5p9ewsb","sub24","12","04","feedback","test","null","","","na","","71","",""
"1437.5","161141","HierDye5p9ewsb","sub24","12","04","rl","test","75","img/b_d_check.png","8","76","shape,color,pattern","72","0",""
"null","162149","HierDye5p9ewsb","sub24","12","04","feedback","test","null","","","na","","72","",""
"654.2000000476837","162805","HierDye5p9ewsb","sub24","12","04","rl","test","76","img/b_d_check.png","8","76","shape,color,pattern","73","1",""
"null","163813","HierDye5p9ewsb","sub24","12","04","feedback","test","null","","","na","","73","",""
"2374.0999999046326","166189","HierDye5p9ewsb","sub24","12","04","rl","test","83","img/r_t_check.png","2","83","shape,color,pattern","74","1",""
"null","167198","HierDye5p9ewsb","sub24","12","04","feedback","test","null","","","na","","74","",""
"543.7999999523163","167744","HierDye5p9ewsb","sub24","12","04","rl","test","65","img/r_t_stripes.png","1","65","shape,color,pattern","75","1",""
"null","168748","HierDye5p9ewsb","sub24","12","04","feedback","test","null","","","na","","75","",""
"498.59999990463257","169248","HierDye5p9ewsb","sub24","12","04","rl","test","83","img/r_t_check.png","2","83","shape,color,pattern","76","1",""
"null","170259","HierDye5p9ewsb","sub24","12","04","feedback","test","null","","","na","","76","",""
"716.5","170977","HierDye5p9ewsb","sub24","12","04","rl","test","72","img/r_d_stripes.png","5","72","shape,color,pattern","77","1",""
"null","171988","HierDye5p9ewsb","sub24","12","04","feedback","test","null","","","na","","77","",""
"810.2999999523163","172801","HierDye5p9ewsb","sub24","12","04","rl","test","68","img/b_t_stripes.png","3","68","shape,color,pattern","78","1",""
"null","173813","HierDye5p9ewsb","sub24","12","04","feedback","test","null","","","na","","78","",""
"1241.5","175056","HierDye5p9ewsb","sub24","12","04","rl","test","75","img/b_d_stripes.png","7","75","shape,color,pattern","79","1",""
"null","176071","HierDye5p9ewsb","sub24","12","04","feedback","test","null","","","na","","79","",""
"1048.2000000476837","177121","HierDye5p9ewsb","sub24","12","04","rl","test","65","img/r_t_stripes.png","1","65","shape,color,pattern","80","1",""
"null","178130","HierDye5p9ewsb","sub24","12","04","feedback","test","null","","","na","","80","",""
"762.9000000953674","178895","HierDye5p9ewsb","sub24","12","04","rl","test","68","img/b_t_stripes.png","3","68","shape,color,pattern","81","1",""
"null","179900","HierDye5p9ewsb","sub24","12","04","feedback","test","null","","","na","","81","",""
"1053.7999999523163","180956","HierDye5p9ewsb","sub24","12","04","rl","test","70","img/b_t_check.png","4","70","shape,color,pattern","82","1",""
"null","181962","HierDye5p9ewsb","sub24","12","04","feedback","test","null","","","na","","82","",""
"1208.4000000953674","183173","HierDye5p9ewsb","sub24","12","04","rl","test","76","img/b_d_check.png","8","76","shape,color,pattern","83","1",""
"null","184179","HierDye5p9ewsb","sub24","12","04","feedback","test","null","","","na","","83","",""
"1134.2999999523163","185315","HierDye5p9ewsb","sub24","12","04","rl","test","83","img/r_t_check.png","2","83","shape,color,pattern","84","1",""
"null","186326","HierDye5p9ewsb","sub24","12","04","feedback","test","null","","","na","","84","",""
"924.8999998569489","187253","HierDye5p9ewsb","sub24","12","04","rl","test","70","img/b_t_check.png","4","70","shape,color,pattern","85","1",""
"null","188263","HierDye5p9ewsb","sub24","12","04","feedback","test","null","","","na","","85","",""
"1771.5","190036","HierDye5p9ewsb","sub24","12","04","rl","test","74","img/r_d_check.png","6","74","shape,color,pattern","86","1",""
"null","191047","HierDye5p9ewsb","sub24","12","04","feedback","test","null","","","na","","86","",""
"523.7000000476837","191573","HierDye5p9ewsb","sub24","12","04","rl","test","72","img/r_d_stripes.png","5","72","shape,color,pattern","87","1",""
"null","192578","HierDye5p9ewsb","sub24","12","04","feedback","test","null","","","na","","87","",""
"1368.2000000476837","193948","HierDye5p9ewsb","sub24","12","04","rl","test","75","img/b_d_stripes.png","7","75","shape,color,pattern","88","1",""
"null","194956","HierDye5p9ewsb","sub24","12","04","feedback","test","null","","","na","","88","",""
"514.5","195473","HierDye5p9ewsb","sub24","12","04","rl","test","75","img/b_d_stripes.png","7","75","shape,color,pattern","89","1",""
"null","196484","HierDye5p9ewsb","sub24","12","04","feedback","test","null","","","na","","89","",""
"1909.4000000953674","198395","HierDye5p9ewsb","sub24","12","04","rl","test","74","img/r_d_check.png","6","74","shape,color,pattern","90","1",""
"null","199402","HierDye5p9ewsb","sub24","12","04","feedback","test","null","","","na","","90","",""
"815.2000000476837","200219","HierDye5p9ewsb","sub24","12","04","rl","test","65","img/r_t_stripes.png","1","65","shape,color,pattern","91","1",""
"null","201230","HierDye5p9ewsb","sub24","12","04","feedback","test","null","","","na","","91","",""
"703.2000000476837","201936","HierDye5p9ewsb","sub24","12","04","rl","test","68","img/b_t_stripes.png","3","68","shape,color,pattern","92","1",""
"null","202950","HierDye5p9ewsb","sub24","12","04","feedback","test","null","","","na","","92","",""
"1055.4000000953674","204007","HierDye5p9ewsb","sub24","12","04","rl","test","72","img/r_d_stripes.png","5","72","shape,color,pattern","93","1",""
"null","205012","HierDye5p9ewsb","sub24","12","04","feedback","test","null","","","na","","93","",""
"1074.4000000953674","206088","HierDye5p9ewsb","sub24","12","04","rl","test","70","img/b_t_check.png","4","70","shape,color,pattern","94","1",""
"null","207102","HierDye5p9ewsb","sub24","12","04","feedback","test","null","","","na","","94","",""
"1415.8000001907349","208520","HierDye5p9ewsb","sub24","12","04","rl","test","74","img/b_d_check.png","8","76","shape,color,pattern","95","0",""
"null","209533","HierDye5p9ewsb","sub24","12","04","feedback","test","null","","","na","","95","",""
"944","210479","HierDye5p9ewsb","sub24","12","04","rl","test","68","img/b_t_stripes.png","3","68","shape,color,pattern","96","1",""
"null","211481","HierDye5p9ewsb","sub24","12","04","feedback","test","null","","","na","","96","",""
"1727.2999999523163","213211","HierDye5p9ewsb","sub24","12","04","rl","test","83","img/r_t_check.png","2","83","shape,color,pattern","97","1",""
"null","214221","HierDye5p9ewsb","sub24","12","04","feedback","test","null","","","na","","97","",""
"1079.5999999046326","215303","HierDye5p9ewsb","sub24","12","04","rl","test","74","img/r_d_check.png","6","74","shape,color,pattern","98","1",""
"null","216310","HierDye5p9ewsb","sub24","12","04","feedback","test","null","","","na","","98","",""
"730.5","217043","HierDye5p9ewsb","sub24","12","04","rl","test","70","img/b_t_check.png","4","70","shape,color,pattern","99","1",""
"null","218050","HierDye5p9ewsb","sub24","12","04","feedback","test","null","","","na","","99","",""
"739.2000000476837","218791","HierDye5p9ewsb","sub24","12","04","rl","test","72","img/r_d_stripes.png","5","72","shape,color,pattern","100","1",""
"null","219806","HierDye5p9ewsb","sub24","12","04","feedback","test","null","","","na","","100","",""
"639.6000001430511","220448","HierDye5p9ewsb","sub24","12","04","rl","test","75","img/b_d_stripes.png","7","75","shape,color,pattern","101","1",""
"null","221462","HierDye5p9ewsb","sub24","12","04","feedback","test","null","","","na","","101","",""
"1300","222764","HierDye5p9ewsb","sub24","12","04","rl","test","83","img/r_t_check.png","2","83","shape,color,pattern","102","1",""
"null","223772","HierDye5p9ewsb","sub24","12","04","feedback","test","null","","","na","","102","",""
"763.3000001907349","224537","HierDye5p9ewsb","sub24","12","04","rl","test","76","img/b_d_stripes.png","7","75","shape,color,pattern","103","0",""
"null","225550","HierDye5p9ewsb","sub24","12","04","feedback","test","null","","","na","","103","",""
"1749.7999999523163","227302","HierDye5p9ewsb","sub24","12","04","rl","test","65","img/r_t_stripes.png","1","65","shape,color,pattern","104","1",""
"null","228309","HierDye5p9ewsb","sub24","12","04","feedback","test","null","","","na","","104","",""
"1587.4000000953674","229898","HierDye5p9ewsb","sub24","12","04","rl","test","65","img/r_t_stripes.png","1","65","shape,color,pattern","105","1",""
"null","230907","HierDye5p9ewsb","sub24","12","04","feedback","test","null","","","na","","105","",""
"null","233414","HierDye5p9ewsb","sub24","12","04","rl","test","null","img/b_d_check.png","8","76","shape,color,pattern","106","0",""
"null","234417","HierDye5p9ewsb","sub24","12","04","feedback","test","null","","","na","","106","",""
"1402.0999999046326","235821","HierDye5p9ewsb","sub24","12","04","rl","test","74","img/r_d_check.png","6","74","shape,color,pattern","107","1",""
"null","236826","HierDye5p9ewsb","sub24","12","04","feedback","test","null","","","na","","107","",""
"734.0999999046326","237562","HierDye5p9ewsb","sub24","12","04","rl","test","76","img/b_d_check.png","8","76","shape,color,pattern","108","1",""
"null","238573","HierDye5p9ewsb","sub24","12","04","feedback","test","null","","","na","","108","",""
"1196","239771","HierDye5p9ewsb","sub24","12","04","rl","test","70","img/b_t_check.png","4","70","shape,color,pattern","109","1",""
"null","240777","HierDye5p9ewsb","sub24","12","04","feedback","test","null","","","na","","109","",""
"666.5","241446","HierDye5p9ewsb","sub24","12","04","rl","test","68","img/b_t_stripes.png","3","68","shape,color,pattern","110","1",""
"null","242451","HierDye5p9ewsb","sub24","12","04","feedback","test","null","","","na","","110","",""
"1305.1999998092651","243758","HierDye5p9ewsb","sub24","12","04","rl","test","75","img/b_d_stripes.png","7","75","shape,color,pattern","111","1",""
"null","244765","HierDye5p9ewsb","sub24","12","04","feedback","test","null","","","na","","111","",""
"1049.5","245817","HierDye5p9ewsb","sub24","12","04","rl","test","70","img/b_t_check.png","4","70","shape,color,pattern","112","1",""
"null","246829","HierDye5p9ewsb","sub24","12","04","feedback","test","null","","","na","","112","",""
"930.2000000476837","247761","HierDye5p9ewsb","sub24","12","04","rl","test","74","img/r_d_check.png","6","74","shape,color,pattern","113","1",""
"null","248770","HierDye5p9ewsb","sub24","12","04","feedback","test","null","","","na","","113","",""
"775","249547","HierDye5p9ewsb","sub24","12","04","rl","test","72","img/r_d_stripes.png","5","72","shape,color,pattern","114","1",""
"null","250554","HierDye5p9ewsb","sub24","12","04","feedback","test","null","","","na","","114","",""
"1119.5999999046326","251676","HierDye5p9ewsb","sub24","12","04","rl","test","76","img/b_d_check.png","8","76","shape,color,pattern","115","1",""
"null","252683","HierDye5p9ewsb","sub24","12","04","feedback","test","null","","","na","","115","",""
"1952","254637","HierDye5p9ewsb","sub24","12","04","rl","test","83","img/r_t_check.png","2","83","shape,color,pattern","116","1",""
"null","255644","HierDye5p9ewsb","sub24","12","04","feedback","test","null","","","na","","116","",""
"469","256115","HierDye5p9ewsb","sub24","12","04","rl","test","83","img/r_t_check.png","2","83","shape,color,pattern","117","1",""
"null","257122","HierDye5p9ewsb","sub24","12","04","feedback","test","null","","","na","","117","",""
"1537.2999999523163","258661","HierDye5p9ewsb","sub24","12","04","rl","test","72","img/r_d_stripes.png","5","72","shape,color,pattern","118","1",""
"null","259668","HierDye5p9ewsb","sub24","12","04","feedback","test","null","","","na","","118","",""
"827.3000001907349","260497","HierDye5p9ewsb","sub24","12","04","rl","test","68","img/b_t_stripes.png","3","68","shape,color,pattern","119","1",""
"null","261506","HierDye5p9ewsb","sub24","12","04","feedback","test","null","","","na","","119","",""
"1477.8999998569489","262986","HierDye5p9ewsb","sub24","12","04","rl","test","65","img/r_t_stripes.png","1","65","shape,color,pattern","120","1",""
"null","263997","HierDye5p9ewsb","sub24","12","04","feedback","test","null","","","na","","120","",""
"1966.3000001907349","265965","HierDye5p9ewsb","sub24","12","04","rl","test","75","img/b_d_stripes.png","7","75","shape,color,pattern","121","1",""
"null","266971","HierDye5p9ewsb","sub24","12","04","feedback","test","null","","","na","","121","",""
"998.2999999523163","267972","HierDye5p9ewsb","sub24","12","04","rl","test","65","img/r_t_stripes.png","1","65","shape,color,pattern","122","1",""
"null","268978","HierDye5p9ewsb","sub24","12","04","feedback","test","null","","","na","","122","",""
"1420.2999999523163","270400","HierDye5p9ewsb","sub24","12","04","rl","test","72","img/r_d_stripes.png","5","72","shape,color,pattern","123","1",""
"null","271412","HierDye5p9ewsb","sub24","12","04","feedback","test","null","","","na","","123","",""
"1019.2000000476837","272433","HierDye5p9ewsb","sub24","12","04","rl","test","70","img/b_t_check.png","4","70","shape,color,pattern","124","1",""
"null","273440","HierDye5p9ewsb","sub24","12","04","feedback","test","null","","","na","","124","",""
"1052.6000001430511","274495","HierDye5p9ewsb","sub24","12","04","rl","test","68","img/b_t_stripes.png","3","68","shape,color,pattern","125","1",""
"null","275509","HierDye5p9ewsb","sub24","12","04","feedback","test","null","","","na","","125","",""
"2103.0999999046326","277615","HierDye5p9ewsb","sub24","12","04","rl","test","75","img/b_d_check.png","8","76","shape,color,pattern","126","0",""
"null","278627","HierDye5p9ewsb","sub24","12","04","feedback","test","null","","","na","","126","",""
"1334.9000000953674","279964","HierDye5p9ewsb","sub24","12","04","rl","test","83","img/r_t_check.png","2","83","shape,color,pattern","127","1",""
"null","280969","HierDye5p9ewsb","sub24","12","04","feedback","test","null","","","na","","127","",""
"1029","282000","HierDye5p9ewsb","sub24","12","04","rl","test","74","img/r_d_check.png","6","74","shape,color,pattern","128","1",""
"null","283010","HierDye5p9ewsb","sub24","12","04","feedback","test","null","","","na","","128","",""
"654.5","283667","HierDye5p9ewsb","sub24","12","04","rl","test","75","img/b_d_stripes.png","7","75","shape,color,pattern","129","1",""
"null","284674","HierDye5p9ewsb","sub24","12","04","feedback","test","null","","","na","","129","",""
"684.5","285361","HierDye5p9ewsb","sub24","12","04","rl","test","72","img/r_d_stripes.png","5","72","shape,color,pattern","130","1",""
"null","286369","HierDye5p9ewsb","sub24","12","04","feedback","test","null","","","na","","130","",""
"1739","288110","HierDye5p9ewsb","sub24","12","04","rl","test","83","img/r_t_check.png","2","83","shape,color,pattern","131","1",""
"null","289125","HierDye5p9ewsb","sub24","12","04","feedback","test","null","","","na","","131","",""
"1301.2000000476837","290428","HierDye5p9ewsb","sub24","12","04","rl","test","75","img/b_d_stripes.png","7","75","shape,color,pattern","132","1",""
"null","291434","HierDye5p9ewsb","sub24","12","04","feedback","test","null","","","na","","132","",""
"1341.9000000953674","292778","HierDye5p9ewsb","sub24","12","04","rl","test","65","img/r_t_stripes.png","1","65","shape,color,pattern","133","1",""
"null","293785","HierDye5p9ewsb","sub24","12","04","feedback","test","null","","","na","","133","",""
"732.7000000476837","294520","HierDye5p9ewsb","sub24","12","04","rl","test","68","img/b_t_stripes.png","3","68","shape,color,pattern","134","1",""
"null","295529","HierDye5p9ewsb","sub24","12","04","feedback","test","null","","","na","","134","",""
"605.2000000476837","296136","HierDye5p9ewsb","sub24","12","04","rl","test","68","img/b_t_stripes.png","3","68","shape,color,pattern","135","1",""
"null","297149","HierDye5p9ewsb","sub24","12","04","feedback","test","null","","","na","","135","",""
"585.4000000953674","297736","HierDye5p9ewsb","sub24","12","04","rl","test","70","img/b_t_check.png","4","70","shape,color,pattern","136","1",""
"null","298749","HierDye5p9ewsb","sub24","12","04","feedback","test","null","","","na","","136","",""
"1834.6000001430511","300585","HierDye5p9ewsb","sub24","12","04","rl","test","74","img/r_d_check.png","6","74","shape,color,pattern","137","1",""
"null","301594","HierDye5p9ewsb","sub24","12","04","feedback","test","null","","","na","","137","",""
"1640.7999999523163","303237","HierDye5p9ewsb","sub24","12","04","rl","test","83","img/r_t_check.png","2","83","shape,color,pattern","138","1",""
"null","304243","HierDye5p9ewsb","sub24","12","04","feedback","test","null","","","na","","138","",""
"1203.2999999523163","305448","HierDye5p9ewsb","sub24","12","04","rl","test","76","img/b_d_check.png","8","76","shape,color,pattern","139","1",""
"null","306461","HierDye5p9ewsb","sub24","12","04","feedback","test","null","","","na","","139","",""
"961.7999999523163","307425","HierDye5p9ewsb","sub24","12","04","rl","test","74","img/r_d_check.png","6","74","shape,color,pattern","140","1",""
"null","308433","HierDye5p9ewsb","sub24","12","04","feedback","test","null","","","na","","140","",""
"498.7999999523163","308934","HierDye5p9ewsb","sub24","12","04","rl","test","72","img/r_d_stripes.png","5","72","shape,color,pattern","141","1",""
"null","309947","HierDye5p9ewsb","sub24","12","04","feedback","test","null","","","na","","141","",""
"896","310845","HierDye5p9ewsb","sub24","12","04","rl","test","70","img/b_t_check.png","4","70","shape,color,pattern","142","1",""
"null","311852","HierDye5p9ewsb","sub24","12","04","feedback","test","null","","","na","","142","",""
"1478.9000000953674","313333","HierDye5p9ewsb","sub24","12","04","rl","test","76","img/b_d_check.png","8","76","shape,color,pattern","143","1",""
"null","314337","HierDye5p9ewsb","sub24","12","04","feedback","test","null","","","na","","143","",""
"880.7000000476837","315220","HierDye5p9ewsb","sub24","12","04","rl","test","70","img/b_t_check.png","4","70","shape,color,pattern","144","1",""
"null","316224","HierDye5p9ewsb","sub24","12","04","feedback","test","null","","","na","","144","",""
"1112.5999999046326","317339","HierDye5p9ewsb","sub24","12","04","rl","test","65","img/r_t_stripes.png","1","65","shape,color,pattern","145","1",""
"null","318346","HierDye5p9ewsb","sub24","12","04","feedback","test","null","","","na","","145","",""
"2417.699999809265","320765","HierDye5p9ewsb","sub24","12","04","rl","test","75","img/b_d_stripes.png","7","75","shape,color,pattern","146","1",""
"null","321778","HierDye5p9ewsb","sub24","12","04","feedback","test","null","","","na","","146","",""
"815.6999998092651","322596","HierDye5p9ewsb","sub24","12","04","rl","test","65","img/r_t_stripes.png","1","65","shape,color,pattern","147","1",""
"null","323603","HierDye5p9ewsb","sub24","12","04","feedback","test","null","","","na","","147","",""
"735.7000000476837","324340","HierDye5p9ewsb","sub24","12","04","rl","test","68","img/b_t_stripes.png","3","68","shape,color,pattern","148","1",""
"null","325348","HierDye5p9ewsb","sub24","12","04","feedback","test","null","","","na","","148","",""
"1730.7999999523163","327081","HierDye5p9ewsb","sub24","12","04","rl","test","72","img/r_d_stripes.png","5","72","shape,color,pattern","149","1",""
"null","328091","HierDye5p9ewsb","sub24","12","04","feedback","test","null","","","na","","149","",""
"1160.7000000476837","329253","HierDye5p9ewsb","sub24","12","04","rl","test","70","img/b_t_check.png","4","70","shape,color,pattern","150","1",""
"null","330266","HierDye5p9ewsb","sub24","12","04","feedback","test","null","","","na","","150","",""
"null","332780","HierDye5p9ewsb","sub24","12","04","rl","test","null","img/r_t_check.png","2","83","shape,color,pattern","151","0",""
"null","333788","HierDye5p9ewsb","sub24","12","04","feedback","test","null","","","na","","151","",""
"500.59999990463257","334291","HierDye5p9ewsb","sub24","12","04","rl","test","83","img/r_t_check.png","2","83","shape,color,pattern","152","1",""
"null","335300","HierDye5p9ewsb","sub24","12","04","feedback","test","null","","","na","","152","",""
"1141","336443","HierDye5p9ewsb","sub24","12","04","rl","test","68","img/b_t_stripes.png","3","68","shape,color,pattern","153","1",""
"null","337449","HierDye5p9ewsb","sub24","12","04","feedback","test","null","","","na","","153","",""
"1939.2999999523163","339390","HierDye5p9ewsb","sub24","12","04","rl","test","74","img/r_d_check.png","6","74","shape,color,pattern","154","1",""
"null","340400","HierDye5p9ewsb","sub24","12","04","feedback","test","null","","","na","","154","",""
"796","341198","HierDye5p9ewsb","sub24","12","04","rl","test","65","img/r_t_stripes.png","1","65","shape,color,pattern","155","1",""
"null","342208","HierDye5p9ewsb","sub24","12","04","feedback","test","null","","","na","","155","",""
"1478","343688","HierDye5p9ewsb","sub24","12","04","rl","test","76","img/b_d_check.png","8","76","shape,color,pattern","156","1",""
"null","344697","HierDye5p9ewsb","sub24","12","04","feedback","test","null","","","na","","156","",""
"463.7999999523163","345163","HierDye5p9ewsb","sub24","12","04","rl","test","76","img/b_d_check.png","8","76","shape,color,pattern","157","1",""
"null","346168","HierDye5p9ewsb","sub24","12","04","feedback","test","null","","","na","","157","",""
"2083.7999999523163","348254","HierDye5p9ewsb","sub24","12","04","rl","test","74","img/r_d_check.png","6","74","shape,color,pattern","158","1",""
"null","349264","HierDye5p9ewsb","sub24","12","04","feedback","test","null","","","na","","158","",""
"593","349859","HierDye5p9ewsb","sub24","12","04","rl","test","72","img/r_d_stripes.png","5","72","shape,color,pattern","159","1",""
"null","350864","HierDye5p9ewsb","sub24","12","04","feedback","test","null","","","na","","159","",""
"1051.2999999523163","351917","HierDye5p9ewsb","sub24","12","04","rl","test","76","img/b_d_check.png","8","76","shape,color,pattern","160","1",""
"null","352928","HierDye5p9ewsb","sub24","12","04","feedback","test","null","","","na","","160","",""
"642.3999998569489","353572","HierDye5p9ewsb","sub24","12","04","rl","test","75","img/b_d_stripes.png","7","75","shape,color,pattern","161","1",""
"null","354575","HierDye5p9ewsb","sub24","12","04","feedback","test","null","","","na","","161","",""
"1470.4000000953674","356048","HierDye5p9ewsb","sub24","12","04","rl","test","65","img/r_t_stripes.png","1","65","shape,color,pattern","162","1",""
"null","357055","HierDye5p9ewsb","sub24","12","04","feedback","test","null","","","na","","162","",""
"329.7000000476837","357387","HierDye5p9ewsb","sub24","12","04","rl","test","83","img/r_d_check.png","6","74","shape,color,pattern","163","0",""
"null","358392","HierDye5p9ewsb","sub24","12","04","feedback","test","null","","","na","","163","",""
"991.0999999046326","359385","HierDye5p9ewsb","sub24","12","04","rl","test","72","img/r_d_stripes.png","5","72","shape,color,pattern","164","1",""
"null","360392","HierDye5p9ewsb","sub24","12","04","feedback","test","null","","","na","","164","",""
"895.7999999523163","361290","HierDye5p9ewsb","sub24","12","04","rl","test","70","img/b_t_check.png","4","70","shape,color,pattern","165","1",""
"null","362298","HierDye5p9ewsb","sub24","12","04","feedback","test","null","","","na","","165","",""
"697.8999998569489","362998","HierDye5p9ewsb","sub24","12","04","rl","test","70","img/r_t_check.png","2","83","shape,color,pattern","166","0",""
"null","364007","HierDye5p9ewsb","sub24","12","04","feedback","test","null","","","na","","166","",""
"1358.6999998092651","365368","HierDye5p9ewsb","sub24","12","04","rl","test","75","img/b_d_stripes.png","7","75","shape,color,pattern","167","1",""
"null","366380","HierDye5p9ewsb","sub24","12","04","feedback","test","null","","","na","","167","",""
"1155.6000001430511","367537","HierDye5p9ewsb","sub24","12","04","rl","test","68","img/b_t_stripes.png","3","68","shape,color,pattern","168","1",""
"null","368547","HierDye5p9ewsb","sub24","12","04","feedback","test","null","","","na","","168","",""
"873.5","369422","HierDye5p9ewsb","sub24","12","04","rl","test","65","img/r_t_stripes.png","1","65","shape,color,pattern","169","1",""
"null","370432","HierDye5p9ewsb","sub24","12","04","feedback","test","null","","","na","","169","",""
"714.4000000953674","371148","HierDye5p9ewsb","sub24","12","04","rl","test","68","img/b_t_stripes.png","3","68","shape,color,pattern","170","1",""
"null","372153","HierDye5p9ewsb","sub24","12","04","feedback","test","null","","","na","","170","",""
"1223.2000000476837","373378","HierDye5p9ewsb","sub24","12","04","rl","test","76","img/b_d_check.png","8","76","shape,color,pattern","171","1",""
"null","374385","HierDye5p9ewsb","sub24","12","04","feedback","test","null","","","na","","171","",""
"798.5","375185","HierDye5p9ewsb","sub24","12","04","rl","test","72","img/r_d_stripes.png","5","72","shape,color,pattern","172","1",""
"null","376195","HierDye5p9ewsb","sub24","12","04","feedback","test","null","","","na","","172","",""
"515.6000001430511","376713","HierDye5p9ewsb","sub24","12","04","rl","test","74","img/r_d_check.png","6","74","shape,color,pattern","173","1",""
"null","377722","HierDye5p9ewsb","sub24","12","04","feedback","test","null","","","na","","173","",""
"724.9000000953674","378449","HierDye5p9ewsb","sub24","12","04","rl","test","70","img/b_t_check.png","4","70","shape,color,pattern","174","1",""
"null","379459","HierDye5p9ewsb","sub24","12","04","feedback","test","null","","","na","","174","",""
"900.2999999523163","380362","HierDye5p9ewsb","sub24","12","04","rl","test","72","img/r_d_stripes.png","5","72","shape,color,pattern","175","1",""
"null","381368","HierDye5p9ewsb","sub24","12","04","feedback","test","null","","","na","","175","",""
"2341.7000000476837","383712","HierDye5p9ewsb","sub24","12","04","rl","test","76","img/b_d_stripes.png","7","75","shape,color,pattern","176","0",""
"null","384721","HierDye5p9ewsb","sub24","12","04","feedback","test","null","","","na","","176","",""
"1382.5","386105","HierDye5p9ewsb","sub24","12","04","rl","test","83","img/r_t_check.png","2","83","shape,color,pattern","177","1",""
"null","387114","HierDye5p9ewsb","sub24","12","04","feedback","test","null","","","na","","177","",""
"1733.1000001430511","388849","HierDye5p9ewsb","sub24","12","04","rl","test","83","img/r_t_check.png","2","83","shape,color,pattern","178","1",""
"null","389856","HierDye5p9ewsb","sub24","12","04","feedback","test","null","","","na","","178","",""
"1281.5999999046326","391140","HierDye5p9ewsb","sub24","12","04","rl","test","76","img/b_d_check.png","8","76","shape,color,pattern","179","1",""
"null","392147","HierDye5p9ewsb","sub24","12","04","feedback","test","null","","","na","","179","",""
"851","393000","HierDye5p9ewsb","sub24","12","04","rl","test","75","img/b_d_stripes.png","7","75","shape,color,pattern","180","1",""
"null","394008","HierDye5p9ewsb","sub24","12","04","feedback","test","null","","","na","","180","",""
"1090.5","395101","HierDye5p9ewsb","sub24","12","04","rl","test","65","img/r_t_stripes.png","1","65","shape,color,pattern","181","1",""
"null","396113","HierDye5p9ewsb","sub24","12","04","feedback","test","null","","","na","","181","",""
"980.4000000953674","397096","HierDye5p9ewsb","sub24","12","04","rl","test","68","img/b_t_stripes.png","3","68","shape,color,pattern","182","1",""
"null","398104","HierDye5p9ewsb","sub24","12","04","feedback","test","null","","","na","","182","",""
"1773.8999998569489","399880","HierDye5p9ewsb","sub24","12","04","rl","test","74","img/r_d_check.png","6","74","shape,color,pattern","183","1",""
"null","400891","HierDye5p9ewsb","sub24","12","04","feedback","test","null","","","na","","183","",""
"1822","402715","HierDye5p9ewsb","sub24","12","04","rl","test","65","img/r_t_stripes.png","1","65","shape,color,pattern","184","1",""
"null","403723","HierDye5p9ewsb","sub24","12","04","feedback","test","null","","","na","","184","",""
"null","406234","HierDye5p9ewsb","sub24","12","04","rl","test","null","img/b_t_check.png","4","70","shape,color,pattern","185","0",""
"null","407239","HierDye5p9ewsb","sub24","12","04","feedback","test","null","","","na","","185","",""
"1238.2999999523163","408479","HierDye5p9ewsb","sub24","12","04","rl","test","72","img/b_d_stripes.png","7","75","shape,color,pattern","186","0",""
"null","409488","HierDye5p9ewsb","sub24","12","04","feedback","test","null","","","na","","186","",""
"1189.8999998569489","410680","HierDye5p9ewsb","sub24","12","04","rl","test","74","img/r_d_check.png","6","74","shape,color,pattern","187","1",""
"null","411682","HierDye5p9ewsb","sub24","12","04","feedback","test","null","","","na","","187","",""
"678.5999999046326","412363","HierDye5p9ewsb","sub24","12","04","rl","test","74","img/r_d_check.png","6","74","shape,color,pattern","188","1",""
"null","413367","HierDye5p9ewsb","sub24","12","04","feedback","test","null","","","na","","188","",""
"780.5","414150","HierDye5p9ewsb","sub24","12","04","rl","test","68","img/b_t_stripes.png","3","68","shape,color,pattern","189","1",""
"null","415162","HierDye5p9ewsb","sub24","12","04","feedback","test","null","","","na","","189","",""
"830.5","415995","HierDye5p9ewsb","sub24","12","04","rl","test","72","img/r_d_stripes.png","5","72","shape,color,pattern","190","1",""
"null","416999","HierDye5p9ewsb","sub24","12","04","feedback","test","null","","","na","","190","",""
"1775.1000001430511","418776","HierDye5p9ewsb","sub24","12","04","rl","test","83","img/r_t_check.png","2","83","shape,color,pattern","191","1",""
"null","419784","HierDye5p9ewsb","sub24","12","04","feedback","test","null","","","na","","191","",""
"1051","420837","HierDye5p9ewsb","sub24","12","04","rl","test","70","img/b_t_check.png","4","70","shape,color,pattern","192","1",""
"null","421849","HierDye5p9ewsb","sub24","12","04","feedback","test","null","","","na","","192","",""
"1843.0999999046326","423694","HierDye5p9ewsb","sub24","12","04","rl","test","76","img/b_d_check.png","8","76","shape,color,pattern","193","1",""
"null","424703","HierDye5p9ewsb","sub24","12","04","feedback","test","null","","","na","","193","",""
"888.0999999046326","425593","HierDye5p9ewsb","sub24","12","04","rl","test","68","img/b_t_stripes.png","3","68","shape,color,pattern","194","1",""
"null","426599","HierDye5p9ewsb","sub24","12","04","feedback","test","null","","","na","","194","",""
"1047.5","427648","HierDye5p9ewsb","sub24","12","04","rl","test","76","img/b_d_check.png","8","76","shape,color,pattern","195","1",""
"null","428658","HierDye5p9ewsb","sub24","12","04","feedback","test","null","","","na","","195","",""
"943","429603","HierDye5p9ewsb","sub24","12","04","rl","test","65","img/r_t_stripes.png","1","65","shape,color,pattern","196","1",""
"null","430610","HierDye5p9ewsb","sub24","12","04","feedback","test","null","","","na","","196","",""
"702.5","431315","HierDye5p9ewsb","sub24","12","04","rl","test","70","img/b_t_check.png","4","70","shape,color,pattern","197","1",""
"null","432321","HierDye5p9ewsb","sub24","12","04","feedback","test","null","","","na","","197","",""
"1729.2999999523163","434053","HierDye5p9ewsb","sub24","12","04","rl","test","72","img/r_d_stripes.png","5","72","shape,color,pattern","198","1",""
"null","435062","HierDye5p9ewsb","sub24","12","04","feedback","test","null","","","na","","198","",""
"1227.2000000476837","436292","HierDye5p9ewsb","sub24","12","04","rl","test","75","img/b_d_stripes.png","7","75","shape,color,pattern","199","1",""
"null","437304","HierDye5p9ewsb","sub24","12","04","feedback","test","null","","","na","","199","",""
"2062.7999999523163","439369","HierDye5p9ewsb","sub24","12","04","rl","test","83","img/r_t_check.png","2","83","shape,color,pattern","200","1",""
"null","440377","HierDye5p9ewsb","sub24","12","04","feedback","test","null","","","na","","200","",""
"805.2000000476837","441185","HierDye5p9ewsb","sub24","12","04","rl","test","70","img/b_t_check.png","4","70","shape,color,pattern","201","1",""
"null","442190","HierDye5p9ewsb","sub24","12","04","feedback","test","null","","","na","","201","",""
"830.7000000476837","443023","HierDye5p9ewsb","sub24","12","04","rl","test","65","img/r_t_stripes.png","1","65","shape,color,pattern","202","1",""
"null","444030","HierDye5p9ewsb","sub24","12","04","feedback","test","null","","","na","","202","",""
"961.4000000953674","444994","HierDye5p9ewsb","sub24","12","04","rl","test","74","img/r_d_check.png","6","74","shape,color,pattern","203","1",""
"null","446001","HierDye5p9ewsb","sub24","12","04","feedback","test","null","","","na","","203","",""
"718.7000000476837","446722","HierDye5p9ewsb","sub24","12","04","rl","test","68","img/b_t_stripes.png","3","68","shape,color,pattern","204","1",""
"null","447727","HierDye5p9ewsb","sub24","12","04","feedback","test","null","","","na","","204","",""
"854.7000000476837","448584","HierDye5p9ewsb","sub24","12","04","rl","test","72","img/r_d_stripes.png","5","72","shape,color,pattern","205","1",""
"null","449594","HierDye5p9ewsb","sub24","12","04","feedback","test","null","","","na","","205","",""
"1620.9000000953674","451217","HierDye5p9ewsb","sub24","12","04","rl","test","70","img/r_t_check.png","2","83","shape,color,pattern","206","0",""
"null","452225","HierDye5p9ewsb","sub24","12","04","feedback","test","null","","","na","","206","",""
"1175.5","453403","HierDye5p9ewsb","sub24","12","04","rl","test","72","img/r_d_stripes.png","5","72","shape,color,pattern","207","1",""
"null","454416","HierDye5p9ewsb","sub24","12","04","feedback","test","null","","","na","","207","",""
"1312.7999999523163","455731","HierDye5p9ewsb","sub24","12","04","rl","test","76","img/b_d_check.png","8","76","shape,color,pattern","208","1",""
"null","456742","HierDye5p9ewsb","sub24","12","04","feedback","test","null","","","na","","208","",""
"982.7999999523163","457727","HierDye5p9ewsb","sub24","12","04","rl","test","83","img/r_t_check.png","2","83","shape,color,pattern","209","1",""
"null","458734","HierDye5p9ewsb","sub24","12","04","feedback","test","null","","","na","","209","",""
"1827.2999999523163","460563","HierDye5p9ewsb","sub24","12","04","rl","test","75","img/b_d_stripes.png","7","75","shape,color,pattern","210","1",""
"null","461573","HierDye5p9ewsb","sub24","12","04","feedback","test","null","","","na","","210","",""
"581.3999998569489","462157","HierDye5p9ewsb","sub24","12","04","rl","test","75","img/b_d_stripes.png","7","75","shape,color,pattern","211","1",""
"null","463166","HierDye5p9ewsb","sub24","12","04","feedback","test","null","","","na","","211","",""
"1296.3999998569489","464465","HierDye5p9ewsb","sub24","12","04","rl","test","65","img/r_t_stripes.png","1","65","shape,color,pattern","212","1",""
"null","465471","HierDye5p9ewsb","sub24","12","04","feedback","test","null","","","na","","212","",""
"2312.7000000476837","467786","HierDye5p9ewsb","sub24","12","04","rl","test","76","img/b_d_check.png","8","76","shape,color,pattern","213","1",""
"null","468790","HierDye5p9ewsb","sub24","12","04","feedback","test","null","","","na","","213","",""
"526.5999999046326","469319","HierDye5p9ewsb","sub24","12","04","rl","test","76","img/b_d_check.png","8","76","shape,color,pattern","214","1",""
"null","470326","HierDye5p9ewsb","sub24","12","04","feedback","test","null","","","na","","214","",""
"1143.3999998569489","471472","HierDye5p9ewsb","sub24","12","04","rl","test","70","img/b_t_check.png","4","70","shape,color,pattern","215","1",""
"null","472480","HierDye5p9ewsb","sub24","12","04","feedback","test","null","","","na","","215","",""
"755.5999999046326","473238","HierDye5p9ewsb","sub24","12","04","rl","test","68","img/b_t_stripes.png","3","68","shape,color,pattern","216","1",""
"null","474248","HierDye5p9ewsb","sub24","12","04","feedback","test","null","","","na","","216","",""
"2431.2999999523163","476681","HierDye5p9ewsb","sub24","12","04","rl","test","83","img/r_d_check.png","6","74","shape,color,pattern","217","0",""
"null","477690","HierDye5p9ewsb","sub24","12","04","feedback","test","null","","","na","","217","",""
"1973.2999999523163","479665","HierDye5p9ewsb","sub24","12","04","rl","test","68","img/b_t_stripes.png","3","68","shape,color,pattern","218","1",""
"null","480673","HierDye5p9ewsb","sub24","12","04","feedback","test","null","","","na","","218","",""
"1049.6000001430511","481725","HierDye5p9ewsb","sub24","12","04","rl","test","70","img/b_t_check.png","4","70","shape,color,pattern","219","1",""
"null","482737","HierDye5p9ewsb","sub24","12","04","feedback","test","null","","","na","","219","",""
"1998","484737","HierDye5p9ewsb","sub24","12","04","rl","test","65","img/r_t_stripes.png","1","65","shape,color,pattern","220","1",""
"null","485745","HierDye5p9ewsb","sub24","12","04","feedback","test","null","","","na","","220","",""
"518.2000000476837","486265","HierDye5p9ewsb","sub24","12","04","rl","test","83","img/r_t_check.png","2","83","shape,color,pattern","221","1",""
"null","487269","HierDye5p9ewsb","sub24","12","04","feedback","test","null","","","na","","221","",""
"2254.2000000476837","489526","HierDye5p9ewsb","sub24","12","04","rl","test","72","img/r_d_stripes.png","5","72","shape,color,pattern","222","1",""
"null","490535","HierDye5p9ewsb","sub24","12","04","feedback","test","null","","","na","","222","",""
"774.0999999046326","491312","HierDye5p9ewsb","sub24","12","04","rl","test","76","img/b_d_check.png","8","76","shape,color,pattern","223","1",""
"null","492317","HierDye5p9ewsb","sub24","12","04","feedback","test","null","","","na","","223","",""
"1187.6000001430511","493506","HierDye5p9ewsb","sub24","12","04","rl","test","74","img/r_d_check.png","6","74","shape,color,pattern","224","1",""
"null","494518","HierDye5p9ewsb","sub24","12","04","feedback","test","null","","","na","","224","",""
"653.9000000953674","495175","HierDye5p9ewsb","sub24","12","04","rl","test","75","img/b_d_stripes.png","7","75","shape,color,pattern","225","1",""
"null","496182","HierDye5p9ewsb","sub24","12","04","feedback","test","null","","","na","","225","",""
"1034.3999998569489","497218","HierDye5p9ewsb","sub24","12","04","rl","test","65","img/r_t_stripes.png","1","65","shape,color,pattern","226","1",""
"null","498233","HierDye5p9ewsb","sub24","12","04","feedback","test","null","","","na","","226","",""
"1898.1999998092651","500134","HierDye5p9ewsb","sub24","12","04","rl","test","74","img/r_d_check.png","6","74","shape,color,pattern","227","1",""
"null","501142","HierDye5p9ewsb","sub24","12","04","feedback","test","null","","","na","","227","",""
"2299.7999999523163","503445","HierDye5p9ewsb","sub24","12","04","rl","test","70","img/b_t_stripes.png","3","68","shape,color,pattern","228","0",""
"null","504456","HierDye5p9ewsb","sub24","12","04","feedback","test","null","","","na","","228","",""
"2228.399999856949","506686","HierDye5p9ewsb","sub24","12","04","rl","test","76","img/b_d_stripes.png","7","75","shape,color,pattern","229","0",""
"null","507695","HierDye5p9ewsb","sub24","12","04","feedback","test","null","","","na","","229","",""
"null","510205","HierDye5p9ewsb","sub24","12","04","rl","test","null","img/r_t_check.png","2","83","shape,color,pattern","230","0",""
"null","511215","HierDye5p9ewsb","sub24","12","04","feedback","test","null","","","na","","230","",""
"1980.9000000953674","513198","HierDye5p9ewsb","sub24","12","04","rl","test","75","img/b_d_stripes.png","7","75","shape,color,pattern","231","1",""
"null","514209","HierDye5p9ewsb","sub24","12","04","feedback","test","null","","","na","","231","",""
"854.6999998092651","515066","HierDye5p9ewsb","sub24","12","04","rl","test","70","img/b_t_check.png","4","70","shape,color,pattern","232","1",""
"null","516081","HierDye5p9ewsb","sub24","12","04","feedback","test","null","","","na","","232","",""
"866.7000000476837","516950","HierDye5p9ewsb","sub24","12","04","rl","test","72","img/r_d_stripes.png","5","72","shape,color,pattern","233","1",""
"null","517960","HierDye5p9ewsb","sub24","12","04","feedback","test","null","","","na","","233","",""
"752.3999998569489","518715","HierDye5p9ewsb","sub24","12","04","rl","test","72","img/r_d_stripes.png","5","72","shape,color,pattern","234","1",""
"null","519724","HierDye5p9ewsb","sub24","12","04","feedback","test","null","","","na","","234","",""
"1878.3999998569489","521604","HierDye5p9ewsb","sub24","12","04","rl","test","83","img/r_t_check.png","2","83","shape,color,pattern","235","1",""
"null","522614","HierDye5p9ewsb","sub24","12","04","feedback","test","null","","","na","","235","",""
"688","523304","HierDye5p9ewsb","sub24","12","04","rl","test","68","img/b_t_stripes.png","3","68","shape,color,pattern","236","1",""
"null","524308","HierDye5p9ewsb","sub24","12","04","feedback","test","null","","","na","","236","",""
"626.7999999523163","524936","HierDye5p9ewsb","sub24","12","04","rl","test","70","img/b_t_check.png","4","70","shape,color,pattern","237","1",""
"null","525943","HierDye5p9ewsb","sub24","12","04","feedback","test","null","","","na","","237","",""
"1254.2000000476837","527198","HierDye5p9ewsb","sub24","12","04","rl","test","76","img/b_d_check.png","8","76","shape,color,pattern","238","1",""
"null","528204","HierDye5p9ewsb","sub24","12","04","feedback","test","null","","","na","","238","",""
"983.3999998569489","529190","HierDye5p9ewsb","sub24","12","04","rl","test","68","img/b_t_stripes.png","3","68","shape,color,pattern","239","1",""
"null","530200","HierDye5p9ewsb","sub24","12","04","feedback","test","null","","","na","","239","",""
"820.7000000476837","531023","HierDye5p9ewsb","sub24","12","04","rl","test","65","img/r_t_stripes.png","1","65","shape,color,pattern","240","1",""
"null","532031","HierDye5p9ewsb","sub24","12","04","feedback","test","null","","","na","","240","",""
"509.10000014305115","532542","HierDye5p9ewsb","sub24","12","04","rl","test","65","img/r_t_stripes.png","1","65","shape,color,pattern","241","1",""
"null","533553","HierDye5p9ewsb","sub24","12","04","feedback","test","null","","","na","","241","",""
"1446.5","535001","HierDye5p9ewsb","sub24","12","04","rl","test","74","img/r_d_check.png","6","74","shape,color,pattern","242","1",""
"null","536014","HierDye5p9ewsb","sub24","12","04","feedback","test","null","","","na","","242","",""
"1254.0999999046326","537270","HierDye5p9ewsb","sub24","12","04","rl","test","83","img/r_t_check.png","2","83","shape,color,pattern","243","1",""
"null","538279","HierDye5p9ewsb","sub24","12","04","feedback","test","null","","","na","","243","",""
"1683.9000000953674","539965","HierDye5p9ewsb","sub24","12","04","rl","test","74","img/r_d_check.png","6","74","shape,color,pattern","244","1",""
"null","540974","HierDye5p9ewsb","sub24","12","04","feedback","test","null","","","na","","244","",""
"1213.1000001430511","542189","HierDye5p9ewsb","sub24","12","04","rl","test","76","img/b_d_check.png","8","76","shape,color,pattern","245","1",""
"null","543196","HierDye5p9ewsb","sub24","12","04","feedback","test","null","","","na","","245","",""
"508.10000014305115","543707","HierDye5p9ewsb","sub24","12","04","rl","test","75","img/b_d_stripes.png","7","75","shape,color,pattern","246","1",""
"null","544717","HierDye5p9ewsb","sub24","12","04","feedback","test","null","","","na","","246","",""
"858","545577","HierDye5p9ewsb","sub24","12","04","rl","test","72","img/r_d_stripes.png","5","72","shape,color,pattern","247","1",""
"null","546591","HierDye5p9ewsb","sub24","12","04","feedback","test","null","","","na","","247","",""
"1248.8000001907349","547842","HierDye5p9ewsb","sub24","12","04","rl","test","70","img/b_t_check.png","4","70","shape,color,pattern","248","1",""
"null","548856","HierDye5p9ewsb","sub24","12","04","feedback","test","null","","","na","","248","",""
"8893.399999856949","557758","HierDye5p9ewsb","sub24","12","04","","","","","","","","","","{""Q0"":""8""}"
"19844.60000014305","577605","HierDye5p9ewsb","sub24","12","04","","","","","","","","","","{""Q0"":""Press the keys that correspond to the shape as quickly as I could ""}"
"2479","580085","HierDye5p9ewsb","sub24","12","04","","","","","","","","","",""
