"rt","time_elapsed","subject","subID","group","day","trialType","key_press","stim","corrresp","phase","stimNum","trialNum","corr","repeatTrial","motorSwitch","hierarchy","responses"
"810","818","HierDy0wdpx152","sub08","08","8","","","","","","","","","","","",""
"","2618","HierDy0wdpx152","sub08","08","8","fullscreen","","","","","","","","","","",""
"222542","225173","HierDy0wdpx152","sub08","08","8","","","","","","","","","","","",""
"2070","227256","HierDy0wdpx152","sub08","08","8","motor","83","img/motor_2.png","83","motor","2","1","1","0","0","",""
"null","227369","HierDy0wdpx152","sub08","08","8","iti","null","img/motor_2.png","83","motor","","","","","","",""
"980","228361","HierDy0wdpx152","sub08","08","8","motor","74","img/motor_6.png","74","motor","6","2","1","0","0","",""
"null","228473","HierDy0wdpx152","sub08","08","8","iti","null","img/motor_6.png","74","motor","","","","","","",""
"714","229196","HierDy0wdpx152","sub08","08","8","motor","70","img/motor_4.png","70","motor","4","3","1","0","0","",""
"null","229306","HierDy0wdpx152","sub08","08","8","iti","null","img/motor_4.png","70","motor","","","","","","",""
"487","229804","HierDy0wdpx152","sub08","08","8","motor","70","img/motor_4.png","70","motor","4","4","1","0","0","",""
"null","229914","HierDy0wdpx152","sub08","08","8","iti","null","img/motor_4.png","70","motor","","","","","","",""
"634","230558","HierDy0wdpx152","sub08","08","8","motor","72","img/motor_5.png","72","motor","5","5","1","0","0","",""
"null","230669","HierDy0wdpx152","sub08","08","8","iti","null","img/motor_5.png","72","motor","","","","","","",""
"489","231169","HierDy0wdpx152","sub08","08","8","motor","83","img/motor_2.png","83","motor","2","6","1","0","0","",""
"null","231278","HierDy0wdpx152","sub08","08","8","iti","null","img/motor_2.png","83","motor","","","","","","",""
"436","231726","HierDy0wdpx152","sub08","08","8","motor","65","img/motor_1.png","65","motor","1","7","1","0","0","",""
"null","231835","HierDy0wdpx152","sub08","08","8","iti","null","img/motor_1.png","65","motor","","","","","","",""
"379","232223","HierDy0wdpx152","sub08","08","8","motor","68","img/motor_3.png","68","motor","3","8","1","0","0","",""
"null","232331","HierDy0wdpx152","sub08","08","8","iti","null","img/motor_3.png","68","motor","","","","","","",""
"328","232669","HierDy0wdpx152","sub08","08","8","motor","70","img/motor_4.png","70","motor","4","9","1","0","0","",""
"null","232779","HierDy0wdpx152","sub08","08","8","iti","null","img/motor_4.png","70","motor","","","","","","",""
"468","233257","HierDy0wdpx152","sub08","08","8","motor","65","img/motor_1.png","65","motor","1","10","1","0","0","",""
"null","233366","HierDy0wdpx152","sub08","08","8","iti","null","img/motor_1.png","65","motor","","","","","","",""
"382","233759","HierDy0wdpx152","sub08","08","8","motor","68","img/motor_3.png","68","motor","3","11","1","0","0","",""
"null","233870","HierDy0wdpx152","sub08","08","8","iti","null","img/motor_3.png","68","motor","","","","","","",""
"475","234355","HierDy0wdpx152","sub08","08","8","motor","75","img/motor_6.png","74","motor","6","12","0","1","0","",""
"259","234625","HierDy0wdpx152","sub08","08","8","motorRepeat","74","img/motor_6.png","74","motor","6","12","1","0","0","",""
"null","234736","HierDy0wdpx152","sub08","08","8","iti","null","img/motor_6.png","74","motor","","","","","","",""
"503","235249","HierDy0wdpx152","sub08","08","8","motor","68","img/motor_3.png","68","motor","3","13","1","0","0","",""
"null","235361","HierDy0wdpx152","sub08","08","8","iti","null","img/motor_3.png","68","motor","","","","","","",""
"575","235942","HierDy0wdpx152","sub08","08","8","motor","76","img/motor_8.png","76","motor","8","14","1","0","0","",""
"null","236053","HierDy0wdpx152","sub08","08","8","iti","null","img/motor_8.png","76","motor","","","","","","",""
"491","236554","HierDy0wdpx152","sub08","08","8","motor","83","img/motor_2.png","83","motor","2","15","1","0","0","",""
"null","236663","HierDy0wdpx152","sub08","08","8","iti","null","img/motor_2.png","83","motor","","","","","","",""
"530","237203","HierDy0wdpx152","sub08","08","8","motor","76","img/motor_8.png","76","motor","8","16","1","0","0","",""
"null","237314","HierDy0wdpx152","sub08","08","8","iti","null","img/motor_8.png","76","motor","","","","","","",""
"460","237784","HierDy0wdpx152","sub08","08","8","motor","75","img/motor_5.png","72","motor","5","17","0","1","0","",""
"197","237990","HierDy0wdpx152","sub08","08","8","motorRepeat","74","img/motor_5.png","72","motor","5","17","0","1","0","",""
"404","238403","HierDy0wdpx152","sub08","08","8","motorRepeat","74","img/motor_5.png","72","motor","5","17","0","1","0","",""
"299","238712","HierDy0wdpx152","sub08","08","8","motorRepeat","72","img/motor_5.png","72","motor","5","17","1","0","0","",""
"null","238822","HierDy0wdpx152","sub08","08","8","iti","null","img/motor_5.png","72","motor","","","","","","",""
"640","239471","HierDy0wdpx152","sub08","08","8","motor","76","img/motor_8.png","76","motor","8","18","1","0","0","",""
"null","239581","HierDy0wdpx152","sub08","08","8","iti","null","img/motor_8.png","76","motor","","","","","","",""
"918","240509","HierDy0wdpx152","sub08","08","8","motor","83","img/motor_2.png","83","motor","2","19","1","0","0","",""
"null","240621","HierDy0wdpx152","sub08","08","8","iti","null","img/motor_2.png","83","motor","","","","","","",""
"840","241471","HierDy0wdpx152","sub08","08","8","motor","75","img/motor_5.png","72","motor","5","20","0","1","0","",""
"742","242222","HierDy0wdpx152","sub08","08","8","motorRepeat","72","img/motor_5.png","72","motor","5","20","1","0","0","",""
"null","242330","HierDy0wdpx152","sub08","08","8","iti","null","img/motor_5.png","72","motor","","","","","","",""
"599","242939","HierDy0wdpx152","sub08","08","8","motor","76","img/motor_8.png","76","motor","8","21","1","0","0","",""
"null","243048","HierDy0wdpx152","sub08","08","8","iti","null","img/motor_8.png","76","motor","","","","","","",""
"510","243566","HierDy0wdpx152","sub08","08","8","motor","72","img/motor_5.png","72","motor","5","22","1","0","0","",""
"null","243676","HierDy0wdpx152","sub08","08","8","iti","null","img/motor_5.png","72","motor","","","","","","",""
"498","244185","HierDy0wdpx152","sub08","08","8","motor","83","img/motor_2.png","83","motor","2","23","1","0","0","",""
"null","244293","HierDy0wdpx152","sub08","08","8","iti","null","img/motor_2.png","83","motor","","","","","","",""
"453","244755","HierDy0wdpx152","sub08","08","8","motor","76","img/motor_8.png","76","motor","8","24","1","0","0","",""
"null","244865","HierDy0wdpx152","sub08","08","8","iti","null","img/motor_8.png","76","motor","","","","","","",""
"639","245514","HierDy0wdpx152","sub08","08","8","motor","70","img/motor_4.png","70","motor","4","25","1","0","0","",""
"null","245625","HierDy0wdpx152","sub08","08","8","iti","null","img/motor_4.png","70","motor","","","","","","",""
"572","246206","HierDy0wdpx152","sub08","08","8","motor","75","img/motor_7.png","75","motor","7","26","1","0","0","",""
"null","246317","HierDy0wdpx152","sub08","08","8","iti","null","img/motor_7.png","75","motor","","","","","","",""
"584","246910","HierDy0wdpx152","sub08","08","8","motor","83","img/motor_2.png","83","motor","2","27","1","0","0","",""
"null","247020","HierDy0wdpx152","sub08","08","8","iti","null","img/motor_2.png","83","motor","","","","","","",""
"444","247474","HierDy0wdpx152","sub08","08","8","motor","75","img/motor_6.png","74","motor","6","28","0","1","0","",""
"268","247752","HierDy0wdpx152","sub08","08","8","motorRepeat","74","img/motor_6.png","74","motor","6","28","1","0","0","",""
"null","247862","HierDy0wdpx152","sub08","08","8","iti","null","img/motor_6.png","74","motor","","","","","","",""
"553","248425","HierDy0wdpx152","sub08","08","8","motor","83","img/motor_2.png","83","motor","2","29","1","0","0","",""
"null","248536","HierDy0wdpx152","sub08","08","8","iti","null","img/motor_2.png","83","motor","","","","","","",""
"453","248998","HierDy0wdpx152","sub08","08","8","motor","76","img/motor_8.png","76","motor","8","30","1","0","0","",""
"null","249110","HierDy0wdpx152","sub08","08","8","iti","null","img/motor_8.png","76","motor","","","","","","",""
"415","249533","HierDy0wdpx152","sub08","08","8","motor","76","img/motor_8.png","76","motor","8","31","1","0","0","",""
"null","249643","HierDy0wdpx152","sub08","08","8","iti","null","img/motor_8.png","76","motor","","","","","","",""
"453","250108","HierDy0wdpx152","sub08","08","8","motor","65","img/motor_1.png","65","motor","1","32","1","0","0","",""
"null","250221","HierDy0wdpx152","sub08","08","8","iti","null","img/motor_1.png","65","motor","","","","","","",""
"488","250721","HierDy0wdpx152","sub08","08","8","motor","74","img/motor_5.png","72","motor","5","33","0","1","0","",""
"264","250994","HierDy0wdpx152","sub08","08","8","motorRepeat","72","img/motor_5.png","72","motor","5","33","1","0","0","",""
"null","251106","HierDy0wdpx152","sub08","08","8","iti","null","img/motor_5.png","72","motor","","","","","","",""
"627","251743","HierDy0wdpx152","sub08","08","8","motor","70","img/motor_4.png","70","motor","4","34","1","0","0","",""
"null","251854","HierDy0wdpx152","sub08","08","8","iti","null","img/motor_4.png","70","motor","","","","","","",""
"482","252347","HierDy0wdpx152","sub08","08","8","motor","75","img/motor_6.png","74","motor","6","35","0","1","0","",""
"329","252686","HierDy0wdpx152","sub08","08","8","motorRepeat","74","img/motor_6.png","74","motor","6","35","1","0","0","",""
"null","252797","HierDy0wdpx152","sub08","08","8","iti","null","img/motor_6.png","74","motor","","","","","","",""
"708","253515","HierDy0wdpx152","sub08","08","8","motor","68","img/motor_3.png","68","motor","3","36","1","0","0","",""
"null","253627","HierDy0wdpx152","sub08","08","8","iti","null","img/motor_3.png","68","motor","","","","","","",""
"516","254156","HierDy0wdpx152","sub08","08","8","motor","65","img/motor_1.png","65","motor","1","37","1","0","0","",""
"null","254268","HierDy0wdpx152","sub08","08","8","iti","null","img/motor_1.png","65","motor","","","","","","",""
"611","254891","HierDy0wdpx152","sub08","08","8","motor","72","img/motor_5.png","72","motor","5","38","1","0","0","",""
"null","255002","HierDy0wdpx152","sub08","08","8","iti","null","img/motor_5.png","72","motor","","","","","","",""
"531","255542","HierDy0wdpx152","sub08","08","8","motor","68","img/motor_4.png","70","motor","4","39","0","1","0","",""
"353","255907","HierDy0wdpx152","sub08","08","8","motorRepeat","70","img/motor_4.png","70","motor","4","39","1","0","0","",""
"null","256017","HierDy0wdpx152","sub08","08","8","iti","null","img/motor_4.png","70","motor","","","","","","",""
"600","256628","HierDy0wdpx152","sub08","08","8","motor","75","img/motor_7.png","75","motor","7","40","1","0","0","",""
"null","256738","HierDy0wdpx152","sub08","08","8","iti","null","img/motor_7.png","75","motor","","","","","","",""
"662","257409","HierDy0wdpx152","sub08","08","8","motor","72","img/motor_5.png","72","motor","5","41","1","0","0","",""
"null","257521","HierDy0wdpx152","sub08","08","8","iti","null","img/motor_5.png","72","motor","","","","","","",""
"633","258165","HierDy0wdpx152","sub08","08","8","motor","65","img/motor_1.png","65","motor","1","42","1","0","0","",""
"null","258275","HierDy0wdpx152","sub08","08","8","iti","null","img/motor_1.png","65","motor","","","","","","",""
"495","258780","HierDy0wdpx152","sub08","08","8","motor","83","img/motor_3.png","68","motor","3","43","0","1","0","",""
"291","259079","HierDy0wdpx152","sub08","08","8","motorRepeat","68","img/motor_3.png","68","motor","3","43","1","0","0","",""
"null","259191","HierDy0wdpx152","sub08","08","8","iti","null","img/motor_3.png","68","motor","","","","","","",""
"508","259708","HierDy0wdpx152","sub08","08","8","motor","83","img/motor_2.png","83","motor","2","44","1","0","0","",""
"null","259820","HierDy0wdpx152","sub08","08","8","iti","null","img/motor_2.png","83","motor","","","","","","",""
"432","260261","HierDy0wdpx152","sub08","08","8","motor","68","img/motor_3.png","68","motor","3","45","1","0","0","",""
"null","260371","HierDy0wdpx152","sub08","08","8","iti","null","img/motor_3.png","68","motor","","","","","","",""
"796","261177","HierDy0wdpx152","sub08","08","8","motor","74","img/motor_6.png","74","motor","6","46","1","0","0","",""
"null","261288","HierDy0wdpx152","sub08","08","8","iti","null","img/motor_6.png","74","motor","","","","","","",""
"605","261903","HierDy0wdpx152","sub08","08","8","motor","72","img/motor_5.png","72","motor","5","47","1","0","0","",""
"null","262014","HierDy0wdpx152","sub08","08","8","iti","null","img/motor_5.png","72","motor","","","","","","",""
"533","262557","HierDy0wdpx152","sub08","08","8","motor","76","img/motor_8.png","76","motor","8","48","1","0","0","",""
"null","262668","HierDy0wdpx152","sub08","08","8","iti","null","img/motor_8.png","76","motor","","","","","","",""
"520","263197","HierDy0wdpx152","sub08","08","8","motor","72","img/motor_5.png","72","motor","5","49","1","0","0","",""
"null","263309","HierDy0wdpx152","sub08","08","8","iti","null","img/motor_5.png","72","motor","","","","","","",""
"477","263795","HierDy0wdpx152","sub08","08","8","motor","76","img/motor_8.png","76","motor","8","50","1","0","0","",""
"null","263905","HierDy0wdpx152","sub08","08","8","iti","null","img/motor_8.png","76","motor","","","","","","",""
"464","264379","HierDy0wdpx152","sub08","08","8","motor","65","img/motor_1.png","65","motor","1","51","1","0","0","",""
"null","264491","HierDy0wdpx152","sub08","08","8","iti","null","img/motor_1.png","65","motor","","","","","","",""
"491","264990","HierDy0wdpx152","sub08","08","8","motor","76","img/motor_8.png","76","motor","8","52","1","0","0","",""
"null","265101","HierDy0wdpx152","sub08","08","8","iti","null","img/motor_8.png","76","motor","","","","","","",""
"526","265636","HierDy0wdpx152","sub08","08","8","motor","74","img/motor_6.png","74","motor","6","53","1","0","0","",""
"null","265748","HierDy0wdpx152","sub08","08","8","iti","null","img/motor_6.png","74","motor","","","","","","",""
"596","266354","HierDy0wdpx152","sub08","08","8","motor","70","img/motor_4.png","70","motor","4","54","1","0","0","",""
"null","266464","HierDy0wdpx152","sub08","08","8","iti","null","img/motor_4.png","70","motor","","","","","","",""
"488","266962","HierDy0wdpx152","sub08","08","8","motor","72","img/motor_5.png","72","motor","5","55","1","0","0","",""
"null","267072","HierDy0wdpx152","sub08","08","8","iti","null","img/motor_5.png","72","motor","","","","","","",""
"569","267648","HierDy0wdpx152","sub08","08","8","motor","76","img/motor_8.png","76","motor","8","56","1","0","0","",""
"null","267757","HierDy0wdpx152","sub08","08","8","iti","null","img/motor_8.png","76","motor","","","","","","",""
"354","268121","HierDy0wdpx152","sub08","08","8","motor","72","img/motor_5.png","72","motor","5","57","1","0","0","",""
"null","268232","HierDy0wdpx152","sub08","08","8","iti","null","img/motor_5.png","72","motor","","","","","","",""
"509","268749","HierDy0wdpx152","sub08","08","8","motor","68","img/motor_3.png","68","motor","3","58","1","0","0","",""
"null","268858","HierDy0wdpx152","sub08","08","8","iti","null","img/motor_3.png","68","motor","","","","","","",""
"584","269452","HierDy0wdpx152","sub08","08","8","motor","70","img/motor_4.png","70","motor","4","59","1","0","0","",""
"null","269560","HierDy0wdpx152","sub08","08","8","iti","null","img/motor_4.png","70","motor","","","","","","",""
"499","270067","HierDy0wdpx152","sub08","08","8","motor","83","img/motor_2.png","83","motor","2","60","1","0","0","",""
"null","270178","HierDy0wdpx152","sub08","08","8","iti","null","img/motor_2.png","83","motor","","","","","","",""
"535","270722","HierDy0wdpx152","sub08","08","8","motor","76","img/motor_8.png","76","motor","8","61","1","0","0","",""
"null","270832","HierDy0wdpx152","sub08","08","8","iti","null","img/motor_8.png","76","motor","","","","","","",""
"503","271342","HierDy0wdpx152","sub08","08","8","motor","83","img/motor_2.png","83","motor","2","62","1","0","0","",""
"null","271453","HierDy0wdpx152","sub08","08","8","iti","null","img/motor_2.png","83","motor","","","","","","",""
"555","272018","HierDy0wdpx152","sub08","08","8","motor","74","img/motor_6.png","74","motor","6","63","1","0","0","",""
"null","272129","HierDy0wdpx152","sub08","08","8","iti","null","img/motor_6.png","74","motor","","","","","","",""
"480","272619","HierDy0wdpx152","sub08","08","8","motor","65","img/motor_1.png","65","motor","1","64","1","0","0","",""
"null","272731","HierDy0wdpx152","sub08","08","8","iti","null","img/motor_1.png","65","motor","","","","","","",""
"461","273202","HierDy0wdpx152","sub08","08","8","motor","72","img/motor_5.png","72","motor","5","65","1","0","0","",""
"null","273313","HierDy0wdpx152","sub08","08","8","iti","null","img/motor_5.png","72","motor","","","","","","",""
"525","273847","HierDy0wdpx152","sub08","08","8","motor","83","img/motor_2.png","83","motor","2","66","1","0","0","",""
"null","273957","HierDy0wdpx152","sub08","08","8","iti","null","img/motor_2.png","83","motor","","","","","","",""
"418","274385","HierDy0wdpx152","sub08","08","8","motor","68","img/motor_3.png","68","motor","3","67","1","0","0","",""
"null","274496","HierDy0wdpx152","sub08","08","8","iti","null","img/motor_3.png","68","motor","","","","","","",""
"557","275061","HierDy0wdpx152","sub08","08","8","motor","72","img/motor_5.png","72","motor","5","68","1","0","0","",""
"null","275171","HierDy0wdpx152","sub08","08","8","iti","null","img/motor_5.png","72","motor","","","","","","",""
"460","275639","HierDy0wdpx152","sub08","08","8","motor","75","img/motor_7.png","75","motor","7","69","1","0","0","",""
"null","275751","HierDy0wdpx152","sub08","08","8","iti","null","img/motor_7.png","75","motor","","","","","","",""
"552","276313","HierDy0wdpx152","sub08","08","8","motor","68","img/motor_3.png","68","motor","3","70","1","0","0","",""
"null","276424","HierDy0wdpx152","sub08","08","8","iti","null","img/motor_3.png","68","motor","","","","","","",""
"523","276956","HierDy0wdpx152","sub08","08","8","motor","76","img/motor_8.png","76","motor","8","71","1","0","0","",""
"null","277065","HierDy0wdpx152","sub08","08","8","iti","null","img/motor_8.png","76","motor","","","","","","",""
"514","277586","HierDy0wdpx152","sub08","08","8","motor","75","img/motor_7.png","75","motor","7","72","1","0","0","",""
"null","277696","HierDy0wdpx152","sub08","08","8","iti","null","img/motor_7.png","75","motor","","","","","","",""
"560","278268","HierDy0wdpx152","sub08","08","8","motor","68","img/motor_3.png","68","motor","3","73","1","0","0","",""
"null","278378","HierDy0wdpx152","sub08","08","8","iti","null","img/motor_3.png","68","motor","","","","","","",""
"396","278784","HierDy0wdpx152","sub08","08","8","motor","72","img/motor_5.png","72","motor","5","74","1","0","0","",""
"null","278896","HierDy0wdpx152","sub08","08","8","iti","null","img/motor_5.png","72","motor","","","","","","",""
"471","279376","HierDy0wdpx152","sub08","08","8","motor","68","img/motor_3.png","68","motor","3","75","1","0","0","",""
"null","279486","HierDy0wdpx152","sub08","08","8","iti","null","img/motor_3.png","68","motor","","","","","","",""
"363","279858","HierDy0wdpx152","sub08","08","8","motor","72","img/motor_5.png","72","motor","5","76","1","0","0","",""
"null","279967","HierDy0wdpx152","sub08","08","8","iti","null","img/motor_5.png","72","motor","","","","","","",""
"382","280359","HierDy0wdpx152","sub08","08","8","motor","68","img/motor_3.png","68","motor","3","77","1","0","0","",""
"null","280470","HierDy0wdpx152","sub08","08","8","iti","null","img/motor_3.png","68","motor","","","","","","",""
"407","280886","HierDy0wdpx152","sub08","08","8","motor","68","img/motor_3.png","68","motor","3","78","1","0","0","",""
"null","280997","HierDy0wdpx152","sub08","08","8","iti","null","img/motor_3.png","68","motor","","","","","","",""
"486","281494","HierDy0wdpx152","sub08","08","8","motor","70","img/motor_4.png","70","motor","4","79","1","0","0","",""
"null","281604","HierDy0wdpx152","sub08","08","8","iti","null","img/motor_4.png","70","motor","","","","","","",""
"536","282150","HierDy0wdpx152","sub08","08","8","motor","74","img/motor_6.png","74","motor","6","80","1","0","0","",""
"null","282261","HierDy0wdpx152","sub08","08","8","iti","null","img/motor_6.png","74","motor","","","","","","",""
"403","282674","HierDy0wdpx152","sub08","08","8","motor","68","img/motor_4.png","70","motor","4","81","0","1","0","",""
"436","283120","HierDy0wdpx152","sub08","08","8","motorRepeat","68","img/motor_4.png","70","motor","4","81","0","1","0","",""
"353","283482","HierDy0wdpx152","sub08","08","8","motorRepeat","70","img/motor_4.png","70","motor","4","81","1","0","0","",""
"null","283592","HierDy0wdpx152","sub08","08","8","iti","null","img/motor_4.png","70","motor","","","","","","",""
"472","284074","HierDy0wdpx152","sub08","08","8","motor","65","img/motor_1.png","65","motor","1","82","1","0","0","",""
"null","284184","HierDy0wdpx152","sub08","08","8","iti","null","img/motor_1.png","65","motor","","","","","","",""
"687","284880","HierDy0wdpx152","sub08","08","8","motor","75","img/motor_7.png","75","motor","7","83","1","0","0","",""
"null","284991","HierDy0wdpx152","sub08","08","8","iti","null","img/motor_7.png","75","motor","","","","","","",""
"600","285601","HierDy0wdpx152","sub08","08","8","motor","65","img/motor_1.png","65","motor","1","84","1","0","0","",""
"null","285712","HierDy0wdpx152","sub08","08","8","iti","null","img/motor_1.png","65","motor","","","","","","",""
"324","286046","HierDy0wdpx152","sub08","08","8","motor","65","img/motor_1.png","65","motor","1","85","1","0","0","",""
"null","286158","HierDy0wdpx152","sub08","08","8","iti","null","img/motor_1.png","65","motor","","","","","","",""
"556","286723","HierDy0wdpx152","sub08","08","8","motor","83","img/motor_3.png","68","motor","3","86","0","1","0","",""
"291","287024","HierDy0wdpx152","sub08","08","8","motorRepeat","68","img/motor_3.png","68","motor","3","86","1","0","0","",""
"null","287135","HierDy0wdpx152","sub08","08","8","iti","null","img/motor_3.png","68","motor","","","","","","",""
"634","287779","HierDy0wdpx152","sub08","08","8","motor","75","img/motor_7.png","75","motor","7","87","1","0","0","",""
"null","287890","HierDy0wdpx152","sub08","08","8","iti","null","img/motor_7.png","75","motor","","","","","","",""
"666","288566","HierDy0wdpx152","sub08","08","8","motor","70","img/motor_4.png","70","motor","4","88","1","0","0","",""
"null","288677","HierDy0wdpx152","sub08","08","8","iti","null","img/motor_4.png","70","motor","","","","","","",""
"496","289182","HierDy0wdpx152","sub08","08","8","motor","72","img/motor_5.png","72","motor","5","89","1","0","0","",""
"null","289292","HierDy0wdpx152","sub08","08","8","iti","null","img/motor_5.png","72","motor","","","","","","",""
"499","289799","HierDy0wdpx152","sub08","08","8","motor","65","img/motor_1.png","65","motor","1","90","1","0","0","",""
"null","289910","HierDy0wdpx152","sub08","08","8","iti","null","img/motor_1.png","65","motor","","","","","","",""
"488","290409","HierDy0wdpx152","sub08","08","8","motor","76","img/motor_8.png","76","motor","8","91","1","0","0","",""
"null","290520","HierDy0wdpx152","sub08","08","8","iti","null","img/motor_8.png","76","motor","","","","","","",""
"636","291165","HierDy0wdpx152","sub08","08","8","motor","68","img/motor_3.png","68","motor","3","92","1","0","0","",""
"null","291276","HierDy0wdpx152","sub08","08","8","iti","null","img/motor_3.png","68","motor","","","","","","",""
"518","291802","HierDy0wdpx152","sub08","08","8","motor","75","img/motor_7.png","75","motor","7","93","1","0","0","",""
"null","291911","HierDy0wdpx152","sub08","08","8","iti","null","img/motor_7.png","75","motor","","","","","","",""
"446","292366","HierDy0wdpx152","sub08","08","8","motor","70","img/motor_4.png","70","motor","4","94","1","0","0","",""
"null","292475","HierDy0wdpx152","sub08","08","8","iti","null","img/motor_4.png","70","motor","","","","","","",""
"492","292975","HierDy0wdpx152","sub08","08","8","motor","83","img/motor_2.png","83","motor","2","95","1","0","0","",""
"null","293084","HierDy0wdpx152","sub08","08","8","iti","null","img/motor_2.png","83","motor","","","","","","",""
"529","293623","HierDy0wdpx152","sub08","08","8","motor","68","img/motor_3.png","68","motor","3","96","1","0","0","",""
"null","293734","HierDy0wdpx152","sub08","08","8","iti","null","img/motor_3.png","68","motor","","","","","","",""
"541","294284","HierDy0wdpx152","sub08","08","8","motor","75","img/motor_7.png","75","motor","7","97","1","0","0","",""
"null","294394","HierDy0wdpx152","sub08","08","8","iti","null","img/motor_7.png","75","motor","","","","","","",""
"438","294841","HierDy0wdpx152","sub08","08","8","motor","76","img/motor_8.png","76","motor","8","98","1","0","0","",""
"null","294951","HierDy0wdpx152","sub08","08","8","iti","null","img/motor_8.png","76","motor","","","","","","",""
"372","295332","HierDy0wdpx152","sub08","08","8","motor","76","img/motor_8.png","76","motor","8","99","1","0","0","",""
"null","295443","HierDy0wdpx152","sub08","08","8","iti","null","img/motor_8.png","76","motor","","","","","","",""
"501","295953","HierDy0wdpx152","sub08","08","8","motor","75","img/motor_7.png","75","motor","7","100","1","0","0","",""
"null","296064","HierDy0wdpx152","sub08","08","8","iti","null","img/motor_7.png","75","motor","","","","","","",""
"548","296622","HierDy0wdpx152","sub08","08","8","motor","70","img/motor_4.png","70","motor","4","101","1","0","0","",""
"null","296734","HierDy0wdpx152","sub08","08","8","iti","null","img/motor_4.png","70","motor","","","","","","",""
"612","297356","HierDy0wdpx152","sub08","08","8","motor","76","img/motor_8.png","76","motor","8","102","1","0","0","",""
"null","297466","HierDy0wdpx152","sub08","08","8","iti","null","img/motor_8.png","76","motor","","","","","","",""
"447","297922","HierDy0wdpx152","sub08","08","8","motor","72","img/motor_5.png","72","motor","5","103","1","0","0","",""
"null","298033","HierDy0wdpx152","sub08","08","8","iti","null","img/motor_5.png","72","motor","","","","","","",""
"520","298565","HierDy0wdpx152","sub08","08","8","motor","70","img/motor_4.png","70","motor","4","104","1","0","0","",""
"null","298675","HierDy0wdpx152","sub08","08","8","iti","null","img/motor_4.png","70","motor","","","","","","",""
"325","299011","HierDy0wdpx152","sub08","08","8","motor","70","img/motor_4.png","70","motor","4","105","1","0","0","",""
"null","299122","HierDy0wdpx152","sub08","08","8","iti","null","img/motor_4.png","70","motor","","","","","","",""
"527","299659","HierDy0wdpx152","sub08","08","8","motor","74","img/motor_6.png","74","motor","6","106","1","0","0","",""
"null","299771","HierDy0wdpx152","sub08","08","8","iti","null","img/motor_6.png","74","motor","","","","","","",""
"577","300357","HierDy0wdpx152","sub08","08","8","motor","65","img/motor_1.png","65","motor","1","107","1","0","0","",""
"null","300469","HierDy0wdpx152","sub08","08","8","iti","null","img/motor_1.png","65","motor","","","","","","",""
"460","300938","HierDy0wdpx152","sub08","08","8","motor","68","img/motor_3.png","68","motor","3","108","1","0","0","",""
"null","301050","HierDy0wdpx152","sub08","08","8","iti","null","img/motor_3.png","68","motor","","","","","","",""
"457","301518","HierDy0wdpx152","sub08","08","8","motor","65","img/motor_1.png","65","motor","1","109","1","0","0","",""
"null","301630","HierDy0wdpx152","sub08","08","8","iti","null","img/motor_1.png","65","motor","","","","","","",""
"449","302086","HierDy0wdpx152","sub08","08","8","motor","76","img/motor_8.png","76","motor","8","110","1","0","0","",""
"null","302197","HierDy0wdpx152","sub08","08","8","iti","null","img/motor_8.png","76","motor","","","","","","",""
"512","302720","HierDy0wdpx152","sub08","08","8","motor","75","img/motor_7.png","75","motor","7","111","1","0","0","",""
"null","302830","HierDy0wdpx152","sub08","08","8","iti","null","img/motor_7.png","75","motor","","","","","","",""
"623","303463","HierDy0wdpx152","sub08","08","8","motor","68","img/motor_3.png","68","motor","3","112","1","0","0","",""
"null","303573","HierDy0wdpx152","sub08","08","8","iti","null","img/motor_3.png","68","motor","","","","","","",""
"386","303968","HierDy0wdpx152","sub08","08","8","motor","70","img/motor_4.png","70","motor","4","113","1","0","0","",""
"null","304078","HierDy0wdpx152","sub08","08","8","iti","null","img/motor_4.png","70","motor","","","","","","",""
"549","304637","HierDy0wdpx152","sub08","08","8","motor","83","img/motor_2.png","83","motor","2","114","1","0","0","",""
"null","304747","HierDy0wdpx152","sub08","08","8","iti","null","img/motor_2.png","83","motor","","","","","","",""
"453","305210","HierDy0wdpx152","sub08","08","8","motor","75","img/motor_7.png","75","motor","7","115","1","0","0","",""
"null","305319","HierDy0wdpx152","sub08","08","8","iti","null","img/motor_7.png","75","motor","","","","","","",""
"331","305661","HierDy0wdpx152","sub08","08","8","motor","75","img/motor_7.png","75","motor","7","116","1","0","0","",""
"null","305771","HierDy0wdpx152","sub08","08","8","iti","null","img/motor_7.png","75","motor","","","","","","",""
"600","306381","HierDy0wdpx152","sub08","08","8","motor","83","img/motor_2.png","83","motor","2","117","1","0","0","",""
"null","306491","HierDy0wdpx152","sub08","08","8","iti","null","img/motor_2.png","83","motor","","","","","","",""
"427","306929","HierDy0wdpx152","sub08","08","8","motor","72","img/motor_5.png","72","motor","5","118","1","0","0","",""
"null","307039","HierDy0wdpx152","sub08","08","8","iti","null","img/motor_5.png","72","motor","","","","","","",""
"421","307469","HierDy0wdpx152","sub08","08","8","motor","83","img/motor_2.png","83","motor","2","119","1","0","0","",""
"null","307579","HierDy0wdpx152","sub08","08","8","iti","null","img/motor_2.png","83","motor","","","","","","",""
"447","308037","HierDy0wdpx152","sub08","08","8","motor","70","img/motor_4.png","70","motor","4","120","1","0","0","",""
"null","308147","HierDy0wdpx152","sub08","08","8","iti","null","img/motor_4.png","70","motor","","","","","","",""
"466","308624","HierDy0wdpx152","sub08","08","8","motor","75","img/motor_6.png","74","motor","6","121","0","1","0","",""
"333","308966","HierDy0wdpx152","sub08","08","8","motorRepeat","74","img/motor_6.png","74","motor","6","121","1","0","0","",""
"null","309074","HierDy0wdpx152","sub08","08","8","iti","null","img/motor_6.png","74","motor","","","","","","",""
"458","309543","HierDy0wdpx152","sub08","08","8","motor","83","img/motor_2.png","83","motor","2","122","1","0","0","",""
"null","309654","HierDy0wdpx152","sub08","08","8","iti","null","img/motor_2.png","83","motor","","","","","","",""
"516","310179","HierDy0wdpx152","sub08","08","8","motor","75","img/motor_7.png","75","motor","7","123","1","0","0","",""
"null","310290","HierDy0wdpx152","sub08","08","8","iti","null","img/motor_7.png","75","motor","","","","","","",""
"651","310952","HierDy0wdpx152","sub08","08","8","motor","70","img/motor_4.png","70","motor","4","124","1","0","0","",""
"null","311063","HierDy0wdpx152","sub08","08","8","iti","null","img/motor_4.png","70","motor","","","","","","",""
"437","311510","HierDy0wdpx152","sub08","08","8","motor","83","img/motor_2.png","83","motor","2","125","1","0","0","",""
"null","311622","HierDy0wdpx152","sub08","08","8","iti","null","img/motor_2.png","83","motor","","","","","","",""
"415","312045","HierDy0wdpx152","sub08","08","8","motor","72","img/motor_5.png","72","motor","5","126","1","0","0","",""
"null","312157","HierDy0wdpx152","sub08","08","8","iti","null","img/motor_5.png","72","motor","","","","","","",""
"472","312639","HierDy0wdpx152","sub08","08","8","motor","75","img/motor_7.png","75","motor","7","127","1","0","0","",""
"null","312750","HierDy0wdpx152","sub08","08","8","iti","null","img/motor_7.png","75","motor","","","","","","",""
"390","313149","HierDy0wdpx152","sub08","08","8","motor","76","img/motor_8.png","76","motor","8","128","1","0","0","",""
"null","313261","HierDy0wdpx152","sub08","08","8","iti","null","img/motor_8.png","76","motor","","","","","","",""
"603","313873","HierDy0wdpx152","sub08","08","8","motor","72","img/motor_6.png","74","motor","6","129","0","1","0","",""
"76","313958","HierDy0wdpx152","sub08","08","8","motorRepeat","74","img/motor_6.png","74","motor","6","129","1","0","0","",""
"null","314070","HierDy0wdpx152","sub08","08","8","iti","null","img/motor_6.png","74","motor","","","","","","",""
"477","314558","HierDy0wdpx152","sub08","08","8","motor","74","img/motor_6.png","74","motor","6","130","1","0","0","",""
"null","314670","HierDy0wdpx152","sub08","08","8","iti","null","img/motor_6.png","74","motor","","","","","","",""
"498","315178","HierDy0wdpx152","sub08","08","8","motor","75","img/motor_7.png","75","motor","7","131","1","0","0","",""
"null","315290","HierDy0wdpx152","sub08","08","8","iti","null","img/motor_7.png","75","motor","","","","","","",""
"591","315891","HierDy0wdpx152","sub08","08","8","motor","68","img/motor_2.png","83","motor","2","132","0","1","0","",""
"529","316429","HierDy0wdpx152","sub08","08","8","motorRepeat","83","img/motor_2.png","83","motor","2","132","1","0","0","",""
"null","316540","HierDy0wdpx152","sub08","08","8","iti","null","img/motor_2.png","83","motor","","","","","","",""
"475","317026","HierDy0wdpx152","sub08","08","8","motor","83","img/motor_2.png","83","motor","2","133","1","0","0","",""
"null","317135","HierDy0wdpx152","sub08","08","8","iti","null","img/motor_2.png","83","motor","","","","","","",""
"363","317509","HierDy0wdpx152","sub08","08","8","motor","70","img/motor_4.png","70","motor","4","134","1","0","0","",""
"null","317619","HierDy0wdpx152","sub08","08","8","iti","null","img/motor_4.png","70","motor","","","","","","",""
"611","318241","HierDy0wdpx152","sub08","08","8","motor","76","img/motor_8.png","76","motor","8","135","1","0","0","",""
"null","318352","HierDy0wdpx152","sub08","08","8","iti","null","img/motor_8.png","76","motor","","","","","","",""
"536","318901","HierDy0wdpx152","sub08","08","8","motor","83","img/motor_2.png","83","motor","2","136","1","0","0","",""
"null","319013","HierDy0wdpx152","sub08","08","8","iti","null","img/motor_2.png","83","motor","","","","","","",""
"491","319516","HierDy0wdpx152","sub08","08","8","motor","70","img/motor_4.png","70","motor","4","137","1","0","0","",""
"null","319629","HierDy0wdpx152","sub08","08","8","iti","null","img/motor_4.png","70","motor","","","","","","",""
"551","320191","HierDy0wdpx152","sub08","08","8","motor","75","img/motor_7.png","75","motor","7","138","1","0","0","",""
"null","320303","HierDy0wdpx152","sub08","08","8","iti","null","img/motor_7.png","75","motor","","","","","","",""
"453","320766","HierDy0wdpx152","sub08","08","8","motor","74","img/motor_6.png","74","motor","6","139","1","0","0","",""
"null","320877","HierDy0wdpx152","sub08","08","8","iti","null","img/motor_6.png","74","motor","","","","","","",""
"461","321348","HierDy0wdpx152","sub08","08","8","motor","83","img/motor_2.png","83","motor","2","140","1","0","0","",""
"null","321460","HierDy0wdpx152","sub08","08","8","iti","null","img/motor_2.png","83","motor","","","","","","",""
"385","321854","HierDy0wdpx152","sub08","08","8","motor","65","img/motor_1.png","65","motor","1","141","1","0","0","",""
"null","321967","HierDy0wdpx152","sub08","08","8","iti","null","img/motor_1.png","65","motor","","","","","","",""
"475","322452","HierDy0wdpx152","sub08","08","8","motor","83","img/motor_2.png","83","motor","2","142","1","0","0","",""
"null","322565","HierDy0wdpx152","sub08","08","8","iti","null","img/motor_2.png","83","motor","","","","","","",""
"484","323059","HierDy0wdpx152","sub08","08","8","motor","70","img/motor_4.png","70","motor","4","143","1","0","0","",""
"null","323171","HierDy0wdpx152","sub08","08","8","iti","null","img/motor_4.png","70","motor","","","","","","",""
"422","323602","HierDy0wdpx152","sub08","08","8","motor","65","img/motor_1.png","65","motor","1","144","1","0","0","",""
"null","323713","HierDy0wdpx152","sub08","08","8","iti","null","img/motor_1.png","65","motor","","","","","","",""
"482","324205","HierDy0wdpx152","sub08","08","8","motor","75","img/motor_6.png","74","motor","6","145","0","1","0","",""
"253","324470","HierDy0wdpx152","sub08","08","8","motorRepeat","74","img/motor_6.png","74","motor","6","145","1","0","0","",""
"null","324580","HierDy0wdpx152","sub08","08","8","iti","null","img/motor_6.png","74","motor","","","","","","",""
"361","324952","HierDy0wdpx152","sub08","08","8","motor","74","img/motor_6.png","74","motor","6","146","1","0","0","",""
"null","325062","HierDy0wdpx152","sub08","08","8","iti","null","img/motor_6.png","74","motor","","","","","","",""
"352","325423","HierDy0wdpx152","sub08","08","8","motor","65","img/motor_1.png","65","motor","1","147","1","0","0","",""
"null","325535","HierDy0wdpx152","sub08","08","8","iti","null","img/motor_1.png","65","motor","","","","","","",""
"386","325930","HierDy0wdpx152","sub08","08","8","motor","70","img/motor_4.png","70","motor","4","148","1","0","0","",""
"null","326041","HierDy0wdpx152","sub08","08","8","iti","null","img/motor_4.png","70","motor","","","","","","",""
"392","326443","HierDy0wdpx152","sub08","08","8","motor","76","img/motor_8.png","76","motor","8","149","1","0","0","",""
"null","326554","HierDy0wdpx152","sub08","08","8","iti","null","img/motor_8.png","76","motor","","","","","","",""
"402","326967","HierDy0wdpx152","sub08","08","8","motor","70","img/motor_4.png","70","motor","4","150","1","0","0","",""
"null","327079","HierDy0wdpx152","sub08","08","8","iti","null","img/motor_4.png","70","motor","","","","","","",""
"443","327532","HierDy0wdpx152","sub08","08","8","motor","68","img/motor_3.png","68","motor","3","151","1","0","0","",""
"null","327644","HierDy0wdpx152","sub08","08","8","iti","null","img/motor_3.png","68","motor","","","","","","",""
"585","328240","HierDy0wdpx152","sub08","08","8","motor","65","img/motor_1.png","65","motor","1","152","1","0","0","",""
"null","328352","HierDy0wdpx152","sub08","08","8","iti","null","img/motor_1.png","65","motor","","","","","","",""
"666","329028","HierDy0wdpx152","sub08","08","8","motor","74","img/motor_6.png","74","motor","6","153","1","0","0","",""
"null","329140","HierDy0wdpx152","sub08","08","8","iti","null","img/motor_6.png","74","motor","","","","","","",""
"565","329716","HierDy0wdpx152","sub08","08","8","motor","68","img/motor_3.png","68","motor","3","154","1","0","0","",""
"null","329825","HierDy0wdpx152","sub08","08","8","iti","null","img/motor_3.png","68","motor","","","","","","",""
"398","330235","HierDy0wdpx152","sub08","08","8","motor","65","img/motor_1.png","65","motor","1","155","1","0","0","",""
"null","330345","HierDy0wdpx152","sub08","08","8","iti","null","img/motor_1.png","65","motor","","","","","","",""
"535","330890","HierDy0wdpx152","sub08","08","8","motor","75","img/motor_6.png","74","motor","6","156","0","1","0","",""
"291","331190","HierDy0wdpx152","sub08","08","8","motorRepeat","74","img/motor_6.png","74","motor","6","156","1","0","0","",""
"null","331300","HierDy0wdpx152","sub08","08","8","iti","null","img/motor_6.png","74","motor","","","","","","",""
"549","331858","HierDy0wdpx152","sub08","08","8","motor","68","img/motor_3.png","68","motor","3","157","1","0","0","",""
"null","331966","HierDy0wdpx152","sub08","08","8","iti","null","img/motor_3.png","68","motor","","","","","","",""
"504","332482","HierDy0wdpx152","sub08","08","8","motor","76","img/motor_8.png","76","motor","8","158","1","0","0","",""
"null","332594","HierDy0wdpx152","sub08","08","8","iti","null","img/motor_8.png","76","motor","","","","","","",""
"479","333082","HierDy0wdpx152","sub08","08","8","motor","72","img/motor_5.png","72","motor","5","159","1","0","0","",""
"null","333194","HierDy0wdpx152","sub08","08","8","iti","null","img/motor_5.png","72","motor","","","","","","",""
"452","333656","HierDy0wdpx152","sub08","08","8","motor","68","img/motor_3.png","68","motor","3","160","1","0","0","",""
"null","333767","HierDy0wdpx152","sub08","08","8","iti","null","img/motor_3.png","68","motor","","","","","","",""
"531","334309","HierDy0wdpx152","sub08","08","8","motor","72","img/motor_5.png","72","motor","5","161","1","0","0","",""
"null","334421","HierDy0wdpx152","sub08","08","8","iti","null","img/motor_5.png","72","motor","","","","","","",""
"351","334783","HierDy0wdpx152","sub08","08","8","motor","72","img/motor_5.png","72","motor","5","162","1","0","0","",""
"null","334894","HierDy0wdpx152","sub08","08","8","iti","null","img/motor_5.png","72","motor","","","","","","",""
"433","335336","HierDy0wdpx152","sub08","08","8","motor","75","img/motor_6.png","74","motor","6","163","0","1","0","",""
"241","335587","HierDy0wdpx152","sub08","08","8","motorRepeat","74","img/motor_6.png","74","motor","6","163","1","0","0","",""
"null","335698","HierDy0wdpx152","sub08","08","8","iti","null","img/motor_6.png","74","motor","","","","","","",""
"392","336101","HierDy0wdpx152","sub08","08","8","motor","65","img/motor_1.png","65","motor","1","164","1","0","0","",""
"null","336213","HierDy0wdpx152","sub08","08","8","iti","null","img/motor_1.png","65","motor","","","","","","",""
"504","336730","HierDy0wdpx152","sub08","08","8","motor","83","img/motor_2.png","83","motor","2","165","1","0","0","",""
"null","336840","HierDy0wdpx152","sub08","08","8","iti","null","img/motor_2.png","83","motor","","","","","","",""
"643","337492","HierDy0wdpx152","sub08","08","8","motor","72","img/motor_5.png","72","motor","5","166","1","0","0","",""
"null","337604","HierDy0wdpx152","sub08","08","8","iti","null","img/motor_5.png","72","motor","","","","","","",""
"545","338159","HierDy0wdpx152","sub08","08","8","motor","65","img/motor_1.png","65","motor","1","167","1","0","0","",""
"null","338271","HierDy0wdpx152","sub08","08","8","iti","null","img/motor_1.png","65","motor","","","","","","",""
"318","338599","HierDy0wdpx152","sub08","08","8","motor","65","img/motor_1.png","65","motor","1","168","1","0","0","",""
"null","338711","HierDy0wdpx152","sub08","08","8","iti","null","img/motor_1.png","65","motor","","","","","","",""
"460","339181","HierDy0wdpx152","sub08","08","8","motor","70","img/motor_4.png","70","motor","4","169","1","0","0","",""
"null","339293","HierDy0wdpx152","sub08","08","8","iti","null","img/motor_4.png","70","motor","","","","","","",""
"498","339801","HierDy0wdpx152","sub08","08","8","motor","75","img/motor_7.png","75","motor","7","170","1","0","0","",""
"null","339911","HierDy0wdpx152","sub08","08","8","iti","null","img/motor_7.png","75","motor","","","","","","",""
"407","340326","HierDy0wdpx152","sub08","08","8","motor","74","img/motor_6.png","74","motor","6","171","1","0","0","",""
"null","340437","HierDy0wdpx152","sub08","08","8","iti","null","img/motor_6.png","74","motor","","","","","","",""
"507","340955","HierDy0wdpx152","sub08","08","8","motor","74","img/motor_5.png","72","motor","5","172","0","1","0","",""
"357","341320","HierDy0wdpx152","sub08","08","8","motorRepeat","72","img/motor_5.png","72","motor","5","172","1","0","0","",""
"null","341430","HierDy0wdpx152","sub08","08","8","iti","null","img/motor_5.png","72","motor","","","","","","",""
"639","342078","HierDy0wdpx152","sub08","08","8","motor","83","img/motor_2.png","83","motor","2","173","1","0","0","",""
"null","342190","HierDy0wdpx152","sub08","08","8","iti","null","img/motor_2.png","83","motor","","","","","","",""
"645","342845","HierDy0wdpx152","sub08","08","8","motor","74","img/motor_6.png","74","motor","6","174","1","0","0","",""
"null","342956","HierDy0wdpx152","sub08","08","8","iti","null","img/motor_6.png","74","motor","","","","","","",""
"460","343425","HierDy0wdpx152","sub08","08","8","motor","75","img/motor_7.png","75","motor","7","175","1","0","0","",""
"null","343536","HierDy0wdpx152","sub08","08","8","iti","null","img/motor_7.png","75","motor","","","","","","",""
"329","343875","HierDy0wdpx152","sub08","08","8","motor","76","img/motor_8.png","76","motor","8","176","1","0","0","",""
"null","343985","HierDy0wdpx152","sub08","08","8","iti","null","img/motor_8.png","76","motor","","","","","","",""
"465","344459","HierDy0wdpx152","sub08","08","8","motor","75","img/motor_7.png","75","motor","7","177","1","0","0","",""
"null","344570","HierDy0wdpx152","sub08","08","8","iti","null","img/motor_7.png","75","motor","","","","","","",""
"630","345211","HierDy0wdpx152","sub08","08","8","motor","70","img/motor_4.png","70","motor","4","178","1","0","0","",""
"null","345322","HierDy0wdpx152","sub08","08","8","iti","null","img/motor_4.png","70","motor","","","","","","",""
"506","345837","HierDy0wdpx152","sub08","08","8","motor","74","img/motor_5.png","72","motor","5","179","0","1","0","",""
"248","346093","HierDy0wdpx152","sub08","08","8","motorRepeat","72","img/motor_5.png","72","motor","5","179","1","0","0","",""
"null","346204","HierDy0wdpx152","sub08","08","8","iti","null","img/motor_5.png","72","motor","","","","","","",""
"483","346697","HierDy0wdpx152","sub08","08","8","motor","65","img/motor_1.png","65","motor","1","180","1","0","0","",""
"null","346808","HierDy0wdpx152","sub08","08","8","iti","null","img/motor_1.png","65","motor","","","","","","",""
"582","347400","HierDy0wdpx152","sub08","08","8","motor","75","img/motor_7.png","75","motor","7","181","1","0","0","",""
"null","347512","HierDy0wdpx152","sub08","08","8","iti","null","img/motor_7.png","75","motor","","","","","","",""
"343","347866","HierDy0wdpx152","sub08","08","8","motor","74","img/motor_6.png","74","motor","6","182","1","0","0","",""
"null","347977","HierDy0wdpx152","sub08","08","8","iti","null","img/motor_6.png","74","motor","","","","","","",""
"400","348389","HierDy0wdpx152","sub08","08","8","motor","75","img/motor_7.png","75","motor","7","183","1","0","0","",""
"null","348501","HierDy0wdpx152","sub08","08","8","iti","null","img/motor_7.png","75","motor","","","","","","",""
"530","349042","HierDy0wdpx152","sub08","08","8","motor","72","img/motor_5.png","72","motor","5","184","1","0","0","",""
"null","349153","HierDy0wdpx152","sub08","08","8","iti","null","img/motor_5.png","72","motor","","","","","","",""
"435","349598","HierDy0wdpx152","sub08","08","8","motor","76","img/motor_8.png","76","motor","8","185","1","0","0","",""
"null","349709","HierDy0wdpx152","sub08","08","8","iti","null","img/motor_8.png","76","motor","","","","","","",""
"425","350144","HierDy0wdpx152","sub08","08","8","motor","76","img/motor_8.png","76","motor","8","186","1","0","0","",""
"null","350257","HierDy0wdpx152","sub08","08","8","iti","null","img/motor_8.png","76","motor","","","","","","",""
"541","350806","HierDy0wdpx152","sub08","08","8","motor","83","img/motor_2.png","83","motor","2","187","1","0","0","",""
"null","350917","HierDy0wdpx152","sub08","08","8","iti","null","img/motor_2.png","83","motor","","","","","","",""
"609","351537","HierDy0wdpx152","sub08","08","8","motor","74","img/motor_7.png","75","motor","7","188","0","1","0","",""
"284","351830","HierDy0wdpx152","sub08","08","8","motorRepeat","75","img/motor_7.png","75","motor","7","188","1","0","0","",""
"null","351940","HierDy0wdpx152","sub08","08","8","iti","null","img/motor_7.png","75","motor","","","","","","",""
"479","352429","HierDy0wdpx152","sub08","08","8","motor","83","img/motor_2.png","83","motor","2","189","1","0","0","",""
"null","352541","HierDy0wdpx152","sub08","08","8","iti","null","img/motor_2.png","83","motor","","","","","","",""
"610","353161","HierDy0wdpx152","sub08","08","8","motor","70","img/motor_4.png","70","motor","4","190","1","0","0","",""
"null","353273","HierDy0wdpx152","sub08","08","8","iti","null","img/motor_4.png","70","motor","","","","","","",""
"495","353779","HierDy0wdpx152","sub08","08","8","motor","65","img/motor_1.png","65","motor","1","191","1","0","0","",""
"null","353889","HierDy0wdpx152","sub08","08","8","iti","null","img/motor_1.png","65","motor","","","","","","",""
"569","354468","HierDy0wdpx152","sub08","08","8","motor","74","img/motor_6.png","74","motor","6","192","1","0","0","",""
"null","354579","HierDy0wdpx152","sub08","08","8","iti","null","img/motor_6.png","74","motor","","","","","","",""
"414","355004","HierDy0wdpx152","sub08","08","8","motor","75","img/motor_8.png","76","motor","8","193","0","1","0","",""
"322","355334","HierDy0wdpx152","sub08","08","8","motorRepeat","76","img/motor_8.png","76","motor","8","193","1","0","0","",""
"null","355447","HierDy0wdpx152","sub08","08","8","iti","null","img/motor_8.png","76","motor","","","","","","",""
"706","356164","HierDy0wdpx152","sub08","08","8","motor","68","img/motor_3.png","68","motor","3","194","1","0","0","",""
"null","356274","HierDy0wdpx152","sub08","08","8","iti","null","img/motor_3.png","68","motor","","","","","","",""
"490","356776","HierDy0wdpx152","sub08","08","8","motor","74","img/motor_6.png","74","motor","6","195","1","0","0","",""
"null","356885","HierDy0wdpx152","sub08","08","8","iti","null","img/motor_6.png","74","motor","","","","","","",""
"441","357334","HierDy0wdpx152","sub08","08","8","motor","72","img/motor_5.png","72","motor","5","196","1","0","0","",""
"null","357447","HierDy0wdpx152","sub08","08","8","iti","null","img/motor_5.png","72","motor","","","","","","",""
"348","357804","HierDy0wdpx152","sub08","08","8","motor","74","img/motor_6.png","74","motor","6","197","1","0","0","",""
"null","357916","HierDy0wdpx152","sub08","08","8","iti","null","img/motor_6.png","74","motor","","","","","","",""
"432","358358","HierDy0wdpx152","sub08","08","8","motor","76","img/motor_8.png","76","motor","8","198","1","0","0","",""
"null","358469","HierDy0wdpx152","sub08","08","8","iti","null","img/motor_8.png","76","motor","","","","","","",""
"495","358974","HierDy0wdpx152","sub08","08","8","motor","65","img/motor_1.png","65","motor","1","199","1","0","0","",""
"null","359084","HierDy0wdpx152","sub08","08","8","iti","null","img/motor_1.png","65","motor","","","","","","",""
"512","359606","HierDy0wdpx152","sub08","08","8","motor","75","img/motor_7.png","75","motor","7","200","1","0","0","",""
"null","359716","HierDy0wdpx152","sub08","08","8","iti","null","img/motor_7.png","75","motor","","","","","","",""
"358","360082","HierDy0wdpx152","sub08","08","8","motor","76","img/motor_8.png","76","motor","8","201","1","0","0","",""
"null","360194","HierDy0wdpx152","sub08","08","8","iti","null","img/motor_8.png","76","motor","","","","","","",""
"366","360570","HierDy0wdpx152","sub08","08","8","motor","75","img/motor_7.png","75","motor","7","202","1","0","0","",""
"null","360684","HierDy0wdpx152","sub08","08","8","iti","null","img/motor_7.png","75","motor","","","","","","",""
"270","360962","HierDy0wdpx152","sub08","08","8","motor","75","img/motor_7.png","75","motor","7","203","1","0","0","",""
"null","361074","HierDy0wdpx152","sub08","08","8","iti","null","img/motor_7.png","75","motor","","","","","","",""
"496","361580","HierDy0wdpx152","sub08","08","8","motor","65","img/motor_1.png","65","motor","1","204","1","0","0","",""
"null","361692","HierDy0wdpx152","sub08","08","8","iti","null","img/motor_1.png","65","motor","","","","","","",""
"259","361961","HierDy0wdpx152","sub08","08","8","motor","65","img/motor_1.png","65","motor","1","205","1","0","0","",""
"null","362073","HierDy0wdpx152","sub08","08","8","iti","null","img/motor_1.png","65","motor","","","","","","",""
"646","362730","HierDy0wdpx152","sub08","08","8","motor","74","img/motor_6.png","74","motor","6","206","1","0","0","",""
"null","362840","HierDy0wdpx152","sub08","08","8","iti","null","img/motor_6.png","74","motor","","","","","","",""
"51","362900","HierDy0wdpx152","sub08","08","8","motor","74","img/motor_8.png","76","motor","8","207","0","1","0","",""
"386","363297","HierDy0wdpx152","sub08","08","8","motorRepeat","76","img/motor_8.png","76","motor","8","207","1","0","0","",""
"null","363410","HierDy0wdpx152","sub08","08","8","iti","null","img/motor_8.png","76","motor","","","","","","",""
"288","363708","HierDy0wdpx152","sub08","08","8","motor","74","img/motor_6.png","74","motor","6","208","1","0","0","",""
"null","363818","HierDy0wdpx152","sub08","08","8","iti","null","img/motor_6.png","74","motor","","","","","","",""
"341","364171","HierDy0wdpx152","sub08","08","8","motor","75","img/motor_7.png","75","motor","7","209","1","0","0","",""
"null","364281","HierDy0wdpx152","sub08","08","8","iti","null","img/motor_7.png","75","motor","","","","","","",""
"556","364848","HierDy0wdpx152","sub08","08","8","motor","65","img/motor_1.png","65","motor","1","210","1","0","0","",""
"null","364960","HierDy0wdpx152","sub08","08","8","iti","null","img/motor_1.png","65","motor","","","","","","",""
"521","365493","HierDy0wdpx152","sub08","08","8","motor","74","img/motor_6.png","74","motor","6","211","1","0","0","",""
"null","365604","HierDy0wdpx152","sub08","08","8","iti","null","img/motor_6.png","74","motor","","","","","","",""
"382","365997","HierDy0wdpx152","sub08","08","8","motor","65","img/motor_4.png","70","motor","4","212","0","1","0","",""
"282","366290","HierDy0wdpx152","sub08","08","8","motorRepeat","70","img/motor_4.png","70","motor","4","212","1","0","0","",""
"null","366399","HierDy0wdpx152","sub08","08","8","iti","null","img/motor_4.png","70","motor","","","","","","",""
"451","366860","HierDy0wdpx152","sub08","08","8","motor","72","img/motor_5.png","72","motor","5","213","1","0","0","",""
"null","366972","HierDy0wdpx152","sub08","08","8","iti","null","img/motor_5.png","72","motor","","","","","","",""
"405","367387","HierDy0wdpx152","sub08","08","8","motor","72","img/motor_5.png","72","motor","5","214","1","0","0","",""
"null","367498","HierDy0wdpx152","sub08","08","8","iti","null","img/motor_5.png","72","motor","","","","","","",""
"350","367856","HierDy0wdpx152","sub08","08","8","motor","70","img/motor_4.png","70","motor","4","215","1","0","0","",""
"null","367968","HierDy0wdpx152","sub08","08","8","iti","null","img/motor_4.png","70","motor","","","","","","",""
"204","368181","HierDy0wdpx152","sub08","08","8","motor","70","img/motor_4.png","70","motor","4","216","1","0","0","",""
"null","368294","HierDy0wdpx152","sub08","08","8","iti","null","img/motor_4.png","70","motor","","","","","","",""
"474","368778","HierDy0wdpx152","sub08","08","8","motor","75","img/motor_7.png","75","motor","7","217","1","0","0","",""
"null","368889","HierDy0wdpx152","sub08","08","8","iti","null","img/motor_7.png","75","motor","","","","","","",""
"251","369150","HierDy0wdpx152","sub08","08","8","motor","75","img/motor_4.png","70","motor","4","218","0","1","0","",""
"330","369491","HierDy0wdpx152","sub08","08","8","motorRepeat","70","img/motor_4.png","70","motor","4","218","1","0","0","",""
"null","369601","HierDy0wdpx152","sub08","08","8","iti","null","img/motor_4.png","70","motor","","","","","","",""
"401","370013","HierDy0wdpx152","sub08","08","8","motor","75","img/motor_7.png","75","motor","7","219","1","0","0","",""
"null","370124","HierDy0wdpx152","sub08","08","8","iti","null","img/motor_7.png","75","motor","","","","","","",""
"65","370198","HierDy0wdpx152","sub08","08","8","motor","70","img/motor_7.png","75","motor","7","220","0","1","0","",""
"380","370587","HierDy0wdpx152","sub08","08","8","motorRepeat","75","img/motor_7.png","75","motor","7","220","1","0","0","",""
"null","370699","HierDy0wdpx152","sub08","08","8","iti","null","img/motor_7.png","75","motor","","","","","","",""
"550","371260","HierDy0wdpx152","sub08","08","8","motor","83","img/motor_2.png","83","motor","2","221","1","0","0","",""
"null","371372","HierDy0wdpx152","sub08","08","8","iti","null","img/motor_2.png","83","motor","","","","","","",""
"628","372010","HierDy0wdpx152","sub08","08","8","motor","70","img/motor_4.png","70","motor","4","222","1","0","0","",""
"null","372123","HierDy0wdpx152","sub08","08","8","iti","null","img/motor_4.png","70","motor","","","","","","",""
"492","372625","HierDy0wdpx152","sub08","08","8","motor","68","img/motor_3.png","68","motor","3","223","1","0","0","",""
"null","372736","HierDy0wdpx152","sub08","08","8","iti","null","img/motor_3.png","68","motor","","","","","","",""
"775","373522","HierDy0wdpx152","sub08","08","8","motor","75","img/motor_7.png","75","motor","7","224","1","0","0","",""
"null","373632","HierDy0wdpx152","sub08","08","8","iti","null","img/motor_7.png","75","motor","","","","","","",""
"431","374073","HierDy0wdpx152","sub08","08","8","motor","76","img/motor_8.png","76","motor","8","225","1","0","0","",""
"null","374185","HierDy0wdpx152","sub08","08","8","iti","null","img/motor_8.png","76","motor","","","","","","",""
"304","374500","HierDy0wdpx152","sub08","08","8","motor","75","img/motor_7.png","75","motor","7","226","1","0","0","",""
"null","374612","HierDy0wdpx152","sub08","08","8","iti","null","img/motor_7.png","75","motor","","","","","","",""
"380","375002","HierDy0wdpx152","sub08","08","8","motor","75","img/motor_7.png","75","motor","7","227","1","0","0","",""
"null","375114","HierDy0wdpx152","sub08","08","8","iti","null","img/motor_7.png","75","motor","","","","","","",""
"389","375515","HierDy0wdpx152","sub08","08","8","motor","74","img/motor_6.png","74","motor","6","228","1","0","0","",""
"null","375626","HierDy0wdpx152","sub08","08","8","iti","null","img/motor_6.png","74","motor","","","","","","",""
"329","375965","HierDy0wdpx152","sub08","08","8","motor","74","img/motor_6.png","74","motor","6","229","1","0","0","",""
"null","376076","HierDy0wdpx152","sub08","08","8","iti","null","img/motor_6.png","74","motor","","","","","","",""
"537","376624","HierDy0wdpx152","sub08","08","8","motor","65","img/motor_1.png","65","motor","1","230","1","0","0","",""
"null","376735","HierDy0wdpx152","sub08","08","8","iti","null","img/motor_1.png","65","motor","","","","","","",""
"359","377104","HierDy0wdpx152","sub08","08","8","motor","74","img/motor_6.png","74","motor","6","231","1","0","0","",""
"null","377217","HierDy0wdpx152","sub08","08","8","iti","null","img/motor_6.png","74","motor","","","","","","",""
"676","377904","HierDy0wdpx152","sub08","08","8","motor","68","img/motor_3.png","68","motor","3","232","1","0","0","",""
"null","378016","HierDy0wdpx152","sub08","08","8","iti","null","img/motor_3.png","68","motor","","","","","","",""
"416","378441","HierDy0wdpx152","sub08","08","8","motor","72","img/motor_5.png","72","motor","5","233","1","0","0","",""
"null","378552","HierDy0wdpx152","sub08","08","8","iti","null","img/motor_5.png","72","motor","","","","","","",""
"350","378914","HierDy0wdpx152","sub08","08","8","motor","68","img/motor_4.png","70","motor","4","234","0","1","0","",""
"278","379205","HierDy0wdpx152","sub08","08","8","motorRepeat","70","img/motor_4.png","70","motor","4","234","1","0","0","",""
"null","379318","HierDy0wdpx152","sub08","08","8","iti","null","img/motor_4.png","70","motor","","","","","","",""
"518","379846","HierDy0wdpx152","sub08","08","8","motor","76","img/motor_8.png","76","motor","8","235","1","0","0","",""
"null","379958","HierDy0wdpx152","sub08","08","8","iti","null","img/motor_8.png","76","motor","","","","","","",""
"371","380340","HierDy0wdpx152","sub08","08","8","motor","70","img/motor_3.png","68","motor","3","236","0","1","0","",""
"312","380665","HierDy0wdpx152","sub08","08","8","motorRepeat","83","img/motor_3.png","68","motor","3","236","0","1","0","",""
"220","380895","HierDy0wdpx152","sub08","08","8","motorRepeat","68","img/motor_3.png","68","motor","3","236","1","0","0","",""
"null","381007","HierDy0wdpx152","sub08","08","8","iti","null","img/motor_3.png","68","motor","","","","","","",""
"580","381598","HierDy0wdpx152","sub08","08","8","motor","72","img/motor_5.png","72","motor","5","237","1","0","0","",""
"null","381708","HierDy0wdpx152","sub08","08","8","iti","null","img/motor_5.png","72","motor","","","","","","",""
"447","382165","HierDy0wdpx152","sub08","08","8","motor","74","img/motor_6.png","74","motor","6","238","1","0","0","",""
"null","382276","HierDy0wdpx152","sub08","08","8","iti","null","img/motor_6.png","74","motor","","","","","","",""
"606","382894","HierDy0wdpx152","sub08","08","8","motor","68","img/motor_3.png","68","motor","3","239","1","0","0","",""
"null","383004","HierDy0wdpx152","sub08","08","8","iti","null","img/motor_3.png","68","motor","","","","","","",""
"551","383570","HierDy0wdpx152","sub08","08","8","motor","74","img/motor_6.png","74","motor","6","240","1","0","0","",""
"null","383683","HierDy0wdpx152","sub08","08","8","iti","null","img/motor_6.png","74","motor","","","","","","",""
"670","384365","HierDy0wdpx152","sub08","08","8","motor","83","img/motor_2.png","83","motor","2","241","1","0","0","",""
"null","384477","HierDy0wdpx152","sub08","08","8","iti","null","img/motor_2.png","83","motor","","","","","","",""
"633","385121","HierDy0wdpx152","sub08","08","8","motor","70","img/motor_4.png","70","motor","4","242","1","0","0","",""
"null","385231","HierDy0wdpx152","sub08","08","8","iti","null","img/motor_4.png","70","motor","","","","","","",""
"331","385572","HierDy0wdpx152","sub08","08","8","motor","70","img/motor_4.png","70","motor","4","243","1","0","0","",""
"null","385684","HierDy0wdpx152","sub08","08","8","iti","null","img/motor_4.png","70","motor","","","","","","",""
"516","386210","HierDy0wdpx152","sub08","08","8","motor","68","img/motor_3.png","68","motor","3","244","1","0","0","",""
"null","386322","HierDy0wdpx152","sub08","08","8","iti","null","img/motor_3.png","68","motor","","","","","","",""
"421","386755","HierDy0wdpx152","sub08","08","8","motor","70","img/motor_4.png","70","motor","4","245","1","0","0","",""
"null","386867","HierDy0wdpx152","sub08","08","8","iti","null","img/motor_4.png","70","motor","","","","","","",""
"518","387395","HierDy0wdpx152","sub08","08","8","motor","74","img/motor_6.png","74","motor","6","246","1","0","0","",""
"null","387507","HierDy0wdpx152","sub08","08","8","iti","null","img/motor_6.png","74","motor","","","","","","",""
"534","388051","HierDy0wdpx152","sub08","08","8","motor","65","img/motor_1.png","65","motor","1","247","1","0","0","",""
"null","388164","HierDy0wdpx152","sub08","08","8","iti","null","img/motor_1.png","65","motor","","","","","","",""
"465","388639","HierDy0wdpx152","sub08","08","8","motor","76","img/motor_8.png","76","motor","8","248","1","0","0","",""
"null","388751","HierDy0wdpx152","sub08","08","8","iti","null","img/motor_8.png","76","motor","","","","","","",""
"441","389201","HierDy0wdpx152","sub08","08","8","motor","68","img/motor_3.png","68","motor","3","249","1","0","0","",""
"null","389314","HierDy0wdpx152","sub08","08","8","iti","null","img/motor_3.png","68","motor","","","","","","",""
"560","389885","HierDy0wdpx152","sub08","08","8","motor","75","img/motor_7.png","75","motor","7","250","1","0","0","",""
"null","389997","HierDy0wdpx152","sub08","08","8","iti","null","img/motor_7.png","75","motor","","","","","","",""
"844","390853","HierDy0wdpx152","sub08","08","8","motor","68","img/motor_3.png","68","motor","3","251","1","0","0","",""
"null","390965","HierDy0wdpx152","sub08","08","8","iti","null","img/motor_3.png","68","motor","","","","","","",""
"483","391457","HierDy0wdpx152","sub08","08","8","motor","83","img/motor_2.png","83","motor","2","252","1","0","0","",""
"null","391568","HierDy0wdpx152","sub08","08","8","iti","null","img/motor_2.png","83","motor","","","","","","",""
"640","392219","HierDy0wdpx152","sub08","08","8","motor","75","img/motor_7.png","75","motor","7","253","1","0","0","",""
"null","392329","HierDy0wdpx152","sub08","08","8","iti","null","img/motor_7.png","75","motor","","","","","","",""
"467","392807","HierDy0wdpx152","sub08","08","8","motor","83","img/motor_2.png","83","motor","2","254","1","0","0","",""
"null","392917","HierDy0wdpx152","sub08","08","8","iti","null","img/motor_2.png","83","motor","","","","","","",""
"490","393419","HierDy0wdpx152","sub08","08","8","motor","74","img/motor_7.png","75","motor","7","255","0","1","0","",""
"310","393740","HierDy0wdpx152","sub08","08","8","motorRepeat","75","img/motor_7.png","75","motor","7","255","1","0","0","",""
"null","393852","HierDy0wdpx152","sub08","08","8","iti","null","img/motor_7.png","75","motor","","","","","","",""
"555","394418","HierDy0wdpx152","sub08","08","8","motor","76","img/motor_8.png","76","motor","8","256","1","0","0","",""
"null","394527","HierDy0wdpx152","sub08","08","8","iti","null","img/motor_8.png","76","motor","","","","","","",""
"518","395055","HierDy0wdpx152","sub08","08","8","motor","65","img/motor_1.png","65","motor","1","257","1","0","0","",""
"null","395167","HierDy0wdpx152","sub08","08","8","iti","null","img/motor_1.png","65","motor","","","","","","",""
"465","395643","HierDy0wdpx152","sub08","08","8","motor","76","img/motor_8.png","76","motor","8","258","1","0","0","",""
"null","395755","HierDy0wdpx152","sub08","08","8","iti","null","img/motor_8.png","76","motor","","","","","","",""
"558","396322","HierDy0wdpx152","sub08","08","8","motor","70","img/motor_4.png","70","motor","4","259","1","0","0","",""
"null","396433","HierDy0wdpx152","sub08","08","8","iti","null","img/motor_4.png","70","motor","","","","","","",""
"810","397253","HierDy0wdpx152","sub08","08","8","motor","68","img/motor_2.png","83","motor","2","260","0","1","0","",""
"354","397616","HierDy0wdpx152","sub08","08","8","motorRepeat","83","img/motor_2.png","83","motor","2","260","1","0","0","",""
"null","397726","HierDy0wdpx152","sub08","08","8","iti","null","img/motor_2.png","83","motor","","","","","","",""
"631","398367","HierDy0wdpx152","sub08","08","8","motor","74","img/motor_6.png","74","motor","6","261","1","0","0","",""
"null","398479","HierDy0wdpx152","sub08","08","8","iti","null","img/motor_6.png","74","motor","","","","","","",""
"410","398900","HierDy0wdpx152","sub08","08","8","motor","65","img/motor_1.png","65","motor","1","262","1","0","0","",""
"null","399012","HierDy0wdpx152","sub08","08","8","iti","null","img/motor_1.png","65","motor","","","","","","",""
"489","399511","HierDy0wdpx152","sub08","08","8","motor","75","img/motor_7.png","75","motor","7","263","1","0","0","",""
"null","399622","HierDy0wdpx152","sub08","08","8","iti","null","img/motor_7.png","75","motor","","","","","","",""
"413","400044","HierDy0wdpx152","sub08","08","8","motor","76","img/motor_8.png","76","motor","8","264","1","0","0","",""
"null","400156","HierDy0wdpx152","sub08","08","8","iti","null","img/motor_8.png","76","motor","","","","","","",""
"350","400517","HierDy0wdpx152","sub08","08","8","motor","76","img/motor_8.png","76","motor","8","265","1","0","0","",""
"null","400630","HierDy0wdpx152","sub08","08","8","iti","null","img/motor_8.png","76","motor","","","","","","",""
"538","401178","HierDy0wdpx152","sub08","08","8","motor","70","img/motor_4.png","70","motor","4","266","1","0","0","",""
"null","401289","HierDy0wdpx152","sub08","08","8","iti","null","img/motor_4.png","70","motor","","","","","","",""
"556","401857","HierDy0wdpx152","sub08","08","8","motor","75","img/motor_7.png","75","motor","7","267","1","0","0","",""
"null","401967","HierDy0wdpx152","sub08","08","8","iti","null","img/motor_7.png","75","motor","","","","","","",""
"516","402494","HierDy0wdpx152","sub08","08","8","motor","65","img/motor_1.png","65","motor","1","268","1","0","0","",""
"null","402607","HierDy0wdpx152","sub08","08","8","iti","null","img/motor_1.png","65","motor","","","","","","",""
"484","403102","HierDy0wdpx152","sub08","08","8","motor","72","img/motor_5.png","72","motor","5","269","1","0","0","",""
"null","403213","HierDy0wdpx152","sub08","08","8","iti","null","img/motor_5.png","72","motor","","","","","","",""
"506","403730","HierDy0wdpx152","sub08","08","8","motor","75","img/motor_7.png","75","motor","7","270","1","0","0","",""
"null","403840","HierDy0wdpx152","sub08","08","8","iti","null","img/motor_7.png","75","motor","","","","","","",""
"456","404307","HierDy0wdpx152","sub08","08","8","motor","72","img/motor_5.png","72","motor","5","271","1","0","0","",""
"null","404420","HierDy0wdpx152","sub08","08","8","iti","null","img/motor_5.png","72","motor","","","","","","",""
"583","405014","HierDy0wdpx152","sub08","08","8","motor","68","img/motor_3.png","68","motor","3","272","1","0","0","",""
"null","405125","HierDy0wdpx152","sub08","08","8","iti","null","img/motor_3.png","68","motor","","","","","","",""
"293","405429","HierDy0wdpx152","sub08","08","8","motor","68","img/motor_3.png","68","motor","3","273","1","0","0","",""
"null","405541","HierDy0wdpx152","sub08","08","8","iti","null","img/motor_3.png","68","motor","","","","","","",""
"375","405927","HierDy0wdpx152","sub08","08","8","motor","76","img/motor_8.png","76","motor","8","274","1","0","0","",""
"null","406039","HierDy0wdpx152","sub08","08","8","iti","null","img/motor_8.png","76","motor","","","","","","",""
"567","406616","HierDy0wdpx152","sub08","08","8","motor","74","img/motor_6.png","74","motor","6","275","1","0","0","",""
"null","406727","HierDy0wdpx152","sub08","08","8","iti","null","img/motor_6.png","74","motor","","","","","","",""
"385","407121","HierDy0wdpx152","sub08","08","8","motor","76","img/motor_7.png","75","motor","7","276","0","1","0","",""
"321","407454","HierDy0wdpx152","sub08","08","8","motorRepeat","75","img/motor_7.png","75","motor","7","276","1","0","0","",""
"null","407567","HierDy0wdpx152","sub08","08","8","iti","null","img/motor_7.png","75","motor","","","","","","",""
"419","407996","HierDy0wdpx152","sub08","08","8","motor","65","img/motor_1.png","65","motor","1","277","1","0","0","",""
"null","408108","HierDy0wdpx152","sub08","08","8","iti","null","img/motor_1.png","65","motor","","","","","","",""
"419","408538","HierDy0wdpx152","sub08","08","8","motor","70","img/motor_4.png","70","motor","4","278","1","0","0","",""
"null","408649","HierDy0wdpx152","sub08","08","8","iti","null","img/motor_4.png","70","motor","","","","","","",""
"430","409088","HierDy0wdpx152","sub08","08","8","motor","68","img/motor_3.png","68","motor","3","279","1","0","0","",""
"null","409201","HierDy0wdpx152","sub08","08","8","iti","null","img/motor_3.png","68","motor","","","","","","",""
"525","409738","HierDy0wdpx152","sub08","08","8","motor","70","img/motor_4.png","70","motor","4","280","1","0","0","",""
"null","409850","HierDy0wdpx152","sub08","08","8","iti","null","img/motor_4.png","70","motor","","","","","","",""
"472","410335","HierDy0wdpx152","sub08","08","8","motor","65","img/motor_1.png","65","motor","1","281","1","0","0","",""
"null","410446","HierDy0wdpx152","sub08","08","8","iti","null","img/motor_1.png","65","motor","","","","","","",""
"481","410937","HierDy0wdpx152","sub08","08","8","motor","68","img/motor_3.png","68","motor","3","282","1","0","0","",""
"null","411049","HierDy0wdpx152","sub08","08","8","iti","null","img/motor_3.png","68","motor","","","","","","",""
"553","411614","HierDy0wdpx152","sub08","08","8","motor","74","img/motor_6.png","74","motor","6","283","1","0","0","",""
"null","411728","HierDy0wdpx152","sub08","08","8","iti","null","img/motor_6.png","74","motor","","","","","","",""
"663","412403","HierDy0wdpx152","sub08","08","8","motor","75","img/motor_7.png","75","motor","7","284","1","0","0","",""
"null","412515","HierDy0wdpx152","sub08","08","8","iti","null","img/motor_7.png","75","motor","","","","","","",""
"604","413132","HierDy0wdpx152","sub08","08","8","motor","70","img/motor_4.png","70","motor","4","285","1","0","0","",""
"null","413244","HierDy0wdpx152","sub08","08","8","iti","null","img/motor_4.png","70","motor","","","","","","",""
"567","413823","HierDy0wdpx152","sub08","08","8","motor","75","img/motor_7.png","75","motor","7","286","1","0","0","",""
"null","413934","HierDy0wdpx152","sub08","08","8","iti","null","img/motor_7.png","75","motor","","","","","","",""
"450","414394","HierDy0wdpx152","sub08","08","8","motor","65","img/motor_1.png","65","motor","1","287","1","0","0","",""
"null","414508","HierDy0wdpx152","sub08","08","8","iti","null","img/motor_1.png","65","motor","","","","","","",""
"484","415001","HierDy0wdpx152","sub08","08","8","motor","83","img/motor_2.png","83","motor","2","288","1","0","0","",""
"null","415114","HierDy0wdpx152","sub08","08","8","iti","null","img/motor_2.png","83","motor","","","","","","",""
"315","415439","HierDy0wdpx152","sub08","08","8","motor","83","img/motor_2.png","83","motor","2","289","1","0","0","",""
"null","415549","HierDy0wdpx152","sub08","08","8","iti","null","img/motor_2.png","83","motor","","","","","","",""
"532","416091","HierDy0wdpx152","sub08","08","8","motor","72","img/motor_5.png","72","motor","5","290","1","0","0","",""
"null","416204","HierDy0wdpx152","sub08","08","8","iti","null","img/motor_5.png","72","motor","","","","","","",""
"455","416668","HierDy0wdpx152","sub08","08","8","motor","83","img/motor_2.png","83","motor","2","291","1","0","0","",""
"null","416779","HierDy0wdpx152","sub08","08","8","iti","null","img/motor_2.png","83","motor","","","","","","",""
"315","417105","HierDy0wdpx152","sub08","08","8","motor","83","img/motor_1.png","65","motor","1","292","0","1","0","",""
"315","417432","HierDy0wdpx152","sub08","08","8","motorRepeat","65","img/motor_1.png","65","motor","1","292","1","0","0","",""
"null","417544","HierDy0wdpx152","sub08","08","8","iti","null","img/motor_1.png","65","motor","","","","","","",""
"484","418040","HierDy0wdpx152","sub08","08","8","motor","68","img/motor_3.png","68","motor","3","293","1","0","0","",""
"null","418152","HierDy0wdpx152","sub08","08","8","iti","null","img/motor_3.png","68","motor","","","","","","",""
"504","418667","HierDy0wdpx152","sub08","08","8","motor","76","img/motor_8.png","76","motor","8","294","1","0","0","",""
"null","418778","HierDy0wdpx152","sub08","08","8","iti","null","img/motor_8.png","76","motor","","","","","","",""
"427","419216","HierDy0wdpx152","sub08","08","8","motor","65","img/motor_1.png","65","motor","1","295","1","0","0","",""
"null","419327","HierDy0wdpx152","sub08","08","8","iti","null","img/motor_1.png","65","motor","","","","","","",""
"588","419925","HierDy0wdpx152","sub08","08","8","motor","83","img/motor_2.png","83","motor","2","296","1","0","0","",""
"null","420037","HierDy0wdpx152","sub08","08","8","iti","null","img/motor_2.png","83","motor","","","","","","",""
"527","420574","HierDy0wdpx152","sub08","08","8","motor","65","img/motor_1.png","65","motor","1","297","1","0","0","",""
"null","420687","HierDy0wdpx152","sub08","08","8","iti","null","img/motor_1.png","65","motor","","","","","","",""
"533","421230","HierDy0wdpx152","sub08","08","8","motor","72","img/motor_5.png","72","motor","5","298","1","0","0","",""
"null","421339","HierDy0wdpx152","sub08","08","8","iti","null","img/motor_5.png","72","motor","","","","","","",""
"454","421803","HierDy0wdpx152","sub08","08","8","motor","65","img/motor_1.png","65","motor","1","299","1","0","0","",""
"null","421915","HierDy0wdpx152","sub08","08","8","iti","null","img/motor_1.png","65","motor","","","","","","",""
"531","422454","HierDy0wdpx152","sub08","08","8","motor","76","img/motor_8.png","76","motor","8","300","1","0","0","",""
"null","422565","HierDy0wdpx152","sub08","08","8","iti","null","img/motor_8.png","76","motor","","","","","","",""
"452","423028","HierDy0wdpx152","sub08","08","8","motor","65","img/motor_1.png","65","motor","1","301","1","0","0","",""
"null","423141","HierDy0wdpx152","sub08","08","8","iti","null","img/motor_1.png","65","motor","","","","","","",""
"514","423665","HierDy0wdpx152","sub08","08","8","motor","83","img/motor_2.png","83","motor","2","302","1","0","0","",""
"null","423777","HierDy0wdpx152","sub08","08","8","iti","null","img/motor_2.png","83","motor","","","","","","",""
"410","424196","HierDy0wdpx152","sub08","08","8","motor","70","img/motor_4.png","70","motor","4","303","1","0","0","",""
"null","424309","HierDy0wdpx152","sub08","08","8","iti","null","img/motor_4.png","70","motor","","","","","","",""
"345","424666","HierDy0wdpx152","sub08","08","8","motor","83","img/motor_3.png","68","motor","3","304","0","1","0","",""
"275","424951","HierDy0wdpx152","sub08","08","8","motorRepeat","68","img/motor_3.png","68","motor","3","304","1","0","0","",""
"null","425063","HierDy0wdpx152","sub08","08","8","iti","null","img/motor_3.png","68","motor","","","","","","",""
"361","425434","HierDy0wdpx152","sub08","08","8","motor","68","img/motor_3.png","68","motor","3","305","1","0","0","",""
"null","425547","HierDy0wdpx152","sub08","08","8","iti","null","img/motor_3.png","68","motor","","","","","","",""
"306","425862","HierDy0wdpx152","sub08","08","8","motor","83","img/motor_2.png","83","motor","2","306","1","0","0","",""
"null","425974","HierDy0wdpx152","sub08","08","8","iti","null","img/motor_2.png","83","motor","","","","","","",""
"513","426497","HierDy0wdpx152","sub08","08","8","motor","75","img/motor_7.png","75","motor","7","307","1","0","0","",""
"null","426608","HierDy0wdpx152","sub08","08","8","iti","null","img/motor_7.png","75","motor","","","","","","",""
"398","427015","HierDy0wdpx152","sub08","08","8","motor","76","img/motor_8.png","76","motor","8","308","1","0","0","",""
"null","427128","HierDy0wdpx152","sub08","08","8","iti","null","img/motor_8.png","76","motor","","","","","","",""
"477","427616","HierDy0wdpx152","sub08","08","8","motor","68","img/motor_4.png","70","motor","4","309","0","1","0","",""
"251","427876","HierDy0wdpx152","sub08","08","8","motorRepeat","70","img/motor_4.png","70","motor","4","309","1","0","0","",""
"null","427989","HierDy0wdpx152","sub08","08","8","iti","null","img/motor_4.png","70","motor","","","","","","",""
"435","428435","HierDy0wdpx152","sub08","08","8","motor","68","img/motor_3.png","68","motor","3","310","1","0","0","",""
"null","428548","HierDy0wdpx152","sub08","08","8","iti","null","img/motor_3.png","68","motor","","","","","","",""
"559","429117","HierDy0wdpx152","sub08","08","8","motor","74","img/motor_6.png","74","motor","6","311","1","0","0","",""
"null","429229","HierDy0wdpx152","sub08","08","8","iti","null","img/motor_6.png","74","motor","","","","","","",""
"331","429569","HierDy0wdpx152","sub08","08","8","motor","75","img/motor_8.png","76","motor","8","312","0","1","0","",""
"290","429871","HierDy0wdpx152","sub08","08","8","motorRepeat","76","img/motor_8.png","76","motor","8","312","1","0","0","",""
"null","429983","HierDy0wdpx152","sub08","08","8","iti","null","img/motor_8.png","76","motor","","","","","","",""
"641","430634","HierDy0wdpx152","sub08","08","8","motor","83","img/motor_2.png","83","motor","2","313","1","0","0","",""
"null","430747","HierDy0wdpx152","sub08","08","8","iti","null","img/motor_2.png","83","motor","","","","","","",""
"431","431190","HierDy0wdpx152","sub08","08","8","motor","65","img/motor_1.png","65","motor","1","314","1","0","0","",""
"null","431302","HierDy0wdpx152","sub08","08","8","iti","null","img/motor_1.png","65","motor","","","","","","",""
"429","431742","HierDy0wdpx152","sub08","08","8","motor","68","img/motor_3.png","68","motor","3","315","1","0","0","",""
"null","431855","HierDy0wdpx152","sub08","08","8","iti","null","img/motor_3.png","68","motor","","","","","","",""
"525","432391","HierDy0wdpx152","sub08","08","8","motor","76","img/motor_8.png","76","motor","8","316","1","0","0","",""
"null","432503","HierDy0wdpx152","sub08","08","8","iti","null","img/motor_8.png","76","motor","","","","","","",""
"553","433068","HierDy0wdpx152","sub08","08","8","motor","70","img/motor_4.png","70","motor","4","317","1","0","0","",""
"null","433181","HierDy0wdpx152","sub08","08","8","iti","null","img/motor_4.png","70","motor","","","","","","",""
"609","433802","HierDy0wdpx152","sub08","08","8","motor","74","img/motor_6.png","74","motor","6","318","1","0","0","",""
"null","433915","HierDy0wdpx152","sub08","08","8","iti","null","img/motor_6.png","74","motor","","","","","","",""
"551","434479","HierDy0wdpx152","sub08","08","8","motor","76","img/motor_8.png","76","motor","8","319","1","0","0","",""
"null","434590","HierDy0wdpx152","sub08","08","8","iti","null","img/motor_8.png","76","motor","","","","","","",""
"409","435011","HierDy0wdpx152","sub08","08","8","motor","74","img/motor_7.png","75","motor","7","320","0","1","0","",""
"68","435089","HierDy0wdpx152","sub08","08","8","motorRepeat","75","img/motor_7.png","75","motor","7","320","1","0","0","",""
"null","435201","HierDy0wdpx152","sub08","08","8","iti","null","img/motor_7.png","75","motor","","","","","","",""
"601","435814","HierDy0wdpx152","sub08","08","8","motor","72","img/motor_5.png","72","motor","5","321","1","0","0","",""
"null","435924","HierDy0wdpx152","sub08","08","8","iti","null","img/motor_5.png","72","motor","","","","","","",""
"395","436330","HierDy0wdpx152","sub08","08","8","motor","75","img/motor_7.png","75","motor","7","322","1","0","0","",""
"null","436442","HierDy0wdpx152","sub08","08","8","iti","null","img/motor_7.png","75","motor","","","","","","",""
"404","436858","HierDy0wdpx152","sub08","08","8","motor","65","img/motor_1.png","65","motor","1","323","1","0","0","",""
"null","436971","HierDy0wdpx152","sub08","08","8","iti","null","img/motor_1.png","65","motor","","","","","","",""
"443","437425","HierDy0wdpx152","sub08","08","8","motor","68","img/motor_4.png","70","motor","4","324","0","1","0","",""
"267","437702","HierDy0wdpx152","sub08","08","8","motorRepeat","70","img/motor_4.png","70","motor","4","324","1","0","0","",""
"null","437814","HierDy0wdpx152","sub08","08","8","iti","null","img/motor_4.png","70","motor","","","","","","",""
"498","438324","HierDy0wdpx152","sub08","08","8","motor","65","img/motor_1.png","65","motor","1","325","1","0","0","",""
"null","438437","HierDy0wdpx152","sub08","08","8","iti","null","img/motor_1.png","65","motor","","","","","","",""
"293","438740","HierDy0wdpx152","sub08","08","8","motor","70","img/motor_4.png","70","motor","4","326","1","0","0","",""
"null","438850","HierDy0wdpx152","sub08","08","8","iti","null","img/motor_4.png","70","motor","","","","","","",""
"351","439211","HierDy0wdpx152","sub08","08","8","motor","76","img/motor_8.png","76","motor","8","327","1","0","0","",""
"null","439322","HierDy0wdpx152","sub08","08","8","iti","null","img/motor_8.png","76","motor","","","","","","",""
"482","439815","HierDy0wdpx152","sub08","08","8","motor","65","img/motor_1.png","65","motor","1","328","1","0","0","",""
"null","439926","HierDy0wdpx152","sub08","08","8","iti","null","img/motor_1.png","65","motor","","","","","","",""
"460","440398","HierDy0wdpx152","sub08","08","8","motor","83","img/motor_2.png","83","motor","2","329","1","0","0","",""
"null","440510","HierDy0wdpx152","sub08","08","8","iti","null","img/motor_2.png","83","motor","","","","","","",""
"514","441035","HierDy0wdpx152","sub08","08","8","motor","76","img/motor_8.png","76","motor","8","330","1","0","0","",""
"null","441148","HierDy0wdpx152","sub08","08","8","iti","null","img/motor_8.png","76","motor","","","","","","",""
"318","441477","HierDy0wdpx152","sub08","08","8","motor","76","img/motor_8.png","76","motor","8","331","1","0","0","",""
"null","441589","HierDy0wdpx152","sub08","08","8","iti","null","img/motor_8.png","76","motor","","","","","","",""
"478","442077","HierDy0wdpx152","sub08","08","8","motor","75","img/motor_6.png","74","motor","6","332","0","1","0","",""
"141","442229","HierDy0wdpx152","sub08","08","8","motorRepeat","74","img/motor_6.png","74","motor","6","332","1","0","0","",""
"null","442338","HierDy0wdpx152","sub08","08","8","iti","null","img/motor_6.png","74","motor","","","","","","",""
"303","442652","HierDy0wdpx152","sub08","08","8","motor","75","img/motor_7.png","75","motor","7","333","1","0","0","",""
"null","442762","HierDy0wdpx152","sub08","08","8","iti","null","img/motor_7.png","75","motor","","","","","","",""
"380","443152","HierDy0wdpx152","sub08","08","8","motor","72","img/motor_5.png","72","motor","5","334","1","0","0","",""
"null","443264","HierDy0wdpx152","sub08","08","8","iti","null","img/motor_5.png","72","motor","","","","","","",""
"296","443573","HierDy0wdpx152","sub08","08","8","motor","75","img/motor_6.png","74","motor","6","335","0","1","0","",""
"154","443739","HierDy0wdpx152","sub08","08","8","motorRepeat","74","img/motor_6.png","74","motor","6","335","1","0","0","",""
"null","443850","HierDy0wdpx152","sub08","08","8","iti","null","img/motor_6.png","74","motor","","","","","","",""
"590","444453","HierDy0wdpx152","sub08","08","8","motor","70","img/motor_4.png","70","motor","4","336","1","0","0","",""
"null","444563","HierDy0wdpx152","sub08","08","8","iti","null","img/motor_4.png","70","motor","","","","","","",""
"391","444962","HierDy0wdpx152","sub08","08","8","motor","76","img/motor_8.png","76","motor","8","337","1","0","0","",""
"null","445073","HierDy0wdpx152","sub08","08","8","iti","null","img/motor_8.png","76","motor","","","","","","",""
"530","445613","HierDy0wdpx152","sub08","08","8","motor","70","img/motor_3.png","68","motor","3","338","0","1","0","",""
"313","445937","HierDy0wdpx152","sub08","08","8","motorRepeat","68","img/motor_3.png","68","motor","3","338","1","0","0","",""
"null","446048","HierDy0wdpx152","sub08","08","8","iti","null","img/motor_3.png","68","motor","","","","","","",""
"477","446534","HierDy0wdpx152","sub08","08","8","motor","83","img/motor_2.png","83","motor","2","339","1","0","0","",""
"null","446645","HierDy0wdpx152","sub08","08","8","iti","null","img/motor_2.png","83","motor","","","","","","",""
"556","447213","HierDy0wdpx152","sub08","08","8","motor","75","img/motor_6.png","74","motor","6","340","0","1","0","",""
"283","447511","HierDy0wdpx152","sub08","08","8","motorRepeat","74","img/motor_6.png","74","motor","6","340","1","0","0","",""
"null","447623","HierDy0wdpx152","sub08","08","8","iti","null","img/motor_6.png","74","motor","","","","","","",""
"474","448109","HierDy0wdpx152","sub08","08","8","motor","75","img/motor_7.png","75","motor","7","341","1","0","0","",""
"null","448221","HierDy0wdpx152","sub08","08","8","iti","null","img/motor_7.png","75","motor","","","","","","",""
"537","448770","HierDy0wdpx152","sub08","08","8","motor","83","img/motor_2.png","83","motor","2","342","1","0","0","",""
"null","448882","HierDy0wdpx152","sub08","08","8","iti","null","img/motor_2.png","83","motor","","","","","","",""
"478","449371","HierDy0wdpx152","sub08","08","8","motor","75","img/motor_7.png","75","motor","7","343","1","0","0","",""
"null","449482","HierDy0wdpx152","sub08","08","8","iti","null","img/motor_7.png","75","motor","","","","","","",""
"329","449823","HierDy0wdpx152","sub08","08","8","motor","75","img/motor_7.png","75","motor","7","344","1","0","0","",""
"null","449934","HierDy0wdpx152","sub08","08","8","iti","null","img/motor_7.png","75","motor","","","","","","",""
"540","450486","HierDy0wdpx152","sub08","08","8","motor","72","img/motor_5.png","72","motor","5","345","1","0","0","",""
"null","450597","HierDy0wdpx152","sub08","08","8","iti","null","img/motor_5.png","72","motor","","","","","","",""
"368","450976","HierDy0wdpx152","sub08","08","8","motor","75","img/motor_7.png","75","motor","7","346","1","0","0","",""
"null","451089","HierDy0wdpx152","sub08","08","8","iti","null","img/motor_7.png","75","motor","","","","","","",""
"313","451413","HierDy0wdpx152","sub08","08","8","motor","72","img/motor_5.png","72","motor","5","347","1","0","0","",""
"null","451526","HierDy0wdpx152","sub08","08","8","iti","null","img/motor_5.png","72","motor","","","","","","",""
"353","451891","HierDy0wdpx152","sub08","08","8","motor","72","img/motor_5.png","72","motor","5","348","1","0","0","",""
"null","452003","HierDy0wdpx152","sub08","08","8","iti","null","img/motor_5.png","72","motor","","","","","","",""
"415","452428","HierDy0wdpx152","sub08","08","8","motor","76","img/motor_8.png","76","motor","8","349","1","0","0","",""
"null","452540","HierDy0wdpx152","sub08","08","8","iti","null","img/motor_8.png","76","motor","","","","","","",""
"473","453025","HierDy0wdpx152","sub08","08","8","motor","74","img/motor_6.png","74","motor","6","350","1","0","0","",""
"null","453137","HierDy0wdpx152","sub08","08","8","iti","null","img/motor_6.png","74","motor","","","","","","",""
"579","453725","HierDy0wdpx152","sub08","08","8","motor","68","img/motor_2.png","83","motor","2","351","0","1","0","",""
"292","454028","HierDy0wdpx152","sub08","08","8","motorRepeat","83","img/motor_2.png","83","motor","2","351","1","0","0","",""
"null","454140","HierDy0wdpx152","sub08","08","8","iti","null","img/motor_2.png","83","motor","","","","","","",""
"551","454702","HierDy0wdpx152","sub08","08","8","motor","72","img/motor_5.png","72","motor","5","352","1","0","0","",""
"null","454813","HierDy0wdpx152","sub08","08","8","iti","null","img/motor_5.png","72","motor","","","","","","",""
"434","455259","HierDy0wdpx152","sub08","08","8","motor","70","img/motor_4.png","70","motor","4","353","1","0","0","",""
"null","455370","HierDy0wdpx152","sub08","08","8","iti","null","img/motor_4.png","70","motor","","","","","","",""
"400","455781","HierDy0wdpx152","sub08","08","8","motor","74","img/motor_5.png","72","motor","5","354","0","1","0","",""
"94","455885","HierDy0wdpx152","sub08","08","8","motorRepeat","72","img/motor_5.png","72","motor","5","354","1","0","0","",""
"null","455998","HierDy0wdpx152","sub08","08","8","iti","null","img/motor_5.png","72","motor","","","","","","",""
"561","456570","HierDy0wdpx152","sub08","08","8","motor","74","img/motor_6.png","74","motor","6","355","1","0","0","",""
"null","456682","HierDy0wdpx152","sub08","08","8","iti","null","img/motor_6.png","74","motor","","","","","","",""
"529","457222","HierDy0wdpx152","sub08","08","8","motor","76","img/motor_8.png","76","motor","8","356","1","0","0","",""
"null","457333","HierDy0wdpx152","sub08","08","8","iti","null","img/motor_8.png","76","motor","","","","","","",""
"531","457875","HierDy0wdpx152","sub08","08","8","motor","75","img/motor_7.png","75","motor","7","357","1","0","0","",""
"null","457988","HierDy0wdpx152","sub08","08","8","iti","null","img/motor_7.png","75","motor","","","","","","",""
"323","458322","HierDy0wdpx152","sub08","08","8","motor","74","img/motor_6.png","74","motor","6","358","1","0","0","",""
"null","458435","HierDy0wdpx152","sub08","08","8","iti","null","img/motor_6.png","74","motor","","","","","","",""
"695","459140","HierDy0wdpx152","sub08","08","8","motor","83","img/motor_2.png","83","motor","2","359","1","0","0","",""
"null","459252","HierDy0wdpx152","sub08","08","8","iti","null","img/motor_2.png","83","motor","","","","","","",""
"587","459851","HierDy0wdpx152","sub08","08","8","motor","75","img/motor_7.png","75","motor","7","360","1","0","0","",""
"null","459963","HierDy0wdpx152","sub08","08","8","iti","null","img/motor_7.png","75","motor","","","","","","",""
"720","460695","HierDy0wdpx152","sub08","08","8","motor","68","img/motor_3.png","68","motor","3","361","1","0","0","",""
"null","460805","HierDy0wdpx152","sub08","08","8","iti","null","img/motor_3.png","68","motor","","","","","","",""
"471","461287","HierDy0wdpx152","sub08","08","8","motor","74","img/motor_6.png","74","motor","6","362","1","0","0","",""
"null","461400","HierDy0wdpx152","sub08","08","8","iti","null","img/motor_6.png","74","motor","","","","","","",""
"404","461814","HierDy0wdpx152","sub08","08","8","motor","72","img/motor_5.png","72","motor","5","363","1","0","0","",""
"null","461923","HierDy0wdpx152","sub08","08","8","iti","null","img/motor_5.png","72","motor","","","","","","",""
"447","462382","HierDy0wdpx152","sub08","08","8","motor","70","img/motor_3.png","68","motor","3","364","0","1","0","",""
"346","462737","HierDy0wdpx152","sub08","08","8","motorRepeat","68","img/motor_3.png","68","motor","3","364","1","0","0","",""
"null","462849","HierDy0wdpx152","sub08","08","8","iti","null","img/motor_3.png","68","motor","","","","","","",""
"467","463325","HierDy0wdpx152","sub08","08","8","motor","76","img/motor_8.png","76","motor","8","365","1","0","0","",""
"null","463436","HierDy0wdpx152","sub08","08","8","iti","null","img/motor_8.png","76","motor","","","","","","",""
"685","464132","HierDy0wdpx152","sub08","08","8","motor","68","img/motor_3.png","68","motor","3","366","1","0","0","",""
"null","464245","HierDy0wdpx152","sub08","08","8","iti","null","img/motor_3.png","68","motor","","","","","","",""
"350","464605","HierDy0wdpx152","sub08","08","8","motor","72","img/motor_5.png","72","motor","5","367","1","0","0","",""
"null","464717","HierDy0wdpx152","sub08","08","8","iti","null","img/motor_5.png","72","motor","","","","","","",""
"620","465347","HierDy0wdpx152","sub08","08","8","motor","74","img/motor_6.png","74","motor","6","368","1","0","0","",""
"null","465458","HierDy0wdpx152","sub08","08","8","iti","null","img/motor_6.png","74","motor","","","","","","",""
"536","466005","HierDy0wdpx152","sub08","08","8","motor","70","img/motor_4.png","70","motor","4","369","1","0","0","",""
"null","466116","HierDy0wdpx152","sub08","08","8","iti","null","img/motor_4.png","70","motor","","","","","","",""
"454","466582","HierDy0wdpx152","sub08","08","8","motor","74","img/motor_6.png","74","motor","6","370","1","0","0","",""
"null","466695","HierDy0wdpx152","sub08","08","8","iti","null","img/motor_6.png","74","motor","","","","","","",""
"333","467040","HierDy0wdpx152","sub08","08","8","motor","72","img/motor_5.png","72","motor","5","371","1","0","0","",""
"null","467148","HierDy0wdpx152","sub08","08","8","iti","null","img/motor_5.png","72","motor","","","","","","",""
"467","467626","HierDy0wdpx152","sub08","08","8","motor","83","img/motor_2.png","83","motor","2","372","1","0","0","",""
"null","467739","HierDy0wdpx152","sub08","08","8","iti","null","img/motor_2.png","83","motor","","","","","","",""
"375","468123","HierDy0wdpx152","sub08","08","8","motor","83","img/motor_2.png","83","motor","2","373","1","0","0","",""
"null","468234","HierDy0wdpx152","sub08","08","8","iti","null","img/motor_2.png","83","motor","","","","","","",""
"456","468701","HierDy0wdpx152","sub08","08","8","motor","68","img/motor_3.png","68","motor","3","374","1","0","0","",""
"null","468814","HierDy0wdpx152","sub08","08","8","iti","null","img/motor_3.png","68","motor","","","","","","",""
"513","469338","HierDy0wdpx152","sub08","08","8","motor","65","img/motor_1.png","65","motor","1","375","1","0","0","",""
"null","469448","HierDy0wdpx152","sub08","08","8","iti","null","img/motor_1.png","65","motor","","","","","","",""
"487","469947","HierDy0wdpx152","sub08","08","8","motor","76","img/motor_7.png","75","motor","7","376","0","1","0","",""
"241","470198","HierDy0wdpx152","sub08","08","8","motorRepeat","75","img/motor_7.png","75","motor","7","376","1","0","0","",""
"null","470308","HierDy0wdpx152","sub08","08","8","iti","null","img/motor_7.png","75","motor","","","","","","",""
"520","470839","HierDy0wdpx152","sub08","08","8","motor","74","img/motor_5.png","72","motor","5","377","0","1","0","",""
"206","471056","HierDy0wdpx152","sub08","08","8","motorRepeat","72","img/motor_5.png","72","motor","5","377","1","0","0","",""
"null","471167","HierDy0wdpx152","sub08","08","8","iti","null","img/motor_5.png","72","motor","","","","","","",""
"620","471798","HierDy0wdpx152","sub08","08","8","motor","68","img/motor_3.png","68","motor","3","378","1","0","0","",""
"null","471911","HierDy0wdpx152","sub08","08","8","iti","null","img/motor_3.png","68","motor","","","","","","",""
"428","472350","HierDy0wdpx152","sub08","08","8","motor","83","img/motor_2.png","83","motor","2","379","1","0","0","",""
"null","472462","HierDy0wdpx152","sub08","08","8","iti","null","img/motor_2.png","83","motor","","","","","","",""
"359","472831","HierDy0wdpx152","sub08","08","8","motor","83","img/motor_2.png","83","motor","2","380","1","0","0","",""
"null","472943","HierDy0wdpx152","sub08","08","8","iti","null","img/motor_2.png","83","motor","","","","","","",""
"367","473323","HierDy0wdpx152","sub08","08","8","motor","65","img/motor_1.png","65","motor","1","381","1","0","0","",""
"null","473435","HierDy0wdpx152","sub08","08","8","iti","null","img/motor_1.png","65","motor","","","","","","",""
"430","473877","HierDy0wdpx152","sub08","08","8","motor","75","img/motor_7.png","75","motor","7","382","1","0","0","",""
"null","473988","HierDy0wdpx152","sub08","08","8","iti","null","img/motor_7.png","75","motor","","","","","","",""
"702","474701","HierDy0wdpx152","sub08","08","8","motor","68","img/motor_3.png","68","motor","3","383","1","0","0","",""
"null","474813","HierDy0wdpx152","sub08","08","8","iti","null","img/motor_3.png","68","motor","","","","","","",""
"499","475323","HierDy0wdpx152","sub08","08","8","motor","70","img/motor_4.png","70","motor","4","384","1","0","0","",""
"null","475435","HierDy0wdpx152","sub08","08","8","iti","null","img/motor_4.png","70","motor","","","","","","",""
"548","475995","HierDy0wdpx152","sub08","08","8","motor","76","img/motor_8.png","76","motor","8","385","1","0","0","",""
"null","476108","HierDy0wdpx152","sub08","08","8","iti","null","img/motor_8.png","76","motor","","","","","","",""
"473","476593","HierDy0wdpx152","sub08","08","8","motor","74","img/motor_6.png","74","motor","6","386","1","0","0","",""
"null","476705","HierDy0wdpx152","sub08","08","8","iti","null","img/motor_6.png","74","motor","","","","","","",""
"344","477061","HierDy0wdpx152","sub08","08","8","motor","74","img/motor_6.png","74","motor","6","387","1","0","0","",""
"null","477172","HierDy0wdpx152","sub08","08","8","iti","null","img/motor_6.png","74","motor","","","","","","",""
"371","477555","HierDy0wdpx152","sub08","08","8","motor","72","img/motor_5.png","72","motor","5","388","1","0","0","",""
"null","477668","HierDy0wdpx152","sub08","08","8","iti","null","img/motor_5.png","72","motor","","","","","","",""
"425","478102","HierDy0wdpx152","sub08","08","8","motor","72","img/motor_5.png","72","motor","5","389","1","0","0","",""
"null","478212","HierDy0wdpx152","sub08","08","8","iti","null","img/motor_5.png","72","motor","","","","","","",""
"517","478741","HierDy0wdpx152","sub08","08","8","motor","70","img/motor_4.png","70","motor","4","390","1","0","0","",""
"null","478853","HierDy0wdpx152","sub08","08","8","iti","null","img/motor_4.png","70","motor","","","","","","",""
"465","479327","HierDy0wdpx152","sub08","08","8","motor","65","img/motor_1.png","65","motor","1","391","1","0","0","",""
"null","479440","HierDy0wdpx152","sub08","08","8","iti","null","img/motor_1.png","65","motor","","","","","","",""
"479","479929","HierDy0wdpx152","sub08","08","8","motor","72","img/motor_5.png","72","motor","5","392","1","0","0","",""
"null","480039","HierDy0wdpx152","sub08","08","8","iti","null","img/motor_5.png","72","motor","","","","","","",""
"471","480522","HierDy0wdpx152","sub08","08","8","motor","76","img/motor_8.png","76","motor","8","393","1","0","0","",""
"null","480635","HierDy0wdpx152","sub08","08","8","iti","null","img/motor_8.png","76","motor","","","","","","",""
