"rt","time_elapsed","subject","subID","group","day","trialType","phase","key_press","stim","stimNum","corrresp","hierarchy","trialNum","corr","responses"
"1398","1400","HierDypd4gcsk6","sub08","08","7","","","","","","","","","",""
"","3331","HierDypd4gcsk6","sub08","08","7","fullscreen","","","","","","","","",""
"3110.800000011921","6443","HierDypd4gcsk6","sub08","08","7","","prac","","","","","","","",""
"1941.699999988079","8389","HierDypd4gcsk6","sub08","08","7","","","32","","","","","","",""
"3526.5","11917","HierDypd4gcsk6","sub08","08","7","","prac","","","","","","","",""
"1239.5999999940395","13160","HierDypd4gcsk6","sub08","08","7","rl","test","72","img/p_d_diag.png","5","72","pattern,color,shape","1","1",""
"null","14162","HierDypd4gcsk6","sub08","08","7","feedback","test","null","","","na","","1","",""
"960.0999999940395","15124","HierDypd4gcsk6","sub08","08","7","rl","test","70","img/r_t_check.png","4","70","pattern,color,shape","2","1",""
"null","16126","HierDypd4gcsk6","sub08","08","7","feedback","test","null","","","na","","2","",""
"620.6000000238419","16748","HierDypd4gcsk6","sub08","08","7","rl","test","65","img/p_d_check.png","1","65","pattern,color,shape","3","1",""
"null","17751","HierDypd4gcsk6","sub08","08","7","feedback","test","null","","","na","","3","",""
"702.0999999940395","18455","HierDypd4gcsk6","sub08","08","7","rl","test","68","img/r_d_check.png","3","68","pattern,color,shape","4","1",""
"null","19456","HierDypd4gcsk6","sub08","08","7","feedback","test","null","","","na","","4","",""
"796.7000000178814","20254","HierDypd4gcsk6","sub08","08","7","rl","test","76","img/r_t_diag.png","8","76","pattern,color,shape","5","1",""
"null","21256","HierDypd4gcsk6","sub08","08","7","feedback","test","null","","","na","","5","",""
"1098","22354","HierDypd4gcsk6","sub08","08","7","rl","test","74","img/p_t_diag.png","6","74","pattern,color,shape","6","1",""
"null","23356","HierDypd4gcsk6","sub08","08","7","feedback","test","null","","","na","","6","",""
"1216.9000000059605","24574","HierDypd4gcsk6","sub08","08","7","rl","test","83","img/p_t_check.png","2","83","pattern,color,shape","7","1",""
"null","25576","HierDypd4gcsk6","sub08","08","7","feedback","test","null","","","na","","7","",""
"977.3000000119209","26554","HierDypd4gcsk6","sub08","08","7","rl","test","72","img/r_d_diag.png","7","75","pattern,color,shape","8","0",""
"null","27556","HierDypd4gcsk6","sub08","08","7","feedback","test","null","","","na","","8","",""
"992","28549","HierDypd4gcsk6","sub08","08","7","rl","test","74","img/p_t_diag.png","6","74","pattern,color,shape","9","1",""
"null","29551","HierDypd4gcsk6","sub08","08","7","feedback","test","null","","","na","","9","",""
"962.0999999940395","30514","HierDypd4gcsk6","sub08","08","7","rl","test","65","img/p_d_check.png","1","65","pattern,color,shape","10","1",""
"null","31516","HierDypd4gcsk6","sub08","08","7","feedback","test","null","","","na","","10","",""
"736.7999999821186","32255","HierDypd4gcsk6","sub08","08","7","rl","test","83","img/p_t_check.png","2","83","pattern,color,shape","11","1",""
"null","33256","HierDypd4gcsk6","sub08","08","7","feedback","test","null","","","na","","11","",""
"1005.1999999880791","34263","HierDypd4gcsk6","sub08","08","7","rl","test","72","img/p_d_diag.png","5","72","pattern,color,shape","12","1",""
"null","35264","HierDypd4gcsk6","sub08","08","7","feedback","test","null","","","na","","12","",""
"859.1000000238419","36124","HierDypd4gcsk6","sub08","08","7","rl","test","83","img/p_t_check.png","2","83","pattern,color,shape","13","1",""
"null","37126","HierDypd4gcsk6","sub08","08","7","feedback","test","null","","","na","","13","",""
"586.8000000119209","37714","HierDypd4gcsk6","sub08","08","7","rl","test","70","img/r_t_check.png","4","70","pattern,color,shape","14","1",""
"null","38716","HierDypd4gcsk6","sub08","08","7","feedback","test","null","","","na","","14","",""
"1351.199999988079","40068","HierDypd4gcsk6","sub08","08","7","rl","test","75","img/r_d_diag.png","7","75","pattern,color,shape","15","1",""
"null","41069","HierDypd4gcsk6","sub08","08","7","feedback","test","null","","","na","","15","",""
"619.8000000119209","41689","HierDypd4gcsk6","sub08","08","7","rl","test","76","img/r_t_diag.png","8","76","pattern,color,shape","16","1",""
"null","42691","HierDypd4gcsk6","sub08","08","7","feedback","test","null","","","na","","16","",""
"676.6999999880791","43369","HierDypd4gcsk6","sub08","08","7","rl","test","68","img/r_d_check.png","3","68","pattern,color,shape","17","1",""
"null","44371","HierDypd4gcsk6","sub08","08","7","feedback","test","null","","","na","","17","",""
"691.8000000119209","45064","HierDypd4gcsk6","sub08","08","7","rl","test","68","img/r_d_check.png","3","68","pattern,color,shape","18","1",""
"null","46066","HierDypd4gcsk6","sub08","08","7","feedback","test","null","","","na","","18","",""
"528.7000000178814","46596","HierDypd4gcsk6","sub08","08","7","rl","test","70","img/r_t_check.png","4","70","pattern,color,shape","19","1",""
"null","47598","HierDypd4gcsk6","sub08","08","7","feedback","test","null","","","na","","19","",""
"404.7000000178814","48004","HierDypd4gcsk6","sub08","08","7","rl","test","72","img/p_d_diag.png","5","72","pattern,color,shape","20","1",""
"null","49006","HierDypd4gcsk6","sub08","08","7","feedback","test","null","","","na","","20","",""
"439.09999999403954","49447","HierDypd4gcsk6","sub08","08","7","rl","test","74","img/p_t_diag.png","6","74","pattern,color,shape","21","1",""
"null","50448","HierDypd4gcsk6","sub08","08","7","feedback","test","null","","","na","","21","",""
"599.7000000178814","51049","HierDypd4gcsk6","sub08","08","7","rl","test","76","img/r_t_diag.png","8","76","pattern,color,shape","22","1",""
"null","52051","HierDypd4gcsk6","sub08","08","7","feedback","test","null","","","na","","22","",""
"661.9000000059605","52714","HierDypd4gcsk6","sub08","08","7","rl","test","76","img/r_t_diag.png","8","76","pattern,color,shape","23","1",""
"null","53715","HierDypd4gcsk6","sub08","08","7","feedback","test","null","","","na","","23","",""
"847.7000000178814","54564","HierDypd4gcsk6","sub08","08","7","rl","test","65","img/p_d_check.png","1","65","pattern,color,shape","24","1",""
"null","55566","HierDypd4gcsk6","sub08","08","7","feedback","test","null","","","na","","24","",""
"1032.300000011921","56599","HierDypd4gcsk6","sub08","08","7","rl","test","75","img/r_d_diag.png","7","75","pattern,color,shape","25","1",""
"null","57601","HierDypd4gcsk6","sub08","08","7","feedback","test","null","","","na","","25","",""
"1066.5999999940395","58669","HierDypd4gcsk6","sub08","08","7","rl","test","65","img/p_d_check.png","1","65","pattern,color,shape","26","1",""
"null","59671","HierDypd4gcsk6","sub08","08","7","feedback","test","null","","","na","","26","",""
"496.69999998807907","60169","HierDypd4gcsk6","sub08","08","7","rl","test","83","img/p_t_check.png","2","83","pattern,color,shape","27","1",""
"null","61171","HierDypd4gcsk6","sub08","08","7","feedback","test","null","","","na","","27","",""
"991.5999999940395","62164","HierDypd4gcsk6","sub08","08","7","rl","test","75","img/r_d_diag.png","7","75","pattern,color,shape","28","1",""
"null","63166","HierDypd4gcsk6","sub08","08","7","feedback","test","null","","","na","","28","",""
"1171.5","64338","HierDypd4gcsk6","sub08","08","7","rl","test","74","img/p_t_diag.png","6","74","pattern,color,shape","29","1",""
"null","65339","HierDypd4gcsk6","sub08","08","7","feedback","test","null","","","na","","29","",""
"1173.800000011921","66514","HierDypd4gcsk6","sub08","08","7","rl","test","68","img/r_d_check.png","3","68","pattern,color,shape","30","1",""
"null","67516","HierDypd4gcsk6","sub08","08","7","feedback","test","null","","","na","","30","",""
"722.2000000178814","68239","HierDypd4gcsk6","sub08","08","7","rl","test","72","img/p_d_diag.png","5","72","pattern,color,shape","31","1",""
"null","69241","HierDypd4gcsk6","sub08","08","7","feedback","test","null","","","na","","31","",""
"919.1999999880791","70162","HierDypd4gcsk6","sub08","08","7","rl","test","70","img/r_t_check.png","4","70","pattern,color,shape","32","1",""
"null","71163","HierDypd4gcsk6","sub08","08","7","feedback","test","null","","","na","","32","",""
"839.6000000238419","72004","HierDypd4gcsk6","sub08","08","7","rl","test","76","img/r_t_diag.png","8","76","pattern,color,shape","33","1",""
"null","73006","HierDypd4gcsk6","sub08","08","7","feedback","test","null","","","na","","33","",""
"1126.5","74134","HierDypd4gcsk6","sub08","08","7","rl","test","83","img/p_t_check.png","2","83","pattern,color,shape","34","1",""
"null","75136","HierDypd4gcsk6","sub08","08","7","feedback","test","null","","","na","","34","",""
"616.9000000059605","75754","HierDypd4gcsk6","sub08","08","7","rl","test","65","img/p_d_check.png","1","65","pattern,color,shape","35","1",""
"null","76756","HierDypd4gcsk6","sub08","08","7","feedback","test","null","","","na","","35","",""
"811.0999999940395","77568","HierDypd4gcsk6","sub08","08","7","rl","test","68","img/r_d_check.png","3","68","pattern,color,shape","36","1",""
"null","78569","HierDypd4gcsk6","sub08","08","7","feedback","test","null","","","na","","36","",""
"559.3999999761581","79130","HierDypd4gcsk6","sub08","08","7","rl","test","70","img/r_t_check.png","4","70","pattern,color,shape","37","1",""
"null","80131","HierDypd4gcsk6","sub08","08","7","feedback","test","null","","","na","","37","",""
"736.3999999761581","80869","HierDypd4gcsk6","sub08","08","7","rl","test","70","img/r_t_check.png","4","70","pattern,color,shape","38","1",""
"null","81871","HierDypd4gcsk6","sub08","08","7","feedback","test","null","","","na","","38","",""
"1444.4000000059605","83317","HierDypd4gcsk6","sub08","08","7","rl","test","75","img/r_d_diag.png","7","75","pattern,color,shape","39","1",""
"null","84318","HierDypd4gcsk6","sub08","08","7","feedback","test","null","","","na","","39","",""
"992.2999999821186","85311","HierDypd4gcsk6","sub08","08","7","rl","test","68","img/r_d_check.png","3","68","pattern,color,shape","40","1",""
"null","86313","HierDypd4gcsk6","sub08","08","7","feedback","test","null","","","na","","40","",""
"780","87094","HierDypd4gcsk6","sub08","08","7","rl","test","72","img/p_d_diag.png","5","72","pattern,color,shape","41","1",""
"null","88096","HierDypd4gcsk6","sub08","08","7","feedback","test","null","","","na","","41","",""
"722.5","88820","HierDypd4gcsk6","sub08","08","7","rl","test","75","img/r_d_diag.png","7","75","pattern,color,shape","42","1",""
"null","89821","HierDypd4gcsk6","sub08","08","7","feedback","test","null","","","na","","42","",""
"782.3000000119209","90605","HierDypd4gcsk6","sub08","08","7","rl","test","74","img/p_t_diag.png","6","74","pattern,color,shape","43","1",""
"null","91607","HierDypd4gcsk6","sub08","08","7","feedback","test","null","","","na","","43","",""
"526.2000000178814","92134","HierDypd4gcsk6","sub08","08","7","rl","test","74","img/p_t_diag.png","6","74","pattern,color,shape","44","1",""
"null","93136","HierDypd4gcsk6","sub08","08","7","feedback","test","null","","","na","","44","",""
"572.4000000059605","93709","HierDypd4gcsk6","sub08","08","7","rl","test","76","img/r_t_diag.png","8","76","pattern,color,shape","45","1",""
"null","94710","HierDypd4gcsk6","sub08","08","7","feedback","test","null","","","na","","45","",""
"633","95344","HierDypd4gcsk6","sub08","08","7","rl","test","74","img/p_t_diag.png","6","74","pattern,color,shape","46","1",""
"null","96346","HierDypd4gcsk6","sub08","08","7","feedback","test","null","","","na","","46","",""
"680.0999999940395","97027","HierDypd4gcsk6","sub08","08","7","rl","test","72","img/p_d_diag.png","5","72","pattern,color,shape","47","1",""
"null","98029","HierDypd4gcsk6","sub08","08","7","feedback","test","null","","","na","","47","",""
"869.4000000059605","98900","HierDypd4gcsk6","sub08","08","7","rl","test","83","img/p_t_check.png","2","83","pattern,color,shape","48","1",""
"null","99902","HierDypd4gcsk6","sub08","08","7","feedback","test","null","","","na","","48","",""
"889.6000000238419","100793","HierDypd4gcsk6","sub08","08","7","rl","test","68","img/r_d_check.png","3","68","pattern,color,shape","49","1",""
"null","101794","HierDypd4gcsk6","sub08","08","7","feedback","test","null","","","na","","49","",""
"434.7999999821186","102230","HierDypd4gcsk6","sub08","08","7","rl","test","65","img/p_d_check.png","1","65","pattern,color,shape","50","1",""
"null","103232","HierDypd4gcsk6","sub08","08","7","feedback","test","null","","","na","","50","",""
"1051.5999999940395","104285","HierDypd4gcsk6","sub08","08","7","rl","test","83","img/p_t_check.png","2","83","pattern,color,shape","51","1",""
"null","105287","HierDypd4gcsk6","sub08","08","7","feedback","test","null","","","na","","51","",""
"646.9000000059605","105935","HierDypd4gcsk6","sub08","08","7","rl","test","65","img/p_d_check.png","1","65","pattern,color,shape","52","1",""
"null","106937","HierDypd4gcsk6","sub08","08","7","feedback","test","null","","","na","","52","",""
"646.7000000178814","107585","HierDypd4gcsk6","sub08","08","7","rl","test","70","img/r_t_check.png","4","70","pattern,color,shape","53","1",""
"null","108587","HierDypd4gcsk6","sub08","08","7","feedback","test","null","","","na","","53","",""
"931.1000000238419","109519","HierDypd4gcsk6","sub08","08","7","rl","test","74","img/p_t_diag.png","6","74","pattern,color,shape","54","1",""
"null","110521","HierDypd4gcsk6","sub08","08","7","feedback","test","null","","","na","","54","",""
"722.3000000119209","111245","HierDypd4gcsk6","sub08","08","7","rl","test","75","img/r_d_diag.png","7","75","pattern,color,shape","55","1",""
"null","112246","HierDypd4gcsk6","sub08","08","7","feedback","test","null","","","na","","55","",""
"572.2000000178814","112820","HierDypd4gcsk6","sub08","08","7","rl","test","72","img/p_d_diag.png","5","72","pattern,color,shape","56","1",""
"null","113821","HierDypd4gcsk6","sub08","08","7","feedback","test","null","","","na","","56","",""
"603.5","114426","HierDypd4gcsk6","sub08","08","7","rl","test","76","img/r_t_diag.png","8","76","pattern,color,shape","57","1",""
"null","115428","HierDypd4gcsk6","sub08","08","7","feedback","test","null","","","na","","57","",""
"647","116076","HierDypd4gcsk6","sub08","08","7","rl","test","83","img/p_t_check.png","2","83","pattern,color,shape","58","1",""
"null","117078","HierDypd4gcsk6","sub08","08","7","feedback","test","null","","","na","","58","",""
"1049.800000011921","118129","HierDypd4gcsk6","sub08","08","7","rl","test","75","img/r_d_diag.png","7","75","pattern,color,shape","59","1",""
"null","119131","HierDypd4gcsk6","sub08","08","7","feedback","test","null","","","na","","59","",""
"662.2000000178814","119795","HierDypd4gcsk6","sub08","08","7","rl","test","72","img/p_d_diag.png","5","72","pattern,color,shape","60","1",""
"null","120797","HierDypd4gcsk6","sub08","08","7","feedback","test","null","","","na","","60","",""
"736.7000000178814","121535","HierDypd4gcsk6","sub08","08","7","rl","test","70","img/r_t_check.png","4","70","pattern,color,shape","61","1",""
"null","122537","HierDypd4gcsk6","sub08","08","7","feedback","test","null","","","na","","61","",""
"753.7000000178814","123292","HierDypd4gcsk6","sub08","08","7","rl","test","76","img/r_t_diag.png","8","76","pattern,color,shape","62","1",""
"null","124294","HierDypd4gcsk6","sub08","08","7","feedback","test","null","","","na","","62","",""
"674.3000000119209","124970","HierDypd4gcsk6","sub08","08","7","rl","test","65","img/p_d_check.png","1","65","pattern,color,shape","63","1",""
"null","125971","HierDypd4gcsk6","sub08","08","7","feedback","test","null","","","na","","63","",""
"631.5999999940395","126605","HierDypd4gcsk6","sub08","08","7","rl","test","68","img/r_d_check.png","3","68","pattern,color,shape","64","1",""
"null","127607","HierDypd4gcsk6","sub08","08","7","feedback","test","null","","","na","","64","",""
"660.8000000119209","128269","HierDypd4gcsk6","sub08","08","7","rl","test","76","img/r_t_diag.png","8","76","pattern,color,shape","65","1",""
"null","129270","HierDypd4gcsk6","sub08","08","7","feedback","test","null","","","na","","65","",""
"993.5","130265","HierDypd4gcsk6","sub08","08","7","rl","test","68","img/r_d_check.png","3","68","pattern,color,shape","66","1",""
"null","131267","HierDypd4gcsk6","sub08","08","7","feedback","test","null","","","na","","66","",""
"782.0999999940395","132050","HierDypd4gcsk6","sub08","08","7","rl","test","76","img/p_t_diag.png","6","74","pattern,color,shape","67","0",""
"null","133052","HierDypd4gcsk6","sub08","08","7","feedback","test","null","","","na","","67","",""
"871.9000000059605","133925","HierDypd4gcsk6","sub08","08","7","rl","test","83","img/p_t_check.png","2","83","pattern,color,shape","68","1",""
"null","134927","HierDypd4gcsk6","sub08","08","7","feedback","test","null","","","na","","68","",""
"663.1000000238419","135592","HierDypd4gcsk6","sub08","08","7","rl","test","65","img/p_d_check.png","1","65","pattern,color,shape","69","1",""
"null","136594","HierDypd4gcsk6","sub08","08","7","feedback","test","null","","","na","","69","",""
"675","137270","HierDypd4gcsk6","sub08","08","7","rl","test","70","img/r_t_check.png","4","70","pattern,color,shape","70","1",""
"null","138271","HierDypd4gcsk6","sub08","08","7","feedback","test","null","","","na","","70","",""
"826.5999999940395","139099","HierDypd4gcsk6","sub08","08","7","rl","test","75","img/r_d_diag.png","7","75","pattern,color,shape","71","1",""
"null","140102","HierDypd4gcsk6","sub08","08","7","feedback","test","null","","","na","","71","",""
"511.69999998807907","140614","HierDypd4gcsk6","sub08","08","7","rl","test","76","img/r_t_diag.png","8","76","pattern,color,shape","72","1",""
"null","141617","HierDypd4gcsk6","sub08","08","7","feedback","test","null","","","na","","72","",""
"740.5","142358","HierDypd4gcsk6","sub08","08","7","rl","test","83","img/p_t_check.png","2","83","pattern,color,shape","73","1",""
"null","143360","HierDypd4gcsk6","sub08","08","7","feedback","test","null","","","na","","73","",""
"718.6999999880791","144080","HierDypd4gcsk6","sub08","08","7","rl","test","72","img/p_d_diag.png","5","72","pattern,color,shape","74","1",""
"null","145082","HierDypd4gcsk6","sub08","08","7","feedback","test","null","","","na","","74","",""
"661.5999999940395","145745","HierDypd4gcsk6","sub08","08","7","rl","test","72","img/p_d_diag.png","5","72","pattern,color,shape","75","1",""
"null","146747","HierDypd4gcsk6","sub08","08","7","feedback","test","null","","","na","","75","",""
"601.6999999880791","147350","HierDypd4gcsk6","sub08","08","7","rl","test","83","img/p_d_check.png","1","65","pattern,color,shape","76","0",""
"null","148351","HierDypd4gcsk6","sub08","08","7","feedback","test","null","","","na","","76","",""
"691.5","149044","HierDypd4gcsk6","sub08","08","7","rl","test","76","img/p_t_diag.png","6","74","pattern,color,shape","77","0",""
"null","150046","HierDypd4gcsk6","sub08","08","7","feedback","test","null","","","na","","77","",""
"860.0999999940395","150908","HierDypd4gcsk6","sub08","08","7","rl","test","70","img/r_t_check.png","4","70","pattern,color,shape","78","1",""
"null","151909","HierDypd4gcsk6","sub08","08","7","feedback","test","null","","","na","","78","",""
"703.8999999761581","152615","HierDypd4gcsk6","sub08","08","7","rl","test","68","img/r_d_check.png","3","68","pattern,color,shape","79","1",""
"null","153616","HierDypd4gcsk6","sub08","08","7","feedback","test","null","","","na","","79","",""
"662.4000000059605","154280","HierDypd4gcsk6","sub08","08","7","rl","test","72","img/p_d_diag.png","5","72","pattern,color,shape","80","1",""
"null","155282","HierDypd4gcsk6","sub08","08","7","feedback","test","null","","","na","","80","",""
"706.9000000059605","155989","HierDypd4gcsk6","sub08","08","7","rl","test","75","img/r_d_diag.png","7","75","pattern,color,shape","81","1",""
"null","156991","HierDypd4gcsk6","sub08","08","7","feedback","test","null","","","na","","81","",""
"977.5999999940395","157970","HierDypd4gcsk6","sub08","08","7","rl","test","70","img/r_t_check.png","4","70","pattern,color,shape","82","1",""
"null","158971","HierDypd4gcsk6","sub08","08","7","feedback","test","null","","","na","","82","",""
"722.4000000059605","159695","HierDypd4gcsk6","sub08","08","7","rl","test","76","img/p_t_diag.png","6","74","pattern,color,shape","83","0",""
"null","160697","HierDypd4gcsk6","sub08","08","7","feedback","test","null","","","na","","83","",""
"1096.800000011921","161795","HierDypd4gcsk6","sub08","08","7","rl","test","75","img/r_d_diag.png","7","75","pattern,color,shape","84","1",""
"null","162797","HierDypd4gcsk6","sub08","08","7","feedback","test","null","","","na","","84","",""
"752.1000000238419","163550","HierDypd4gcsk6","sub08","08","7","rl","test","83","img/p_t_check.png","2","83","pattern,color,shape","85","1",""
"null","164552","HierDypd4gcsk6","sub08","08","7","feedback","test","null","","","na","","85","",""
"691.5","165245","HierDypd4gcsk6","sub08","08","7","rl","test","76","img/r_t_diag.png","8","76","pattern,color,shape","86","1",""
"null","166246","HierDypd4gcsk6","sub08","08","7","feedback","test","null","","","na","","86","",""
"646.6999999880791","166894","HierDypd4gcsk6","sub08","08","7","rl","test","65","img/p_d_check.png","1","65","pattern,color,shape","87","1",""
"null","167896","HierDypd4gcsk6","sub08","08","7","feedback","test","null","","","na","","87","",""
"709","168607","HierDypd4gcsk6","sub08","08","7","rl","test","68","img/r_d_check.png","3","68","pattern,color,shape","88","1",""
"null","169608","HierDypd4gcsk6","sub08","08","7","feedback","test","null","","","na","","88","",""
"675","170285","HierDypd4gcsk6","sub08","08","7","rl","test","65","img/p_d_check.png","1","65","pattern,color,shape","89","1",""
"null","171286","HierDypd4gcsk6","sub08","08","7","feedback","test","null","","","na","","89","",""
"602.2000000178814","171890","HierDypd4gcsk6","sub08","08","7","rl","test","70","img/r_t_check.png","4","70","pattern,color,shape","90","1",""
"null","172892","HierDypd4gcsk6","sub08","08","7","feedback","test","null","","","na","","90","",""
"646.6999999880791","173540","HierDypd4gcsk6","sub08","08","7","rl","test","83","img/p_t_check.png","2","83","pattern,color,shape","91","1",""
"null","174542","HierDypd4gcsk6","sub08","08","7","feedback","test","null","","","na","","91","",""
"1614.4000000059605","176157","HierDypd4gcsk6","sub08","08","7","rl","test","83","img/p_t_check.png","2","83","pattern,color,shape","92","1",""
"null","177158","HierDypd4gcsk6","sub08","08","7","feedback","test","null","","","na","","92","",""
"685.0999999940395","177845","HierDypd4gcsk6","sub08","08","7","rl","test","76","img/r_t_diag.png","8","76","pattern,color,shape","93","1",""
"null","178847","HierDypd4gcsk6","sub08","08","7","feedback","test","null","","","na","","93","",""
"961.8000000119209","179810","HierDypd4gcsk6","sub08","08","7","rl","test","74","img/p_t_diag.png","6","74","pattern,color,shape","94","1",""
"null","180812","HierDypd4gcsk6","sub08","08","7","feedback","test","null","","","na","","94","",""
"1096.5","181910","HierDypd4gcsk6","sub08","08","7","rl","test","75","img/p_d_diag.png","5","72","pattern,color,shape","95","0",""
"null","182912","HierDypd4gcsk6","sub08","08","7","feedback","test","null","","","na","","95","",""
"1036.3999999761581","183950","HierDypd4gcsk6","sub08","08","7","rl","test","74","img/p_t_diag.png","6","74","pattern,color,shape","96","1",""
"null","184951","HierDypd4gcsk6","sub08","08","7","feedback","test","null","","","na","","96","",""
"632.0999999940395","185585","HierDypd4gcsk6","sub08","08","7","rl","test","75","img/r_d_diag.png","7","75","pattern,color,shape","97","1",""
"null","186586","HierDypd4gcsk6","sub08","08","7","feedback","test","null","","","na","","97","",""
"618.9000000059605","187206","HierDypd4gcsk6","sub08","08","7","rl","test","76","img/r_t_diag.png","8","76","pattern,color,shape","98","1",""
"null","188208","HierDypd4gcsk6","sub08","08","7","feedback","test","null","","","na","","98","",""
"975.5","189185","HierDypd4gcsk6","sub08","08","7","rl","test","68","img/r_d_check.png","3","68","pattern,color,shape","99","1",""
"null","190187","HierDypd4gcsk6","sub08","08","7","feedback","test","null","","","na","","99","",""
"708.4000000059605","190896","HierDypd4gcsk6","sub08","08","7","rl","test","68","img/r_d_check.png","3","68","pattern,color,shape","100","1",""
"null","191898","HierDypd4gcsk6","sub08","08","7","feedback","test","null","","","na","","100","",""
"1035.4000000059605","192935","HierDypd4gcsk6","sub08","08","7","rl","test","75","img/r_d_diag.png","7","75","pattern,color,shape","101","1",""
"null","193936","HierDypd4gcsk6","sub08","08","7","feedback","test","null","","","na","","101","",""
"917.6999999880791","194856","HierDypd4gcsk6","sub08","08","7","rl","test","74","img/p_d_diag.png","5","72","pattern,color,shape","102","0",""
"null","195857","HierDypd4gcsk6","sub08","08","7","feedback","test","null","","","na","","102","",""
"826.1000000238419","196685","HierDypd4gcsk6","sub08","08","7","rl","test","65","img/p_d_check.png","1","65","pattern,color,shape","103","1",""
"null","197686","HierDypd4gcsk6","sub08","08","7","feedback","test","null","","","na","","103","",""
"1052.5","198740","HierDypd4gcsk6","sub08","08","7","rl","test","75","img/r_d_diag.png","7","75","pattern,color,shape","104","1",""
"null","199742","HierDypd4gcsk6","sub08","08","7","feedback","test","null","","","na","","104","",""
"1685.7999999821186","201429","HierDypd4gcsk6","sub08","08","7","rl","test","70","img/r_t_check.png","4","70","pattern,color,shape","105","1",""
"null","202431","HierDypd4gcsk6","sub08","08","7","feedback","test","null","","","na","","105","",""
"1048","203480","HierDypd4gcsk6","sub08","08","7","rl","test","74","img/p_t_diag.png","6","74","pattern,color,shape","106","1",""
"null","204482","HierDypd4gcsk6","sub08","08","7","feedback","test","null","","","na","","106","",""
"811.8000000119209","205295","HierDypd4gcsk6","sub08","08","7","rl","test","83","img/p_t_check.png","2","83","pattern,color,shape","107","1",""
"null","206297","HierDypd4gcsk6","sub08","08","7","feedback","test","null","","","na","","107","",""
"691.7000000178814","206990","HierDypd4gcsk6","sub08","08","7","rl","test","65","img/p_d_check.png","1","65","pattern,color,shape","108","1",""
"null","207992","HierDypd4gcsk6","sub08","08","7","feedback","test","null","","","na","","108","",""
"767.2999999821186","208760","HierDypd4gcsk6","sub08","08","7","rl","test","70","img/r_t_check.png","4","70","pattern,color,shape","109","1",""
"null","209762","HierDypd4gcsk6","sub08","08","7","feedback","test","null","","","na","","109","",""
"1155","210918","HierDypd4gcsk6","sub08","08","7","rl","test","72","img/p_d_diag.png","5","72","pattern,color,shape","110","1",""
"null","211919","HierDypd4gcsk6","sub08","08","7","feedback","test","null","","","na","","110","",""
"1233.9000000059605","213155","HierDypd4gcsk6","sub08","08","7","rl","test","76","img/r_t_diag.png","8","76","pattern,color,shape","111","1",""
"null","214156","HierDypd4gcsk6","sub08","08","7","feedback","test","null","","","na","","111","",""
"1508","215665","HierDypd4gcsk6","sub08","08","7","rl","test","68","img/r_d_check.png","3","68","pattern,color,shape","112","1",""
"null","216667","HierDypd4gcsk6","sub08","08","7","feedback","test","null","","","na","","112","",""
"746.9000000059605","217415","HierDypd4gcsk6","sub08","08","7","rl","test","72","img/p_d_diag.png","5","72","pattern,color,shape","113","1",""
"null","218417","HierDypd4gcsk6","sub08","08","7","feedback","test","null","","","na","","113","",""
"932","219350","HierDypd4gcsk6","sub08","08","7","rl","test","68","img/r_d_check.png","3","68","pattern,color,shape","114","1",""
"null","220352","HierDypd4gcsk6","sub08","08","7","feedback","test","null","","","na","","114","",""
"917.4000000059605","221271","HierDypd4gcsk6","sub08","08","7","rl","test","74","img/p_t_diag.png","6","74","pattern,color,shape","115","1",""
"null","222272","HierDypd4gcsk6","sub08","08","7","feedback","test","null","","","na","","115","",""
"751.4000000059605","223025","HierDypd4gcsk6","sub08","08","7","rl","test","76","img/r_t_diag.png","8","76","pattern,color,shape","116","1",""
"null","224027","HierDypd4gcsk6","sub08","08","7","feedback","test","null","","","na","","116","",""
"901.6999999880791","224930","HierDypd4gcsk6","sub08","08","7","rl","test","83","img/p_t_check.png","2","83","pattern,color,shape","117","1",""
"null","225932","HierDypd4gcsk6","sub08","08","7","feedback","test","null","","","na","","117","",""
"1381.699999988079","227315","HierDypd4gcsk6","sub08","08","7","rl","test","75","img/r_d_diag.png","7","75","pattern,color,shape","118","1",""
"null","228317","HierDypd4gcsk6","sub08","08","7","feedback","test","null","","","na","","118","",""
"722","229040","HierDypd4gcsk6","sub08","08","7","rl","test","72","img/p_d_diag.png","5","72","pattern,color,shape","119","1",""
"null","230042","HierDypd4gcsk6","sub08","08","7","feedback","test","null","","","na","","119","",""
"872.0999999940395","230916","HierDypd4gcsk6","sub08","08","7","rl","test","70","img/r_t_check.png","4","70","pattern,color,shape","120","1",""
"null","231917","HierDypd4gcsk6","sub08","08","7","feedback","test","null","","","na","","120","",""
"886.6999999880791","232805","HierDypd4gcsk6","sub08","08","7","rl","test","65","img/p_d_check.png","1","65","pattern,color,shape","121","1",""
"null","233806","HierDypd4gcsk6","sub08","08","7","feedback","test","null","","","na","","121","",""
"767.9000000059605","234575","HierDypd4gcsk6","sub08","08","7","rl","test","65","img/p_d_check.png","1","65","pattern,color,shape","122","1",""
"null","235576","HierDypd4gcsk6","sub08","08","7","feedback","test","null","","","na","","122","",""
"917.6000000238419","236495","HierDypd4gcsk6","sub08","08","7","rl","test","70","img/r_t_check.png","4","70","pattern,color,shape","123","1",""
"null","237497","HierDypd4gcsk6","sub08","08","7","feedback","test","null","","","na","","123","",""
"1038.0999999940395","238537","HierDypd4gcsk6","sub08","08","7","rl","test","76","img/r_t_diag.png","8","76","pattern,color,shape","124","1",""
"null","239538","HierDypd4gcsk6","sub08","08","7","feedback","test","null","","","na","","124","",""
"689","240228","HierDypd4gcsk6","sub08","08","7","rl","test","75","img/r_d_diag.png","7","75","pattern,color,shape","125","1",""
"null","241230","HierDypd4gcsk6","sub08","08","7","feedback","test","null","","","na","","125","",""
"693.8999999761581","241925","HierDypd4gcsk6","sub08","08","7","rl","test","83","img/p_t_check.png","2","83","pattern,color,shape","126","1",""
"null","242927","HierDypd4gcsk6","sub08","08","7","feedback","test","null","","","na","","126","",""
"1246.9000000059605","244175","HierDypd4gcsk6","sub08","08","7","rl","test","74","img/p_t_diag.png","6","74","pattern,color,shape","127","1",""
"null","245176","HierDypd4gcsk6","sub08","08","7","feedback","test","null","","","na","","127","",""
"663.2999999821186","245840","HierDypd4gcsk6","sub08","08","7","rl","test","68","img/r_d_check.png","3","68","pattern,color,shape","128","1",""
"null","246842","HierDypd4gcsk6","sub08","08","7","feedback","test","null","","","na","","128","",""
"632.0999999940395","247475","HierDypd4gcsk6","sub08","08","7","rl","test","68","img/r_d_check.png","3","68","pattern,color,shape","129","1",""
"null","248477","HierDypd4gcsk6","sub08","08","7","feedback","test","null","","","na","","129","",""
"766.6999999880791","249245","HierDypd4gcsk6","sub08","08","7","rl","test","76","img/r_t_diag.png","8","76","pattern,color,shape","130","1",""
"null","250247","HierDypd4gcsk6","sub08","08","7","feedback","test","null","","","na","","130","",""
"1066.5","251315","HierDypd4gcsk6","sub08","08","7","rl","test","74","img/p_t_diag.png","6","74","pattern,color,shape","131","1",""
"null","252317","HierDypd4gcsk6","sub08","08","7","feedback","test","null","","","na","","131","",""
"677","252995","HierDypd4gcsk6","sub08","08","7","rl","test","72","img/p_d_diag.png","5","72","pattern,color,shape","132","1",""
"null","253997","HierDypd4gcsk6","sub08","08","7","feedback","test","null","","","na","","132","",""
"812.2999999821186","254810","HierDypd4gcsk6","sub08","08","7","rl","test","65","img/p_d_check.png","1","65","pattern,color,shape","133","1",""
"null","255812","HierDypd4gcsk6","sub08","08","7","feedback","test","null","","","na","","133","",""
"1096.7000000178814","256910","HierDypd4gcsk6","sub08","08","7","rl","test","75","img/r_d_diag.png","7","75","pattern,color,shape","134","1",""
"null","257912","HierDypd4gcsk6","sub08","08","7","feedback","test","null","","","na","","134","",""
"796.4000000059605","258710","HierDypd4gcsk6","sub08","08","7","rl","test","65","img/p_d_check.png","1","65","pattern,color,shape","135","1",""
"null","259712","HierDypd4gcsk6","sub08","08","7","feedback","test","null","","","na","","135","",""
"705.5","260419","HierDypd4gcsk6","sub08","08","7","rl","test","83","img/p_t_check.png","2","83","pattern,color,shape","136","1",""
"null","261420","HierDypd4gcsk6","sub08","08","7","feedback","test","null","","","na","","136","",""
"664.2000000178814","262085","HierDypd4gcsk6","sub08","08","7","rl","test","70","img/r_t_check.png","4","70","pattern,color,shape","137","1",""
"null","263087","HierDypd4gcsk6","sub08","08","7","feedback","test","null","","","na","","137","",""
"901.9000000059605","263990","HierDypd4gcsk6","sub08","08","7","rl","test","75","img/r_d_diag.png","7","75","pattern,color,shape","138","1",""
"null","264992","HierDypd4gcsk6","sub08","08","7","feedback","test","null","","","na","","138","",""
"1381.699999988079","266375","HierDypd4gcsk6","sub08","08","7","rl","test","70","img/r_t_check.png","4","70","pattern,color,shape","139","1",""
"null","267377","HierDypd4gcsk6","sub08","08","7","feedback","test","null","","","na","","139","",""
"826.8000000119209","268205","HierDypd4gcsk6","sub08","08","7","rl","test","72","img/p_d_diag.png","5","72","pattern,color,shape","140","1",""
"null","269207","HierDypd4gcsk6","sub08","08","7","feedback","test","null","","","na","","140","",""
"1009.6000000238419","270218","HierDypd4gcsk6","sub08","08","7","rl","test","68","img/r_d_check.png","3","68","pattern,color,shape","141","1",""
"null","271220","HierDypd4gcsk6","sub08","08","7","feedback","test","null","","","na","","141","",""
"734.2000000178814","271955","HierDypd4gcsk6","sub08","08","7","rl","test","83","img/p_t_check.png","2","83","pattern,color,shape","142","1",""
"null","272957","HierDypd4gcsk6","sub08","08","7","feedback","test","null","","","na","","142","",""
"660.3999999761581","273619","HierDypd4gcsk6","sub08","08","7","rl","test","76","img/r_t_diag.png","8","76","pattern,color,shape","143","1",""
"null","274620","HierDypd4gcsk6","sub08","08","7","feedback","test","null","","","na","","143","",""
"874.0999999940395","275495","HierDypd4gcsk6","sub08","08","7","rl","test","68","img/r_d_check.png","3","68","pattern,color,shape","144","1",""
"null","276497","HierDypd4gcsk6","sub08","08","7","feedback","test","null","","","na","","144","",""
"1277.300000011921","277775","HierDypd4gcsk6","sub08","08","7","rl","test","75","img/r_d_diag.png","7","75","pattern,color,shape","145","1",""
"null","278777","HierDypd4gcsk6","sub08","08","7","feedback","test","null","","","na","","145","",""
"752.1999999880791","279530","HierDypd4gcsk6","sub08","08","7","rl","test","76","img/p_t_diag.png","6","74","pattern,color,shape","146","0",""
"null","280532","HierDypd4gcsk6","sub08","08","7","feedback","test","null","","","na","","146","",""
"918","281451","HierDypd4gcsk6","sub08","08","7","rl","test","83","img/p_t_check.png","2","83","pattern,color,shape","147","1",""
"null","282453","HierDypd4gcsk6","sub08","08","7","feedback","test","null","","","na","","147","",""
"735.5","283189","HierDypd4gcsk6","sub08","08","7","rl","test","72","img/p_d_diag.png","5","72","pattern,color,shape","148","1",""
"null","284191","HierDypd4gcsk6","sub08","08","7","feedback","test","null","","","na","","148","",""
"468.69999998807907","284661","HierDypd4gcsk6","sub08","08","7","rl","test","74","img/p_t_diag.png","6","74","pattern,color,shape","149","1",""
"null","285663","HierDypd4gcsk6","sub08","08","7","feedback","test","null","","","na","","149","",""
"931.5","286595","HierDypd4gcsk6","sub08","08","7","rl","test","65","img/p_d_check.png","1","65","pattern,color,shape","150","1",""
"null","287597","HierDypd4gcsk6","sub08","08","7","feedback","test","null","","","na","","150","",""
"691.7999999821186","288290","HierDypd4gcsk6","sub08","08","7","rl","test","65","img/p_d_check.png","1","65","pattern,color,shape","151","1",""
"null","289292","HierDypd4gcsk6","sub08","08","7","feedback","test","null","","","na","","151","",""
"631.7000000178814","289925","HierDypd4gcsk6","sub08","08","7","rl","test","76","img/r_t_diag.png","8","76","pattern,color,shape","152","1",""
"null","290927","HierDypd4gcsk6","sub08","08","7","feedback","test","null","","","na","","152","",""
"916.4000000059605","291845","HierDypd4gcsk6","sub08","08","7","rl","test","70","img/r_t_check.png","4","70","pattern,color,shape","153","1",""
"null","292845","HierDypd4gcsk6","sub08","08","7","feedback","test","null","","","na","","153","",""
"1008.9000000059605","293855","HierDypd4gcsk6","sub08","08","7","rl","test","74","img/p_t_diag.png","6","74","pattern,color,shape","154","1",""
"null","294856","HierDypd4gcsk6","sub08","08","7","feedback","test","null","","","na","","154","",""
"678.5","295535","HierDypd4gcsk6","sub08","08","7","rl","test","75","img/r_d_diag.png","7","75","pattern,color,shape","155","1",""
"null","296537","HierDypd4gcsk6","sub08","08","7","feedback","test","null","","","na","","155","",""
"995.3999999761581","297534","HierDypd4gcsk6","sub08","08","7","rl","test","68","img/r_d_check.png","3","68","pattern,color,shape","156","1",""
"null","298536","HierDypd4gcsk6","sub08","08","7","feedback","test","null","","","na","","156","",""
"583.1999999880791","299120","HierDypd4gcsk6","sub08","08","7","rl","test","70","img/r_t_check.png","4","70","pattern,color,shape","157","1",""
"null","300122","HierDypd4gcsk6","sub08","08","7","feedback","test","null","","","na","","157","",""
"1247.0999999940395","301370","HierDypd4gcsk6","sub08","08","7","rl","test","76","img/r_t_diag.png","8","76","pattern,color,shape","158","1",""
"null","302372","HierDypd4gcsk6","sub08","08","7","feedback","test","null","","","na","","158","",""
"827","303201","HierDypd4gcsk6","sub08","08","7","rl","test","72","img/p_d_diag.png","5","72","pattern,color,shape","159","1",""
"null","304203","HierDypd4gcsk6","sub08","08","7","feedback","test","null","","","na","","159","",""
"586.6999999880791","304791","HierDypd4gcsk6","sub08","08","7","rl","test","72","img/p_d_diag.png","5","72","pattern,color,shape","160","1",""
"null","305792","HierDypd4gcsk6","sub08","08","7","feedback","test","null","","","na","","160","",""
"782","306575","HierDypd4gcsk6","sub08","08","7","rl","test","83","img/p_t_check.png","2","83","pattern,color,shape","161","1",""
"null","307577","HierDypd4gcsk6","sub08","08","7","feedback","test","null","","","na","","161","",""
"871.5","308450","HierDypd4gcsk6","sub08","08","7","rl","test","75","img/r_d_diag.png","7","75","pattern,color,shape","162","1",""
"null","309452","HierDypd4gcsk6","sub08","08","7","feedback","test","null","","","na","","162","",""
"871.5999999940395","310325","HierDypd4gcsk6","sub08","08","7","rl","test","83","img/p_t_check.png","2","83","pattern,color,shape","163","1",""
"null","311327","HierDypd4gcsk6","sub08","08","7","feedback","test","null","","","na","","163","",""
"604.5","311933","HierDypd4gcsk6","sub08","08","7","rl","test","68","img/r_d_check.png","3","68","pattern,color,shape","164","1",""
"null","312935","HierDypd4gcsk6","sub08","08","7","feedback","test","null","","","na","","164","",""
"1439.800000011921","314376","HierDypd4gcsk6","sub08","08","7","rl","test","74","img/p_t_diag.png","6","74","pattern,color,shape","165","1",""
"null","315377","HierDypd4gcsk6","sub08","08","7","feedback","test","null","","","na","","165","",""
"737.2999999821186","316116","HierDypd4gcsk6","sub08","08","7","rl","test","65","img/p_d_check.png","1","65","pattern,color,shape","166","1",""
"null","317118","HierDypd4gcsk6","sub08","08","7","feedback","test","null","","","na","","166","",""
"663.0999999940395","317782","HierDypd4gcsk6","sub08","08","7","rl","test","70","img/r_t_check.png","4","70","pattern,color,shape","167","1",""
"null","318784","HierDypd4gcsk6","sub08","08","7","feedback","test","null","","","na","","167","",""
"647.2000000178814","319433","HierDypd4gcsk6","sub08","08","7","rl","test","70","img/r_t_check.png","4","70","pattern,color,shape","168","1",""
"null","320435","HierDypd4gcsk6","sub08","08","7","feedback","test","null","","","na","","168","",""
"1304.4000000059605","321740","HierDypd4gcsk6","sub08","08","7","rl","test","76","img/r_t_diag.png","8","76","pattern,color,shape","169","1",""
"null","322742","HierDypd4gcsk6","sub08","08","7","feedback","test","null","","","na","","169","",""
"706.8000000119209","323450","HierDypd4gcsk6","sub08","08","7","rl","test","83","img/p_t_check.png","2","83","pattern,color,shape","170","1",""
"null","324452","HierDypd4gcsk6","sub08","08","7","feedback","test","null","","","na","","170","",""
"1187.2999999821186","325640","HierDypd4gcsk6","sub08","08","7","rl","test","74","img/p_t_diag.png","6","74","pattern,color,shape","171","1",""
"null","326642","HierDypd4gcsk6","sub08","08","7","feedback","test","null","","","na","","171","",""
"616.6999999880791","327261","HierDypd4gcsk6","sub08","08","7","rl","test","76","img/r_t_diag.png","8","76","pattern,color,shape","172","1",""
"null","328262","HierDypd4gcsk6","sub08","08","7","feedback","test","null","","","na","","172","",""
"902","329165","HierDypd4gcsk6","sub08","08","7","rl","test","72","img/p_d_diag.png","5","72","pattern,color,shape","173","1",""
"null","330167","HierDypd4gcsk6","sub08","08","7","feedback","test","null","","","na","","173","",""
"722.5","330891","HierDypd4gcsk6","sub08","08","7","rl","test","76","img/r_d_diag.png","7","75","pattern,color,shape","174","0",""
"null","331893","HierDypd4gcsk6","sub08","08","7","feedback","test","null","","","na","","174","",""
"646.5999999940395","332540","HierDypd4gcsk6","sub08","08","7","rl","test","65","img/p_d_check.png","1","65","pattern,color,shape","175","1",""
"null","333542","HierDypd4gcsk6","sub08","08","7","feedback","test","null","","","na","","175","",""
"null","336044","HierDypd4gcsk6","sub08","08","7","rl","test","null","img/p_t_diag.png","6","74","pattern,color,shape","176","0",""
"null","337045","HierDypd4gcsk6","sub08","08","7","feedback","test","null","","","na","","176","",""
"788.9000000059605","337836","HierDypd4gcsk6","sub08","08","7","rl","test","65","img/p_d_check.png","1","65","pattern,color,shape","177","1",""
"null","338837","HierDypd4gcsk6","sub08","08","7","feedback","test","null","","","na","","177","",""
"931.5","339770","HierDypd4gcsk6","sub08","08","7","rl","test","75","img/r_d_diag.png","7","75","pattern,color,shape","178","1",""
"null","340772","HierDypd4gcsk6","sub08","08","7","feedback","test","null","","","na","","178","",""
"962.4000000059605","341736","HierDypd4gcsk6","sub08","08","7","rl","test","68","img/r_d_check.png","3","68","pattern,color,shape","179","1",""
"null","342738","HierDypd4gcsk6","sub08","08","7","feedback","test","null","","","na","","179","",""
"675.7000000178814","343415","HierDypd4gcsk6","sub08","08","7","rl","test","83","img/p_t_check.png","2","83","pattern,color,shape","180","1",""
"null","344417","HierDypd4gcsk6","sub08","08","7","feedback","test","null","","","na","","180","",""
"663.5999999940395","345081","HierDypd4gcsk6","sub08","08","7","rl","test","70","img/r_t_check.png","4","70","pattern,color,shape","181","1",""
"null","346083","HierDypd4gcsk6","sub08","08","7","feedback","test","null","","","na","","181","",""
"1051.800000011921","347136","HierDypd4gcsk6","sub08","08","7","rl","test","72","img/p_d_diag.png","5","72","pattern,color,shape","182","1",""
"null","348138","HierDypd4gcsk6","sub08","08","7","feedback","test","null","","","na","","182","",""
"692.0999999940395","348831","HierDypd4gcsk6","sub08","08","7","rl","test","75","img/r_d_check.png","3","68","pattern,color,shape","183","0",""
"null","349833","HierDypd4gcsk6","sub08","08","7","feedback","test","null","","","na","","183","",""
"1113.300000011921","350948","HierDypd4gcsk6","sub08","08","7","rl","test","76","img/r_t_diag.png","8","76","pattern,color,shape","184","1",""
"null","351949","HierDypd4gcsk6","sub08","08","7","feedback","test","null","","","na","","184","",""
"570.3000000119209","352521","HierDypd4gcsk6","sub08","08","7","rl","test","76","img/r_t_diag.png","8","76","pattern,color,shape","185","1",""
"null","353523","HierDypd4gcsk6","sub08","08","7","feedback","test","null","","","na","","185","",""
"991.0999999940395","354515","HierDypd4gcsk6","sub08","08","7","rl","test","83","img/p_t_check.png","2","83","pattern,color,shape","186","1",""
"null","355516","HierDypd4gcsk6","sub08","08","7","feedback","test","null","","","na","","186","",""
"769.6000000238419","356286","HierDypd4gcsk6","sub08","08","7","rl","test","72","img/p_d_diag.png","5","72","pattern,color,shape","187","1",""
"null","357288","HierDypd4gcsk6","sub08","08","7","feedback","test","null","","","na","","187","",""
"1007.7000000178814","358297","HierDypd4gcsk6","sub08","08","7","rl","test","70","img/r_t_check.png","4","70","pattern,color,shape","188","1",""
"null","359299","HierDypd4gcsk6","sub08","08","7","feedback","test","null","","","na","","188","",""
"1064.7000000178814","360365","HierDypd4gcsk6","sub08","08","7","rl","test","72","img/p_d_diag.png","5","72","pattern,color,shape","189","1",""
"null","361367","HierDypd4gcsk6","sub08","08","7","feedback","test","null","","","na","","189","",""
"932.2999999821186","362301","HierDypd4gcsk6","sub08","08","7","rl","test","74","img/p_t_diag.png","6","74","pattern,color,shape","190","1",""
"null","363302","HierDypd4gcsk6","sub08","08","7","feedback","test","null","","","na","","190","",""
"917.0999999940395","364221","HierDypd4gcsk6","sub08","08","7","rl","test","68","img/r_d_check.png","3","68","pattern,color,shape","191","1",""
"null","365222","HierDypd4gcsk6","sub08","08","7","feedback","test","null","","","na","","191","",""
"1247.5999999940395","366471","HierDypd4gcsk6","sub08","08","7","rl","test","65","img/p_d_check.png","1","65","pattern,color,shape","192","1",""
"null","367473","HierDypd4gcsk6","sub08","08","7","feedback","test","null","","","na","","192","",""
"2046.800000011921","369521","HierDypd4gcsk6","sub08","08","7","rl","test","75","img/r_d_diag.png","7","75","pattern,color,shape","193","1",""
"null","370522","HierDypd4gcsk6","sub08","08","7","feedback","test","null","","","na","","193","",""
"1545.199999988079","372069","HierDypd4gcsk6","sub08","08","7","rl","test","65","img/r_d_check.png","3","68","pattern,color,shape","194","0",""
"null","373071","HierDypd4gcsk6","sub08","08","7","feedback","test","null","","","na","","194","",""
"568.5","373641","HierDypd4gcsk6","sub08","08","7","rl","test","65","img/p_d_check.png","1","65","pattern,color,shape","195","1",""
"null","374642","HierDypd4gcsk6","sub08","08","7","feedback","test","null","","","na","","195","",""
"992","375636","HierDypd4gcsk6","sub08","08","7","rl","test","74","img/p_t_diag.png","6","74","pattern,color,shape","196","1",""
"null","376638","HierDypd4gcsk6","sub08","08","7","feedback","test","null","","","na","","196","",""
"796.5","377436","HierDypd4gcsk6","sub08","08","7","rl","test","76","img/r_t_diag.png","8","76","pattern,color,shape","197","1",""
"null","378438","HierDypd4gcsk6","sub08","08","7","feedback","test","null","","","na","","197","",""
"739.5","379178","HierDypd4gcsk6","sub08","08","7","rl","test","68","img/r_t_check.png","4","70","pattern,color,shape","198","0",""
"null","380179","HierDypd4gcsk6","sub08","08","7","feedback","test","null","","","na","","198","",""
"735.4000000059605","380916","HierDypd4gcsk6","sub08","08","7","rl","test","83","img/p_t_check.png","2","83","pattern,color,shape","199","1",""
"null","381917","HierDypd4gcsk6","sub08","08","7","feedback","test","null","","","na","","199","",""
"962","382881","HierDypd4gcsk6","sub08","08","7","rl","test","75","img/r_d_diag.png","7","75","pattern,color,shape","200","1",""
"null","383883","HierDypd4gcsk6","sub08","08","7","feedback","test","null","","","na","","200","",""
"1006.1999999880791","384890","HierDypd4gcsk6","sub08","08","7","rl","test","70","img/p_t_check.png","2","83","pattern,color,shape","201","0",""
"null","385891","HierDypd4gcsk6","sub08","08","7","feedback","test","null","","","na","","201","",""
"498.59999999403954","386391","HierDypd4gcsk6","sub08","08","7","rl","test","70","img/r_t_check.png","4","70","pattern,color,shape","202","1",""
"null","387393","HierDypd4gcsk6","sub08","08","7","feedback","test","null","","","na","","202","",""
"541.5","387936","HierDypd4gcsk6","sub08","08","7","rl","test","68","img/r_d_check.png","3","68","pattern,color,shape","203","1",""
"null","388938","HierDypd4gcsk6","sub08","08","7","feedback","test","null","","","na","","203","",""
"873.2999999821186","389812","HierDypd4gcsk6","sub08","08","7","rl","test","72","img/p_d_diag.png","5","72","pattern,color,shape","204","1",""
"null","390814","HierDypd4gcsk6","sub08","08","7","feedback","test","null","","","na","","204","",""
"963.6999999880791","391779","HierDypd4gcsk6","sub08","08","7","rl","test","76","img/r_t_diag.png","8","76","pattern,color,shape","205","1",""
"null","392781","HierDypd4gcsk6","sub08","08","7","feedback","test","null","","","na","","205","",""
"674.0999999940395","393456","HierDypd4gcsk6","sub08","08","7","rl","test","65","img/p_d_check.png","1","65","pattern,color,shape","206","1",""
"null","394458","HierDypd4gcsk6","sub08","08","7","feedback","test","null","","","na","","206","",""
"619.4000000059605","395079","HierDypd4gcsk6","sub08","08","7","rl","test","70","img/r_t_check.png","4","70","pattern,color,shape","207","1",""
"null","396081","HierDypd4gcsk6","sub08","08","7","feedback","test","null","","","na","","207","",""
"854.0999999940395","396936","HierDypd4gcsk6","sub08","08","7","rl","test","75","img/r_d_diag.png","7","75","pattern,color,shape","208","1",""
"null","397938","HierDypd4gcsk6","sub08","08","7","feedback","test","null","","","na","","208","",""
"588.0999999940395","398528","HierDypd4gcsk6","sub08","08","7","rl","test","75","img/r_d_diag.png","7","75","pattern,color,shape","209","1",""
"null","399530","HierDypd4gcsk6","sub08","08","7","feedback","test","null","","","na","","209","",""
"1124.5","400656","HierDypd4gcsk6","sub08","08","7","rl","test","74","img/p_t_diag.png","6","74","pattern,color,shape","210","1",""
"null","401658","HierDypd4gcsk6","sub08","08","7","feedback","test","null","","","na","","210","",""
"631.7000000178814","402291","HierDypd4gcsk6","sub08","08","7","rl","test","74","img/p_t_diag.png","6","74","pattern,color,shape","211","1",""
"null","403292","HierDypd4gcsk6","sub08","08","7","feedback","test","null","","","na","","211","",""
"722.0999999940395","404016","HierDypd4gcsk6","sub08","08","7","rl","test","76","img/r_t_diag.png","8","76","pattern,color,shape","212","1",""
"null","405018","HierDypd4gcsk6","sub08","08","7","feedback","test","null","","","na","","212","",""
"1141.9000000059605","406162","HierDypd4gcsk6","sub08","08","7","rl","test","68","img/r_d_check.png","3","68","pattern,color,shape","213","1",""
"null","407163","HierDypd4gcsk6","sub08","08","7","feedback","test","null","","","na","","213","",""
"722.4000000059605","407886","HierDypd4gcsk6","sub08","08","7","rl","test","83","img/p_t_check.png","2","83","pattern,color,shape","214","1",""
"null","408888","HierDypd4gcsk6","sub08","08","7","feedback","test","null","","","na","","214","",""
"826.3999999761581","409716","HierDypd4gcsk6","sub08","08","7","rl","test","72","img/p_d_diag.png","5","72","pattern,color,shape","215","1",""
"null","410718","HierDypd4gcsk6","sub08","08","7","feedback","test","null","","","na","","215","",""
"631.4000000059605","411351","HierDypd4gcsk6","sub08","08","7","rl","test","76","img/r_t_diag.png","8","76","pattern,color,shape","216","1",""
"null","412353","HierDypd4gcsk6","sub08","08","7","feedback","test","null","","","na","","216","",""
"751.1999999880791","413106","HierDypd4gcsk6","sub08","08","7","rl","test","72","img/p_d_diag.png","5","72","pattern,color,shape","217","1",""
"null","414107","HierDypd4gcsk6","sub08","08","7","feedback","test","null","","","na","","217","",""
"856.5999999940395","414964","HierDypd4gcsk6","sub08","08","7","rl","test","65","img/p_d_check.png","1","65","pattern,color,shape","218","1",""
"null","415965","HierDypd4gcsk6","sub08","08","7","feedback","test","null","","","na","","218","",""
"634.5","416601","HierDypd4gcsk6","sub08","08","7","rl","test","68","img/r_d_check.png","3","68","pattern,color,shape","219","1",""
"null","417603","HierDypd4gcsk6","sub08","08","7","feedback","test","null","","","na","","219","",""
"1490.5","419095","HierDypd4gcsk6","sub08","08","7","rl","test","74","img/p_t_diag.png","6","74","pattern,color,shape","220","1",""
"null","420096","HierDypd4gcsk6","sub08","08","7","feedback","test","null","","","na","","220","",""
"1258.5999999940395","421356","HierDypd4gcsk6","sub08","08","7","rl","test","70","img/r_t_check.png","4","70","pattern,color,shape","221","1",""
"null","422358","HierDypd4gcsk6","sub08","08","7","feedback","test","null","","","na","","221","",""
"736.9000000059605","423096","HierDypd4gcsk6","sub08","08","7","rl","test","75","img/r_d_diag.png","7","75","pattern,color,shape","222","1",""
"null","424097","HierDypd4gcsk6","sub08","08","7","feedback","test","null","","","na","","222","",""
"647.8000000119209","424746","HierDypd4gcsk6","sub08","08","7","rl","test","65","img/p_d_check.png","1","65","pattern,color,shape","223","1",""
"null","425748","HierDypd4gcsk6","sub08","08","7","feedback","test","null","","","na","","223","",""
"616.4000000059605","426366","HierDypd4gcsk6","sub08","08","7","rl","test","70","img/r_t_check.png","4","70","pattern,color,shape","224","1",""
"null","427368","HierDypd4gcsk6","sub08","08","7","feedback","test","null","","","na","","224","",""
"647","428016","HierDypd4gcsk6","sub08","08","7","rl","test","83","img/p_t_check.png","2","83","pattern,color,shape","225","1",""
"null","429018","HierDypd4gcsk6","sub08","08","7","feedback","test","null","","","na","","225","",""
"1457.5","430477","HierDypd4gcsk6","sub08","08","7","rl","test","76","img/r_t_diag.png","8","76","pattern,color,shape","226","1",""
"null","431479","HierDypd4gcsk6","sub08","08","7","feedback","test","null","","","na","","226","",""
"840.7999999821186","432321","HierDypd4gcsk6","sub08","08","7","rl","test","83","img/p_t_check.png","2","83","pattern,color,shape","227","1",""
"null","433323","HierDypd4gcsk6","sub08","08","7","feedback","test","null","","","na","","227","",""
"707","434031","HierDypd4gcsk6","sub08","08","7","rl","test","68","img/r_d_check.png","3","68","pattern,color,shape","228","1",""
"null","435033","HierDypd4gcsk6","sub08","08","7","feedback","test","null","","","na","","228","",""
"631.5","435666","HierDypd4gcsk6","sub08","08","7","rl","test","72","img/p_d_diag.png","5","72","pattern,color,shape","229","1",""
"null","436669","HierDypd4gcsk6","sub08","08","7","feedback","test","null","","","na","","229","",""
"720.8000000119209","437391","HierDypd4gcsk6","sub08","08","7","rl","test","65","img/p_d_check.png","1","65","pattern,color,shape","230","1",""
"null","438393","HierDypd4gcsk6","sub08","08","7","feedback","test","null","","","na","","230","",""
"587","438981","HierDypd4gcsk6","sub08","08","7","rl","test","65","img/p_d_check.png","1","65","pattern,color,shape","231","1",""
"null","439983","HierDypd4gcsk6","sub08","08","7","feedback","test","null","","","na","","231","",""
"1052.0999999940395","441037","HierDypd4gcsk6","sub08","08","7","rl","test","75","img/r_d_diag.png","7","75","pattern,color,shape","232","1",""
"null","442038","HierDypd4gcsk6","sub08","08","7","feedback","test","null","","","na","","232","",""
"736.6999999880791","442776","HierDypd4gcsk6","sub08","08","7","rl","test","72","img/p_d_diag.png","5","72","pattern,color,shape","233","1",""
"null","443778","HierDypd4gcsk6","sub08","08","7","feedback","test","null","","","na","","233","",""
"616.2000000178814","444396","HierDypd4gcsk6","sub08","08","7","rl","test","74","img/p_t_diag.png","6","74","pattern,color,shape","234","1",""
"null","445398","HierDypd4gcsk6","sub08","08","7","feedback","test","null","","","na","","234","",""
"1036.9000000059605","446436","HierDypd4gcsk6","sub08","08","7","rl","test","83","img/p_t_check.png","2","83","pattern,color,shape","235","1",""
"null","447438","HierDypd4gcsk6","sub08","08","7","feedback","test","null","","","na","","235","",""
"1141.4000000059605","448580","HierDypd4gcsk6","sub08","08","7","rl","test","75","img/r_d_diag.png","7","75","pattern,color,shape","236","1",""
"null","449582","HierDypd4gcsk6","sub08","08","7","feedback","test","null","","","na","","236","",""
"678.4000000059605","450261","HierDypd4gcsk6","sub08","08","7","rl","test","76","img/p_t_diag.png","6","74","pattern,color,shape","237","0",""
"null","451263","HierDypd4gcsk6","sub08","08","7","feedback","test","null","","","na","","237","",""
"646.6999999880791","451911","HierDypd4gcsk6","sub08","08","7","rl","test","72","img/p_d_diag.png","5","72","pattern,color,shape","238","1",""
"null","452913","HierDypd4gcsk6","sub08","08","7","feedback","test","null","","","na","","238","",""
"1156.5999999940395","454071","HierDypd4gcsk6","sub08","08","7","rl","test","70","img/r_t_check.png","4","70","pattern,color,shape","239","1",""
"null","455073","HierDypd4gcsk6","sub08","08","7","feedback","test","null","","","na","","239","",""
"796.5","455871","HierDypd4gcsk6","sub08","08","7","rl","test","68","img/r_d_check.png","3","68","pattern,color,shape","240","1",""
"null","456873","HierDypd4gcsk6","sub08","08","7","feedback","test","null","","","na","","240","",""
"901.8000000119209","457776","HierDypd4gcsk6","sub08","08","7","rl","test","76","img/r_t_diag.png","8","76","pattern,color,shape","241","1",""
"null","458778","HierDypd4gcsk6","sub08","08","7","feedback","test","null","","","na","","241","",""
"692.1999999880791","459472","HierDypd4gcsk6","sub08","08","7","rl","test","74","img/r_d_diag.png","7","75","pattern,color,shape","242","0",""
"null","460473","HierDypd4gcsk6","sub08","08","7","feedback","test","null","","","na","","242","",""
"1141.800000011921","461616","HierDypd4gcsk6","sub08","08","7","rl","test","68","img/r_d_check.png","3","68","pattern,color,shape","243","1",""
"null","462619","HierDypd4gcsk6","sub08","08","7","feedback","test","null","","","na","","243","",""
"1124.9000000059605","463744","HierDypd4gcsk6","sub08","08","7","rl","test","74","img/p_t_diag.png","6","74","pattern,color,shape","244","1",""
"null","464746","HierDypd4gcsk6","sub08","08","7","feedback","test","null","","","na","","244","",""
"845.0999999940395","465592","HierDypd4gcsk6","sub08","08","7","rl","test","70","img/r_t_check.png","4","70","pattern,color,shape","245","1",""
"null","466593","HierDypd4gcsk6","sub08","08","7","feedback","test","null","","","na","","245","",""
"631.5999999940395","467226","HierDypd4gcsk6","sub08","08","7","rl","test","65","img/p_d_check.png","1","65","pattern,color,shape","246","1",""
"null","468228","HierDypd4gcsk6","sub08","08","7","feedback","test","null","","","na","","246","",""
"1655.699999988079","469885","HierDypd4gcsk6","sub08","08","7","rl","test","72","img/p_d_diag.png","5","72","pattern,color,shape","247","1",""
"null","470887","HierDypd4gcsk6","sub08","08","7","feedback","test","null","","","na","","247","",""
"927.4000000059605","471815","HierDypd4gcsk6","sub08","08","7","rl","test","83","img/p_t_check.png","2","83","pattern,color,shape","248","1",""
"null","472816","HierDypd4gcsk6","sub08","08","7","feedback","test","null","","","na","","248","",""
"4142.5","476961","HierDypd4gcsk6","sub08","08","7","","","","","","","","","","{""Q0"":""5""}"
"32383.20000001788","509349","HierDypd4gcsk6","sub08","08","7","","","","","","","","","","{""Q0"":""Same as yesterday -- tried to remember the associations with my fingers and then follow the idea that purple is to the left and red to the right etc.""}"
"1530.5","510880","HierDypd4gcsk6","sub08","08","7","","","","","","","","","",""
