"rt","time_elapsed","subject","subID","group","day","trialType","phase","key_press","stim","stimNum","corrresp","hierarchy","trialNum","corr","responses"
"4179","4181","HierDyx1538o0t","sub08","08","6","","","","","","","","","",""
"","727016","HierDyx1538o0t","sub08","08","6","fullscreen","","","","","","","","",""
"2181.300000190735","729198","HierDyx1538o0t","sub08","08","6","","prac","","","","","","","",""
"2316","731517","HierDyx1538o0t","sub08","08","6","","","32","","","","","","",""
"727.6000003814697","732246","HierDyx1538o0t","sub08","08","6","","prac","","","","","","","",""
"738.5999999046326","732987","HierDyx1538o0t","sub08","08","6","rl","test","72","img/p_d_diag.png","5","72","pattern,color,shape","1","1",""
"null","733999","HierDyx1538o0t","sub08","08","6","feedback","test","null","","","na","","1","",""
"725.6999998092651","734727","HierDyx1538o0t","sub08","08","6","rl","test","65","img/p_d_check.png","1","65","pattern,color,shape","2","1",""
"null","735736","HierDyx1538o0t","sub08","08","6","feedback","test","null","","","na","","2","",""
"928.9000000953674","736666","HierDyx1538o0t","sub08","08","6","rl","test","70","img/r_t_check.png","4","70","pattern,color,shape","3","1",""
"null","737681","HierDyx1538o0t","sub08","08","6","feedback","test","null","","","na","","3","",""
"1164.3000001907349","738847","HierDyx1538o0t","sub08","08","6","rl","test","74","img/p_t_diag.png","6","74","pattern,color,shape","4","1",""
"null","739859","HierDyx1538o0t","sub08","08","6","feedback","test","null","","","na","","4","",""
"846.5999999046326","740707","HierDyx1538o0t","sub08","08","6","rl","test","68","img/r_d_check.png","3","68","pattern,color,shape","5","1",""
"null","741720","HierDyx1538o0t","sub08","08","6","feedback","test","null","","","na","","5","",""
"745.7999997138977","742467","HierDyx1538o0t","sub08","08","6","rl","test","83","img/p_t_check.png","2","83","pattern,color,shape","6","1",""
"null","743472","HierDyx1538o0t","sub08","08","6","feedback","test","null","","","na","","6","",""
"1703.3000001907349","745176","HierDyx1538o0t","sub08","08","6","rl","test","75","img/r_d_diag.png","7","75","pattern,color,shape","7","1",""
"null","746188","HierDyx1538o0t","sub08","08","6","feedback","test","null","","","na","","7","",""
"996.7999997138977","747186","HierDyx1538o0t","sub08","08","6","rl","test","68","img/r_d_check.png","3","68","pattern,color,shape","8","1",""
"null","748200","HierDyx1538o0t","sub08","08","6","feedback","test","null","","","na","","8","",""
"1045.5999999046326","749246","HierDyx1538o0t","sub08","08","6","rl","test","76","img/r_t_diag.png","8","76","pattern,color,shape","9","1",""
"null","750255","HierDyx1538o0t","sub08","08","6","feedback","test","null","","","na","","9","",""
"579.8000001907349","750836","HierDyx1538o0t","sub08","08","6","rl","test","76","img/r_t_diag.png","8","76","pattern,color,shape","10","1",""
"null","751860","HierDyx1538o0t","sub08","08","6","feedback","test","null","","","na","","10","",""
"645.5999999046326","752507","HierDyx1538o0t","sub08","08","6","rl","test","83","img/p_t_check.png","2","83","pattern,color,shape","11","1",""
"null","753521","HierDyx1538o0t","sub08","08","6","feedback","test","null","","","na","","11","",""
"754.1999998092651","754277","HierDyx1538o0t","sub08","08","6","rl","test","72","img/p_d_diag.png","5","72","pattern,color,shape","12","1",""
"null","755283","HierDyx1538o0t","sub08","08","6","feedback","test","null","","","na","","12","",""
"732.1999998092651","756017","HierDyx1538o0t","sub08","08","6","rl","test","75","img/r_d_diag.png","7","75","pattern,color,shape","13","1",""
"null","757024","HierDyx1538o0t","sub08","08","6","feedback","test","null","","","na","","13","",""
"861.4000000953674","757887","HierDyx1538o0t","sub08","08","6","rl","test","74","img/p_t_diag.png","6","74","pattern,color,shape","14","1",""
"null","758908","HierDyx1538o0t","sub08","08","6","feedback","test","null","","","na","","14","",""
"796.9000000953674","759707","HierDyx1538o0t","sub08","08","6","rl","test","65","img/p_d_check.png","1","65","pattern,color,shape","15","1",""
"null","760714","HierDyx1538o0t","sub08","08","6","feedback","test","null","","","na","","15","",""
"721.8000001907349","761437","HierDyx1538o0t","sub08","08","6","rl","test","70","img/r_t_check.png","4","70","pattern,color,shape","16","1",""
"null","762459","HierDyx1538o0t","sub08","08","6","feedback","test","null","","","na","","16","",""
"617","763077","HierDyx1538o0t","sub08","08","6","rl","test","76","img/r_t_diag.png","8","76","pattern,color,shape","17","1",""
"null","764089","HierDyx1538o0t","sub08","08","6","feedback","test","null","","","na","","17","",""
"1726.8000001907349","765817","HierDyx1538o0t","sub08","08","6","rl","test","70","img/r_t_check.png","4","70","pattern,color,shape","18","1",""
"null","766823","HierDyx1538o0t","sub08","08","6","feedback","test","null","","","na","","18","",""
"562.6000003814697","767387","HierDyx1538o0t","sub08","08","6","rl","test","83","img/p_t_check.png","2","83","pattern,color,shape","19","1",""
"null","768393","HierDyx1538o0t","sub08","08","6","feedback","test","null","","","na","","19","",""
"812.5","769206","HierDyx1538o0t","sub08","08","6","rl","test","65","img/p_d_check.png","1","65","pattern,color,shape","20","1",""
"null","770227","HierDyx1538o0t","sub08","08","6","feedback","test","null","","","na","","20","",""
"728.4000000953674","770957","HierDyx1538o0t","sub08","08","6","rl","test","68","img/r_d_check.png","3","68","pattern,color,shape","21","1",""
"null","771981","HierDyx1538o0t","sub08","08","6","feedback","test","null","","","na","","21","",""
"553.9000000953674","772536","HierDyx1538o0t","sub08","08","6","rl","test","65","img/p_d_check.png","1","65","pattern,color,shape","22","1",""
"null","773546","HierDyx1538o0t","sub08","08","6","feedback","test","null","","","na","","22","",""
"1830.1000003814697","775377","HierDyx1538o0t","sub08","08","6","rl","test","72","img/p_d_diag.png","5","72","pattern,color,shape","23","1",""
"null","776387","HierDyx1538o0t","sub08","08","6","feedback","test","null","","","na","","23","",""
"858.5999999046326","777247","HierDyx1538o0t","sub08","08","6","rl","test","68","img/r_d_check.png","3","68","pattern,color,shape","24","1",""
"null","778268","HierDyx1538o0t","sub08","08","6","feedback","test","null","","","na","","24","",""
"1267.1999998092651","779537","HierDyx1538o0t","sub08","08","6","rl","test","75","img/r_d_diag.png","7","75","pattern,color,shape","25","1",""
"null","780545","HierDyx1538o0t","sub08","08","6","feedback","test","null","","","na","","25","",""
"530.1999998092651","781076","HierDyx1538o0t","sub08","08","6","rl","test","75","img/r_d_diag.png","7","75","pattern,color,shape","26","1",""
"null","782097","HierDyx1538o0t","sub08","08","6","feedback","test","null","","","na","","26","",""
"548.3000001907349","782647","HierDyx1538o0t","sub08","08","6","rl","test","72","img/p_d_diag.png","5","72","pattern,color,shape","27","1",""
"null","783655","HierDyx1538o0t","sub08","08","6","feedback","test","null","","","na","","27","",""
"590","784247","HierDyx1538o0t","sub08","08","6","rl","test","74","img/p_t_diag.png","6","74","pattern,color,shape","28","1",""
"null","785268","HierDyx1538o0t","sub08","08","6","feedback","test","null","","","na","","28","",""
"797.6000003814697","786067","HierDyx1538o0t","sub08","08","6","rl","test","74","img/p_t_diag.png","6","74","pattern,color,shape","29","1",""
"null","787073","HierDyx1538o0t","sub08","08","6","feedback","test","null","","","na","","29","",""
"812.7999997138977","787887","HierDyx1538o0t","sub08","08","6","rl","test","70","img/r_t_check.png","4","70","pattern,color,shape","30","1",""
"null","788897","HierDyx1538o0t","sub08","08","6","feedback","test","null","","","na","","30","",""
"648.5","789547","HierDyx1538o0t","sub08","08","6","rl","test","76","img/r_t_diag.png","8","76","pattern,color,shape","31","1",""
"null","790554","HierDyx1538o0t","sub08","08","6","feedback","test","null","","","na","","31","",""
"611.3999996185303","791167","HierDyx1538o0t","sub08","08","6","rl","test","70","img/r_t_check.png","4","70","pattern,color,shape","32","1",""
"null","792173","HierDyx1538o0t","sub08","08","6","feedback","test","null","","","na","","32","",""
"633.0999999046326","792808","HierDyx1538o0t","sub08","08","6","rl","test","83","img/p_t_check.png","2","83","pattern,color,shape","33","1",""
"null","793823","HierDyx1538o0t","sub08","08","6","feedback","test","null","","","na","","33","",""
"1502.0999999046326","795327","HierDyx1538o0t","sub08","08","6","rl","test","74","img/p_t_diag.png","6","74","pattern,color,shape","34","1",""
"null","796331","HierDyx1538o0t","sub08","08","6","feedback","test","null","","","na","","34","",""
"734.4000000953674","797067","HierDyx1538o0t","sub08","08","6","rl","test","75","img/r_d_diag.png","7","75","pattern,color,shape","35","1",""
"null","798081","HierDyx1538o0t","sub08","08","6","feedback","test","null","","","na","","35","",""
"1374.1999998092651","799457","HierDyx1538o0t","sub08","08","6","rl","test","83","img/p_t_check.png","2","83","pattern,color,shape","36","1",""
"null","800464","HierDyx1538o0t","sub08","08","6","feedback","test","null","","","na","","36","",""
"661.6999998092651","801127","HierDyx1538o0t","sub08","08","6","rl","test","65","img/p_d_check.png","1","65","pattern,color,shape","37","1",""
"null","802133","HierDyx1538o0t","sub08","08","6","feedback","test","null","","","na","","37","",""
"1062.5","803197","HierDyx1538o0t","sub08","08","6","rl","test","72","img/p_d_diag.png","5","72","pattern,color,shape","38","1",""
"null","804213","HierDyx1538o0t","sub08","08","6","feedback","test","null","","","na","","38","",""
"932.5999999046326","805147","HierDyx1538o0t","sub08","08","6","rl","test","68","img/r_d_check.png","3","68","pattern,color,shape","39","1",""
"null","806154","HierDyx1538o0t","sub08","08","6","feedback","test","null","","","na","","39","",""
"661.1999998092651","806817","HierDyx1538o0t","sub08","08","6","rl","test","70","img/r_t_check.png","4","70","pattern,color,shape","40","1",""
"null","807827","HierDyx1538o0t","sub08","08","6","feedback","test","null","","","na","","40","",""
"709","808537","HierDyx1538o0t","sub08","08","6","rl","test","76","img/r_t_diag.png","8","76","pattern,color,shape","41","1",""
"null","809548","HierDyx1538o0t","sub08","08","6","feedback","test","null","","","na","","41","",""
"708","810257","HierDyx1538o0t","sub08","08","6","rl","test","75","img/r_d_diag.png","7","75","pattern,color,shape","42","1",""
"null","811264","HierDyx1538o0t","sub08","08","6","feedback","test","null","","","na","","42","",""
"571.4000000953674","811837","HierDyx1538o0t","sub08","08","6","rl","test","65","img/p_d_check.png","1","65","pattern,color,shape","43","1",""
"null","812858","HierDyx1538o0t","sub08","08","6","feedback","test","null","","","na","","43","",""
"687","813547","HierDyx1538o0t","sub08","08","6","rl","test","70","img/r_t_check.png","4","70","pattern,color,shape","44","1",""
"null","814549","HierDyx1538o0t","sub08","08","6","feedback","test","null","","","na","","44","",""
"696.8000001907349","815247","HierDyx1538o0t","sub08","08","6","rl","test","83","img/p_t_check.png","2","83","pattern,color,shape","45","1",""
"null","816254","HierDyx1538o0t","sub08","08","6","feedback","test","null","","","na","","45","",""
"722.0999999046326","816977","HierDyx1538o0t","sub08","08","6","rl","test","68","img/r_d_check.png","3","68","pattern,color,shape","46","1",""
"null","817984","HierDyx1538o0t","sub08","08","6","feedback","test","null","","","na","","46","",""
"851.6000003814697","818837","HierDyx1538o0t","sub08","08","6","rl","test","76","img/r_t_diag.png","8","76","pattern,color,shape","47","1",""
"null","819858","HierDyx1538o0t","sub08","08","6","feedback","test","null","","","na","","47","",""
"747.0999999046326","820606","HierDyx1538o0t","sub08","08","6","rl","test","72","img/p_d_diag.png","5","72","pattern,color,shape","48","1",""
"null","821613","HierDyx1538o0t","sub08","08","6","feedback","test","null","","","na","","48","",""
"601.8000001907349","822216","HierDyx1538o0t","sub08","08","6","rl","test","74","img/p_t_diag.png","6","74","pattern,color,shape","49","1",""
"null","823222","HierDyx1538o0t","sub08","08","6","feedback","test","null","","","na","","49","",""
"563.6999998092651","823787","HierDyx1538o0t","sub08","08","6","rl","test","75","img/r_t_diag.png","8","76","pattern,color,shape","50","0",""
"null","824801","HierDyx1538o0t","sub08","08","6","feedback","test","null","","","na","","50","",""
"724.6999998092651","825527","HierDyx1538o0t","sub08","08","6","rl","test","65","img/p_d_check.png","1","65","pattern,color,shape","51","1",""
"null","826533","HierDyx1538o0t","sub08","08","6","feedback","test","null","","","na","","51","",""
"1182.4000000953674","827717","HierDyx1538o0t","sub08","08","6","rl","test","72","img/p_d_diag.png","5","72","pattern,color,shape","52","1",""
"null","828740","HierDyx1538o0t","sub08","08","6","feedback","test","null","","","na","","52","",""
"816","829557","HierDyx1538o0t","sub08","08","6","rl","test","75","img/r_d_diag.png","7","75","pattern,color,shape","53","1",""
"null","830580","HierDyx1538o0t","sub08","08","6","feedback","test","null","","","na","","53","",""
"995.9000000953674","831577","HierDyx1538o0t","sub08","08","6","rl","test","74","img/p_t_diag.png","6","74","pattern,color,shape","54","1",""
"null","832592","HierDyx1538o0t","sub08","08","6","feedback","test","null","","","na","","54","",""
"663.5","833257","HierDyx1538o0t","sub08","08","6","rl","test","75","img/r_d_diag.png","7","75","pattern,color,shape","55","1",""
"null","834262","HierDyx1538o0t","sub08","08","6","feedback","test","null","","","na","","55","",""
"972.9000000953674","835237","HierDyx1538o0t","sub08","08","6","rl","test","72","img/p_d_diag.png","5","72","pattern,color,shape","56","1",""
"null","836259","HierDyx1538o0t","sub08","08","6","feedback","test","null","","","na","","56","",""
"606","836867","HierDyx1538o0t","sub08","08","6","rl","test","83","img/p_t_check.png","2","83","pattern,color,shape","57","1",""
"null","837874","HierDyx1538o0t","sub08","08","6","feedback","test","null","","","na","","57","",""
"701.3999996185303","838576","HierDyx1538o0t","sub08","08","6","rl","test","83","img/p_t_check.png","2","83","pattern,color,shape","58","1",""
"null","839583","HierDyx1538o0t","sub08","08","6","feedback","test","null","","","na","","58","",""
"653.0999999046326","840237","HierDyx1538o0t","sub08","08","6","rl","test","70","img/r_t_check.png","4","70","pattern,color,shape","59","1",""
"null","841259","HierDyx1538o0t","sub08","08","6","feedback","test","null","","","na","","59","",""
"836.5","842097","HierDyx1538o0t","sub08","08","6","rl","test","68","img/r_d_check.png","3","68","pattern,color,shape","60","1",""
"null","843102","HierDyx1538o0t","sub08","08","6","feedback","test","null","","","na","","60","",""
"582.7999997138977","843687","HierDyx1538o0t","sub08","08","6","rl","test","76","img/r_t_diag.png","8","76","pattern,color,shape","61","1",""
"null","844709","HierDyx1538o0t","sub08","08","6","feedback","test","null","","","na","","61","",""
"946.7999997138977","845652","HierDyx1538o0t","sub08","08","6","rl","test","74","img/p_t_diag.png","6","74","pattern,color,shape","62","1",""
"null","846658","HierDyx1538o0t","sub08","08","6","feedback","test","null","","","na","","62","",""
"842.5999999046326","847502","HierDyx1538o0t","sub08","08","6","rl","test","68","img/r_d_check.png","3","68","pattern,color,shape","63","1",""
"null","848507","HierDyx1538o0t","sub08","08","6","feedback","test","null","","","na","","63","",""
"443.09999990463257","848951","HierDyx1538o0t","sub08","08","6","rl","test","65","img/p_d_check.png","1","65","pattern,color,shape","64","1",""
"null","849970","HierDyx1538o0t","sub08","08","6","feedback","test","null","","","na","","64","",""
"509.7000002861023","850481","HierDyx1538o0t","sub08","08","6","rl","test","83","img/p_t_check.png","2","83","pattern,color,shape","65","1",""
"null","851493","HierDyx1538o0t","sub08","08","6","feedback","test","null","","","na","","65","",""
"607.3000001907349","852101","HierDyx1538o0t","sub08","08","6","rl","test","72","img/p_d_diag.png","5","72","pattern,color,shape","66","1",""
"null","853113","HierDyx1538o0t","sub08","08","6","feedback","test","null","","","na","","66","",""
"926.6000003814697","854041","HierDyx1538o0t","sub08","08","6","rl","test","74","img/p_t_diag.png","6","74","pattern,color,shape","67","1",""
"null","855049","HierDyx1538o0t","sub08","08","6","feedback","test","null","","","na","","67","",""
"961.3000001907349","856011","HierDyx1538o0t","sub08","08","6","rl","test","70","img/r_t_check.png","4","70","pattern,color,shape","68","1",""
"null","857019","HierDyx1538o0t","sub08","08","6","feedback","test","null","","","na","","68","",""
"911.3000001907349","857931","HierDyx1538o0t","sub08","08","6","rl","test","75","img/r_d_diag.png","7","75","pattern,color,shape","69","1",""
"null","858950","HierDyx1538o0t","sub08","08","6","feedback","test","null","","","na","","69","",""
"740.5999999046326","859692","HierDyx1538o0t","sub08","08","6","rl","test","65","img/p_d_check.png","1","65","pattern,color,shape","70","1",""
"null","860698","HierDyx1538o0t","sub08","08","6","feedback","test","null","","","na","","70","",""
"1012.5999999046326","861712","HierDyx1538o0t","sub08","08","6","rl","test","75","img/r_d_diag.png","7","75","pattern,color,shape","71","1",""
"null","862733","HierDyx1538o0t","sub08","08","6","feedback","test","null","","","na","","71","",""
"1327.2999997138977","864062","HierDyx1538o0t","sub08","08","6","rl","test","68","img/r_d_check.png","3","68","pattern,color,shape","72","1",""
"null","865067","HierDyx1538o0t","sub08","08","6","feedback","test","null","","","na","","72","",""
"743.3000001907349","865812","HierDyx1538o0t","sub08","08","6","rl","test","76","img/r_t_diag.png","8","76","pattern,color,shape","73","1",""
"null","866818","HierDyx1538o0t","sub08","08","6","feedback","test","null","","","na","","73","",""
"521.5","867341","HierDyx1538o0t","sub08","08","6","rl","test","76","img/r_t_diag.png","8","76","pattern,color,shape","74","1",""
"null","868348","HierDyx1538o0t","sub08","08","6","feedback","test","null","","","na","","74","",""
"832.5999999046326","869181","HierDyx1538o0t","sub08","08","6","rl","test","70","img/r_t_check.png","4","70","pattern,color,shape","75","1",""
"null","870188","HierDyx1538o0t","sub08","08","6","feedback","test","null","","","na","","75","",""
"891.7999997138977","871082","HierDyx1538o0t","sub08","08","6","rl","test","72","img/p_d_diag.png","5","72","pattern,color,shape","76","1",""
"null","872091","HierDyx1538o0t","sub08","08","6","feedback","test","null","","","na","","76","",""
"1199","873292","HierDyx1538o0t","sub08","08","6","rl","test","83","img/p_t_check.png","2","83","pattern,color,shape","77","1",""
"null","874303","HierDyx1538o0t","sub08","08","6","feedback","test","null","","","na","","77","",""
"1107","875411","HierDyx1538o0t","sub08","08","6","rl","test","74","img/p_t_diag.png","6","74","pattern,color,shape","78","1",""
"null","876419","HierDyx1538o0t","sub08","08","6","feedback","test","null","","","na","","78","",""
"641","877061","HierDyx1538o0t","sub08","08","6","rl","test","83","img/p_t_check.png","2","83","pattern,color,shape","79","1",""
"null","878073","HierDyx1538o0t","sub08","08","6","feedback","test","null","","","na","","79","",""
"756.6999998092651","878831","HierDyx1538o0t","sub08","08","6","rl","test","68","img/r_d_check.png","3","68","pattern,color,shape","80","1",""
"null","879842","HierDyx1538o0t","sub08","08","6","feedback","test","null","","","na","","80","",""
"1018","880862","HierDyx1538o0t","sub08","08","6","rl","test","74","img/p_t_diag.png","6","74","pattern,color,shape","81","1",""
"null","881868","HierDyx1538o0t","sub08","08","6","feedback","test","null","","","na","","81","",""
"1042","882912","HierDyx1538o0t","sub08","08","6","rl","test","65","img/p_d_check.png","1","65","pattern,color,shape","82","1",""
"null","883934","HierDyx1538o0t","sub08","08","6","feedback","test","null","","","na","","82","",""
"546.7999997138977","884482","HierDyx1538o0t","sub08","08","6","rl","test","65","img/p_d_check.png","1","65","pattern,color,shape","83","1",""
"null","885503","HierDyx1538o0t","sub08","08","6","feedback","test","null","","","na","","83","",""
"1127.5","886632","HierDyx1538o0t","sub08","08","6","rl","test","75","img/r_d_diag.png","7","75","pattern,color,shape","84","1",""
"null","887653","HierDyx1538o0t","sub08","08","6","feedback","test","null","","","na","","84","",""
"946.9000000953674","888602","HierDyx1538o0t","sub08","08","6","rl","test","68","img/r_d_check.png","3","68","pattern,color,shape","85","1",""
"null","889614","HierDyx1538o0t","sub08","08","6","feedback","test","null","","","na","","85","",""
"656.8999996185303","890272","HierDyx1538o0t","sub08","08","6","rl","test","65","img/p_d_check.png","1","65","pattern,color,shape","86","1",""
"null","891293","HierDyx1538o0t","sub08","08","6","feedback","test","null","","","na","","86","",""
"826.9000000953674","892122","HierDyx1538o0t","sub08","08","6","rl","test","76","img/r_t_diag.png","8","76","pattern,color,shape","87","1",""
"null","893144","HierDyx1538o0t","sub08","08","6","feedback","test","null","","","na","","87","",""
"1046.3000001907349","894192","HierDyx1538o0t","sub08","08","6","rl","test","70","img/r_t_check.png","4","70","pattern,color,shape","88","1",""
"null","895208","HierDyx1538o0t","sub08","08","6","feedback","test","null","","","na","","88","",""
"802.6000003814697","896012","HierDyx1538o0t","sub08","08","6","rl","test","68","img/r_d_check.png","3","68","pattern,color,shape","89","1",""
"null","897019","HierDyx1538o0t","sub08","08","6","feedback","test","null","","","na","","89","",""
"1271.1999998092651","898291","HierDyx1538o0t","sub08","08","6","rl","test","72","img/p_d_diag.png","5","72","pattern,color,shape","90","1",""
"null","899298","HierDyx1538o0t","sub08","08","6","feedback","test","null","","","na","","90","",""
"1112.0999999046326","900411","HierDyx1538o0t","sub08","08","6","rl","test","76","img/r_t_diag.png","8","76","pattern,color,shape","91","1",""
"null","901417","HierDyx1538o0t","sub08","08","6","feedback","test","null","","","na","","91","",""
"703.7000002861023","902122","HierDyx1538o0t","sub08","08","6","rl","test","75","img/r_d_diag.png","7","75","pattern,color,shape","92","1",""
"null","903132","HierDyx1538o0t","sub08","08","6","feedback","test","null","","","na","","92","",""
"867.7999997138977","904001","HierDyx1538o0t","sub08","08","6","rl","test","83","img/p_t_check.png","2","83","pattern,color,shape","93","1",""
"null","905022","HierDyx1538o0t","sub08","08","6","feedback","test","null","","","na","","93","",""
"668.5999999046326","905689","HierDyx1538o0t","sub08","08","6","rl","test","70","img/r_t_check.png","4","70","pattern,color,shape","94","1",""
"null","906695","HierDyx1538o0t","sub08","08","6","feedback","test","null","","","na","","94","",""
"872.9000000953674","907569","HierDyx1538o0t","sub08","08","6","rl","test","72","img/p_d_diag.png","5","72","pattern,color,shape","95","1",""
"null","908575","HierDyx1538o0t","sub08","08","6","feedback","test","null","","","na","","95","",""
"1052.1999998092651","909629","HierDyx1538o0t","sub08","08","6","rl","test","74","img/p_t_diag.png","6","74","pattern,color,shape","96","1",""
"null","910650","HierDyx1538o0t","sub08","08","6","feedback","test","null","","","na","","96","",""
"587.2999997138977","911239","HierDyx1538o0t","sub08","08","6","rl","test","72","img/p_d_diag.png","5","72","pattern,color,shape","97","1",""
"null","912261","HierDyx1538o0t","sub08","08","6","feedback","test","null","","","na","","97","",""
"816.5","913079","HierDyx1538o0t","sub08","08","6","rl","test","75","img/r_d_diag.png","7","75","pattern,color,shape","98","1",""
"null","914086","HierDyx1538o0t","sub08","08","6","feedback","test","null","","","na","","98","",""
"1131.0999999046326","915218","HierDyx1538o0t","sub08","08","6","rl","test","68","img/r_d_check.png","3","68","pattern,color,shape","99","1",""
"null","916224","HierDyx1538o0t","sub08","08","6","feedback","test","null","","","na","","99","",""
"1433.6000003814697","917659","HierDyx1538o0t","sub08","08","6","rl","test","83","img/p_t_check.png","2","83","pattern,color,shape","100","1",""
"null","918676","HierDyx1538o0t","sub08","08","6","feedback","test","null","","","na","","100","",""
"521.3999996185303","919199","HierDyx1538o0t","sub08","08","6","rl","test","65","img/p_d_check.png","1","65","pattern,color,shape","101","1",""
"null","920205","HierDyx1538o0t","sub08","08","6","feedback","test","null","","","na","","101","",""
"2171.9000000953674","922379","HierDyx1538o0t","sub08","08","6","rl","test","74","img/r_t_diag.png","8","76","pattern,color,shape","102","0",""
"null","923384","HierDyx1538o0t","sub08","08","6","feedback","test","null","","","na","","102","",""
"1023.7999997138977","924409","HierDyx1538o0t","sub08","08","6","rl","test","70","img/r_t_check.png","4","70","pattern,color,shape","103","1",""
"null","925417","HierDyx1538o0t","sub08","08","6","feedback","test","null","","","na","","103","",""
"740.4000000953674","926159","HierDyx1538o0t","sub08","08","6","rl","test","70","img/r_t_check.png","4","70","pattern,color,shape","104","1",""
"null","927181","HierDyx1538o0t","sub08","08","6","feedback","test","null","","","na","","104","",""
"847.2000002861023","928029","HierDyx1538o0t","sub08","08","6","rl","test","74","img/p_t_diag.png","6","74","pattern,color,shape","105","1",""
"null","929043","HierDyx1538o0t","sub08","08","6","feedback","test","null","","","na","","105","",""
"1013.7999997138977","930058","HierDyx1538o0t","sub08","08","6","rl","test","83","img/p_t_check.png","2","83","pattern,color,shape","106","1",""
"null","931063","HierDyx1538o0t","sub08","08","6","feedback","test","null","","","na","","106","",""
"773.8000001907349","931839","HierDyx1538o0t","sub08","08","6","rl","test","76","img/r_t_diag.png","8","76","pattern,color,shape","107","1",""
"null","932860","HierDyx1538o0t","sub08","08","6","feedback","test","null","","","na","","107","",""
"607","933469","HierDyx1538o0t","sub08","08","6","rl","test","65","img/p_d_check.png","1","65","pattern,color,shape","108","1",""
"null","934491","HierDyx1538o0t","sub08","08","6","feedback","test","null","","","na","","108","",""
"746.5999999046326","935239","HierDyx1538o0t","sub08","08","6","rl","test","75","img/r_d_diag.png","7","75","pattern,color,shape","109","1",""
"null","936256","HierDyx1538o0t","sub08","08","6","feedback","test","null","","","na","","109","",""
"741.3000001907349","936999","HierDyx1538o0t","sub08","08","6","rl","test","72","img/p_d_diag.png","5","72","pattern,color,shape","110","1",""
"null","938020","HierDyx1538o0t","sub08","08","6","feedback","test","null","","","na","","110","",""
"877.4000000953674","938899","HierDyx1538o0t","sub08","08","6","rl","test","68","img/r_d_check.png","3","68","pattern,color,shape","111","1",""
"null","939907","HierDyx1538o0t","sub08","08","6","feedback","test","null","","","na","","111","",""
"1099.5","941008","HierDyx1538o0t","sub08","08","6","rl","test","74","img/p_t_diag.png","6","74","pattern,color,shape","112","1",""
"null","942029","HierDyx1538o0t","sub08","08","6","feedback","test","null","","","na","","112","",""
"1057","943087","HierDyx1538o0t","sub08","08","6","rl","test","68","img/r_d_check.png","3","68","pattern,color,shape","113","1",""
"null","944098","HierDyx1538o0t","sub08","08","6","feedback","test","null","","","na","","113","",""
"989.8000001907349","945089","HierDyx1538o0t","sub08","08","6","rl","test","72","img/p_d_diag.png","5","72","pattern,color,shape","114","1",""
"null","946096","HierDyx1538o0t","sub08","08","6","feedback","test","null","","","na","","114","",""
"811.4000000953674","946909","HierDyx1538o0t","sub08","08","6","rl","test","74","img/p_t_diag.png","6","74","pattern,color,shape","115","1",""
"null","947919","HierDyx1538o0t","sub08","08","6","feedback","test","null","","","na","","115","",""
"848.5","948768","HierDyx1538o0t","sub08","08","6","rl","test","65","img/p_d_check.png","1","65","pattern,color,shape","116","1",""
"null","949786","HierDyx1538o0t","sub08","08","6","feedback","test","null","","","na","","116","",""
"831.7000002861023","950619","HierDyx1538o0t","sub08","08","6","rl","test","76","img/r_t_diag.png","8","76","pattern,color,shape","117","1",""
"null","951637","HierDyx1538o0t","sub08","08","6","feedback","test","null","","","na","","117","",""
"989.6000003814697","952628","HierDyx1538o0t","sub08","08","6","rl","test","70","img/r_t_check.png","4","70","pattern,color,shape","118","1",""
"null","953638","HierDyx1538o0t","sub08","08","6","feedback","test","null","","","na","","118","",""
"589.2000002861023","954228","HierDyx1538o0t","sub08","08","6","rl","test","70","img/r_t_check.png","4","70","pattern,color,shape","119","1",""
"null","955250","HierDyx1538o0t","sub08","08","6","feedback","test","null","","","na","","119","",""
"797.1999998092651","956049","HierDyx1538o0t","sub08","08","6","rl","test","83","img/p_t_check.png","2","83","pattern,color,shape","120","1",""
"null","957056","HierDyx1538o0t","sub08","08","6","feedback","test","null","","","na","","120","",""
"751.8000001907349","957809","HierDyx1538o0t","sub08","08","6","rl","test","75","img/r_d_diag.png","7","75","pattern,color,shape","121","1",""
"null","958814","HierDyx1538o0t","sub08","08","6","feedback","test","null","","","na","","121","",""
"1354.0999999046326","960170","HierDyx1538o0t","sub08","08","6","rl","test","83","img/p_t_check.png","2","83","pattern,color,shape","122","1",""
"null","961176","HierDyx1538o0t","sub08","08","6","feedback","test","null","","","na","","122","",""
"1382.3000001907349","962559","HierDyx1538o0t","sub08","08","6","rl","test","76","img/r_t_diag.png","8","76","pattern,color,shape","123","1",""
"null","963565","HierDyx1538o0t","sub08","08","6","feedback","test","null","","","na","","123","",""
"1012","964579","HierDyx1538o0t","sub08","08","6","rl","test","68","img/r_d_check.png","3","68","pattern,color,shape","124","1",""
"null","965585","HierDyx1538o0t","sub08","08","6","feedback","test","null","","","na","","124","",""
"612.1999998092651","966193","HierDyx1538o0t","sub08","08","6","rl","test","65","img/p_d_check.png","1","65","pattern,color,shape","125","1",""
"null","967212","HierDyx1538o0t","sub08","08","6","feedback","test","null","","","na","","125","",""
"1329.9000000953674","968543","HierDyx1538o0t","sub08","08","6","rl","test","75","img/r_d_diag.png","7","75","pattern,color,shape","126","1",""
"null","969567","HierDyx1538o0t","sub08","08","6","feedback","test","null","","","na","","126","",""
"585","970153","HierDyx1538o0t","sub08","08","6","rl","test","72","img/p_d_diag.png","5","72","pattern,color,shape","127","1",""
"null","971174","HierDyx1538o0t","sub08","08","6","feedback","test","null","","","na","","127","",""
"587.6999998092651","971763","HierDyx1538o0t","sub08","08","6","rl","test","72","img/p_d_diag.png","5","72","pattern,color,shape","128","1",""
"null","972769","HierDyx1538o0t","sub08","08","6","feedback","test","null","","","na","","128","",""
"862.9000000953674","973633","HierDyx1538o0t","sub08","08","6","rl","test","70","img/r_t_check.png","4","70","pattern,color,shape","129","1",""
"null","974648","HierDyx1538o0t","sub08","08","6","feedback","test","null","","","na","","129","",""
"1274.0999999046326","975924","HierDyx1538o0t","sub08","08","6","rl","test","74","img/p_t_diag.png","6","74","pattern,color,shape","130","1",""
"null","976933","HierDyx1538o0t","sub08","08","6","feedback","test","null","","","na","","130","",""
"659.3000001907349","977593","HierDyx1538o0t","sub08","08","6","rl","test","76","img/r_t_diag.png","8","76","pattern,color,shape","131","1",""
"null","978613","HierDyx1538o0t","sub08","08","6","feedback","test","null","","","na","","131","",""
"770.0999999046326","979384","HierDyx1538o0t","sub08","08","6","rl","test","83","img/p_t_check.png","2","83","pattern,color,shape","132","1",""
"null","980395","HierDyx1538o0t","sub08","08","6","feedback","test","null","","","na","","132","",""
"1287.2999997138977","981683","HierDyx1538o0t","sub08","08","6","rl","test","74","img/p_t_diag.png","6","74","pattern,color,shape","133","1",""
"null","982695","HierDyx1538o0t","sub08","08","6","feedback","test","null","","","na","","133","",""
"686.8999996185303","983383","HierDyx1538o0t","sub08","08","6","rl","test","65","img/p_d_check.png","1","65","pattern,color,shape","134","1",""
"null","984396","HierDyx1538o0t","sub08","08","6","feedback","test","null","","","na","","134","",""
"686.4000000953674","985083","HierDyx1538o0t","sub08","08","6","rl","test","76","img/r_t_diag.png","8","76","pattern,color,shape","135","1",""
"null","986098","HierDyx1538o0t","sub08","08","6","feedback","test","null","","","na","","135","",""
"563.2999997138977","986663","HierDyx1538o0t","sub08","08","6","rl","test","68","img/r_d_check.png","3","68","pattern,color,shape","136","1",""
"null","987674","HierDyx1538o0t","sub08","08","6","feedback","test","null","","","na","","136","",""
"1128.0999999046326","988803","HierDyx1538o0t","sub08","08","6","rl","test","75","img/r_d_diag.png","7","75","pattern,color,shape","137","1",""
"null","989813","HierDyx1538o0t","sub08","08","6","feedback","test","null","","","na","","137","",""
"948.6000003814697","990763","HierDyx1538o0t","sub08","08","6","rl","test","65","img/p_d_check.png","1","65","pattern,color,shape","138","1",""
"null","991773","HierDyx1538o0t","sub08","08","6","feedback","test","null","","","na","","138","",""
"689","992464","HierDyx1538o0t","sub08","08","6","rl","test","68","img/r_d_check.png","3","68","pattern,color,shape","139","1",""
"null","993487","HierDyx1538o0t","sub08","08","6","feedback","test","null","","","na","","139","",""
"644.6000003814697","994133","HierDyx1538o0t","sub08","08","6","rl","test","83","img/p_t_check.png","2","83","pattern,color,shape","140","1",""
"null","995147","HierDyx1538o0t","sub08","08","6","feedback","test","null","","","na","","140","",""
"845.5999999046326","995994","HierDyx1538o0t","sub08","08","6","rl","test","72","img/p_d_diag.png","5","72","pattern,color,shape","141","1",""
"null","997009","HierDyx1538o0t","sub08","08","6","feedback","test","null","","","na","","141","",""
"663.4000000953674","997673","HierDyx1538o0t","sub08","08","6","rl","test","75","img/r_d_diag.png","7","75","pattern,color,shape","142","1",""
"null","998685","HierDyx1538o0t","sub08","08","6","feedback","test","null","","","na","","142","",""
"1147.2000002861023","999833","HierDyx1538o0t","sub08","08","6","rl","test","70","img/r_t_check.png","4","70","pattern,color,shape","143","1",""
"null","1000844","HierDyx1538o0t","sub08","08","6","feedback","test","null","","","na","","143","",""
"987.8000001907349","1001833","HierDyx1538o0t","sub08","08","6","rl","test","74","img/p_t_diag.png","6","74","pattern,color,shape","144","1",""
"null","1002853","HierDyx1538o0t","sub08","08","6","feedback","test","null","","","na","","144","",""
"519.1999998092651","1003373","HierDyx1538o0t","sub08","08","6","rl","test","74","img/p_t_diag.png","6","74","pattern,color,shape","145","1",""
"null","1004381","HierDyx1538o0t","sub08","08","6","feedback","test","null","","","na","","145","",""
"630.7000002861023","1005013","HierDyx1538o0t","sub08","08","6","rl","test","83","img/p_t_check.png","2","83","pattern,color,shape","146","1",""
"null","1006027","HierDyx1538o0t","sub08","08","6","feedback","test","null","","","na","","146","",""
"995.0999999046326","1007024","HierDyx1538o0t","sub08","08","6","rl","test","74","img/p_t_diag.png","6","74","pattern,color,shape","147","1",""
"null","1008045","HierDyx1538o0t","sub08","08","6","feedback","test","null","","","na","","147","",""
"1317.5999999046326","1009363","HierDyx1538o0t","sub08","08","6","rl","test","72","img/p_d_diag.png","5","72","pattern,color,shape","148","1",""
"null","1010373","HierDyx1538o0t","sub08","08","6","feedback","test","null","","","na","","148","",""
"1399.1999998092651","1011773","HierDyx1538o0t","sub08","08","6","rl","test","70","img/r_t_check.png","4","70","pattern,color,shape","149","1",""
"null","1012780","HierDyx1538o0t","sub08","08","6","feedback","test","null","","","na","","149","",""
"881.4000000953674","1013663","HierDyx1538o0t","sub08","08","6","rl","test","76","img/r_t_diag.png","8","76","pattern,color,shape","150","1",""
"null","1014684","HierDyx1538o0t","sub08","08","6","feedback","test","null","","","na","","150","",""
"568.5999999046326","1015254","HierDyx1538o0t","sub08","08","6","rl","test","75","img/r_d_diag.png","7","75","pattern,color,shape","151","1",""
"null","1016260","HierDyx1538o0t","sub08","08","6","feedback","test","null","","","na","","151","",""
"1041.8000001907349","1017304","HierDyx1538o0t","sub08","08","6","rl","test","68","img/r_d_check.png","3","68","pattern,color,shape","152","1",""
"null","1018325","HierDyx1538o0t","sub08","08","6","feedback","test","null","","","na","","152","",""
"778","1019104","HierDyx1538o0t","sub08","08","6","rl","test","65","img/p_d_check.png","1","65","pattern,color,shape","153","1",""
"null","1020126","HierDyx1538o0t","sub08","08","6","feedback","test","null","","","na","","153","",""
"596.0999999046326","1020724","HierDyx1538o0t","sub08","08","6","rl","test","68","img/r_t_check.png","4","70","pattern,color,shape","154","0",""
"null","1021732","HierDyx1538o0t","sub08","08","6","feedback","test","null","","","na","","154","",""
"950.0999999046326","1022683","HierDyx1538o0t","sub08","08","6","rl","test","75","img/r_d_diag.png","7","75","pattern,color,shape","155","1",""
"null","1023691","HierDyx1538o0t","sub08","08","6","feedback","test","null","","","na","","155","",""
"861.0999999046326","1024553","HierDyx1538o0t","sub08","08","6","rl","test","83","img/p_t_check.png","2","83","pattern,color,shape","156","1",""
"null","1025575","HierDyx1538o0t","sub08","08","6","feedback","test","null","","","na","","156","",""
"1377.5999999046326","1026954","HierDyx1538o0t","sub08","08","6","rl","test","75","img/r_t_diag.png","8","76","pattern,color,shape","157","0",""
"null","1027975","HierDyx1538o0t","sub08","08","6","feedback","test","null","","","na","","157","",""
"1238.5","1029215","HierDyx1538o0t","sub08","08","6","rl","test","83","img/p_t_check.png","2","83","pattern,color,shape","158","1",""
"null","1030221","HierDyx1538o0t","sub08","08","6","feedback","test","null","","","na","","158","",""
"1081.4000000953674","1031304","HierDyx1538o0t","sub08","08","6","rl","test","74","img/p_t_diag.png","6","74","pattern,color,shape","159","1",""
"null","1032325","HierDyx1538o0t","sub08","08","6","feedback","test","null","","","na","","159","",""
"1268.0999999046326","1033594","HierDyx1538o0t","sub08","08","6","rl","test","68","img/r_d_check.png","3","68","pattern,color,shape","160","1",""
"null","1034616","HierDyx1538o0t","sub08","08","6","feedback","test","null","","","na","","160","",""
"866.9000000953674","1035484","HierDyx1538o0t","sub08","08","6","rl","test","72","img/p_d_diag.png","5","72","pattern,color,shape","161","1",""
"null","1036490","HierDyx1538o0t","sub08","08","6","feedback","test","null","","","na","","161","",""
"532.4000000953674","1037024","HierDyx1538o0t","sub08","08","6","rl","test","72","img/p_d_diag.png","5","72","pattern,color,shape","162","1",""
"null","1038044","HierDyx1538o0t","sub08","08","6","feedback","test","null","","","na","","162","",""
"629.3000001907349","1038675","HierDyx1538o0t","sub08","08","6","rl","test","65","img/p_d_check.png","1","65","pattern,color,shape","163","1",""
"null","1039693","HierDyx1538o0t","sub08","08","6","feedback","test","null","","","na","","163","",""
"620","1040314","HierDyx1538o0t","sub08","08","6","rl","test","65","img/p_d_check.png","1","65","pattern,color,shape","164","1",""
"null","1041317","HierDyx1538o0t","sub08","08","6","feedback","test","null","","","na","","164","",""
"1715","1043034","HierDyx1538o0t","sub08","08","6","rl","test","70","img/r_t_check.png","4","70","pattern,color,shape","165","1",""
"null","1044049","HierDyx1538o0t","sub08","08","6","feedback","test","null","","","na","","165","",""
"944.3000001907349","1044994","HierDyx1538o0t","sub08","08","6","rl","test","76","img/r_t_diag.png","8","76","pattern,color,shape","166","1",""
"null","1046016","HierDyx1538o0t","sub08","08","6","feedback","test","null","","","na","","166","",""
"457.40000009536743","1046475","HierDyx1538o0t","sub08","08","6","rl","test","75","img/r_d_diag.png","7","75","pattern,color,shape","167","1",""
"null","1047485","HierDyx1538o0t","sub08","08","6","feedback","test","null","","","na","","167","",""
"1016.9000000953674","1048503","HierDyx1538o0t","sub08","08","6","rl","test","68","img/r_d_check.png","3","68","pattern,color,shape","168","1",""
"null","1049521","HierDyx1538o0t","sub08","08","6","feedback","test","null","","","na","","168","",""
"771.8000001907349","1050294","HierDyx1538o0t","sub08","08","6","rl","test","76","img/r_t_diag.png","8","76","pattern,color,shape","169","1",""
"null","1051300","HierDyx1538o0t","sub08","08","6","feedback","test","null","","","na","","169","",""
"642.5","1051944","HierDyx1538o0t","sub08","08","6","rl","test","68","img/r_d_check.png","3","68","pattern,color,shape","170","1",""
"null","1052963","HierDyx1538o0t","sub08","08","6","feedback","test","null","","","na","","170","",""
"1589.8000001907349","1054554","HierDyx1538o0t","sub08","08","6","rl","test","75","img/r_d_diag.png","7","75","pattern,color,shape","171","1",""
"null","1055575","HierDyx1538o0t","sub08","08","6","feedback","test","null","","","na","","171","",""
"1447.5999999046326","1057024","HierDyx1538o0t","sub08","08","6","rl","test","83","img/p_t_check.png","2","83","pattern,color,shape","172","1",""
"null","1058048","HierDyx1538o0t","sub08","08","6","feedback","test","null","","","na","","172","",""
"1305.0999999046326","1059354","HierDyx1538o0t","sub08","08","6","rl","test","74","img/p_t_diag.png","6","74","pattern,color,shape","173","1",""
"null","1060370","HierDyx1538o0t","sub08","08","6","feedback","test","null","","","na","","173","",""
"672.3000001907349","1061044","HierDyx1538o0t","sub08","08","6","rl","test","75","img/r_d_diag.png","7","75","pattern,color,shape","174","1",""
"null","1062049","HierDyx1538o0t","sub08","08","6","feedback","test","null","","","na","","174","",""
"1463.8000001907349","1063514","HierDyx1538o0t","sub08","08","6","rl","test","76","img/r_t_diag.png","8","76","pattern,color,shape","175","1",""
"null","1064520","HierDyx1538o0t","sub08","08","6","feedback","test","null","","","na","","175","",""
"1012.7999997138977","1065534","HierDyx1538o0t","sub08","08","6","rl","test","70","img/r_t_check.png","4","70","pattern,color,shape","176","1",""
"null","1066541","HierDyx1538o0t","sub08","08","6","feedback","test","null","","","na","","176","",""
"1122.0999999046326","1067664","HierDyx1538o0t","sub08","08","6","rl","test","72","img/p_d_diag.png","5","72","pattern,color,shape","177","1",""
"null","1068686","HierDyx1538o0t","sub08","08","6","feedback","test","null","","","na","","177","",""
"1176.6999998092651","1069864","HierDyx1538o0t","sub08","08","6","rl","test","74","img/p_t_diag.png","6","74","pattern,color,shape","178","1",""
"null","1070887","HierDyx1538o0t","sub08","08","6","feedback","test","null","","","na","","178","",""
"715.4000000953674","1071604","HierDyx1538o0t","sub08","08","6","rl","test","65","img/p_d_check.png","1","65","pattern,color,shape","179","1",""
"null","1072610","HierDyx1538o0t","sub08","08","6","feedback","test","null","","","na","","179","",""
"383.2000002861023","1072995","HierDyx1538o0t","sub08","08","6","rl","test","83","img/p_t_check.png","2","83","pattern,color,shape","180","1",""
"null","1074002","HierDyx1538o0t","sub08","08","6","feedback","test","null","","","na","","180","",""
"700.5999999046326","1074704","HierDyx1538o0t","sub08","08","6","rl","test","65","img/p_d_check.png","1","65","pattern,color,shape","181","1",""
"null","1075713","HierDyx1538o0t","sub08","08","6","feedback","test","null","","","na","","181","",""
"689.7999997138977","1076404","HierDyx1538o0t","sub08","08","6","rl","test","83","img/r_t_check.png","4","70","pattern,color,shape","182","0",""
"null","1077410","HierDyx1538o0t","sub08","08","6","feedback","test","null","","","na","","182","",""
"683","1078094","HierDyx1538o0t","sub08","08","6","rl","test","68","img/r_d_check.png","3","68","pattern,color,shape","183","1",""
"null","1079102","HierDyx1538o0t","sub08","08","6","feedback","test","null","","","na","","183","",""
"700.8000001907349","1079804","HierDyx1538o0t","sub08","08","6","rl","test","72","img/p_d_diag.png","5","72","pattern,color,shape","184","1",""
"null","1080809","HierDyx1538o0t","sub08","08","6","feedback","test","null","","","na","","184","",""
"923.1999998092651","1081734","HierDyx1538o0t","sub08","08","6","rl","test","70","img/r_t_check.png","4","70","pattern,color,shape","185","1",""
"null","1082740","HierDyx1538o0t","sub08","08","6","feedback","test","null","","","na","","185","",""
"1141.9000000953674","1083884","HierDyx1538o0t","sub08","08","6","rl","test","65","img/p_d_check.png","1","65","pattern,color,shape","186","1",""
"null","1084890","HierDyx1538o0t","sub08","08","6","feedback","test","null","","","na","","186","",""
"672.6000003814697","1085564","HierDyx1538o0t","sub08","08","6","rl","test","68","img/r_d_check.png","3","68","pattern,color,shape","187","1",""
"null","1086572","HierDyx1538o0t","sub08","08","6","feedback","test","null","","","na","","187","",""
"1031.1999998092651","1087606","HierDyx1538o0t","sub08","08","6","rl","test","75","img/r_d_diag.png","7","75","pattern,color,shape","188","1",""
"null","1088611","HierDyx1538o0t","sub08","08","6","feedback","test","null","","","na","","188","",""
"1003.2999997138977","1089616","HierDyx1538o0t","sub08","08","6","rl","test","83","img/p_t_check.png","2","83","pattern,color,shape","189","1",""
"null","1090623","HierDyx1538o0t","sub08","08","6","feedback","test","null","","","na","","189","",""
"741.6999998092651","1091366","HierDyx1538o0t","sub08","08","6","rl","test","76","img/r_t_diag.png","8","76","pattern,color,shape","190","1",""
"null","1092373","HierDyx1538o0t","sub08","08","6","feedback","test","null","","","na","","190","",""
"961.9000000953674","1093336","HierDyx1538o0t","sub08","08","6","rl","test","72","img/p_d_diag.png","5","72","pattern,color,shape","191","1",""
"null","1094342","HierDyx1538o0t","sub08","08","6","feedback","test","null","","","na","","191","",""
"643","1094986","HierDyx1538o0t","sub08","08","6","rl","test","74","img/p_t_diag.png","6","74","pattern,color,shape","192","1",""
"null","1095997","HierDyx1538o0t","sub08","08","6","feedback","test","null","","","na","","192","",""
"647.2000002861023","1096646","HierDyx1538o0t","sub08","08","6","rl","test","74","img/p_t_diag.png","6","74","pattern,color,shape","193","1",""
"null","1097652","HierDyx1538o0t","sub08","08","6","feedback","test","null","","","na","","193","",""
"672.6999998092651","1098326","HierDyx1538o0t","sub08","08","6","rl","test","72","img/p_d_diag.png","5","72","pattern,color,shape","194","1",""
"null","1099339","HierDyx1538o0t","sub08","08","6","feedback","test","null","","","na","","194","",""
"1045.9000000953674","1100386","HierDyx1538o0t","sub08","08","6","rl","test","70","img/r_t_check.png","4","70","pattern,color,shape","195","1",""
"null","1101407","HierDyx1538o0t","sub08","08","6","feedback","test","null","","","na","","195","",""
"1687.4000000953674","1103096","HierDyx1538o0t","sub08","08","6","rl","test","76","img/r_t_diag.png","8","76","pattern,color,shape","196","1",""
"null","1104109","HierDyx1538o0t","sub08","08","6","feedback","test","null","","","na","","196","",""
"635.0999999046326","1104746","HierDyx1538o0t","sub08","08","6","rl","test","65","img/p_d_check.png","1","65","pattern,color,shape","197","1",""
"null","1105768","HierDyx1538o0t","sub08","08","6","feedback","test","null","","","na","","197","",""
"1566.5","1107336","HierDyx1538o0t","sub08","08","6","rl","test","75","img/r_d_diag.png","7","75","pattern,color,shape","198","1",""
"null","1108353","HierDyx1538o0t","sub08","08","6","feedback","test","null","","","na","","198","",""
"931.0999999046326","1109286","HierDyx1538o0t","sub08","08","6","rl","test","68","img/r_d_check.png","3","68","pattern,color,shape","199","1",""
"null","1110297","HierDyx1538o0t","sub08","08","6","feedback","test","null","","","na","","199","",""
"1387.0999999046326","1111686","HierDyx1538o0t","sub08","08","6","rl","test","74","img/p_t_diag.png","6","74","pattern,color,shape","200","1",""
"null","1112698","HierDyx1538o0t","sub08","08","6","feedback","test","null","","","na","","200","",""
"717.4000000953674","1113417","HierDyx1538o0t","sub08","08","6","rl","test","83","img/p_t_check.png","2","83","pattern,color,shape","201","1",""
"null","1114420","HierDyx1538o0t","sub08","08","6","feedback","test","null","","","na","","201","",""
"895","1115316","HierDyx1538o0t","sub08","08","6","rl","test","72","img/p_d_diag.png","5","72","pattern,color,shape","202","1",""
"null","1116329","HierDyx1538o0t","sub08","08","6","feedback","test","null","","","na","","202","",""
"666.5","1116997","HierDyx1538o0t","sub08","08","6","rl","test","68","img/r_d_check.png","3","68","pattern,color,shape","203","1",""
"null","1118003","HierDyx1538o0t","sub08","08","6","feedback","test","null","","","na","","203","",""
"392.3999996185303","1118397","HierDyx1538o0t","sub08","08","6","rl","test","70","img/r_t_check.png","4","70","pattern,color,shape","204","1",""
"null","1119413","HierDyx1538o0t","sub08","08","6","feedback","test","null","","","na","","204","",""
"771.3000001907349","1120186","HierDyx1538o0t","sub08","08","6","rl","test","83","img/p_t_check.png","2","83","pattern,color,shape","205","1",""
"null","1121197","HierDyx1538o0t","sub08","08","6","feedback","test","null","","","na","","205","",""
"688.7000002861023","1121887","HierDyx1538o0t","sub08","08","6","rl","test","76","img/r_t_diag.png","8","76","pattern,color,shape","206","1",""
"null","1122903","HierDyx1538o0t","sub08","08","6","feedback","test","null","","","na","","206","",""
"1612.7999997138977","1124516","HierDyx1538o0t","sub08","08","6","rl","test","74","img/r_t_diag.png","8","76","pattern,color,shape","207","0",""
"null","1125526","HierDyx1538o0t","sub08","08","6","feedback","test","null","","","na","","207","",""
"1038.5","1126566","HierDyx1538o0t","sub08","08","6","rl","test","68","img/r_d_check.png","3","68","pattern,color,shape","208","1",""
"null","1127576","HierDyx1538o0t","sub08","08","6","feedback","test","null","","","na","","208","",""
"508.19999980926514","1128086","HierDyx1538o0t","sub08","08","6","rl","test","70","img/r_t_check.png","4","70","pattern,color,shape","209","1",""
"null","1129097","HierDyx1538o0t","sub08","08","6","feedback","test","null","","","na","","209","",""
"807.5","1129906","HierDyx1538o0t","sub08","08","6","rl","test","65","img/p_d_check.png","1","65","pattern,color,shape","210","1",""
"null","1130916","HierDyx1538o0t","sub08","08","6","feedback","test","null","","","na","","210","",""
"1160","1132077","HierDyx1538o0t","sub08","08","6","rl","test","75","img/r_d_diag.png","7","75","pattern,color,shape","211","1",""
"null","1133098","HierDyx1538o0t","sub08","08","6","feedback","test","null","","","na","","211","",""
"797.4000000953674","1133897","HierDyx1538o0t","sub08","08","6","rl","test","65","img/p_d_check.png","1","65","pattern,color,shape","212","1",""
"null","1134904","HierDyx1538o0t","sub08","08","6","feedback","test","null","","","na","","212","",""
"851.8000001907349","1135757","HierDyx1538o0t","sub08","08","6","rl","test","75","img/r_d_diag.png","7","75","pattern,color,shape","213","1",""
"null","1136766","HierDyx1538o0t","sub08","08","6","feedback","test","null","","","na","","213","",""
"1089.3000001907349","1137857","HierDyx1538o0t","sub08","08","6","rl","test","74","img/p_t_diag.png","6","74","pattern,color,shape","214","1",""
"null","1138859","HierDyx1538o0t","sub08","08","6","feedback","test","null","","","na","","214","",""
"405.1000003814697","1139266","HierDyx1538o0t","sub08","08","6","rl","test","72","img/p_d_diag.png","5","72","pattern,color,shape","215","1",""
"null","1140282","HierDyx1538o0t","sub08","08","6","feedback","test","null","","","na","","215","",""
"1292.9000000953674","1141576","HierDyx1538o0t","sub08","08","6","rl","test","83","img/p_t_check.png","2","83","pattern,color,shape","216","1",""
"null","1142585","HierDyx1538o0t","sub08","08","6","feedback","test","null","","","na","","216","",""
"579.5999999046326","1143166","HierDyx1538o0t","sub08","08","6","rl","test","83","img/p_t_check.png","2","83","pattern,color,shape","217","1",""
"null","1144172","HierDyx1538o0t","sub08","08","6","feedback","test","null","","","na","","217","",""
"694.4000000953674","1144867","HierDyx1538o0t","sub08","08","6","rl","test","70","img/r_t_check.png","4","70","pattern,color,shape","218","1",""
"null","1145889","HierDyx1538o0t","sub08","08","6","feedback","test","null","","","na","","218","",""
"755.2999997138977","1146646","HierDyx1538o0t","sub08","08","6","rl","test","76","img/r_t_diag.png","8","76","pattern,color,shape","219","1",""
"null","1147664","HierDyx1538o0t","sub08","08","6","feedback","test","null","","","na","","219","",""
"553.6999998092651","1148219","HierDyx1538o0t","sub08","08","6","rl","test","75","img/r_d_diag.png","7","75","pattern,color,shape","220","1",""
"null","1149227","HierDyx1538o0t","sub08","08","6","feedback","test","null","","","na","","220","",""
"548.9000000953674","1149777","HierDyx1538o0t","sub08","08","6","rl","test","72","img/p_d_diag.png","5","72","pattern,color,shape","221","1",""
"null","1150787","HierDyx1538o0t","sub08","08","6","feedback","test","null","","","na","","221","",""
"788.1000003814697","1151577","HierDyx1538o0t","sub08","08","6","rl","test","74","img/p_t_diag.png","6","74","pattern,color,shape","222","1",""
"null","1152586","HierDyx1538o0t","sub08","08","6","feedback","test","null","","","na","","222","",""
"1281.5","1153869","HierDyx1538o0t","sub08","08","6","rl","test","68","img/r_d_check.png","3","68","pattern,color,shape","223","1",""
"null","1154892","HierDyx1538o0t","sub08","08","6","feedback","test","null","","","na","","223","",""
"934.2000002861023","1155828","HierDyx1538o0t","sub08","08","6","rl","test","72","img/p_d_diag.png","5","72","pattern,color,shape","224","1",""
"null","1156836","HierDyx1538o0t","sub08","08","6","feedback","test","null","","","na","","224","",""
"671.5","1157508","HierDyx1538o0t","sub08","08","6","rl","test","74","img/p_t_diag.png","6","74","pattern,color,shape","225","1",""
"null","1158523","HierDyx1538o0t","sub08","08","6","feedback","test","null","","","na","","225","",""
"673.1999998092651","1159198","HierDyx1538o0t","sub08","08","6","rl","test","65","img/p_d_check.png","1","65","pattern,color,shape","226","1",""
"null","1160217","HierDyx1538o0t","sub08","08","6","feedback","test","null","","","na","","226","",""
"619.5999999046326","1160838","HierDyx1538o0t","sub08","08","6","rl","test","83","img/p_t_check.png","2","83","pattern,color,shape","227","1",""
"null","1161849","HierDyx1538o0t","sub08","08","6","feedback","test","null","","","na","","227","",""
"717.7999997138977","1162568","HierDyx1538o0t","sub08","08","6","rl","test","68","img/r_d_check.png","3","68","pattern,color,shape","228","1",""
"null","1163578","HierDyx1538o0t","sub08","08","6","feedback","test","null","","","na","","228","",""
"759.4000000953674","1164338","HierDyx1538o0t","sub08","08","6","rl","test","75","img/r_d_diag.png","7","75","pattern,color,shape","229","1",""
"null","1165343","HierDyx1538o0t","sub08","08","6","feedback","test","null","","","na","","229","",""
"1153.5999999046326","1166498","HierDyx1538o0t","sub08","08","6","rl","test","70","img/r_t_check.png","4","70","pattern,color,shape","230","1",""
"null","1167504","HierDyx1538o0t","sub08","08","6","feedback","test","null","","","na","","230","",""
"922.9000000953674","1168428","HierDyx1538o0t","sub08","08","6","rl","test","70","img/r_t_check.png","4","70","pattern,color,shape","231","1",""
"null","1169440","HierDyx1538o0t","sub08","08","6","feedback","test","null","","","na","","231","",""
"706.7000002861023","1170148","HierDyx1538o0t","sub08","08","6","rl","test","65","img/p_d_check.png","1","65","pattern,color,shape","232","1",""
"null","1171154","HierDyx1538o0t","sub08","08","6","feedback","test","null","","","na","","232","",""
"922.6999998092651","1172078","HierDyx1538o0t","sub08","08","6","rl","test","74","img/p_t_diag.png","6","74","pattern,color,shape","233","1",""
"null","1173099","HierDyx1538o0t","sub08","08","6","feedback","test","null","","","na","","233","",""
"697.0999999046326","1173798","HierDyx1538o0t","sub08","08","6","rl","test","76","img/r_t_diag.png","8","76","pattern,color,shape","234","1",""
"null","1174819","HierDyx1538o0t","sub08","08","6","feedback","test","null","","","na","","234","",""
"848","1175668","HierDyx1538o0t","sub08","08","6","rl","test","68","img/r_d_check.png","3","68","pattern,color,shape","235","1",""
"null","1176691","HierDyx1538o0t","sub08","08","6","feedback","test","null","","","na","","235","",""
"676","1177368","HierDyx1538o0t","sub08","08","6","rl","test","65","img/p_d_check.png","1","65","pattern,color,shape","236","1",""
"null","1178374","HierDyx1538o0t","sub08","08","6","feedback","test","null","","","na","","236","",""
"1212.9000000953674","1179588","HierDyx1538o0t","sub08","08","6","rl","test","75","img/r_d_diag.png","7","75","pattern,color,shape","237","1",""
"null","1180600","HierDyx1538o0t","sub08","08","6","feedback","test","null","","","na","","237","",""
"1257.0999999046326","1181858","HierDyx1538o0t","sub08","08","6","rl","test","83","img/p_t_check.png","2","83","pattern,color,shape","238","1",""
"null","1182865","HierDyx1538o0t","sub08","08","6","feedback","test","null","","","na","","238","",""
"1101.7000002861023","1183968","HierDyx1538o0t","sub08","08","6","rl","test","72","img/p_d_diag.png","5","72","pattern,color,shape","239","1",""
"null","1184989","HierDyx1538o0t","sub08","08","6","feedback","test","null","","","na","","239","",""
"708","1185699","HierDyx1538o0t","sub08","08","6","rl","test","76","img/r_t_diag.png","8","76","pattern,color,shape","240","1",""
"null","1186704","HierDyx1538o0t","sub08","08","6","feedback","test","null","","","na","","240","",""
"1142.3000001907349","1187848","HierDyx1538o0t","sub08","08","6","rl","test","72","img/p_d_diag.png","5","72","pattern,color,shape","241","1",""
"null","1188860","HierDyx1538o0t","sub08","08","6","feedback","test","null","","","na","","241","",""
"746.5999999046326","1189608","HierDyx1538o0t","sub08","08","6","rl","test","75","img/r_d_diag.png","7","75","pattern,color,shape","242","1",""
"null","1190619","HierDyx1538o0t","sub08","08","6","feedback","test","null","","","na","","242","",""
"848.2000002861023","1191468","HierDyx1538o0t","sub08","08","6","rl","test","74","img/p_t_diag.png","6","74","pattern,color,shape","243","1",""
"null","1192480","HierDyx1538o0t","sub08","08","6","feedback","test","null","","","na","","243","",""
"967.0999999046326","1193448","HierDyx1538o0t","sub08","08","6","rl","test","76","img/r_t_diag.png","8","76","pattern,color,shape","244","1",""
"null","1194456","HierDyx1538o0t","sub08","08","6","feedback","test","null","","","na","","244","",""
"730.9000000953674","1195188","HierDyx1538o0t","sub08","08","6","rl","test","83","img/p_t_check.png","2","83","pattern,color,shape","245","1",""
"null","1196199","HierDyx1538o0t","sub08","08","6","feedback","test","null","","","na","","245","",""
"607.0999999046326","1196808","HierDyx1538o0t","sub08","08","6","rl","test","70","img/r_t_check.png","4","70","pattern,color,shape","246","1",""
"null","1197822","HierDyx1538o0t","sub08","08","6","feedback","test","null","","","na","","246","",""
"674.9000000953674","1198498","HierDyx1538o0t","sub08","08","6","rl","test","68","img/r_d_check.png","3","68","pattern,color,shape","247","1",""
"null","1199507","HierDyx1538o0t","sub08","08","6","feedback","test","null","","","na","","247","",""
"809.5999999046326","1200317","HierDyx1538o0t","sub08","08","6","rl","test","70","img/r_t_check.png","4","70","pattern,color,shape","248","1",""
"null","1201329","HierDyx1538o0t","sub08","08","6","feedback","test","null","","","na","","248","",""
"4653.099999904633","1205987","HierDyx1538o0t","sub08","08","6","","","","","","","","","","{""Q0"":""5""}"
"76520.59999990463","1282512","HierDyx1538o0t","sub08","08","6","","","","","","","","","","{""Q0"":""Trying not to think and just recollecting the associations that I think I have memories now. Yet, I felt sometimes I am just going through serially from one terminal node to another rather than traversing the 3 feature tree from top to bottom. Strange. Super fun!""}"
"2555.5999999046326","1285068","HierDyx1538o0t","sub08","08","6","","","","","","","","","",""
