"rt","time_elapsed","subject","subID","group","day","trialType","phase","key_press","stim","stimNum","corrresp","hierarchy","trialNum","corr","responses"
"12314.400000095367","12318","HierDy1lwqla7b","sub08","08","2","","","","","","","","","",""
"","16076","HierDy1lwqla7b","sub08","08","2","fullscreen","","","","","","","","",""
"38821.700000047684","54899","HierDy1lwqla7b","sub08","08","2","","prac","","","","","","","",""
"2969.9000000953674","57860","HierDy1lwqla7b","sub08","08","2","","","32","","","","","","",""
"4518.899999856949","62381","HierDy1lwqla7b","sub08","08","2","","prac","","","","","","","",""
"1086.5","63470","HierDy1lwqla7b","sub08","08","2","rl","test","83","img/p_t_check.png","2","83","pattern,color,shape","1","1",""
"null","64480","HierDy1lwqla7b","sub08","08","2","feedback","test","null","","","na","","1","",""
"799.3000001907349","65281","HierDy1lwqla7b","sub08","08","2","rl","test","72","img/p_d_diag.png","5","72","pattern,color,shape","2","1",""
"null","66287","HierDy1lwqla7b","sub08","08","2","feedback","test","null","","","na","","2","",""
"1261.9000000953674","67551","HierDy1lwqla7b","sub08","08","2","rl","test","68","img/r_d_check.png","3","68","pattern,color,shape","3","1",""
"null","68565","HierDy1lwqla7b","sub08","08","2","feedback","test","null","","","na","","3","",""
"1594","70160","HierDy1lwqla7b","sub08","08","2","rl","test","74","img/p_t_diag.png","6","74","pattern,color,shape","4","1",""
"null","71174","HierDy1lwqla7b","sub08","08","2","feedback","test","null","","","na","","4","",""
"624.5","71800","HierDy1lwqla7b","sub08","08","2","rl","test","65","img/p_d_check.png","1","65","pattern,color,shape","5","1",""
"null","72807","HierDy1lwqla7b","sub08","08","2","feedback","test","null","","","na","","5","",""
"791.3999998569489","73600","HierDy1lwqla7b","sub08","08","2","rl","test","83","img/r_t_check.png","4","70","pattern,color,shape","6","0",""
"null","74606","HierDy1lwqla7b","sub08","08","2","feedback","test","null","","","na","","6","",""
"1503","76110","HierDy1lwqla7b","sub08","08","2","rl","test","74","img/r_t_diag.png","8","76","pattern,color,shape","7","0",""
"null","77118","HierDy1lwqla7b","sub08","08","2","feedback","test","null","","","na","","7","",""
"1381.6000001430511","78501","HierDy1lwqla7b","sub08","08","2","rl","test","75","img/r_d_diag.png","7","75","pattern,color,shape","8","1",""
"null","79524","HierDy1lwqla7b","sub08","08","2","feedback","test","null","","","na","","8","",""
"1095.2000000476837","80620","HierDy1lwqla7b","sub08","08","2","rl","test","65","img/p_d_check.png","1","65","pattern,color,shape","9","1",""
"null","81630","HierDy1lwqla7b","sub08","08","2","feedback","test","null","","","na","","9","",""
"1248.5999999046326","82880","HierDy1lwqla7b","sub08","08","2","rl","test","76","img/r_t_diag.png","8","76","pattern,color,shape","10","1",""
"null","83893","HierDy1lwqla7b","sub08","08","2","feedback","test","null","","","na","","10","",""
"845.1000001430511","84740","HierDy1lwqla7b","sub08","08","2","rl","test","72","img/p_d_diag.png","5","72","pattern,color,shape","11","1",""
"null","85750","HierDy1lwqla7b","sub08","08","2","feedback","test","null","","","na","","11","",""
"778.9000000953674","86531","HierDy1lwqla7b","sub08","08","2","rl","test","74","img/p_t_diag.png","6","74","pattern,color,shape","12","1",""
"null","87537","HierDy1lwqla7b","sub08","08","2","feedback","test","null","","","na","","12","",""
"771.7999999523163","88310","HierDy1lwqla7b","sub08","08","2","rl","test","75","img/r_d_diag.png","7","75","pattern,color,shape","13","1",""
"null","89321","HierDy1lwqla7b","sub08","08","2","feedback","test","null","","","na","","13","",""
"1057.2000000476837","90380","HierDy1lwqla7b","sub08","08","2","rl","test","68","img/p_t_check.png","2","83","pattern,color,shape","14","0",""
"null","91402","HierDy1lwqla7b","sub08","08","2","feedback","test","null","","","na","","14","",""
"1527.3999998569489","92931","HierDy1lwqla7b","sub08","08","2","rl","test","75","img/r_d_diag.png","7","75","pattern,color,shape","15","1",""
"null","93950","HierDy1lwqla7b","sub08","08","2","feedback","test","null","","","na","","15","",""
"858.3999998569489","94810","HierDy1lwqla7b","sub08","08","2","rl","test","83","img/r_t_check.png","4","70","pattern,color,shape","16","0",""
"null","95823","HierDy1lwqla7b","sub08","08","2","feedback","test","null","","","na","","16","",""
"826.1999998092651","96651","HierDy1lwqla7b","sub08","08","2","rl","test","68","img/r_d_check.png","3","68","pattern,color,shape","17","1",""
"null","97673","HierDy1lwqla7b","sub08","08","2","feedback","test","null","","","na","","17","",""
"625.5999999046326","98301","HierDy1lwqla7b","sub08","08","2","rl","test","68","img/r_d_check.png","3","68","pattern,color,shape","18","1",""
"null","99324","HierDy1lwqla7b","sub08","08","2","feedback","test","null","","","na","","18","",""
"705.2999999523163","100031","HierDy1lwqla7b","sub08","08","2","rl","test","70","img/r_t_check.png","4","70","pattern,color,shape","19","1",""
"null","101045","HierDy1lwqla7b","sub08","08","2","feedback","test","null","","","na","","19","",""
"653.7000000476837","101700","HierDy1lwqla7b","sub08","08","2","rl","test","65","img/p_d_check.png","1","65","pattern,color,shape","20","1",""
"null","102715","HierDy1lwqla7b","sub08","08","2","feedback","test","null","","","na","","20","",""
"844.1000001430511","103561","HierDy1lwqla7b","sub08","08","2","rl","test","76","img/r_t_diag.png","8","76","pattern,color,shape","21","1",""
"null","104573","HierDy1lwqla7b","sub08","08","2","feedback","test","null","","","na","","21","",""
"1086.2999999523163","105661","HierDy1lwqla7b","sub08","08","2","rl","test","65","img/p_d_check.png","1","65","pattern,color,shape","22","1",""
"null","106682","HierDy1lwqla7b","sub08","08","2","feedback","test","null","","","na","","22","",""
"1146.7000000476837","107831","HierDy1lwqla7b","sub08","08","2","rl","test","72","img/p_d_diag.png","5","72","pattern,color,shape","23","1",""
"null","108843","HierDy1lwqla7b","sub08","08","2","feedback","test","null","","","na","","23","",""
"616.2000000476837","109460","HierDy1lwqla7b","sub08","08","2","rl","test","72","img/p_d_diag.png","5","72","pattern,color,shape","24","1",""
"null","110482","HierDy1lwqla7b","sub08","08","2","feedback","test","null","","","na","","24","",""
"736.2000000476837","111220","HierDy1lwqla7b","sub08","08","2","rl","test","74","img/p_t_diag.png","6","74","pattern,color,shape","25","1",""
"null","112232","HierDy1lwqla7b","sub08","08","2","feedback","test","null","","","na","","25","",""
"736.7000000476837","112970","HierDy1lwqla7b","sub08","08","2","rl","test","83","img/p_t_check.png","2","83","pattern,color,shape","26","1",""
"null","113982","HierDy1lwqla7b","sub08","08","2","feedback","test","null","","","na","","26","",""
"876.9000000953674","114861","HierDy1lwqla7b","sub08","08","2","rl","test","76","img/r_t_diag.png","8","76","pattern,color,shape","27","1",""
"null","115872","HierDy1lwqla7b","sub08","08","2","feedback","test","null","","","na","","27","",""
"1457.0999999046326","117331","HierDy1lwqla7b","sub08","08","2","rl","test","83","img/r_d_check.png","3","68","pattern,color,shape","28","0",""
"null","118361","HierDy1lwqla7b","sub08","08","2","feedback","test","null","","","na","","28","",""
"1712.5999999046326","120075","HierDy1lwqla7b","sub08","08","2","rl","test","76","img/p_t_diag.png","6","74","pattern,color,shape","29","0",""
"null","121096","HierDy1lwqla7b","sub08","08","2","feedback","test","null","","","na","","29","",""
"836.7999999523163","121935","HierDy1lwqla7b","sub08","08","2","rl","test","75","img/r_d_diag.png","7","75","pattern,color,shape","30","1",""
"null","122939","HierDy1lwqla7b","sub08","08","2","feedback","test","null","","","na","","30","",""
"814","123755","HierDy1lwqla7b","sub08","08","2","rl","test","83","img/p_t_check.png","2","83","pattern,color,shape","31","1",""
"null","124766","HierDy1lwqla7b","sub08","08","2","feedback","test","null","","","na","","31","",""
"1047","125814","HierDy1lwqla7b","sub08","08","2","rl","test","70","img/r_t_check.png","4","70","pattern,color,shape","32","1",""
"null","126833","HierDy1lwqla7b","sub08","08","2","feedback","test","null","","","na","","32","",""
"701.0999999046326","127536","HierDy1lwqla7b","sub08","08","2","rl","test","70","img/r_t_check.png","4","70","pattern,color,shape","33","1",""
"null","128542","HierDy1lwqla7b","sub08","08","2","feedback","test","null","","","na","","33","",""
"721.3999998569489","129265","HierDy1lwqla7b","sub08","08","2","rl","test","68","img/r_d_check.png","3","68","pattern,color,shape","34","1",""
"null","130278","HierDy1lwqla7b","sub08","08","2","feedback","test","null","","","na","","34","",""
"887.1000001430511","131167","HierDy1lwqla7b","sub08","08","2","rl","test","72","img/p_d_diag.png","5","72","pattern,color,shape","35","1",""
"null","132173","HierDy1lwqla7b","sub08","08","2","feedback","test","null","","","na","","35","",""
"811.5","132986","HierDy1lwqla7b","sub08","08","2","rl","test","65","img/p_d_check.png","1","65","pattern,color,shape","36","1",""
"null","134002","HierDy1lwqla7b","sub08","08","2","feedback","test","null","","","na","","36","",""
"1601.4000000953674","135605","HierDy1lwqla7b","sub08","08","2","rl","test","74","img/p_t_diag.png","6","74","pattern,color,shape","37","1",""
"null","136612","HierDy1lwqla7b","sub08","08","2","feedback","test","null","","","na","","37","",""
"911.5","137525","HierDy1lwqla7b","sub08","08","2","rl","test","83","img/p_t_check.png","2","83","pattern,color,shape","38","1",""
"null","138532","HierDy1lwqla7b","sub08","08","2","feedback","test","null","","","na","","38","",""
"1122","139655","HierDy1lwqla7b","sub08","08","2","rl","test","75","img/r_d_diag.png","7","75","pattern,color,shape","39","1",""
"null","140667","HierDy1lwqla7b","sub08","08","2","feedback","test","null","","","na","","39","",""
"1027.1999998092651","141695","HierDy1lwqla7b","sub08","08","2","rl","test","76","img/p_t_diag.png","6","74","pattern,color,shape","40","0",""
"null","142699","HierDy1lwqla7b","sub08","08","2","feedback","test","null","","","na","","40","",""
"454.2000000476837","143154","HierDy1lwqla7b","sub08","08","2","rl","test","76","img/r_t_diag.png","8","76","pattern,color,shape","41","1",""
"null","144176","HierDy1lwqla7b","sub08","08","2","feedback","test","null","","","na","","41","",""
"1087.0999999046326","145265","HierDy1lwqla7b","sub08","08","2","rl","test","83","img/p_t_check.png","2","83","pattern,color,shape","42","1",""
"null","146273","HierDy1lwqla7b","sub08","08","2","feedback","test","null","","","na","","42","",""
"1039.9000000953674","147315","HierDy1lwqla7b","sub08","08","2","rl","test","76","img/r_t_diag.png","8","76","pattern,color,shape","43","1",""
"null","148336","HierDy1lwqla7b","sub08","08","2","feedback","test","null","","","na","","43","",""
"797.5999999046326","149135","HierDy1lwqla7b","sub08","08","2","rl","test","83","img/r_t_check.png","4","70","pattern,color,shape","44","0",""
"null","150146","HierDy1lwqla7b","sub08","08","2","feedback","test","null","","","na","","44","",""
"1616.7999999523163","151765","HierDy1lwqla7b","sub08","08","2","rl","test","75","img/r_d_diag.png","7","75","pattern,color,shape","45","1",""
"null","152774","HierDy1lwqla7b","sub08","08","2","feedback","test","null","","","na","","45","",""
"880","153655","HierDy1lwqla7b","sub08","08","2","rl","test","65","img/p_d_check.png","1","65","pattern,color,shape","46","1",""
"null","154671","HierDy1lwqla7b","sub08","08","2","feedback","test","null","","","na","","46","",""
"772.5","155445","HierDy1lwqla7b","sub08","08","2","rl","test","72","img/p_d_diag.png","5","72","pattern,color,shape","47","1",""
"null","156459","HierDy1lwqla7b","sub08","08","2","feedback","test","null","","","na","","47","",""
"1424.4000000953674","157886","HierDy1lwqla7b","sub08","08","2","rl","test","68","img/r_d_check.png","3","68","pattern,color,shape","48","1",""
"null","158893","HierDy1lwqla7b","sub08","08","2","feedback","test","null","","","na","","48","",""
"1250","160144","HierDy1lwqla7b","sub08","08","2","rl","test","72","img/p_d_diag.png","5","72","pattern,color,shape","49","1",""
"null","161153","HierDy1lwqla7b","sub08","08","2","feedback","test","null","","","na","","49","",""
"771.5","161926","HierDy1lwqla7b","sub08","08","2","rl","test","65","img/p_d_check.png","1","65","pattern,color,shape","50","1",""
"null","162933","HierDy1lwqla7b","sub08","08","2","feedback","test","null","","","na","","50","",""
"560.7000000476837","163495","HierDy1lwqla7b","sub08","08","2","rl","test","83","img/p_t_check.png","2","83","pattern,color,shape","51","1",""
"null","164507","HierDy1lwqla7b","sub08","08","2","feedback","test","null","","","na","","51","",""
"678.1999998092651","165187","HierDy1lwqla7b","sub08","08","2","rl","test","68","img/r_t_check.png","4","70","pattern,color,shape","52","0",""
"null","166209","HierDy1lwqla7b","sub08","08","2","feedback","test","null","","","na","","52","",""
"604.7999999523163","166815","HierDy1lwqla7b","sub08","08","2","rl","test","68","img/r_d_check.png","3","68","pattern,color,shape","53","1",""
"null","167827","HierDy1lwqla7b","sub08","08","2","feedback","test","null","","","na","","53","",""
"566.2999999523163","168395","HierDy1lwqla7b","sub08","08","2","rl","test","68","img/r_d_check.png","3","68","pattern,color,shape","54","1",""
"null","169406","HierDy1lwqla7b","sub08","08","2","feedback","test","null","","","na","","54","",""
"1137.1000001430511","170545","HierDy1lwqla7b","sub08","08","2","rl","test","74","img/p_t_diag.png","6","74","pattern,color,shape","55","1",""
"null","171553","HierDy1lwqla7b","sub08","08","2","feedback","test","null","","","na","","55","",""
"791.1999998092651","172345","HierDy1lwqla7b","sub08","08","2","rl","test","76","img/r_t_diag.png","8","76","pattern,color,shape","56","1",""
"null","173366","HierDy1lwqla7b","sub08","08","2","feedback","test","null","","","na","","56","",""
"797.2000000476837","174165","HierDy1lwqla7b","sub08","08","2","rl","test","65","img/p_d_check.png","1","65","pattern,color,shape","57","1",""
"null","175177","HierDy1lwqla7b","sub08","08","2","feedback","test","null","","","na","","57","",""
"1257.2000000476837","176436","HierDy1lwqla7b","sub08","08","2","rl","test","75","img/r_d_diag.png","7","75","pattern,color,shape","58","1",""
"null","177447","HierDy1lwqla7b","sub08","08","2","feedback","test","null","","","na","","58","",""
"676.3999998569489","178125","HierDy1lwqla7b","sub08","08","2","rl","test","76","img/r_t_diag.png","8","76","pattern,color,shape","59","1",""
"null","179147","HierDy1lwqla7b","sub08","08","2","feedback","test","null","","","na","","59","",""
"916.2000000476837","180064","HierDy1lwqla7b","sub08","08","2","rl","test","83","img/p_t_check.png","2","83","pattern,color,shape","60","1",""
"null","181076","HierDy1lwqla7b","sub08","08","2","feedback","test","null","","","na","","60","",""
"956.7000000476837","182034","HierDy1lwqla7b","sub08","08","2","rl","test","75","img/r_d_diag.png","7","75","pattern,color,shape","61","1",""
"null","183047","HierDy1lwqla7b","sub08","08","2","feedback","test","null","","","na","","61","",""
"2345.4000000953674","185395","HierDy1lwqla7b","sub08","08","2","rl","test","83","img/r_t_check.png","4","70","pattern,color,shape","62","0",""
"null","186408","HierDy1lwqla7b","sub08","08","2","feedback","test","null","","","na","","62","",""
"1385","187794","HierDy1lwqla7b","sub08","08","2","rl","test","74","img/p_t_diag.png","6","74","pattern,color,shape","63","1",""
"null","188803","HierDy1lwqla7b","sub08","08","2","feedback","test","null","","","na","","63","",""
"449.7999999523163","189254","HierDy1lwqla7b","sub08","08","2","rl","test","72","img/p_d_diag.png","5","72","pattern,color,shape","64","1",""
"null","190261","HierDy1lwqla7b","sub08","08","2","feedback","test","null","","","na","","64","",""
"1032.5","191295","HierDy1lwqla7b","sub08","08","2","rl","test","75","img/r_d_diag.png","7","75","pattern,color,shape","65","1",""
"null","192301","HierDy1lwqla7b","sub08","08","2","feedback","test","null","","","na","","65","",""
"692.9000000953674","192995","HierDy1lwqla7b","sub08","08","2","rl","test","65","img/r_d_check.png","3","68","pattern,color,shape","66","0",""
"null","194006","HierDy1lwqla7b","sub08","08","2","feedback","test","null","","","na","","66","",""
"836.9000000953674","194844","HierDy1lwqla7b","sub08","08","2","rl","test","70","img/r_t_check.png","4","70","pattern,color,shape","67","1",""
"null","195863","HierDy1lwqla7b","sub08","08","2","feedback","test","null","","","na","","67","",""
"689.5","196554","HierDy1lwqla7b","sub08","08","2","rl","test","65","img/p_d_check.png","1","65","pattern,color,shape","68","1",""
"null","197576","HierDy1lwqla7b","sub08","08","2","feedback","test","null","","","na","","68","",""
"1317.2000000476837","198895","HierDy1lwqla7b","sub08","08","2","rl","test","76","img/p_t_diag.png","6","74","pattern,color,shape","69","0",""
"null","199901","HierDy1lwqla7b","sub08","08","2","feedback","test","null","","","na","","69","",""
"1072.2000000476837","200974","HierDy1lwqla7b","sub08","08","2","rl","test","72","img/p_d_diag.png","5","72","pattern,color,shape","70","1",""
"null","201981","HierDy1lwqla7b","sub08","08","2","feedback","test","null","","","na","","70","",""
"522.3999998569489","202505","HierDy1lwqla7b","sub08","08","2","rl","test","74","img/p_t_diag.png","6","74","pattern,color,shape","71","1",""
"null","203517","HierDy1lwqla7b","sub08","08","2","feedback","test","null","","","na","","71","",""
"665.6000001430511","204184","HierDy1lwqla7b","sub08","08","2","rl","test","76","img/r_t_diag.png","8","76","pattern,color,shape","72","1",""
"null","205201","HierDy1lwqla7b","sub08","08","2","feedback","test","null","","","na","","72","",""
"732.9000000953674","205935","HierDy1lwqla7b","sub08","08","2","rl","test","76","img/r_t_diag.png","8","76","pattern,color,shape","73","1",""
"null","206947","HierDy1lwqla7b","sub08","08","2","feedback","test","null","","","na","","73","",""
"686.3999998569489","207635","HierDy1lwqla7b","sub08","08","2","rl","test","83","img/p_t_check.png","2","83","pattern,color,shape","74","1",""
"null","208652","HierDy1lwqla7b","sub08","08","2","feedback","test","null","","","na","","74","",""
"461.10000014305115","209114","HierDy1lwqla7b","sub08","08","2","rl","test","65","img/p_d_check.png","1","65","pattern,color,shape","75","1",""
"null","210124","HierDy1lwqla7b","sub08","08","2","feedback","test","null","","","na","","75","",""
"608.8999998569489","210734","HierDy1lwqla7b","sub08","08","2","rl","test","83","img/p_t_check.png","2","83","pattern,color,shape","76","1",""
"null","211749","HierDy1lwqla7b","sub08","08","2","feedback","test","null","","","na","","76","",""
"853.4000000953674","212604","HierDy1lwqla7b","sub08","08","2","rl","test","72","img/p_d_diag.png","5","72","pattern,color,shape","77","1",""
"null","213623","HierDy1lwqla7b","sub08","08","2","feedback","test","null","","","na","","77","",""
"1280.2999999523163","214904","HierDy1lwqla7b","sub08","08","2","rl","test","68","img/r_d_check.png","3","68","pattern,color,shape","78","1",""
"null","215916","HierDy1lwqla7b","sub08","08","2","feedback","test","null","","","na","","78","",""
"1076.5","216994","HierDy1lwqla7b","sub08","08","2","rl","test","72","img/r_d_diag.png","7","75","pattern,color,shape","79","0",""
"null","218009","HierDy1lwqla7b","sub08","08","2","feedback","test","null","","","na","","79","",""
"754.5999999046326","218765","HierDy1lwqla7b","sub08","08","2","rl","test","65","img/p_d_check.png","1","65","pattern,color,shape","80","1",""
"null","219778","HierDy1lwqla7b","sub08","08","2","feedback","test","null","","","na","","80","",""
"935","220714","HierDy1lwqla7b","sub08","08","2","rl","test","68","img/r_d_check.png","3","68","pattern,color,shape","81","1",""
"null","221723","HierDy1lwqla7b","sub08","08","2","feedback","test","null","","","na","","81","",""
"839.8999998569489","222564","HierDy1lwqla7b","sub08","08","2","rl","test","70","img/r_t_check.png","4","70","pattern,color,shape","82","1",""
"null","223578","HierDy1lwqla7b","sub08","08","2","feedback","test","null","","","na","","82","",""
"664.5","224244","HierDy1lwqla7b","sub08","08","2","rl","test","76","img/r_t_diag.png","8","76","pattern,color,shape","83","1",""
"null","225265","HierDy1lwqla7b","sub08","08","2","feedback","test","null","","","na","","83","",""
"1847.7000000476837","227114","HierDy1lwqla7b","sub08","08","2","rl","test","74","img/p_t_check.png","2","83","pattern,color,shape","84","0",""
"null","228137","HierDy1lwqla7b","sub08","08","2","feedback","test","null","","","na","","84","",""
"1915.9000000953674","230055","HierDy1lwqla7b","sub08","08","2","rl","test","70","img/r_t_check.png","4","70","pattern,color,shape","85","1",""
"null","231064","HierDy1lwqla7b","sub08","08","2","feedback","test","null","","","na","","85","",""
"1318.1000001430511","232384","HierDy1lwqla7b","sub08","08","2","rl","test","74","img/p_t_diag.png","6","74","pattern,color,shape","86","1",""
"null","233387","HierDy1lwqla7b","sub08","08","2","feedback","test","null","","","na","","86","",""
"1395.2999999523163","234784","HierDy1lwqla7b","sub08","08","2","rl","test","72","img/p_d_diag.png","5","72","pattern,color,shape","87","1",""
"null","235796","HierDy1lwqla7b","sub08","08","2","feedback","test","null","","","na","","87","",""
"916.4000000953674","236714","HierDy1lwqla7b","sub08","08","2","rl","test","75","img/r_d_diag.png","7","75","pattern,color,shape","88","1",""
"null","237721","HierDy1lwqla7b","sub08","08","2","feedback","test","null","","","na","","88","",""
"640.8999998569489","238364","HierDy1lwqla7b","sub08","08","2","rl","test","75","img/r_d_diag.png","7","75","pattern,color,shape","89","1",""
"null","239379","HierDy1lwqla7b","sub08","08","2","feedback","test","null","","","na","","89","",""
"693.5999999046326","240075","HierDy1lwqla7b","sub08","08","2","rl","test","76","img/p_t_diag.png","6","74","pattern,color,shape","90","0",""
"null","241097","HierDy1lwqla7b","sub08","08","2","feedback","test","null","","","na","","90","",""
"1025.0999999046326","242124","HierDy1lwqla7b","sub08","08","2","rl","test","65","img/p_d_check.png","1","65","pattern,color,shape","91","1",""
"null","243136","HierDy1lwqla7b","sub08","08","2","feedback","test","null","","","na","","91","",""
"845.9000000953674","243984","HierDy1lwqla7b","sub08","08","2","rl","test","68","img/r_d_check.png","3","68","pattern,color,shape","92","1",""
"null","245005","HierDy1lwqla7b","sub08","08","2","feedback","test","null","","","na","","92","",""
"717.7999999523163","245724","HierDy1lwqla7b","sub08","08","2","rl","test","72","img/p_d_diag.png","5","72","pattern,color,shape","93","1",""
"null","246736","HierDy1lwqla7b","sub08","08","2","feedback","test","null","","","na","","93","",""
"1096.5999999046326","247835","HierDy1lwqla7b","sub08","08","2","rl","test","70","img/r_t_check.png","4","70","pattern,color,shape","94","1",""
"null","248847","HierDy1lwqla7b","sub08","08","2","feedback","test","null","","","na","","94","",""
"765.6999998092651","249614","HierDy1lwqla7b","sub08","08","2","rl","test","76","img/r_t_diag.png","8","76","pattern,color,shape","95","1",""
"null","250620","HierDy1lwqla7b","sub08","08","2","feedback","test","null","","","na","","95","",""
"1012.5999999046326","251634","HierDy1lwqla7b","sub08","08","2","rl","test","68","img/r_d_check.png","3","68","pattern,color,shape","96","1",""
"null","252655","HierDy1lwqla7b","sub08","08","2","feedback","test","null","","","na","","96","",""
"757.2000000476837","253414","HierDy1lwqla7b","sub08","08","2","rl","test","83","img/p_t_check.png","2","83","pattern,color,shape","97","1",""
"null","254425","HierDy1lwqla7b","sub08","08","2","feedback","test","null","","","na","","97","",""
"697.5","255124","HierDy1lwqla7b","sub08","08","2","rl","test","76","img/p_t_diag.png","6","74","pattern,color,shape","98","0",""
"null","256132","HierDy1lwqla7b","sub08","08","2","feedback","test","null","","","na","","98","",""
"890.8000001907349","257024","HierDy1lwqla7b","sub08","08","2","rl","test","83","img/r_t_check.png","4","70","pattern,color,shape","99","0",""
"null","258028","HierDy1lwqla7b","sub08","08","2","feedback","test","null","","","na","","99","",""
"824.1000001430511","258854","HierDy1lwqla7b","sub08","08","2","rl","test","72","img/p_d_diag.png","5","72","pattern,color,shape","100","1",""
"null","259861","HierDy1lwqla7b","sub08","08","2","feedback","test","null","","","na","","100","",""
"791.9000000953674","260654","HierDy1lwqla7b","sub08","08","2","rl","test","75","img/r_d_diag.png","7","75","pattern,color,shape","101","1",""
"null","261662","HierDy1lwqla7b","sub08","08","2","feedback","test","null","","","na","","101","",""
"881","262544","HierDy1lwqla7b","sub08","08","2","rl","test","83","img/p_t_check.png","2","83","pattern,color,shape","102","1",""
"null","263552","HierDy1lwqla7b","sub08","08","2","feedback","test","null","","","na","","102","",""
"720.6000001430511","264274","HierDy1lwqla7b","sub08","08","2","rl","test","72","img/r_d_diag.png","7","75","pattern,color,shape","103","0",""
"null","265293","HierDy1lwqla7b","sub08","08","2","feedback","test","null","","","na","","103","",""
"1009.6000001430511","266304","HierDy1lwqla7b","sub08","08","2","rl","test","65","img/p_d_check.png","1","65","pattern,color,shape","104","1",""
"null","267317","HierDy1lwqla7b","sub08","08","2","feedback","test","null","","","na","","104","",""
"635.2000000476837","267954","HierDy1lwqla7b","sub08","08","2","rl","test","65","img/p_d_check.png","1","65","pattern,color,shape","105","1",""
"null","268976","HierDy1lwqla7b","sub08","08","2","feedback","test","null","","","na","","105","",""
"1376.5","270354","HierDy1lwqla7b","sub08","08","2","rl","test","76","img/r_t_diag.png","8","76","pattern,color,shape","106","1",""
"null","271368","HierDy1lwqla7b","sub08","08","2","feedback","test","null","","","na","","106","",""
"694.7000000476837","272065","HierDy1lwqla7b","sub08","08","2","rl","test","74","img/p_t_diag.png","6","74","pattern,color,shape","107","1",""
"null","273079","HierDy1lwqla7b","sub08","08","2","feedback","test","null","","","na","","107","",""
"724.7000000476837","273805","HierDy1lwqla7b","sub08","08","2","rl","test","76","img/r_t_diag.png","8","76","pattern,color,shape","108","1",""
"null","274813","HierDy1lwqla7b","sub08","08","2","feedback","test","null","","","na","","108","",""
"1019.2000000476837","275834","HierDy1lwqla7b","sub08","08","2","rl","test","83","img/r_t_check.png","4","70","pattern,color,shape","109","0",""
"null","276853","HierDy1lwqla7b","sub08","08","2","feedback","test","null","","","na","","109","",""
"929.8999998569489","277785","HierDy1lwqla7b","sub08","08","2","rl","test","68","img/r_d_check.png","3","68","pattern,color,shape","110","1",""
"null","278797","HierDy1lwqla7b","sub08","08","2","feedback","test","null","","","na","","110","",""
"1455.7000000476837","280254","HierDy1lwqla7b","sub08","08","2","rl","test","75","img/r_d_diag.png","7","75","pattern,color,shape","111","1",""
"null","281268","HierDy1lwqla7b","sub08","08","2","feedback","test","null","","","na","","111","",""
"1115.6000001430511","282385","HierDy1lwqla7b","sub08","08","2","rl","test","70","img/r_t_check.png","4","70","pattern,color,shape","112","1",""
"null","283399","HierDy1lwqla7b","sub08","08","2","feedback","test","null","","","na","","112","",""
"1004.8999998569489","284405","HierDy1lwqla7b","sub08","08","2","rl","test","74","img/p_t_diag.png","6","74","pattern,color,shape","113","1",""
"null","285414","HierDy1lwqla7b","sub08","08","2","feedback","test","null","","","na","","113","",""
"689.7999999523163","286105","HierDy1lwqla7b","sub08","08","2","rl","test","72","img/p_d_diag.png","5","72","pattern,color,shape","114","1",""
"null","287118","HierDy1lwqla7b","sub08","08","2","feedback","test","null","","","na","","114","",""
"625","287745","HierDy1lwqla7b","sub08","08","2","rl","test","76","img/r_t_diag.png","8","76","pattern,color,shape","115","1",""
"null","288768","HierDy1lwqla7b","sub08","08","2","feedback","test","null","","","na","","115","",""
"976.7000000476837","289746","HierDy1lwqla7b","sub08","08","2","rl","test","83","img/p_t_check.png","2","83","pattern,color,shape","116","1",""
"null","290767","HierDy1lwqla7b","sub08","08","2","feedback","test","null","","","na","","116","",""
"617","291386","HierDy1lwqla7b","sub08","08","2","rl","test","83","img/p_t_check.png","2","83","pattern,color,shape","117","1",""
"null","292392","HierDy1lwqla7b","sub08","08","2","feedback","test","null","","","na","","117","",""
"871.4000000953674","293265","HierDy1lwqla7b","sub08","08","2","rl","test","72","img/p_d_diag.png","5","72","pattern,color,shape","118","1",""
"null","294287","HierDy1lwqla7b","sub08","08","2","feedback","test","null","","","na","","118","",""
"1516.7999999523163","295806","HierDy1lwqla7b","sub08","08","2","rl","test","68","img/r_d_check.png","3","68","pattern,color,shape","119","1",""
"null","296814","HierDy1lwqla7b","sub08","08","2","feedback","test","null","","","na","","119","",""
"678.7000000476837","297494","HierDy1lwqla7b","sub08","08","2","rl","test","65","img/p_d_check.png","1","65","pattern,color,shape","120","1",""
"null","298503","HierDy1lwqla7b","sub08","08","2","feedback","test","null","","","na","","120","",""
"1740.5","300246","HierDy1lwqla7b","sub08","08","2","rl","test","75","img/r_d_diag.png","7","75","pattern,color,shape","121","1",""
"null","301261","HierDy1lwqla7b","sub08","08","2","feedback","test","null","","","na","","121","",""
"933.2999999523163","302195","HierDy1lwqla7b","sub08","08","2","rl","test","65","img/p_d_check.png","1","65","pattern,color,shape","122","1",""
"null","303217","HierDy1lwqla7b","sub08","08","2","feedback","test","null","","","na","","122","",""
"877.6000001430511","304096","HierDy1lwqla7b","sub08","08","2","rl","test","72","img/p_d_diag.png","5","72","pattern,color,shape","123","1",""
"null","305110","HierDy1lwqla7b","sub08","08","2","feedback","test","null","","","na","","123","",""
"1254.5","306366","HierDy1lwqla7b","sub08","08","2","rl","test","83","img/r_t_check.png","4","70","pattern,color,shape","124","0",""
"null","307374","HierDy1lwqla7b","sub08","08","2","feedback","test","null","","","na","","124","",""
"1009.7999999523163","308385","HierDy1lwqla7b","sub08","08","2","rl","test","68","img/r_d_check.png","3","68","pattern,color,shape","125","1",""
"null","309395","HierDy1lwqla7b","sub08","08","2","feedback","test","null","","","na","","125","",""
"939.6000001430511","310336","HierDy1lwqla7b","sub08","08","2","rl","test","76","img/r_t_diag.png","8","76","pattern,color,shape","126","1",""
"null","311344","HierDy1lwqla7b","sub08","08","2","feedback","test","null","","","na","","126","",""
"699.7999999523163","312046","HierDy1lwqla7b","sub08","08","2","rl","test","83","img/p_t_check.png","2","83","pattern,color,shape","127","1",""
"null","313060","HierDy1lwqla7b","sub08","08","2","feedback","test","null","","","na","","127","",""
"1054","314116","HierDy1lwqla7b","sub08","08","2","rl","test","74","img/p_t_diag.png","6","74","pattern,color,shape","128","1",""
"null","315137","HierDy1lwqla7b","sub08","08","2","feedback","test","null","","","na","","128","",""
"1187","316326","HierDy1lwqla7b","sub08","08","2","rl","test","75","img/r_d_diag.png","7","75","pattern,color,shape","129","1",""
"null","317339","HierDy1lwqla7b","sub08","08","2","feedback","test","null","","","na","","129","",""
"825.7000000476837","318166","HierDy1lwqla7b","sub08","08","2","rl","test","72","img/p_d_diag.png","5","72","pattern,color,shape","130","1",""
"null","319172","HierDy1lwqla7b","sub08","08","2","feedback","test","null","","","na","","130","",""
"1251.7000000476837","320426","HierDy1lwqla7b","sub08","08","2","rl","test","83","img/p_t_check.png","2","83","pattern,color,shape","131","1",""
"null","321450","HierDy1lwqla7b","sub08","08","2","feedback","test","null","","","na","","131","",""
"944.5","322396","HierDy1lwqla7b","sub08","08","2","rl","test","72","img/r_d_diag.png","7","75","pattern,color,shape","132","0",""
"null","323408","HierDy1lwqla7b","sub08","08","2","feedback","test","null","","","na","","132","",""
"757.6000001430511","324167","HierDy1lwqla7b","sub08","08","2","rl","test","65","img/p_d_check.png","1","65","pattern,color,shape","133","1",""
"null","325175","HierDy1lwqla7b","sub08","08","2","feedback","test","null","","","na","","133","",""
"1289.2000000476837","326466","HierDy1lwqla7b","sub08","08","2","rl","test","68","img/r_d_check.png","3","68","pattern,color,shape","134","1",""
"null","327487","HierDy1lwqla7b","sub08","08","2","feedback","test","null","","","na","","134","",""
"576.8999998569489","328066","HierDy1lwqla7b","sub08","08","2","rl","test","68","img/r_d_check.png","3","68","pattern,color,shape","135","1",""
"null","329089","HierDy1lwqla7b","sub08","08","2","feedback","test","null","","","na","","135","",""
"735","329826","HierDy1lwqla7b","sub08","08","2","rl","test","70","img/r_t_check.png","4","70","pattern,color,shape","136","1",""
"null","330838","HierDy1lwqla7b","sub08","08","2","feedback","test","null","","","na","","136","",""
"1385.9000000953674","332226","HierDy1lwqla7b","sub08","08","2","rl","test","74","img/p_t_diag.png","6","74","pattern,color,shape","137","1",""
"null","333238","HierDy1lwqla7b","sub08","08","2","feedback","test","null","","","na","","137","",""
"815.9000000953674","334056","HierDy1lwqla7b","sub08","08","2","rl","test","83","img/p_t_check.png","2","83","pattern,color,shape","138","1",""
"null","335069","HierDy1lwqla7b","sub08","08","2","feedback","test","null","","","na","","138","",""
"824.7000000476837","335896","HierDy1lwqla7b","sub08","08","2","rl","test","76","img/r_t_diag.png","8","76","pattern,color,shape","139","1",""
"null","336909","HierDy1lwqla7b","sub08","08","2","feedback","test","null","","","na","","139","",""
"805.5","337715","HierDy1lwqla7b","sub08","08","2","rl","test","74","img/p_t_diag.png","6","74","pattern,color,shape","140","1",""
"null","338722","HierDy1lwqla7b","sub08","08","2","feedback","test","null","","","na","","140","",""
"802.7999999523163","339527","HierDy1lwqla7b","sub08","08","2","rl","test","72","img/p_d_diag.png","5","72","pattern,color,shape","141","1",""
"null","340537","HierDy1lwqla7b","sub08","08","2","feedback","test","null","","","na","","141","",""
"1307.7000000476837","341846","HierDy1lwqla7b","sub08","08","2","rl","test","70","img/r_t_check.png","4","70","pattern,color,shape","142","1",""
"null","342859","HierDy1lwqla7b","sub08","08","2","feedback","test","null","","","na","","142","",""
"754.7999999523163","343616","HierDy1lwqla7b","sub08","08","2","rl","test","76","img/r_t_diag.png","8","76","pattern,color,shape","143","1",""
"null","344624","HierDy1lwqla7b","sub08","08","2","feedback","test","null","","","na","","143","",""
"1010.1999998092651","345636","HierDy1lwqla7b","sub08","08","2","rl","test","70","img/r_t_check.png","4","70","pattern,color,shape","144","1",""
"null","346648","HierDy1lwqla7b","sub08","08","2","feedback","test","null","","","na","","144","",""
"746.3000001907349","347396","HierDy1lwqla7b","sub08","08","2","rl","test","65","img/p_d_check.png","1","65","pattern,color,shape","145","1",""
"null","348415","HierDy1lwqla7b","sub08","08","2","feedback","test","null","","","na","","145","",""
"1228.6000001430511","349646","HierDy1lwqla7b","sub08","08","2","rl","test","75","img/r_d_diag.png","7","75","pattern,color,shape","146","1",""
"null","350658","HierDy1lwqla7b","sub08","08","2","feedback","test","null","","","na","","146","",""
"915.2999999523163","351575","HierDy1lwqla7b","sub08","08","2","rl","test","65","img/p_d_check.png","1","65","pattern,color,shape","147","1",""
"null","352587","HierDy1lwqla7b","sub08","08","2","feedback","test","null","","","na","","147","",""
"836.7999999523163","353425","HierDy1lwqla7b","sub08","08","2","rl","test","68","img/r_d_check.png","3","68","pattern,color,shape","148","1",""
"null","354438","HierDy1lwqla7b","sub08","08","2","feedback","test","null","","","na","","148","",""
"986.0999999046326","355425","HierDy1lwqla7b","sub08","08","2","rl","test","72","img/p_d_diag.png","5","72","pattern,color,shape","149","1",""
"null","356444","HierDy1lwqla7b","sub08","08","2","feedback","test","null","","","na","","149","",""
"850.0999999046326","357296","HierDy1lwqla7b","sub08","08","2","rl","test","83","img/r_t_check.png","4","70","pattern,color,shape","150","0",""
"null","358306","HierDy1lwqla7b","sub08","08","2","feedback","test","null","","","na","","150","",""
"907.5","359216","HierDy1lwqla7b","sub08","08","2","rl","test","83","img/p_t_check.png","2","83","pattern,color,shape","151","1",""
"null","360222","HierDy1lwqla7b","sub08","08","2","feedback","test","null","","","na","","151","",""
"572.3000001907349","360789","HierDy1lwqla7b","sub08","08","2","rl","test","83","img/p_t_check.png","2","83","pattern,color,shape","152","1",""
"null","361801","HierDy1lwqla7b","sub08","08","2","feedback","test","null","","","na","","152","",""
"1266.2999999523163","363069","HierDy1lwqla7b","sub08","08","2","rl","test","68","img/r_d_check.png","3","68","pattern,color,shape","153","1",""
"null","364077","HierDy1lwqla7b","sub08","08","2","feedback","test","null","","","na","","153","",""
"1361.0999999046326","365439","HierDy1lwqla7b","sub08","08","2","rl","test","74","img/p_t_diag.png","6","74","pattern,color,shape","154","1",""
"null","366453","HierDy1lwqla7b","sub08","08","2","feedback","test","null","","","na","","154","",""
"974.9000000953674","367429","HierDy1lwqla7b","sub08","08","2","rl","test","65","img/p_d_check.png","1","65","pattern,color,shape","155","1",""
"null","368452","HierDy1lwqla7b","sub08","08","2","feedback","test","null","","","na","","155","",""
"976.5999999046326","369430","HierDy1lwqla7b","sub08","08","2","rl","test","76","img/r_t_diag.png","8","76","pattern,color,shape","156","1",""
"null","370451","HierDy1lwqla7b","sub08","08","2","feedback","test","null","","","na","","156","",""
"576.7000000476837","371029","HierDy1lwqla7b","sub08","08","2","rl","test","76","img/r_t_diag.png","8","76","pattern,color,shape","157","1",""
"null","372037","HierDy1lwqla7b","sub08","08","2","feedback","test","null","","","na","","157","",""
"610.4000000953674","372649","HierDy1lwqla7b","sub08","08","2","rl","test","74","img/p_t_diag.png","6","74","pattern,color,shape","158","1",""
"null","373656","HierDy1lwqla7b","sub08","08","2","feedback","test","null","","","na","","158","",""
"661.2999999523163","374319","HierDy1lwqla7b","sub08","08","2","rl","test","72","img/p_d_diag.png","5","72","pattern,color,shape","159","1",""
"null","375326","HierDy1lwqla7b","sub08","08","2","feedback","test","null","","","na","","159","",""
"792","376119","HierDy1lwqla7b","sub08","08","2","rl","test","76","img/r_t_diag.png","8","76","pattern,color,shape","160","1",""
"null","377129","HierDy1lwqla7b","sub08","08","2","feedback","test","null","","","na","","160","",""
"949.2999999523163","378079","HierDy1lwqla7b","sub08","08","2","rl","test","75","img/r_d_diag.png","7","75","pattern,color,shape","161","1",""
"null","379093","HierDy1lwqla7b","sub08","08","2","feedback","test","null","","","na","","161","",""
"714","379809","HierDy1lwqla7b","sub08","08","2","rl","test","65","img/p_d_check.png","1","65","pattern,color,shape","162","1",""
"null","380817","HierDy1lwqla7b","sub08","08","2","feedback","test","null","","","na","","162","",""
"1210.7000000476837","382030","HierDy1lwqla7b","sub08","08","2","rl","test","74","img/p_t_diag.png","6","74","pattern,color,shape","163","1",""
"null","383041","HierDy1lwqla7b","sub08","08","2","feedback","test","null","","","na","","163","",""
"637","383680","HierDy1lwqla7b","sub08","08","2","rl","test","72","img/p_d_diag.png","5","72","pattern,color,shape","164","1",""
"null","384692","HierDy1lwqla7b","sub08","08","2","feedback","test","null","","","na","","164","",""
"945.7999999523163","385639","HierDy1lwqla7b","sub08","08","2","rl","test","70","img/r_t_check.png","4","70","pattern,color,shape","165","1",""
"null","386650","HierDy1lwqla7b","sub08","08","2","feedback","test","null","","","na","","165","",""
"637.7999999523163","387289","HierDy1lwqla7b","sub08","08","2","rl","test","83","img/p_t_check.png","2","83","pattern,color,shape","166","1",""
"null","388303","HierDy1lwqla7b","sub08","08","2","feedback","test","null","","","na","","166","",""
"1214.2999999523163","389519","HierDy1lwqla7b","sub08","08","2","rl","test","75","img/r_d_diag.png","7","75","pattern,color,shape","167","1",""
"null","390528","HierDy1lwqla7b","sub08","08","2","feedback","test","null","","","na","","167","",""
"699.0999999046326","391229","HierDy1lwqla7b","sub08","08","2","rl","test","65","img/r_d_check.png","3","68","pattern,color,shape","168","0",""
"null","392243","HierDy1lwqla7b","sub08","08","2","feedback","test","null","","","na","","168","",""
"454","392699","HierDy1lwqla7b","sub08","08","2","rl","test","65","img/p_d_check.png","1","65","pattern,color,shape","169","1",""
"null","393710","HierDy1lwqla7b","sub08","08","2","feedback","test","null","","","na","","169","",""
"628","394340","HierDy1lwqla7b","sub08","08","2","rl","test","68","img/r_d_check.png","3","68","pattern,color,shape","170","1",""
"null","395363","HierDy1lwqla7b","sub08","08","2","feedback","test","null","","","na","","170","",""
"1345.1000001430511","396709","HierDy1lwqla7b","sub08","08","2","rl","test","76","img/r_t_diag.png","8","76","pattern,color,shape","171","1",""
"null","397730","HierDy1lwqla7b","sub08","08","2","feedback","test","null","","","na","","171","",""
"1697.5","399429","HierDy1lwqla7b","sub08","08","2","rl","test","75","img/p_d_diag.png","5","72","pattern,color,shape","172","0",""
"null","400452","HierDy1lwqla7b","sub08","08","2","feedback","test","null","","","na","","172","",""
"1116.4000000953674","401570","HierDy1lwqla7b","sub08","08","2","rl","test","74","img/p_t_diag.png","6","74","pattern,color,shape","173","1",""
"null","402582","HierDy1lwqla7b","sub08","08","2","feedback","test","null","","","na","","173","",""
"1226.2000000476837","403809","HierDy1lwqla7b","sub08","08","2","rl","test","70","img/r_t_check.png","4","70","pattern,color,shape","174","1",""
"null","404821","HierDy1lwqla7b","sub08","08","2","feedback","test","null","","","na","","174","",""
"1456.5","406279","HierDy1lwqla7b","sub08","08","2","rl","test","72","img/p_d_diag.png","5","72","pattern,color,shape","175","1",""
"null","407289","HierDy1lwqla7b","sub08","08","2","feedback","test","null","","","na","","175","",""
"728.8000001907349","408019","HierDy1lwqla7b","sub08","08","2","rl","test","75","img/r_d_diag.png","7","75","pattern,color,shape","176","1",""
"null","409041","HierDy1lwqla7b","sub08","08","2","feedback","test","null","","","na","","176","",""
"1746.6999998092651","410790","HierDy1lwqla7b","sub08","08","2","rl","test","83","img/p_t_check.png","2","83","pattern,color,shape","177","1",""
"null","411811","HierDy1lwqla7b","sub08","08","2","feedback","test","null","","","na","","177","",""
"606.7000000476837","412419","HierDy1lwqla7b","sub08","08","2","rl","test","83","img/p_t_check.png","2","83","pattern,color,shape","178","1",""
"null","413434","HierDy1lwqla7b","sub08","08","2","feedback","test","null","","","na","","178","",""
"853.5","414289","HierDy1lwqla7b","sub08","08","2","rl","test","76","img/r_t_diag.png","8","76","pattern,color,shape","179","1",""
"null","415301","HierDy1lwqla7b","sub08","08","2","feedback","test","null","","","na","","179","",""
"867.2999999523163","416170","HierDy1lwqla7b","sub08","08","2","rl","test","75","img/r_d_diag.png","7","75","pattern,color,shape","180","1",""
"null","417184","HierDy1lwqla7b","sub08","08","2","feedback","test","null","","","na","","180","",""
"783.7999999523163","417969","HierDy1lwqla7b","sub08","08","2","rl","test","65","img/p_d_check.png","1","65","pattern,color,shape","181","1",""
"null","418983","HierDy1lwqla7b","sub08","08","2","feedback","test","null","","","na","","181","",""
"654.7000000476837","419639","HierDy1lwqla7b","sub08","08","2","rl","test","68","img/r_d_check.png","3","68","pattern,color,shape","182","1",""
"null","420651","HierDy1lwqla7b","sub08","08","2","feedback","test","null","","","na","","182","",""
"767.2000000476837","421413","HierDy1lwqla7b","sub08","08","2","rl","test","76","img/p_t_diag.png","6","74","pattern,color,shape","183","0",""
"null","422426","HierDy1lwqla7b","sub08","08","2","feedback","test","null","","","na","","183","",""
"815.1000001430511","423242","HierDy1lwqla7b","sub08","08","2","rl","test","65","img/p_d_check.png","1","65","pattern,color,shape","184","1",""
"null","424250","HierDy1lwqla7b","sub08","08","2","feedback","test","null","","","na","","184","",""
"852.6000001430511","425104","HierDy1lwqla7b","sub08","08","2","rl","test","70","img/r_t_check.png","4","70","pattern,color,shape","185","1",""
"null","426109","HierDy1lwqla7b","sub08","08","2","feedback","test","null","","","na","","185","",""
"1321.5999999046326","427432","HierDy1lwqla7b","sub08","08","2","rl","test","75","img/r_d_diag.png","7","75","pattern,color,shape","186","1",""
"null","428439","HierDy1lwqla7b","sub08","08","2","feedback","test","null","","","na","","186","",""
"1291.5","429732","HierDy1lwqla7b","sub08","08","2","rl","test","74","img/p_t_diag.png","6","74","pattern,color,shape","187","1",""
"null","430755","HierDy1lwqla7b","sub08","08","2","feedback","test","null","","","na","","187","",""
"686.3999998569489","431443","HierDy1lwqla7b","sub08","08","2","rl","test","74","img/p_t_diag.png","6","74","pattern,color,shape","188","1",""
"null","432455","HierDy1lwqla7b","sub08","08","2","feedback","test","null","","","na","","188","",""
"1146.7999999523163","433604","HierDy1lwqla7b","sub08","08","2","rl","test","68","img/r_d_check.png","3","68","pattern,color,shape","189","1",""
"null","434617","HierDy1lwqla7b","sub08","08","2","feedback","test","null","","","na","","189","",""
"863.4000000953674","435483","HierDy1lwqla7b","sub08","08","2","rl","test","75","img/p_d_diag.png","5","72","pattern,color,shape","190","0",""
"null","436496","HierDy1lwqla7b","sub08","08","2","feedback","test","null","","","na","","190","",""
"1384","437882","HierDy1lwqla7b","sub08","08","2","rl","test","83","img/p_t_check.png","2","83","pattern,color,shape","191","1",""
"null","438890","HierDy1lwqla7b","sub08","08","2","feedback","test","null","","","na","","191","",""
"810.5999999046326","439702","HierDy1lwqla7b","sub08","08","2","rl","test","70","img/r_t_check.png","4","70","pattern,color,shape","192","1",""
"null","440724","HierDy1lwqla7b","sub08","08","2","feedback","test","null","","","na","","192","",""
"696.2999999523163","441422","HierDy1lwqla7b","sub08","08","2","rl","test","76","img/r_t_diag.png","8","76","pattern,color,shape","193","1",""
"null","442444","HierDy1lwqla7b","sub08","08","2","feedback","test","null","","","na","","193","",""
"986.9000000953674","443433","HierDy1lwqla7b","sub08","08","2","rl","test","68","img/r_d_check.png","3","68","pattern,color,shape","194","1",""
"null","444446","HierDy1lwqla7b","sub08","08","2","feedback","test","null","","","na","","194","",""
"954.2999999523163","445402","HierDy1lwqla7b","sub08","08","2","rl","test","76","img/r_t_diag.png","8","76","pattern,color,shape","195","1",""
"null","446410","HierDy1lwqla7b","sub08","08","2","feedback","test","null","","","na","","195","",""
"630.3999998569489","447042","HierDy1lwqla7b","sub08","08","2","rl","test","65","img/p_d_check.png","1","65","pattern,color,shape","196","1",""
"null","448049","HierDy1lwqla7b","sub08","08","2","feedback","test","null","","","na","","196","",""
"941.8999998569489","448992","HierDy1lwqla7b","sub08","08","2","rl","test","70","img/r_t_check.png","4","70","pattern,color,shape","197","1",""
"null","450002","HierDy1lwqla7b","sub08","08","2","feedback","test","null","","","na","","197","",""
"818.7000000476837","450822","HierDy1lwqla7b","sub08","08","2","rl","test","72","img/p_d_diag.png","5","72","pattern,color,shape","198","1",""
"null","451830","HierDy1lwqla7b","sub08","08","2","feedback","test","null","","","na","","198","",""
"660.4000000953674","452492","HierDy1lwqla7b","sub08","08","2","rl","test","75","img/r_d_diag.png","7","75","pattern,color,shape","199","1",""
"null","453506","HierDy1lwqla7b","sub08","08","2","feedback","test","null","","","na","","199","",""
"1216.5999999046326","454725","HierDy1lwqla7b","sub08","08","2","rl","test","83","img/p_t_check.png","2","83","pattern,color,shape","200","1",""
"null","455739","HierDy1lwqla7b","sub08","08","2","feedback","test","null","","","na","","200","",""
"561.2000000476837","456302","HierDy1lwqla7b","sub08","08","2","rl","test","70","img/r_t_check.png","4","70","pattern,color,shape","201","1",""
"null","457311","HierDy1lwqla7b","sub08","08","2","feedback","test","null","","","na","","201","",""
"839.2999999523163","458152","HierDy1lwqla7b","sub08","08","2","rl","test","65","img/p_d_check.png","1","65","pattern,color,shape","202","1",""
"null","459162","HierDy1lwqla7b","sub08","08","2","feedback","test","null","","","na","","202","",""
"1218.3999998569489","460382","HierDy1lwqla7b","sub08","08","2","rl","test","74","img/p_t_diag.png","6","74","pattern,color,shape","203","1",""
"null","461391","HierDy1lwqla7b","sub08","08","2","feedback","test","null","","","na","","203","",""
"1108.9000000953674","462502","HierDy1lwqla7b","sub08","08","2","rl","test","68","img/r_d_check.png","3","68","pattern,color,shape","204","1",""
"null","463517","HierDy1lwqla7b","sub08","08","2","feedback","test","null","","","na","","204","",""
"1113.0999999046326","464632","HierDy1lwqla7b","sub08","08","2","rl","test","72","img/p_d_diag.png","5","72","pattern,color,shape","205","1",""
"null","465646","HierDy1lwqla7b","sub08","08","2","feedback","test","null","","","na","","205","",""
"1245","466892","HierDy1lwqla7b","sub08","08","2","rl","test","83","img/p_t_check.png","2","83","pattern,color,shape","206","1",""
"null","467914","HierDy1lwqla7b","sub08","08","2","feedback","test","null","","","na","","206","",""
"847.5999999046326","468763","HierDy1lwqla7b","sub08","08","2","rl","test","72","img/p_d_diag.png","5","72","pattern,color,shape","207","1",""
"null","469779","HierDy1lwqla7b","sub08","08","2","feedback","test","null","","","na","","207","",""
"671.7000000476837","470452","HierDy1lwqla7b","sub08","08","2","rl","test","76","img/r_t_diag.png","8","76","pattern,color,shape","208","1",""
"null","471465","HierDy1lwqla7b","sub08","08","2","feedback","test","null","","","na","","208","",""
"806.1000001430511","472273","HierDy1lwqla7b","sub08","08","2","rl","test","83","img/p_t_check.png","2","83","pattern,color,shape","209","1",""
"null","473287","HierDy1lwqla7b","sub08","08","2","feedback","test","null","","","na","","209","",""
"1654.7999999523163","474943","HierDy1lwqla7b","sub08","08","2","rl","test","75","img/r_d_diag.png","7","75","pattern,color,shape","210","1",""
"null","475951","HierDy1lwqla7b","sub08","08","2","feedback","test","null","","","na","","210","",""
"569.2000000476837","476522","HierDy1lwqla7b","sub08","08","2","rl","test","75","img/r_d_diag.png","7","75","pattern,color,shape","211","1",""
"null","477536","HierDy1lwqla7b","sub08","08","2","feedback","test","null","","","na","","211","",""
"835.1000001430511","478372","HierDy1lwqla7b","sub08","08","2","rl","test","65","img/p_d_check.png","1","65","pattern,color,shape","212","1",""
"null","479387","HierDy1lwqla7b","sub08","08","2","feedback","test","null","","","na","","212","",""
"903.6000001430511","480292","HierDy1lwqla7b","sub08","08","2","rl","test","76","img/r_t_diag.png","8","76","pattern,color,shape","213","1",""
"null","481298","HierDy1lwqla7b","sub08","08","2","feedback","test","null","","","na","","213","",""
"563.5999999046326","481877","HierDy1lwqla7b","sub08","08","2","rl","test","76","img/r_t_diag.png","8","76","pattern,color,shape","214","1",""
"null","482886","HierDy1lwqla7b","sub08","08","2","feedback","test","null","","","na","","214","",""
"1477.7000000476837","484365","HierDy1lwqla7b","sub08","08","2","rl","test","70","img/r_t_check.png","4","70","pattern,color,shape","215","1",""
"null","485386","HierDy1lwqla7b","sub08","08","2","feedback","test","null","","","na","","215","",""
"2057.2000000476837","487445","HierDy1lwqla7b","sub08","08","2","rl","test","83","img/r_d_check.png","3","68","pattern,color,shape","216","0",""
"null","488452","HierDy1lwqla7b","sub08","08","2","feedback","test","null","","","na","","216","",""
"1381.8999998569489","489835","HierDy1lwqla7b","sub08","08","2","rl","test","74","img/p_t_diag.png","6","74","pattern,color,shape","217","1",""
"null","490853","HierDy1lwqla7b","sub08","08","2","feedback","test","null","","","na","","217","",""
"929.8000001907349","491785","HierDy1lwqla7b","sub08","08","2","rl","test","68","img/r_d_check.png","3","68","pattern,color,shape","218","1",""
"null","492792","HierDy1lwqla7b","sub08","08","2","feedback","test","null","","","na","","218","",""
"811.6999998092651","493605","HierDy1lwqla7b","sub08","08","2","rl","test","70","img/r_t_check.png","4","70","pattern,color,shape","219","1",""
"null","494612","HierDy1lwqla7b","sub08","08","2","feedback","test","null","","","na","","219","",""
"960.6999998092651","495575","HierDy1lwqla7b","sub08","08","2","rl","test","65","img/p_d_check.png","1","65","pattern,color,shape","220","1",""
"null","496589","HierDy1lwqla7b","sub08","08","2","feedback","test","null","","","na","","220","",""
"533.6999998092651","497125","HierDy1lwqla7b","sub08","08","2","rl","test","83","img/p_t_check.png","2","83","pattern,color,shape","221","1",""
"null","498138","HierDy1lwqla7b","sub08","08","2","feedback","test","null","","","na","","221","",""
"776.1000001430511","498915","HierDy1lwqla7b","sub08","08","2","rl","test","72","img/p_d_diag.png","5","72","pattern,color,shape","222","1",""
"null","499927","HierDy1lwqla7b","sub08","08","2","feedback","test","null","","","na","","222","",""
"626.2000000476837","500555","HierDy1lwqla7b","sub08","08","2","rl","test","76","img/r_t_diag.png","8","76","pattern,color,shape","223","1",""
"null","501577","HierDy1lwqla7b","sub08","08","2","feedback","test","null","","","na","","223","",""
"856.2000000476837","502435","HierDy1lwqla7b","sub08","08","2","rl","test","74","img/p_t_diag.png","6","74","pattern,color,shape","224","1",""
"null","503444","HierDy1lwqla7b","sub08","08","2","feedback","test","null","","","na","","224","",""
"589.7999999523163","504035","HierDy1lwqla7b","sub08","08","2","rl","test","75","img/r_d_diag.png","7","75","pattern,color,shape","225","1",""
"null","505048","HierDy1lwqla7b","sub08","08","2","feedback","test","null","","","na","","225","",""
"755.2999999523163","505805","HierDy1lwqla7b","sub08","08","2","rl","test","65","img/p_d_check.png","1","65","pattern,color,shape","226","1",""
"null","506818","HierDy1lwqla7b","sub08","08","2","feedback","test","null","","","na","","226","",""
"1035.5","507855","HierDy1lwqla7b","sub08","08","2","rl","test","74","img/p_t_diag.png","6","74","pattern,color,shape","227","1",""
"null","508862","HierDy1lwqla7b","sub08","08","2","feedback","test","null","","","na","","227","",""
"811.2000000476837","509675","HierDy1lwqla7b","sub08","08","2","rl","test","83","img/r_d_check.png","3","68","pattern,color,shape","228","0",""
"null","510689","HierDy1lwqla7b","sub08","08","2","feedback","test","null","","","na","","228","",""
"1174.7000000476837","511865","HierDy1lwqla7b","sub08","08","2","rl","test","74","img/r_d_diag.png","7","75","pattern,color,shape","229","0",""
"null","512883","HierDy1lwqla7b","sub08","08","2","feedback","test","null","","","na","","229","",""
"880","513765","HierDy1lwqla7b","sub08","08","2","rl","test","83","img/p_t_check.png","2","83","pattern,color,shape","230","1",""
"null","514778","HierDy1lwqla7b","sub08","08","2","feedback","test","null","","","na","","230","",""
"1385.5","516165","HierDy1lwqla7b","sub08","08","2","rl","test","75","img/r_d_diag.png","7","75","pattern,color,shape","231","1",""
"null","517185","HierDy1lwqla7b","sub08","08","2","feedback","test","null","","","na","","231","",""
"978.5999999046326","518165","HierDy1lwqla7b","sub08","08","2","rl","test","83","img/r_t_check.png","4","70","pattern,color,shape","232","0",""
"null","519172","HierDy1lwqla7b","sub08","08","2","feedback","test","null","","","na","","232","",""
"950.7000000476837","520125","HierDy1lwqla7b","sub08","08","2","rl","test","72","img/p_d_diag.png","5","72","pattern,color,shape","233","1",""
"null","521133","HierDy1lwqla7b","sub08","08","2","feedback","test","null","","","na","","233","",""
"670.2999999523163","521805","HierDy1lwqla7b","sub08","08","2","rl","test","72","img/p_d_diag.png","5","72","pattern,color,shape","234","1",""
"null","522815","HierDy1lwqla7b","sub08","08","2","feedback","test","null","","","na","","234","",""
"1378.7000000476837","524195","HierDy1lwqla7b","sub08","08","2","rl","test","83","img/p_t_check.png","2","83","pattern,color,shape","235","1",""
"null","525208","HierDy1lwqla7b","sub08","08","2","feedback","test","null","","","na","","235","",""
"746.4000000953674","525956","HierDy1lwqla7b","sub08","08","2","rl","test","68","img/r_d_check.png","3","68","pattern,color,shape","236","1",""
"null","526969","HierDy1lwqla7b","sub08","08","2","feedback","test","null","","","na","","236","",""
"544.0999999046326","527515","HierDy1lwqla7b","sub08","08","2","rl","test","70","img/r_t_check.png","4","70","pattern,color,shape","237","1",""
"null","528527","HierDy1lwqla7b","sub08","08","2","feedback","test","null","","","na","","237","",""
"967.5999999046326","529496","HierDy1lwqla7b","sub08","08","2","rl","test","76","img/r_t_diag.png","8","76","pattern,color,shape","238","1",""
"null","530511","HierDy1lwqla7b","sub08","08","2","feedback","test","null","","","na","","238","",""
"1302.9000000953674","531815","HierDy1lwqla7b","sub08","08","2","rl","test","68","img/r_d_check.png","3","68","pattern,color,shape","239","1",""
"null","532825","HierDy1lwqla7b","sub08","08","2","feedback","test","null","","","na","","239","",""
"708.9000000953674","533535","HierDy1lwqla7b","sub08","08","2","rl","test","65","img/p_d_check.png","1","65","pattern,color,shape","240","1",""
"null","534542","HierDy1lwqla7b","sub08","08","2","feedback","test","null","","","na","","240","",""
"632.3999998569489","535176","HierDy1lwqla7b","sub08","08","2","rl","test","65","img/p_d_check.png","1","65","pattern,color,shape","241","1",""
"null","536187","HierDy1lwqla7b","sub08","08","2","feedback","test","null","","","na","","241","",""
"666.0999999046326","536855","HierDy1lwqla7b","sub08","08","2","rl","test","76","img/p_t_diag.png","6","74","pattern,color,shape","242","0",""
"null","537867","HierDy1lwqla7b","sub08","08","2","feedback","test","null","","","na","","242","",""
"1306.7000000476837","539175","HierDy1lwqla7b","sub08","08","2","rl","test","83","img/p_t_check.png","2","83","pattern,color,shape","243","1",""
"null","540183","HierDy1lwqla7b","sub08","08","2","feedback","test","null","","","na","","243","",""
"1119.8999998569489","541305","HierDy1lwqla7b","sub08","08","2","rl","test","74","img/p_t_diag.png","6","74","pattern,color,shape","244","1",""
"null","542330","HierDy1lwqla7b","sub08","08","2","feedback","test","null","","","na","","244","",""
"654.2999999523163","542985","HierDy1lwqla7b","sub08","08","2","rl","test","76","img/r_t_diag.png","8","76","pattern,color,shape","245","1",""
"null","544000","HierDy1lwqla7b","sub08","08","2","feedback","test","null","","","na","","245","",""
"694.1000001430511","544695","HierDy1lwqla7b","sub08","08","2","rl","test","75","img/r_d_diag.png","7","75","pattern,color,shape","246","1",""
"null","545710","HierDy1lwqla7b","sub08","08","2","feedback","test","null","","","na","","246","",""
"953.5","546665","HierDy1lwqla7b","sub08","08","2","rl","test","72","img/p_d_diag.png","5","72","pattern,color,shape","247","1",""
"null","547675","HierDy1lwqla7b","sub08","08","2","feedback","test","null","","","na","","247","",""
"1108.3000001907349","548785","HierDy1lwqla7b","sub08","08","2","rl","test","70","img/r_t_check.png","4","70","pattern,color,shape","248","1",""
"null","549797","HierDy1lwqla7b","sub08","08","2","feedback","test","null","","","na","","248","",""
"3354.0999999046326","553156","HierDy1lwqla7b","sub08","08","2","","","","","","","","","","{""Q0"":""6""}"
"42532.200000047684","595693","HierDy1lwqla7b","sub08","08","2","","","","","","","","","","{""Q0"":""left is checkered pattern and right is line pattern. then I remember purple comes before red and try to use that""}"
"4031.5999999046326","599725","HierDy1lwqla7b","sub08","08","2","","","","","","","","","",""
