"rt","time_elapsed","subject","subID","group","day","trialType","phase","key_press","stim","stimNum","corrresp","hierarchy","trialNum","corr","responses"
"4341.30000000447","4345","HierDyhe1gv0zb","sub16","04","07","","","","","","","","","",""
"","6220","HierDyhe1gv0zb","sub16","04","07","fullscreen","","","","","","","","",""
"1470.2000000029802","7691","HierDyhe1gv0zb","sub16","04","07","","prac","","","","","","","",""
"804.1000000014901","8499","HierDyhe1gv0zb","sub16","04","07","","","32","","","","","","",""
"1123.8999999985099","9624","HierDyhe1gv0zb","sub16","04","07","","prac","","","","","","","",""
"679.7999999970198","10306","HierDyhe1gv0zb","sub16","04","07","rl","test","70","img/o_s_check.png","4","70","color,pattern,shape","1","1",""
"null","11316","HierDyhe1gv0zb","sub16","04","07","feedback","test","null","","","na","","1","",""
"778.5999999940395","12096","HierDyhe1gv0zb","sub16","04","07","rl","test","74","img/b_s_stripes.png","6","74","color,pattern,shape","2","1",""
"null","13107","HierDyhe1gv0zb","sub16","04","07","feedback","test","null","","","na","","2","",""
"1058","14167","HierDyhe1gv0zb","sub16","04","07","rl","test","72","img/b_d_stripes.png","5","72","color,pattern,shape","3","1",""
"null","15176","HierDyhe1gv0zb","sub16","04","07","feedback","test","null","","","na","","3","",""
"674.8000000044703","15852","HierDyhe1gv0zb","sub16","04","07","rl","test","83","img/o_s_stripes.png","2","83","color,pattern,shape","4","1",""
"null","16858","HierDyhe1gv0zb","sub16","04","07","feedback","test","null","","","na","","4","",""
"712.7000000029802","17571","HierDyhe1gv0zb","sub16","04","07","rl","test","65","img/o_d_stripes.png","1","65","color,pattern,shape","5","1",""
"null","18579","HierDyhe1gv0zb","sub16","04","07","feedback","test","null","","","na","","5","",""
"1120.0999999940395","19700","HierDyhe1gv0zb","sub16","04","07","rl","test","74","img/b_d_check.png","7","75","color,pattern,shape","6","0",""
"null","20705","HierDyhe1gv0zb","sub16","04","07","feedback","test","null","","","na","","6","",""
"672","21379","HierDyhe1gv0zb","sub16","04","07","rl","test","83","img/o_s_stripes.png","2","83","color,pattern,shape","7","1",""
"null","22383","HierDyhe1gv0zb","sub16","04","07","feedback","test","null","","","na","","7","",""
"1041","23426","HierDyhe1gv0zb","sub16","04","07","rl","test","68","img/o_d_check.png","3","68","color,pattern,shape","8","1",""
"null","24431","HierDyhe1gv0zb","sub16","04","07","feedback","test","null","","","na","","8","",""
"903.7999999970198","25337","HierDyhe1gv0zb","sub16","04","07","rl","test","76","img/b_s_check.png","8","76","color,pattern,shape","9","1",""
"null","26344","HierDyhe1gv0zb","sub16","04","07","feedback","test","null","","","na","","9","",""
"610.1000000014901","26955","HierDyhe1gv0zb","sub16","04","07","rl","test","76","img/b_s_check.png","8","76","color,pattern,shape","10","1",""
"null","27962","HierDyhe1gv0zb","sub16","04","07","feedback","test","null","","","na","","10","",""
"771.1000000014901","28734","HierDyhe1gv0zb","sub16","04","07","rl","test","72","img/b_d_stripes.png","5","72","color,pattern,shape","11","1",""
"null","29744","HierDyhe1gv0zb","sub16","04","07","feedback","test","null","","","na","","11","",""
"600.3000000044703","30346","HierDyhe1gv0zb","sub16","04","07","rl","test","70","img/o_s_check.png","4","70","color,pattern,shape","12","1",""
"null","31354","HierDyhe1gv0zb","sub16","04","07","feedback","test","null","","","na","","12","",""
"1065","32421","HierDyhe1gv0zb","sub16","04","07","rl","test","68","img/o_d_check.png","3","68","color,pattern,shape","13","1",""
"null","33432","HierDyhe1gv0zb","sub16","04","07","feedback","test","null","","","na","","13","",""
"1175.7999999970198","34609","HierDyhe1gv0zb","sub16","04","07","rl","test","75","img/b_d_check.png","7","75","color,pattern,shape","14","1",""
"null","35615","HierDyhe1gv0zb","sub16","04","07","feedback","test","null","","","na","","14","",""
"864.2999999970198","36481","HierDyhe1gv0zb","sub16","04","07","rl","test","74","img/b_s_stripes.png","6","74","color,pattern,shape","15","1",""
"null","37488","HierDyhe1gv0zb","sub16","04","07","feedback","test","null","","","na","","15","",""
"981.8999999985099","38472","HierDyhe1gv0zb","sub16","04","07","rl","test","65","img/o_d_stripes.png","1","65","color,pattern,shape","16","1",""
"null","39478","HierDyhe1gv0zb","sub16","04","07","feedback","test","null","","","na","","16","",""
"1796.3999999985099","41276","HierDyhe1gv0zb","sub16","04","07","rl","test","74","img/b_s_stripes.png","6","74","color,pattern,shape","17","1",""
"null","42290","HierDyhe1gv0zb","sub16","04","07","feedback","test","null","","","na","","17","",""
"677.7000000029802","42970","HierDyhe1gv0zb","sub16","04","07","rl","test","70","img/o_s_check.png","4","70","color,pattern,shape","18","1",""
"null","43975","HierDyhe1gv0zb","sub16","04","07","feedback","test","null","","","na","","18","",""
"786.8999999985099","44764","HierDyhe1gv0zb","sub16","04","07","rl","test","83","img/o_s_stripes.png","2","83","color,pattern,shape","19","1",""
"null","45775","HierDyhe1gv0zb","sub16","04","07","feedback","test","null","","","na","","19","",""
"637.2000000029802","46413","HierDyhe1gv0zb","sub16","04","07","rl","test","65","img/o_d_stripes.png","1","65","color,pattern,shape","20","1",""
"null","47425","HierDyhe1gv0zb","sub16","04","07","feedback","test","null","","","na","","20","",""
"827.6000000014901","48254","HierDyhe1gv0zb","sub16","04","07","rl","test","74","img/b_d_stripes.png","5","72","color,pattern,shape","21","0",""
"null","49262","HierDyhe1gv0zb","sub16","04","07","feedback","test","null","","","na","","21","",""
"1277","50541","HierDyhe1gv0zb","sub16","04","07","rl","test","68","img/o_d_check.png","3","68","color,pattern,shape","22","1",""
"null","51554","HierDyhe1gv0zb","sub16","04","07","feedback","test","null","","","na","","22","",""
"1417","52973","HierDyhe1gv0zb","sub16","04","07","rl","test","75","img/b_d_check.png","7","75","color,pattern,shape","23","1",""
"null","53981","HierDyhe1gv0zb","sub16","04","07","feedback","test","null","","","na","","23","",""
"909.9000000059605","54893","HierDyhe1gv0zb","sub16","04","07","rl","test","76","img/b_s_check.png","8","76","color,pattern,shape","24","1",""
"null","55904","HierDyhe1gv0zb","sub16","04","07","feedback","test","null","","","na","","24","",""
"584","56490","HierDyhe1gv0zb","sub16","04","07","rl","test","76","img/b_s_check.png","8","76","color,pattern,shape","25","1",""
"null","57497","HierDyhe1gv0zb","sub16","04","07","feedback","test","null","","","na","","25","",""
"960.7999999970198","58459","HierDyhe1gv0zb","sub16","04","07","rl","test","83","img/o_s_stripes.png","2","83","color,pattern,shape","26","1",""
"null","59465","HierDyhe1gv0zb","sub16","04","07","feedback","test","null","","","na","","26","",""
"1500","60967","HierDyhe1gv0zb","sub16","04","07","rl","test","75","img/b_s_check.png","8","76","color,pattern,shape","27","0",""
"null","61973","HierDyhe1gv0zb","sub16","04","07","feedback","test","null","","","na","","27","",""
"820","62795","HierDyhe1gv0zb","sub16","04","07","rl","test","68","img/o_d_check.png","3","68","color,pattern,shape","28","1",""
"null","63799","HierDyhe1gv0zb","sub16","04","07","feedback","test","null","","","na","","28","",""
"715.2000000029802","64515","HierDyhe1gv0zb","sub16","04","07","rl","test","68","img/o_s_check.png","4","70","color,pattern,shape","29","0",""
"null","65528","HierDyhe1gv0zb","sub16","04","07","feedback","test","null","","","na","","29","",""
"1358.1999999955297","66888","HierDyhe1gv0zb","sub16","04","07","rl","test","75","img/b_d_check.png","7","75","color,pattern,shape","30","1",""
"null","67897","HierDyhe1gv0zb","sub16","04","07","feedback","test","null","","","na","","30","",""
"1013.2999999970198","68912","HierDyhe1gv0zb","sub16","04","07","rl","test","74","img/b_s_stripes.png","6","74","color,pattern,shape","31","1",""
"null","69920","HierDyhe1gv0zb","sub16","04","07","feedback","test","null","","","na","","31","",""
"889.7999999970198","70811","HierDyhe1gv0zb","sub16","04","07","rl","test","65","img/o_d_stripes.png","1","65","color,pattern,shape","32","1",""
"null","71820","HierDyhe1gv0zb","sub16","04","07","feedback","test","null","","","na","","32","",""
"1645.6000000014901","73466","HierDyhe1gv0zb","sub16","04","07","rl","test","75","img/b_d_check.png","7","75","color,pattern,shape","33","1",""
"null","74472","HierDyhe1gv0zb","sub16","04","07","feedback","test","null","","","na","","33","",""
"1778.3999999985099","76252","HierDyhe1gv0zb","sub16","04","07","rl","test","72","img/b_d_stripes.png","5","72","color,pattern,shape","34","1",""
"null","77261","HierDyhe1gv0zb","sub16","04","07","feedback","test","null","","","na","","34","",""
"705.2000000029802","77968","HierDyhe1gv0zb","sub16","04","07","rl","test","83","img/o_d_stripes.png","1","65","color,pattern,shape","35","0",""
"null","78975","HierDyhe1gv0zb","sub16","04","07","feedback","test","null","","","na","","35","",""
"1882.5999999940395","80859","HierDyhe1gv0zb","sub16","04","07","rl","test","74","img/b_s_stripes.png","6","74","color,pattern,shape","36","1",""
"null","81873","HierDyhe1gv0zb","sub16","04","07","feedback","test","null","","","na","","36","",""
"715.2000000029802","82590","HierDyhe1gv0zb","sub16","04","07","rl","test","70","img/o_s_check.png","4","70","color,pattern,shape","37","1",""
"null","83597","HierDyhe1gv0zb","sub16","04","07","feedback","test","null","","","na","","37","",""
"829.3999999985099","84428","HierDyhe1gv0zb","sub16","04","07","rl","test","72","img/b_d_stripes.png","5","72","color,pattern,shape","38","1",""
"null","85436","HierDyhe1gv0zb","sub16","04","07","feedback","test","null","","","na","","38","",""
"987.1000000014901","86424","HierDyhe1gv0zb","sub16","04","07","rl","test","70","img/o_s_check.png","4","70","color,pattern,shape","39","1",""
"null","87431","HierDyhe1gv0zb","sub16","04","07","feedback","test","null","","","na","","39","",""
"1341.0999999940395","88774","HierDyhe1gv0zb","sub16","04","07","rl","test","83","img/o_s_stripes.png","2","83","color,pattern,shape","40","1",""
"null","89779","HierDyhe1gv0zb","sub16","04","07","feedback","test","null","","","na","","40","",""
"959.8000000044703","90741","HierDyhe1gv0zb","sub16","04","07","rl","test","68","img/o_d_check.png","3","68","color,pattern,shape","41","1",""
"null","91748","HierDyhe1gv0zb","sub16","04","07","feedback","test","null","","","na","","41","",""
"1520.4000000059605","93270","HierDyhe1gv0zb","sub16","04","07","rl","test","76","img/b_s_check.png","8","76","color,pattern,shape","42","1",""
"null","94276","HierDyhe1gv0zb","sub16","04","07","feedback","test","null","","","na","","42","",""
"1651.5","95929","HierDyhe1gv0zb","sub16","04","07","rl","test","75","img/b_d_check.png","7","75","color,pattern,shape","43","1",""
"null","96933","HierDyhe1gv0zb","sub16","04","07","feedback","test","null","","","na","","43","",""
"730","97664","HierDyhe1gv0zb","sub16","04","07","rl","test","83","img/b_s_stripes.png","6","74","color,pattern,shape","44","0",""
"null","98669","HierDyhe1gv0zb","sub16","04","07","feedback","test","null","","","na","","44","",""
"1489","100159","HierDyhe1gv0zb","sub16","04","07","rl","test","65","img/o_d_stripes.png","1","65","color,pattern,shape","45","1",""
"null","101168","HierDyhe1gv0zb","sub16","04","07","feedback","test","null","","","na","","45","",""
"815.1000000014901","101984","HierDyhe1gv0zb","sub16","04","07","rl","test","65","img/o_d_stripes.png","1","65","color,pattern,shape","46","1",""
"null","102989","HierDyhe1gv0zb","sub16","04","07","feedback","test","null","","","na","","46","",""
"762.1000000014901","103752","HierDyhe1gv0zb","sub16","04","07","rl","test","72","img/b_d_stripes.png","5","72","color,pattern,shape","47","1",""
"null","104756","HierDyhe1gv0zb","sub16","04","07","feedback","test","null","","","na","","47","",""
"1869.8000000044703","106627","HierDyhe1gv0zb","sub16","04","07","rl","test","75","img/o_d_check.png","3","68","color,pattern,shape","48","0",""
"null","107640","HierDyhe1gv0zb","sub16","04","07","feedback","test","null","","","na","","48","",""
"1002","108643","HierDyhe1gv0zb","sub16","04","07","rl","test","83","img/o_s_stripes.png","2","83","color,pattern,shape","49","1",""
"null","109656","HierDyhe1gv0zb","sub16","04","07","feedback","test","null","","","na","","49","",""
"993.3000000044703","110650","HierDyhe1gv0zb","sub16","04","07","rl","test","83","img/o_d_check.png","3","68","color,pattern,shape","50","0",""
"null","111658","HierDyhe1gv0zb","sub16","04","07","feedback","test","null","","","na","","50","",""
"1700.8999999985099","113361","HierDyhe1gv0zb","sub16","04","07","rl","test","72","img/b_d_stripes.png","5","72","color,pattern,shape","51","1",""
"null","114367","HierDyhe1gv0zb","sub16","04","07","feedback","test","null","","","na","","51","",""
"693.6999999955297","115062","HierDyhe1gv0zb","sub16","04","07","rl","test","83","img/o_s_stripes.png","2","83","color,pattern,shape","52","1",""
"null","116067","HierDyhe1gv0zb","sub16","04","07","feedback","test","null","","","na","","52","",""
"647.1000000014901","116716","HierDyhe1gv0zb","sub16","04","07","rl","test","70","img/o_s_check.png","4","70","color,pattern,shape","53","1",""
"null","117723","HierDyhe1gv0zb","sub16","04","07","feedback","test","null","","","na","","53","",""
"942.7000000029802","118668","HierDyhe1gv0zb","sub16","04","07","rl","test","76","img/b_s_check.png","8","76","color,pattern,shape","54","1",""
"null","119674","HierDyhe1gv0zb","sub16","04","07","feedback","test","null","","","na","","54","",""
"693.8000000044703","120370","HierDyhe1gv0zb","sub16","04","07","rl","test","74","img/b_s_stripes.png","6","74","color,pattern,shape","55","1",""
"null","121378","HierDyhe1gv0zb","sub16","04","07","feedback","test","null","","","na","","55","",""
"519.5999999940395","121899","HierDyhe1gv0zb","sub16","04","07","rl","test","74","img/b_s_stripes.png","6","74","color,pattern,shape","56","1",""
"null","122907","HierDyhe1gv0zb","sub16","04","07","feedback","test","null","","","na","","56","",""
"803","123712","HierDyhe1gv0zb","sub16","04","07","rl","test","83","img/o_s_stripes.png","2","83","color,pattern,shape","57","1",""
"null","124719","HierDyhe1gv0zb","sub16","04","07","feedback","test","null","","","na","","57","",""
"1242.2999999970198","125962","HierDyhe1gv0zb","sub16","04","07","rl","test","75","img/b_d_check.png","7","75","color,pattern,shape","58","1",""
"null","126975","HierDyhe1gv0zb","sub16","04","07","feedback","test","null","","","na","","58","",""
"646.3000000044703","127623","HierDyhe1gv0zb","sub16","04","07","rl","test","72","img/o_s_check.png","4","70","color,pattern,shape","59","0",""
"null","128630","HierDyhe1gv0zb","sub16","04","07","feedback","test","null","","","na","","59","",""
"701.3999999985099","129333","HierDyhe1gv0zb","sub16","04","07","rl","test","68","img/o_d_check.png","3","68","color,pattern,shape","60","1",""
"null","130339","HierDyhe1gv0zb","sub16","04","07","feedback","test","null","","","na","","60","",""
"951.3999999985099","131293","HierDyhe1gv0zb","sub16","04","07","rl","test","65","img/o_d_stripes.png","1","65","color,pattern,shape","61","1",""
"null","132298","HierDyhe1gv0zb","sub16","04","07","feedback","test","null","","","na","","61","",""
"1133","133433","HierDyhe1gv0zb","sub16","04","07","rl","test","75","img/b_s_check.png","8","76","color,pattern,shape","62","0",""
"null","134445","HierDyhe1gv0zb","sub16","04","07","feedback","test","null","","","na","","62","",""
"1281.6999999955297","135728","HierDyhe1gv0zb","sub16","04","07","rl","test","65","img/o_d_stripes.png","1","65","color,pattern,shape","63","1",""
"null","136742","HierDyhe1gv0zb","sub16","04","07","feedback","test","null","","","na","","63","",""
"1367.1000000014901","138111","HierDyhe1gv0zb","sub16","04","07","rl","test","72","img/b_d_stripes.png","5","72","color,pattern,shape","64","1",""
"null","139117","HierDyhe1gv0zb","sub16","04","07","feedback","test","null","","","na","","64","",""
"1457.8000000044703","140576","HierDyhe1gv0zb","sub16","04","07","rl","test","75","img/b_d_check.png","7","75","color,pattern,shape","65","1",""
"null","141586","HierDyhe1gv0zb","sub16","04","07","feedback","test","null","","","na","","65","",""
"1085.2999999970198","142673","HierDyhe1gv0zb","sub16","04","07","rl","test","68","img/o_d_check.png","3","68","color,pattern,shape","66","1",""
"null","143681","HierDyhe1gv0zb","sub16","04","07","feedback","test","null","","","na","","66","",""
"1011.8000000044703","144694","HierDyhe1gv0zb","sub16","04","07","rl","test","72","img/b_d_stripes.png","5","72","color,pattern,shape","67","1",""
"null","145699","HierDyhe1gv0zb","sub16","04","07","feedback","test","null","","","na","","67","",""
"1219.2999999970198","146920","HierDyhe1gv0zb","sub16","04","07","rl","test","83","img/o_s_stripes.png","2","83","color,pattern,shape","68","1",""
"null","147931","HierDyhe1gv0zb","sub16","04","07","feedback","test","null","","","na","","68","",""
"1189.8999999985099","149122","HierDyhe1gv0zb","sub16","04","07","rl","test","75","img/b_d_check.png","7","75","color,pattern,shape","69","1",""
"null","150129","HierDyhe1gv0zb","sub16","04","07","feedback","test","null","","","na","","69","",""
"717.1000000014901","150847","HierDyhe1gv0zb","sub16","04","07","rl","test","74","img/b_s_stripes.png","6","74","color,pattern,shape","70","1",""
"null","151858","HierDyhe1gv0zb","sub16","04","07","feedback","test","null","","","na","","70","",""
"655.9000000059605","152515","HierDyhe1gv0zb","sub16","04","07","rl","test","70","img/o_s_check.png","4","70","color,pattern,shape","71","1",""
"null","153521","HierDyhe1gv0zb","sub16","04","07","feedback","test","null","","","na","","71","",""
"1293.1999999955297","154815","HierDyhe1gv0zb","sub16","04","07","rl","test","74","img/b_d_stripes.png","5","72","color,pattern,shape","72","0",""
"null","155830","HierDyhe1gv0zb","sub16","04","07","feedback","test","null","","","na","","72","",""
"1021.5","156853","HierDyhe1gv0zb","sub16","04","07","rl","test","76","img/b_s_check.png","8","76","color,pattern,shape","73","1",""
"null","157858","HierDyhe1gv0zb","sub16","04","07","feedback","test","null","","","na","","73","",""
"1172","159032","HierDyhe1gv0zb","sub16","04","07","rl","test","75","img/b_s_check.png","8","76","color,pattern,shape","74","0",""
"null","160045","HierDyhe1gv0zb","sub16","04","07","feedback","test","null","","","na","","74","",""
"724.6999999955297","160772","HierDyhe1gv0zb","sub16","04","07","rl","test","70","img/o_s_check.png","4","70","color,pattern,shape","75","1",""
"null","161778","HierDyhe1gv0zb","sub16","04","07","feedback","test","null","","","na","","75","",""
"1733.8999999985099","163513","HierDyhe1gv0zb","sub16","04","07","rl","test","74","img/b_s_stripes.png","6","74","color,pattern,shape","76","1",""
"null","164520","HierDyhe1gv0zb","sub16","04","07","feedback","test","null","","","na","","76","",""
"1051.1000000014901","165573","HierDyhe1gv0zb","sub16","04","07","rl","test","75","img/b_d_check.png","7","75","color,pattern,shape","77","1",""
"null","166576","HierDyhe1gv0zb","sub16","04","07","feedback","test","null","","","na","","77","",""
"716.2999999970198","167294","HierDyhe1gv0zb","sub16","04","07","rl","test","65","img/o_d_stripes.png","1","65","color,pattern,shape","78","1",""
"null","168299","HierDyhe1gv0zb","sub16","04","07","feedback","test","null","","","na","","78","",""
"1470.7999999970198","169771","HierDyhe1gv0zb","sub16","04","07","rl","test","68","img/o_d_check.png","3","68","color,pattern,shape","79","1",""
"null","170778","HierDyhe1gv0zb","sub16","04","07","feedback","test","null","","","na","","79","",""
"697.2000000029802","171476","HierDyhe1gv0zb","sub16","04","07","rl","test","83","img/o_s_stripes.png","2","83","color,pattern,shape","80","1",""
"null","172483","HierDyhe1gv0zb","sub16","04","07","feedback","test","null","","","na","","80","",""
"1375.8999999985099","173861","HierDyhe1gv0zb","sub16","04","07","rl","test","75","img/b_s_check.png","8","76","color,pattern,shape","81","0",""
"null","174865","HierDyhe1gv0zb","sub16","04","07","feedback","test","null","","","na","","81","",""
"1652.2999999970198","176519","HierDyhe1gv0zb","sub16","04","07","rl","test","72","img/b_d_stripes.png","5","72","color,pattern,shape","82","1",""
"null","177532","HierDyhe1gv0zb","sub16","04","07","feedback","test","null","","","na","","82","",""
"854.3999999985099","178388","HierDyhe1gv0zb","sub16","04","07","rl","test","83","img/o_d_stripes.png","1","65","color,pattern,shape","83","0",""
"null","179392","HierDyhe1gv0zb","sub16","04","07","feedback","test","null","","","na","","83","",""
"694.5","180088","HierDyhe1gv0zb","sub16","04","07","rl","test","70","img/o_s_check.png","4","70","color,pattern,shape","84","1",""
"null","181097","HierDyhe1gv0zb","sub16","04","07","feedback","test","null","","","na","","84","",""
"808.2000000029802","181906","HierDyhe1gv0zb","sub16","04","07","rl","test","83","img/o_s_stripes.png","2","83","color,pattern,shape","85","1",""
"null","182913","HierDyhe1gv0zb","sub16","04","07","feedback","test","null","","","na","","85","",""
"1468.4000000059605","184383","HierDyhe1gv0zb","sub16","04","07","rl","test","74","img/b_s_stripes.png","6","74","color,pattern,shape","86","1",""
"null","185395","HierDyhe1gv0zb","sub16","04","07","feedback","test","null","","","na","","86","",""
"947","186343","HierDyhe1gv0zb","sub16","04","07","rl","test","68","img/o_d_check.png","3","68","color,pattern,shape","87","1",""
"null","187355","HierDyhe1gv0zb","sub16","04","07","feedback","test","null","","","na","","87","",""
"1550.3999999985099","188907","HierDyhe1gv0zb","sub16","04","07","rl","test","74","img/b_s_stripes.png","6","74","color,pattern,shape","88","1",""
"null","189914","HierDyhe1gv0zb","sub16","04","07","feedback","test","null","","","na","","88","",""
"1046.7000000029802","190962","HierDyhe1gv0zb","sub16","04","07","rl","test","75","img/b_d_check.png","7","75","color,pattern,shape","89","1",""
"null","191969","HierDyhe1gv0zb","sub16","04","07","feedback","test","null","","","na","","89","",""
"2124.89999999851","194095","HierDyhe1gv0zb","sub16","04","07","rl","test","68","img/o_d_check.png","3","68","color,pattern,shape","90","1",""
"null","195107","HierDyhe1gv0zb","sub16","04","07","feedback","test","null","","","na","","90","",""
"1173.6000000014901","196282","HierDyhe1gv0zb","sub16","04","07","rl","test","83","img/o_s_stripes.png","2","83","color,pattern,shape","91","1",""
"null","197289","HierDyhe1gv0zb","sub16","04","07","feedback","test","null","","","na","","91","",""
"928","198219","HierDyhe1gv0zb","sub16","04","07","rl","test","75","img/b_s_check.png","8","76","color,pattern,shape","92","0",""
"null","199222","HierDyhe1gv0zb","sub16","04","07","feedback","test","null","","","na","","92","",""
"1108.5","200332","HierDyhe1gv0zb","sub16","04","07","rl","test","76","img/b_d_check.png","7","75","color,pattern,shape","93","0",""
"null","201338","HierDyhe1gv0zb","sub16","04","07","feedback","test","null","","","na","","93","",""
"1166","202505","HierDyhe1gv0zb","sub16","04","07","rl","test","75","img/b_d_check.png","7","75","color,pattern,shape","94","1",""
"null","203516","HierDyhe1gv0zb","sub16","04","07","feedback","test","null","","","na","","94","",""
"1594.6000000014901","205112","HierDyhe1gv0zb","sub16","04","07","rl","test","72","img/b_d_stripes.png","5","72","color,pattern,shape","95","1",""
"null","206123","HierDyhe1gv0zb","sub16","04","07","feedback","test","null","","","na","","95","",""
"906.5","207031","HierDyhe1gv0zb","sub16","04","07","rl","test","70","img/o_s_check.png","4","70","color,pattern,shape","96","1",""
"null","208043","HierDyhe1gv0zb","sub16","04","07","feedback","test","null","","","na","","96","",""
"704.3999999985099","208749","HierDyhe1gv0zb","sub16","04","07","rl","test","65","img/o_d_stripes.png","1","65","color,pattern,shape","97","1",""
"null","209760","HierDyhe1gv0zb","sub16","04","07","feedback","test","null","","","na","","97","",""
"1256.5","211018","HierDyhe1gv0zb","sub16","04","07","rl","test","72","img/b_d_stripes.png","5","72","color,pattern,shape","98","1",""
"null","212026","HierDyhe1gv0zb","sub16","04","07","feedback","test","null","","","na","","98","",""
"1541.5","213569","HierDyhe1gv0zb","sub16","04","07","rl","test","68","img/o_d_check.png","3","68","color,pattern,shape","99","1",""
"null","214574","HierDyhe1gv0zb","sub16","04","07","feedback","test","null","","","na","","99","",""
"1294.9000000059605","215871","HierDyhe1gv0zb","sub16","04","07","rl","test","65","img/o_d_stripes.png","1","65","color,pattern,shape","100","1",""
"null","216882","HierDyhe1gv0zb","sub16","04","07","feedback","test","null","","","na","","100","",""
"1713.2999999970198","218597","HierDyhe1gv0zb","sub16","04","07","rl","test","68","img/o_d_check.png","3","68","color,pattern,shape","101","1",""
"null","219606","HierDyhe1gv0zb","sub16","04","07","feedback","test","null","","","na","","101","",""
"1264.8999999985099","220872","HierDyhe1gv0zb","sub16","04","07","rl","test","74","img/b_s_stripes.png","6","74","color,pattern,shape","102","1",""
"null","221878","HierDyhe1gv0zb","sub16","04","07","feedback","test","null","","","na","","102","",""
"831.6000000014901","222712","HierDyhe1gv0zb","sub16","04","07","rl","test","70","img/o_s_check.png","4","70","color,pattern,shape","103","1",""
"null","223718","HierDyhe1gv0zb","sub16","04","07","feedback","test","null","","","na","","103","",""
"2154.5","225874","HierDyhe1gv0zb","sub16","04","07","rl","test","70","img/o_s_check.png","4","70","color,pattern,shape","104","1",""
"null","226880","HierDyhe1gv0zb","sub16","04","07","feedback","test","null","","","na","","104","",""
"735.1000000014901","227617","HierDyhe1gv0zb","sub16","04","07","rl","test","83","img/o_s_stripes.png","2","83","color,pattern,shape","105","1",""
"null","228624","HierDyhe1gv0zb","sub16","04","07","feedback","test","null","","","na","","105","",""
"672.2000000029802","229298","HierDyhe1gv0zb","sub16","04","07","rl","test","65","img/o_d_stripes.png","1","65","color,pattern,shape","106","1",""
"null","230304","HierDyhe1gv0zb","sub16","04","07","feedback","test","null","","","na","","106","",""
"1824.7999999970198","232130","HierDyhe1gv0zb","sub16","04","07","rl","test","76","img/b_s_check.png","8","76","color,pattern,shape","107","1",""
"null","233137","HierDyhe1gv0zb","sub16","04","07","feedback","test","null","","","na","","107","",""
"651.5","233790","HierDyhe1gv0zb","sub16","04","07","rl","test","76","img/b_s_check.png","8","76","color,pattern,shape","108","1",""
"null","234794","HierDyhe1gv0zb","sub16","04","07","feedback","test","null","","","na","","108","",""
"624.7000000029802","235420","HierDyhe1gv0zb","sub16","04","07","rl","test","75","img/b_d_check.png","7","75","color,pattern,shape","109","1",""
"null","236434","HierDyhe1gv0zb","sub16","04","07","feedback","test","null","","","na","","109","",""
"761.7999999970198","237197","HierDyhe1gv0zb","sub16","04","07","rl","test","83","img/o_s_stripes.png","2","83","color,pattern,shape","110","1",""
"null","238207","HierDyhe1gv0zb","sub16","04","07","feedback","test","null","","","na","","110","",""
"1958.0999999940395","240166","HierDyhe1gv0zb","sub16","04","07","rl","test","75","img/b_s_stripes.png","6","74","color,pattern,shape","111","0",""
"null","241173","HierDyhe1gv0zb","sub16","04","07","feedback","test","null","","","na","","111","",""
"833.5999999940395","242008","HierDyhe1gv0zb","sub16","04","07","rl","test","70","img/o_s_check.png","4","70","color,pattern,shape","112","1",""
"null","243016","HierDyhe1gv0zb","sub16","04","07","feedback","test","null","","","na","","112","",""
"1918.1000000014901","244936","HierDyhe1gv0zb","sub16","04","07","rl","test","72","img/b_d_stripes.png","5","72","color,pattern,shape","113","1",""
"null","245943","HierDyhe1gv0zb","sub16","04","07","feedback","test","null","","","na","","113","",""
"923.1000000014901","246867","HierDyhe1gv0zb","sub16","04","07","rl","test","68","img/o_d_check.png","3","68","color,pattern,shape","114","1",""
"null","247877","HierDyhe1gv0zb","sub16","04","07","feedback","test","null","","","na","","114","",""
"1506.2000000029802","249385","HierDyhe1gv0zb","sub16","04","07","rl","test","75","img/b_s_stripes.png","6","74","color,pattern,shape","115","0",""
"null","250392","HierDyhe1gv0zb","sub16","04","07","feedback","test","null","","","na","","115","",""
"2144.39999999851","252538","HierDyhe1gv0zb","sub16","04","07","rl","test","75","img/b_d_check.png","7","75","color,pattern,shape","116","1",""
"null","253544","HierDyhe1gv0zb","sub16","04","07","feedback","test","null","","","na","","116","",""
"718.0999999940395","254263","HierDyhe1gv0zb","sub16","04","07","rl","test","65","img/o_d_stripes.png","1","65","color,pattern,shape","117","1",""
"null","255271","HierDyhe1gv0zb","sub16","04","07","feedback","test","null","","","na","","117","",""
"1311.2000000029802","256583","HierDyhe1gv0zb","sub16","04","07","rl","test","76","img/b_s_check.png","8","76","color,pattern,shape","118","1",""
"null","257591","HierDyhe1gv0zb","sub16","04","07","feedback","test","null","","","na","","118","",""
"2161","259754","HierDyhe1gv0zb","sub16","04","07","rl","test","83","img/o_s_stripes.png","2","83","color,pattern,shape","119","1",""
"null","260760","HierDyhe1gv0zb","sub16","04","07","feedback","test","null","","","na","","119","",""
"1511.3999999985099","262273","HierDyhe1gv0zb","sub16","04","07","rl","test","75","img/b_s_check.png","8","76","color,pattern,shape","120","0",""
"null","263279","HierDyhe1gv0zb","sub16","04","07","feedback","test","null","","","na","","120","",""
"1395.7999999970198","264676","HierDyhe1gv0zb","sub16","04","07","rl","test","72","img/b_d_stripes.png","5","72","color,pattern,shape","121","1",""
"null","265689","HierDyhe1gv0zb","sub16","04","07","feedback","test","null","","","na","","121","",""
"1708.5","267399","HierDyhe1gv0zb","sub16","04","07","rl","test","83","img/o_s_stripes.png","2","83","color,pattern,shape","122","1",""
"null","268405","HierDyhe1gv0zb","sub16","04","07","feedback","test","null","","","na","","122","",""
"1238.2999999970198","269645","HierDyhe1gv0zb","sub16","04","07","rl","test","68","img/b_d_check.png","7","75","color,pattern,shape","123","0",""
"null","270651","HierDyhe1gv0zb","sub16","04","07","feedback","test","null","","","na","","123","",""
"1348.6999999955297","272002","HierDyhe1gv0zb","sub16","04","07","rl","test","68","img/o_d_check.png","3","68","color,pattern,shape","124","1",""
"null","273018","HierDyhe1gv0zb","sub16","04","07","feedback","test","null","","","na","","124","",""
"1981.2999999970198","275001","HierDyhe1gv0zb","sub16","04","07","rl","test","72","img/b_d_stripes.png","5","72","color,pattern,shape","125","1",""
"null","276006","HierDyhe1gv0zb","sub16","04","07","feedback","test","null","","","na","","125","",""
"778.1000000014901","276785","HierDyhe1gv0zb","sub16","04","07","rl","test","70","img/o_s_check.png","4","70","color,pattern,shape","126","1",""
"null","277791","HierDyhe1gv0zb","sub16","04","07","feedback","test","null","","","na","","126","",""
"1225.1000000014901","279018","HierDyhe1gv0zb","sub16","04","07","rl","test","83","img/b_s_stripes.png","6","74","color,pattern,shape","127","0",""
"null","280032","HierDyhe1gv0zb","sub16","04","07","feedback","test","null","","","na","","127","",""
"887.3000000044703","280921","HierDyhe1gv0zb","sub16","04","07","rl","test","65","img/o_d_stripes.png","1","65","color,pattern,shape","128","1",""
"null","281932","HierDyhe1gv0zb","sub16","04","07","feedback","test","null","","","na","","128","",""
"1287.3999999985099","283221","HierDyhe1gv0zb","sub16","04","07","rl","test","75","img/b_d_check.png","7","75","color,pattern,shape","129","1",""
"null","284230","HierDyhe1gv0zb","sub16","04","07","feedback","test","null","","","na","","129","",""
"1640.1000000014901","285872","HierDyhe1gv0zb","sub16","04","07","rl","test","65","img/o_d_stripes.png","1","65","color,pattern,shape","130","1",""
"null","286878","HierDyhe1gv0zb","sub16","04","07","feedback","test","null","","","na","","130","",""
"799.6000000014901","287679","HierDyhe1gv0zb","sub16","04","07","rl","test","70","img/o_s_check.png","4","70","color,pattern,shape","131","1",""
"null","288685","HierDyhe1gv0zb","sub16","04","07","feedback","test","null","","","na","","131","",""
"786.6000000014901","289473","HierDyhe1gv0zb","sub16","04","07","rl","test","83","img/b_s_stripes.png","6","74","color,pattern,shape","132","0",""
"null","290479","HierDyhe1gv0zb","sub16","04","07","feedback","test","null","","","na","","132","",""
"1064.7999999970198","291546","HierDyhe1gv0zb","sub16","04","07","rl","test","68","img/o_d_check.png","3","68","color,pattern,shape","133","1",""
"null","292554","HierDyhe1gv0zb","sub16","04","07","feedback","test","null","","","na","","133","",""
"1156.2999999970198","293712","HierDyhe1gv0zb","sub16","04","07","rl","test","68","img/b_s_check.png","8","76","color,pattern,shape","134","0",""
"null","294719","HierDyhe1gv0zb","sub16","04","07","feedback","test","null","","","na","","134","",""
"1139.1999999955297","295860","HierDyhe1gv0zb","sub16","04","07","rl","test","83","img/o_s_stripes.png","2","83","color,pattern,shape","135","1",""
"null","296871","HierDyhe1gv0zb","sub16","04","07","feedback","test","null","","","na","","135","",""
"1405","298277","HierDyhe1gv0zb","sub16","04","07","rl","test","72","img/b_d_stripes.png","5","72","color,pattern,shape","136","1",""
"null","299284","HierDyhe1gv0zb","sub16","04","07","feedback","test","null","","","na","","136","",""
"628.2000000029802","299913","HierDyhe1gv0zb","sub16","04","07","rl","test","72","img/b_d_stripes.png","5","72","color,pattern,shape","137","1",""
"null","300923","HierDyhe1gv0zb","sub16","04","07","feedback","test","null","","","na","","137","",""
"1243.8999999985099","302168","HierDyhe1gv0zb","sub16","04","07","rl","test","75","img/o_s_stripes.png","2","83","color,pattern,shape","138","0",""
"null","303179","HierDyhe1gv0zb","sub16","04","07","feedback","test","null","","","na","","138","",""
"null","305682","HierDyhe1gv0zb","sub16","04","07","rl","test","null","img/b_s_stripes.png","6","74","color,pattern,shape","139","0",""
"null","306697","HierDyhe1gv0zb","sub16","04","07","feedback","test","null","","","na","","139","",""
"856.1000000014901","307555","HierDyhe1gv0zb","sub16","04","07","rl","test","65","img/o_d_stripes.png","1","65","color,pattern,shape","140","1",""
"null","308566","HierDyhe1gv0zb","sub16","04","07","feedback","test","null","","","na","","140","",""
"667.7999999970198","309235","HierDyhe1gv0zb","sub16","04","07","rl","test","68","img/o_d_check.png","3","68","color,pattern,shape","141","1",""
"null","310242","HierDyhe1gv0zb","sub16","04","07","feedback","test","null","","","na","","141","",""
"2328.8000000044703","312572","HierDyhe1gv0zb","sub16","04","07","rl","test","75","img/b_d_check.png","7","75","color,pattern,shape","142","1",""
"null","313579","HierDyhe1gv0zb","sub16","04","07","feedback","test","null","","","na","","142","",""
"748.6000000014901","314330","HierDyhe1gv0zb","sub16","04","07","rl","test","70","img/o_s_check.png","4","70","color,pattern,shape","143","1",""
"null","315345","HierDyhe1gv0zb","sub16","04","07","feedback","test","null","","","na","","143","",""
"906.3999999985099","316253","HierDyhe1gv0zb","sub16","04","07","rl","test","83","img/o_s_stripes.png","2","83","color,pattern,shape","144","1",""
"null","317260","HierDyhe1gv0zb","sub16","04","07","feedback","test","null","","","na","","144","",""
"704.3000000044703","317966","HierDyhe1gv0zb","sub16","04","07","rl","test","70","img/o_s_check.png","4","70","color,pattern,shape","145","1",""
"null","318972","HierDyhe1gv0zb","sub16","04","07","feedback","test","null","","","na","","145","",""
"891.1000000014901","319865","HierDyhe1gv0zb","sub16","04","07","rl","test","75","img/b_d_check.png","7","75","color,pattern,shape","146","1",""
"null","320876","HierDyhe1gv0zb","sub16","04","07","feedback","test","null","","","na","","146","",""
"640","321518","HierDyhe1gv0zb","sub16","04","07","rl","test","76","img/b_s_check.png","8","76","color,pattern,shape","147","1",""
"null","322525","HierDyhe1gv0zb","sub16","04","07","feedback","test","null","","","na","","147","",""
"510","323036","HierDyhe1gv0zb","sub16","04","07","rl","test","75","img/b_s_check.png","8","76","color,pattern,shape","148","0",""
"null","324043","HierDyhe1gv0zb","sub16","04","07","feedback","test","null","","","na","","148","",""
"1031.1000000014901","325075","HierDyhe1gv0zb","sub16","04","07","rl","test","72","img/b_d_stripes.png","5","72","color,pattern,shape","149","1",""
"null","326081","HierDyhe1gv0zb","sub16","04","07","feedback","test","null","","","na","","149","",""
"722.8999999985099","326806","HierDyhe1gv0zb","sub16","04","07","rl","test","65","img/o_d_stripes.png","1","65","color,pattern,shape","150","1",""
"null","327812","HierDyhe1gv0zb","sub16","04","07","feedback","test","null","","","na","","150","",""
"709.2999999970198","328523","HierDyhe1gv0zb","sub16","04","07","rl","test","68","img/o_d_check.png","3","68","color,pattern,shape","151","1",""
"null","329529","HierDyhe1gv0zb","sub16","04","07","feedback","test","null","","","na","","151","",""
"2159.8000000044703","331690","HierDyhe1gv0zb","sub16","04","07","rl","test","75","img/b_d_check.png","7","75","color,pattern,shape","152","1",""
"null","332698","HierDyhe1gv0zb","sub16","04","07","feedback","test","null","","","na","","152","",""
"1086","333785","HierDyhe1gv0zb","sub16","04","07","rl","test","74","img/b_s_stripes.png","6","74","color,pattern,shape","153","1",""
"null","334790","HierDyhe1gv0zb","sub16","04","07","feedback","test","null","","","na","","153","",""
"1623.2999999970198","336414","HierDyhe1gv0zb","sub16","04","07","rl","test","75","img/o_d_check.png","3","68","color,pattern,shape","154","0",""
"null","337420","HierDyhe1gv0zb","sub16","04","07","feedback","test","null","","","na","","154","",""
"830.1000000014901","338252","HierDyhe1gv0zb","sub16","04","07","rl","test","83","img/o_s_stripes.png","2","83","color,pattern,shape","155","1",""
"null","339257","HierDyhe1gv0zb","sub16","04","07","feedback","test","null","","","na","","155","",""
"1104.3999999985099","340363","HierDyhe1gv0zb","sub16","04","07","rl","test","72","img/b_d_stripes.png","5","72","color,pattern,shape","156","1",""
"null","341370","HierDyhe1gv0zb","sub16","04","07","feedback","test","null","","","na","","156","",""
"902.3999999985099","342274","HierDyhe1gv0zb","sub16","04","07","rl","test","74","img/b_s_stripes.png","6","74","color,pattern,shape","157","1",""
"null","343280","HierDyhe1gv0zb","sub16","04","07","feedback","test","null","","","na","","157","",""
"1168.4000000059605","344450","HierDyhe1gv0zb","sub16","04","07","rl","test","65","img/o_d_stripes.png","1","65","color,pattern,shape","158","1",""
"null","345456","HierDyhe1gv0zb","sub16","04","07","feedback","test","null","","","na","","158","",""
"1205.4000000059605","346663","HierDyhe1gv0zb","sub16","04","07","rl","test","68","img/o_d_check.png","3","68","color,pattern,shape","159","1",""
"null","347667","HierDyhe1gv0zb","sub16","04","07","feedback","test","null","","","na","","159","",""
"605.7000000029802","348274","HierDyhe1gv0zb","sub16","04","07","rl","test","70","img/o_s_check.png","4","70","color,pattern,shape","160","1",""
"null","349281","HierDyhe1gv0zb","sub16","04","07","feedback","test","null","","","na","","160","",""
"582.6000000014901","349865","HierDyhe1gv0zb","sub16","04","07","rl","test","68","img/o_s_check.png","4","70","color,pattern,shape","161","0",""
"null","350872","HierDyhe1gv0zb","sub16","04","07","feedback","test","null","","","na","","161","",""
"791.5","351665","HierDyhe1gv0zb","sub16","04","07","rl","test","74","img/b_s_check.png","8","76","color,pattern,shape","162","0",""
"null","352673","HierDyhe1gv0zb","sub16","04","07","feedback","test","null","","","na","","162","",""
"868.9000000059605","353544","HierDyhe1gv0zb","sub16","04","07","rl","test","65","img/o_d_stripes.png","1","65","color,pattern,shape","163","1",""
"null","354559","HierDyhe1gv0zb","sub16","04","07","feedback","test","null","","","na","","163","",""
"777.1000000014901","355337","HierDyhe1gv0zb","sub16","04","07","rl","test","83","img/o_s_stripes.png","2","83","color,pattern,shape","164","1",""
"null","356345","HierDyhe1gv0zb","sub16","04","07","feedback","test","null","","","na","","164","",""
"1276.8999999985099","357623","HierDyhe1gv0zb","sub16","04","07","rl","test","75","img/b_s_check.png","8","76","color,pattern,shape","165","0",""
"null","358639","HierDyhe1gv0zb","sub16","04","07","feedback","test","null","","","na","","165","",""
"2108.2999999970198","360748","HierDyhe1gv0zb","sub16","04","07","rl","test","74","img/b_s_stripes.png","6","74","color,pattern,shape","166","1",""
"null","361754","HierDyhe1gv0zb","sub16","04","07","feedback","test","null","","","na","","166","",""
"1169.1000000014901","362925","HierDyhe1gv0zb","sub16","04","07","rl","test","75","img/b_d_check.png","7","75","color,pattern,shape","167","1",""
"null","363932","HierDyhe1gv0zb","sub16","04","07","feedback","test","null","","","na","","167","",""
"1655.3999999985099","365589","HierDyhe1gv0zb","sub16","04","07","rl","test","72","img/b_d_stripes.png","5","72","color,pattern,shape","168","1",""
"null","366592","HierDyhe1gv0zb","sub16","04","07","feedback","test","null","","","na","","168","",""
"1812.6000000014901","368406","HierDyhe1gv0zb","sub16","04","07","rl","test","74","img/b_d_check.png","7","75","color,pattern,shape","169","0",""
"null","369417","HierDyhe1gv0zb","sub16","04","07","feedback","test","null","","","na","","169","",""
"692.2000000029802","370111","HierDyhe1gv0zb","sub16","04","07","rl","test","65","img/o_d_stripes.png","1","65","color,pattern,shape","170","1",""
"null","371124","HierDyhe1gv0zb","sub16","04","07","feedback","test","null","","","na","","170","",""
"1366.8999999985099","372492","HierDyhe1gv0zb","sub16","04","07","rl","test","75","img/b_s_check.png","8","76","color,pattern,shape","171","0",""
"null","373499","HierDyhe1gv0zb","sub16","04","07","feedback","test","null","","","na","","171","",""
"770.1000000014901","374270","HierDyhe1gv0zb","sub16","04","07","rl","test","70","img/o_s_check.png","4","70","color,pattern,shape","172","1",""
"null","375286","HierDyhe1gv0zb","sub16","04","07","feedback","test","null","","","na","","172","",""
"750.5","376038","HierDyhe1gv0zb","sub16","04","07","rl","test","83","img/o_s_stripes.png","2","83","color,pattern,shape","173","1",""
"null","377052","HierDyhe1gv0zb","sub16","04","07","feedback","test","null","","","na","","173","",""
"915.6000000014901","377969","HierDyhe1gv0zb","sub16","04","07","rl","test","68","img/o_d_check.png","3","68","color,pattern,shape","174","1",""
"null","378976","HierDyhe1gv0zb","sub16","04","07","feedback","test","null","","","na","","174","",""
"1008.3000000044703","379986","HierDyhe1gv0zb","sub16","04","07","rl","test","70","img/b_d_stripes.png","5","72","color,pattern,shape","175","0",""
"null","380993","HierDyhe1gv0zb","sub16","04","07","feedback","test","null","","","na","","175","",""
"915.8999999985099","381911","HierDyhe1gv0zb","sub16","04","07","rl","test","68","img/o_d_check.png","3","68","color,pattern,shape","176","1",""
"null","382919","HierDyhe1gv0zb","sub16","04","07","feedback","test","null","","","na","","176","",""
"723.8999999985099","383645","HierDyhe1gv0zb","sub16","04","07","rl","test","83","img/o_s_stripes.png","2","83","color,pattern,shape","177","1",""
"null","384648","HierDyhe1gv0zb","sub16","04","07","feedback","test","null","","","na","","177","",""
"1447.3000000044703","386097","HierDyhe1gv0zb","sub16","04","07","rl","test","65","img/o_d_stripes.png","1","65","color,pattern,shape","178","1",""
"null","387103","HierDyhe1gv0zb","sub16","04","07","feedback","test","null","","","na","","178","",""
"2225.3000000044703","389329","HierDyhe1gv0zb","sub16","04","07","rl","test","75","img/b_s_stripes.png","6","74","color,pattern,shape","179","0",""
"null","390336","HierDyhe1gv0zb","sub16","04","07","feedback","test","null","","","na","","179","",""
"721.5","391060","HierDyhe1gv0zb","sub16","04","07","rl","test","74","img/b_s_stripes.png","6","74","color,pattern,shape","180","1",""
"null","392071","HierDyhe1gv0zb","sub16","04","07","feedback","test","null","","","na","","180","",""
"906.5","392979","HierDyhe1gv0zb","sub16","04","07","rl","test","76","img/b_s_check.png","8","76","color,pattern,shape","181","1",""
"null","393986","HierDyhe1gv0zb","sub16","04","07","feedback","test","null","","","na","","181","",""
"2027.5","396015","HierDyhe1gv0zb","sub16","04","07","rl","test","75","img/b_d_check.png","7","75","color,pattern,shape","182","1",""
"null","397026","HierDyhe1gv0zb","sub16","04","07","feedback","test","null","","","na","","182","",""
"1773","398801","HierDyhe1gv0zb","sub16","04","07","rl","test","72","img/b_d_stripes.png","5","72","color,pattern,shape","183","1",""
"null","399808","HierDyhe1gv0zb","sub16","04","07","feedback","test","null","","","na","","183","",""
"705.7000000029802","400515","HierDyhe1gv0zb","sub16","04","07","rl","test","70","img/o_s_check.png","4","70","color,pattern,shape","184","1",""
"null","401522","HierDyhe1gv0zb","sub16","04","07","feedback","test","null","","","na","","184","",""
"1365.7000000029802","402890","HierDyhe1gv0zb","sub16","04","07","rl","test","74","img/b_s_check.png","8","76","color,pattern,shape","185","0",""
"null","403894","HierDyhe1gv0zb","sub16","04","07","feedback","test","null","","","na","","185","",""
"1533.7999999970198","405429","HierDyhe1gv0zb","sub16","04","07","rl","test","70","img/o_s_check.png","4","70","color,pattern,shape","186","1",""
"null","406442","HierDyhe1gv0zb","sub16","04","07","feedback","test","null","","","na","","186","",""
"1330.2999999970198","407774","HierDyhe1gv0zb","sub16","04","07","rl","test","68","img/o_d_check.png","3","68","color,pattern,shape","187","1",""
"null","408782","HierDyhe1gv0zb","sub16","04","07","feedback","test","null","","","na","","187","",""
"1231.8999999985099","410015","HierDyhe1gv0zb","sub16","04","07","rl","test","72","img/b_d_stripes.png","5","72","color,pattern,shape","188","1",""
"null","411021","HierDyhe1gv0zb","sub16","04","07","feedback","test","null","","","na","","188","",""
"700.3999999985099","411723","HierDyhe1gv0zb","sub16","04","07","rl","test","70","img/o_s_check.png","4","70","color,pattern,shape","189","1",""
"null","412728","HierDyhe1gv0zb","sub16","04","07","feedback","test","null","","","na","","189","",""
"null","415240","HierDyhe1gv0zb","sub16","04","07","rl","test","null","img/b_s_stripes.png","6","74","color,pattern,shape","190","0",""
"null","416248","HierDyhe1gv0zb","sub16","04","07","feedback","test","null","","","na","","190","",""
"2303.7999999970198","418553","HierDyhe1gv0zb","sub16","04","07","rl","test","83","img/o_s_stripes.png","2","83","color,pattern,shape","191","1",""
"null","419558","HierDyhe1gv0zb","sub16","04","07","feedback","test","null","","","na","","191","",""
"543.2000000029802","420103","HierDyhe1gv0zb","sub16","04","07","rl","test","83","img/o_s_stripes.png","2","83","color,pattern,shape","192","1",""
"null","421114","HierDyhe1gv0zb","sub16","04","07","feedback","test","null","","","na","","192","",""
"663.5","421779","HierDyhe1gv0zb","sub16","04","07","rl","test","65","img/o_d_stripes.png","1","65","color,pattern,shape","193","1",""
"null","422783","HierDyhe1gv0zb","sub16","04","07","feedback","test","null","","","na","","193","",""
"926.1999999955297","423710","HierDyhe1gv0zb","sub16","04","07","rl","test","72","img/b_d_stripes.png","5","72","color,pattern,shape","194","1",""
"null","424717","HierDyhe1gv0zb","sub16","04","07","feedback","test","null","","","na","","194","",""
"1196.7999999970198","425916","HierDyhe1gv0zb","sub16","04","07","rl","test","76","img/b_d_check.png","7","75","color,pattern,shape","195","0",""
"null","426929","HierDyhe1gv0zb","sub16","04","07","feedback","test","null","","","na","","195","",""
"471","427402","HierDyhe1gv0zb","sub16","04","07","rl","test","76","img/b_s_check.png","8","76","color,pattern,shape","196","1",""
"null","428408","HierDyhe1gv0zb","sub16","04","07","feedback","test","null","","","na","","196","",""
"2028.3999999985099","430438","HierDyhe1gv0zb","sub16","04","07","rl","test","65","img/o_d_stripes.png","1","65","color,pattern,shape","197","1",""
"null","431445","HierDyhe1gv0zb","sub16","04","07","feedback","test","null","","","na","","197","",""
"1037.2000000029802","432483","HierDyhe1gv0zb","sub16","04","07","rl","test","74","img/b_s_stripes.png","6","74","color,pattern,shape","198","1",""
"null","433500","HierDyhe1gv0zb","sub16","04","07","feedback","test","null","","","na","","198","",""
"1492.7999999970198","434994","HierDyhe1gv0zb","sub16","04","07","rl","test","68","img/o_d_check.png","3","68","color,pattern,shape","199","1",""
"null","436000","HierDyhe1gv0zb","sub16","04","07","feedback","test","null","","","na","","199","",""
"1756.5","437758","HierDyhe1gv0zb","sub16","04","07","rl","test","75","img/b_d_check.png","7","75","color,pattern,shape","200","1",""
"null","438767","HierDyhe1gv0zb","sub16","04","07","feedback","test","null","","","na","","200","",""
"645.8999999985099","439414","HierDyhe1gv0zb","sub16","04","07","rl","test","75","img/b_d_check.png","7","75","color,pattern,shape","201","1",""
"null","440421","HierDyhe1gv0zb","sub16","04","07","feedback","test","null","","","na","","201","",""
"913.3999999985099","441336","HierDyhe1gv0zb","sub16","04","07","rl","test","68","img/o_d_check.png","3","68","color,pattern,shape","202","1",""
"null","442343","HierDyhe1gv0zb","sub16","04","07","feedback","test","null","","","na","","202","",""
"674.2999999970198","443019","HierDyhe1gv0zb","sub16","04","07","rl","test","70","img/o_s_check.png","4","70","color,pattern,shape","203","1",""
"null","444035","HierDyhe1gv0zb","sub16","04","07","feedback","test","null","","","na","","203","",""
"1032.2000000029802","445069","HierDyhe1gv0zb","sub16","04","07","rl","test","65","img/o_d_stripes.png","1","65","color,pattern,shape","204","1",""
"null","446079","HierDyhe1gv0zb","sub16","04","07","feedback","test","null","","","na","","204","",""
"2227.2999999970198","448308","HierDyhe1gv0zb","sub16","04","07","rl","test","75","img/b_s_check.png","8","76","color,pattern,shape","205","0",""
"null","449317","HierDyhe1gv0zb","sub16","04","07","feedback","test","null","","","na","","205","",""
"791.7999999970198","450110","HierDyhe1gv0zb","sub16","04","07","rl","test","74","img/b_s_stripes.png","6","74","color,pattern,shape","206","1",""
"null","451116","HierDyhe1gv0zb","sub16","04","07","feedback","test","null","","","na","","206","",""
"1640","452757","HierDyhe1gv0zb","sub16","04","07","rl","test","83","img/o_s_stripes.png","2","83","color,pattern,shape","207","1",""
"null","453770","HierDyhe1gv0zb","sub16","04","07","feedback","test","null","","","na","","207","",""
"2261.2000000029802","456033","HierDyhe1gv0zb","sub16","04","07","rl","test","72","img/b_d_stripes.png","5","72","color,pattern,shape","208","1",""
"null","457039","HierDyhe1gv0zb","sub16","04","07","feedback","test","null","","","na","","208","",""
"622.2000000029802","457663","HierDyhe1gv0zb","sub16","04","07","rl","test","70","img/o_s_check.png","4","70","color,pattern,shape","209","1",""
"null","458670","HierDyhe1gv0zb","sub16","04","07","feedback","test","null","","","na","","209","",""
"1390.1999999955297","460061","HierDyhe1gv0zb","sub16","04","07","rl","test","72","img/b_d_stripes.png","5","72","color,pattern,shape","210","1",""
"null","461068","HierDyhe1gv0zb","sub16","04","07","feedback","test","null","","","na","","210","",""
"658.6000000014901","461728","HierDyhe1gv0zb","sub16","04","07","rl","test","65","img/o_d_stripes.png","1","65","color,pattern,shape","211","1",""
"null","462735","HierDyhe1gv0zb","sub16","04","07","feedback","test","null","","","na","","211","",""
"657.2999999970198","463394","HierDyhe1gv0zb","sub16","04","07","rl","test","74","img/b_s_stripes.png","6","74","color,pattern,shape","212","1",""
"null","464410","HierDyhe1gv0zb","sub16","04","07","feedback","test","null","","","na","","212","",""
"2181.60000000149","466593","HierDyhe1gv0zb","sub16","04","07","rl","test","68","img/o_d_check.png","3","68","color,pattern,shape","213","1",""
"null","467599","HierDyhe1gv0zb","sub16","04","07","feedback","test","null","","","na","","213","",""
"1685.7999999970198","469286","HierDyhe1gv0zb","sub16","04","07","rl","test","75","img/b_d_check.png","7","75","color,pattern,shape","214","1",""
"null","470293","HierDyhe1gv0zb","sub16","04","07","feedback","test","null","","","na","","214","",""
"942","471236","HierDyhe1gv0zb","sub16","04","07","rl","test","76","img/b_s_check.png","8","76","color,pattern,shape","215","1",""
"null","472242","HierDyhe1gv0zb","sub16","04","07","feedback","test","null","","","na","","215","",""
"923.1000000014901","473167","HierDyhe1gv0zb","sub16","04","07","rl","test","83","img/o_s_stripes.png","2","83","color,pattern,shape","216","1",""
"null","474172","HierDyhe1gv0zb","sub16","04","07","feedback","test","null","","","na","","216","",""
"733.1000000014901","474906","HierDyhe1gv0zb","sub16","04","07","rl","test","68","img/o_d_check.png","3","68","color,pattern,shape","217","1",""
"null","475919","HierDyhe1gv0zb","sub16","04","07","feedback","test","null","","","na","","217","",""
"832.2999999970198","476753","HierDyhe1gv0zb","sub16","04","07","rl","test","83","img/o_s_stripes.png","2","83","color,pattern,shape","218","1",""
"null","477767","HierDyhe1gv0zb","sub16","04","07","feedback","test","null","","","na","","218","",""
"983.2999999970198","478752","HierDyhe1gv0zb","sub16","04","07","rl","test","75","img/b_d_check.png","7","75","color,pattern,shape","219","1",""
"null","479758","HierDyhe1gv0zb","sub16","04","07","feedback","test","null","","","na","","219","",""
"683.3999999985099","480443","HierDyhe1gv0zb","sub16","04","07","rl","test","75","img/b_d_check.png","7","75","color,pattern,shape","220","1",""
"null","481457","HierDyhe1gv0zb","sub16","04","07","feedback","test","null","","","na","","220","",""
"722.8999999985099","482181","HierDyhe1gv0zb","sub16","04","07","rl","test","70","img/o_s_check.png","4","70","color,pattern,shape","221","1",""
"null","483190","HierDyhe1gv0zb","sub16","04","07","feedback","test","null","","","na","","221","",""
"1029.6000000014901","484221","HierDyhe1gv0zb","sub16","04","07","rl","test","76","img/b_s_check.png","8","76","color,pattern,shape","222","1",""
"null","485227","HierDyhe1gv0zb","sub16","04","07","feedback","test","null","","","na","","222","",""
"2073.6999999955297","487302","HierDyhe1gv0zb","sub16","04","07","rl","test","72","img/b_d_stripes.png","5","72","color,pattern,shape","223","1",""
"null","488309","HierDyhe1gv0zb","sub16","04","07","feedback","test","null","","","na","","223","",""
"823.1000000014901","489134","HierDyhe1gv0zb","sub16","04","07","rl","test","70","img/o_s_check.png","4","70","color,pattern,shape","224","1",""
"null","490140","HierDyhe1gv0zb","sub16","04","07","feedback","test","null","","","na","","224","",""
"919.3999999985099","491061","HierDyhe1gv0zb","sub16","04","07","rl","test","65","img/o_d_stripes.png","1","65","color,pattern,shape","225","1",""
"null","492066","HierDyhe1gv0zb","sub16","04","07","feedback","test","null","","","na","","225","",""
"1230.8000000044703","493298","HierDyhe1gv0zb","sub16","04","07","rl","test","75","img/b_s_check.png","8","76","color,pattern,shape","226","0",""
"null","494305","HierDyhe1gv0zb","sub16","04","07","feedback","test","null","","","na","","226","",""
"1167.2000000029802","495474","HierDyhe1gv0zb","sub16","04","07","rl","test","74","img/b_s_stripes.png","6","74","color,pattern,shape","227","1",""
"null","496483","HierDyhe1gv0zb","sub16","04","07","feedback","test","null","","","na","","227","",""
"1065.4000000059605","497550","HierDyhe1gv0zb","sub16","04","07","rl","test","65","img/o_d_stripes.png","1","65","color,pattern,shape","228","1",""
"null","498556","HierDyhe1gv0zb","sub16","04","07","feedback","test","null","","","na","","228","",""
"1291.1000000014901","499848","HierDyhe1gv0zb","sub16","04","07","rl","test","83","img/o_d_check.png","3","68","color,pattern,shape","229","0",""
"null","500862","HierDyhe1gv0zb","sub16","04","07","feedback","test","null","","","na","","229","",""
"1439.1000000014901","502303","HierDyhe1gv0zb","sub16","04","07","rl","test","68","img/o_d_check.png","3","68","color,pattern,shape","230","1",""
"null","503309","HierDyhe1gv0zb","sub16","04","07","feedback","test","null","","","na","","230","",""
"1079.2999999970198","504390","HierDyhe1gv0zb","sub16","04","07","rl","test","74","img/b_d_stripes.png","5","72","color,pattern,shape","231","0",""
"null","505396","HierDyhe1gv0zb","sub16","04","07","feedback","test","null","","","na","","231","",""
"691.5999999940395","506089","HierDyhe1gv0zb","sub16","04","07","rl","test","74","img/b_s_stripes.png","6","74","color,pattern,shape","232","1",""
"null","507100","HierDyhe1gv0zb","sub16","04","07","feedback","test","null","","","na","","232","",""
"1298.8999999985099","508401","HierDyhe1gv0zb","sub16","04","07","rl","test","83","img/o_s_stripes.png","2","83","color,pattern,shape","233","1",""
"null","509409","HierDyhe1gv0zb","sub16","04","07","feedback","test","null","","","na","","233","",""
"781.1000000014901","510191","HierDyhe1gv0zb","sub16","04","07","rl","test","70","img/o_s_check.png","4","70","color,pattern,shape","234","1",""
"null","511205","HierDyhe1gv0zb","sub16","04","07","feedback","test","null","","","na","","234","",""
"null","513715","HierDyhe1gv0zb","sub16","04","07","rl","test","null","img/b_d_check.png","7","75","color,pattern,shape","235","0",""
"null","514720","HierDyhe1gv0zb","sub16","04","07","feedback","test","null","","","na","","235","",""
"2083.10000000149","516805","HierDyhe1gv0zb","sub16","04","07","rl","test","76","img/b_s_stripes.png","6","74","color,pattern,shape","236","0",""
"null","517811","HierDyhe1gv0zb","sub16","04","07","feedback","test","null","","","na","","236","",""
"1526.3999999985099","519339","HierDyhe1gv0zb","sub16","04","07","rl","test","72","img/b_d_stripes.png","5","72","color,pattern,shape","237","1",""
"null","520342","HierDyhe1gv0zb","sub16","04","07","feedback","test","null","","","na","","237","",""
"690.8999999985099","521035","HierDyhe1gv0zb","sub16","04","07","rl","test","74","img/b_s_stripes.png","6","74","color,pattern,shape","238","1",""
"null","522041","HierDyhe1gv0zb","sub16","04","07","feedback","test","null","","","na","","238","",""
"901.3999999985099","522944","HierDyhe1gv0zb","sub16","04","07","rl","test","65","img/o_d_stripes.png","1","65","color,pattern,shape","239","1",""
"null","523957","HierDyhe1gv0zb","sub16","04","07","feedback","test","null","","","na","","239","",""
"2153.8000000044703","526113","HierDyhe1gv0zb","sub16","04","07","rl","test","76","img/b_s_check.png","8","76","color,pattern,shape","240","1",""
"null","527121","HierDyhe1gv0zb","sub16","04","07","feedback","test","null","","","na","","240","",""
"1336.3999999985099","528460","HierDyhe1gv0zb","sub16","04","07","rl","test","83","img/o_s_stripes.png","2","83","color,pattern,shape","241","1",""
"null","529468","HierDyhe1gv0zb","sub16","04","07","feedback","test","null","","","na","","241","",""
"534.3000000044703","530004","HierDyhe1gv0zb","sub16","04","07","rl","test","83","img/o_s_stripes.png","2","83","color,pattern,shape","242","1",""
"null","531011","HierDyhe1gv0zb","sub16","04","07","feedback","test","null","","","na","","242","",""
"1465.2000000029802","532478","HierDyhe1gv0zb","sub16","04","07","rl","test","76","img/b_s_check.png","8","76","color,pattern,shape","243","1",""
"null","533484","HierDyhe1gv0zb","sub16","04","07","feedback","test","null","","","na","","243","",""
"700.6999999955297","534188","HierDyhe1gv0zb","sub16","04","07","rl","test","75","img/b_d_check.png","7","75","color,pattern,shape","244","1",""
"null","535192","HierDyhe1gv0zb","sub16","04","07","feedback","test","null","","","na","","244","",""
"1175.6999999955297","536369","HierDyhe1gv0zb","sub16","04","07","rl","test","68","img/o_d_check.png","3","68","color,pattern,shape","245","1",""
"null","537377","HierDyhe1gv0zb","sub16","04","07","feedback","test","null","","","na","","245","",""
"858.5","538237","HierDyhe1gv0zb","sub16","04","07","rl","test","65","img/o_d_stripes.png","1","65","color,pattern,shape","246","1",""
"null","539244","HierDyhe1gv0zb","sub16","04","07","feedback","test","null","","","na","","246","",""
"1056.7000000029802","540302","HierDyhe1gv0zb","sub16","04","07","rl","test","70","img/o_s_check.png","4","70","color,pattern,shape","247","1",""
"null","541316","HierDyhe1gv0zb","sub16","04","07","feedback","test","null","","","na","","247","",""
"1590.3000000044703","542907","HierDyhe1gv0zb","sub16","04","07","rl","test","72","img/b_d_stripes.png","5","72","color,pattern,shape","248","1",""
"null","543914","HierDyhe1gv0zb","sub16","04","07","feedback","test","null","","","na","","248","",""
"2206.7999999970198","546127","HierDyhe1gv0zb","sub16","04","07","","","","","","","","","","{""Q0"":""8""}"
"16066.20000000298","562196","HierDyhe1gv0zb","sub16","04","07","","","","","","","","","","{""Q0"":""""}"
"6727.5","568925","HierDyhe1gv0zb","sub16","04","07","","","","","","","","","",""
