"rt","time_elapsed","subject","subID","group","day","trialType","phase","key_press","stim","stimNum","corrresp","hierarchy","trialNum","corr","responses"
"1657.7000000029802","1660","HierDyt6unctcz","sub16","04","05","","","","","","","","","",""
"","3712","HierDyt6unctcz","sub16","04","05","fullscreen","","","","","","","","",""
"2208.699999999255","5922","HierDyt6unctcz","sub16","04","05","","prac","","","","","","","",""
"2342.60000000149","8267","HierDyt6unctcz","sub16","04","05","","","32","","","","","","",""
"1294.3999999985099","9563","HierDyt6unctcz","sub16","04","05","","prac","","","","","","","",""
"1262","10827","HierDyt6unctcz","sub16","04","05","rl","test","74","img/b_d_stripes.png","5","72","color,pattern,shape","1","0",""
"null","11833","HierDyt6unctcz","sub16","04","05","feedback","test","null","","","na","","1","",""
"1064.199999999255","12899","HierDyt6unctcz","sub16","04","05","rl","test","75","img/b_s_check.png","8","76","color,pattern,shape","2","0",""
"null","13904","HierDyt6unctcz","sub16","04","05","feedback","test","null","","","na","","2","",""
"855.6999999992549","14761","HierDyt6unctcz","sub16","04","05","rl","test","83","img/o_d_stripes.png","1","65","color,pattern,shape","3","0",""
"null","15772","HierDyt6unctcz","sub16","04","05","feedback","test","null","","","na","","3","",""
"883.9000000022352","16658","HierDyt6unctcz","sub16","04","05","rl","test","74","img/b_s_stripes.png","6","74","color,pattern,shape","4","1",""
"null","17664","HierDyt6unctcz","sub16","04","05","feedback","test","null","","","na","","4","",""
"696.4000000022352","18363","HierDyt6unctcz","sub16","04","05","rl","test","70","img/o_s_check.png","4","70","color,pattern,shape","5","1",""
"null","19369","HierDyt6unctcz","sub16","04","05","feedback","test","null","","","na","","5","",""
"722.9000000022352","20093","HierDyt6unctcz","sub16","04","05","rl","test","83","img/o_s_stripes.png","2","83","color,pattern,shape","6","1",""
"null","21108","HierDyt6unctcz","sub16","04","05","feedback","test","null","","","na","","6","",""
"1537.300000000745","22647","HierDyt6unctcz","sub16","04","05","rl","test","75","img/b_d_check.png","7","75","color,pattern,shape","7","1",""
"null","23656","HierDyt6unctcz","sub16","04","05","feedback","test","null","","","na","","7","",""
"1330.1000000014901","24988","HierDyt6unctcz","sub16","04","05","rl","test","68","img/o_d_check.png","3","68","color,pattern,shape","8","1",""
"null","25991","HierDyt6unctcz","sub16","04","05","feedback","test","null","","","na","","8","",""
"1777.2000000029802","27770","HierDyt6unctcz","sub16","04","05","rl","test","83","img/o_s_stripes.png","2","83","color,pattern,shape","9","1",""
"null","28778","HierDyt6unctcz","sub16","04","05","feedback","test","null","","","na","","9","",""
"1128.1000000014901","29908","HierDyt6unctcz","sub16","04","05","rl","test","65","img/o_d_stripes.png","1","65","color,pattern,shape","10","1",""
"null","30914","HierDyt6unctcz","sub16","04","05","feedback","test","null","","","na","","10","",""
"1406","32322","HierDyt6unctcz","sub16","04","05","rl","test","68","img/o_d_check.png","3","68","color,pattern,shape","11","1",""
"null","33328","HierDyt6unctcz","sub16","04","05","feedback","test","null","","","na","","11","",""
"1076.199999999255","34406","HierDyt6unctcz","sub16","04","05","rl","test","75","img/b_d_check.png","7","75","color,pattern,shape","12","1",""
"null","35415","HierDyt6unctcz","sub16","04","05","feedback","test","null","","","na","","12","",""
"1129.1000000014901","36546","HierDyt6unctcz","sub16","04","05","rl","test","76","img/b_s_check.png","8","76","color,pattern,shape","13","1",""
"null","37553","HierDyt6unctcz","sub16","04","05","feedback","test","null","","","na","","13","",""
"863.6999999992549","38418","HierDyt6unctcz","sub16","04","05","rl","test","72","img/b_d_stripes.png","5","72","color,pattern,shape","14","1",""
"null","39424","HierDyt6unctcz","sub16","04","05","feedback","test","null","","","na","","14","",""
"858.1999999992549","40283","HierDyt6unctcz","sub16","04","05","rl","test","72","img/b_d_stripes.png","5","72","color,pattern,shape","15","1",""
"null","41289","HierDyt6unctcz","sub16","04","05","feedback","test","null","","","na","","15","",""
"913.6999999992549","42204","HierDyt6unctcz","sub16","04","05","rl","test","74","img/b_s_stripes.png","6","74","color,pattern,shape","16","1",""
"null","43221","HierDyt6unctcz","sub16","04","05","feedback","test","null","","","na","","16","",""
"1280.7000000029802","44504","HierDyt6unctcz","sub16","04","05","rl","test","76","img/b_s_check.png","8","76","color,pattern,shape","17","1",""
"null","45510","HierDyt6unctcz","sub16","04","05","feedback","test","null","","","na","","17","",""
"987","46497","HierDyt6unctcz","sub16","04","05","rl","test","83","img/o_s_stripes.png","2","83","color,pattern,shape","18","1",""
"null","47504","HierDyt6unctcz","sub16","04","05","feedback","test","null","","","na","","18","",""
"916.2999999970198","48422","HierDyt6unctcz","sub16","04","05","rl","test","70","img/o_s_check.png","4","70","color,pattern,shape","19","1",""
"null","49432","HierDyt6unctcz","sub16","04","05","feedback","test","null","","","na","","19","",""
"1454.9000000022352","50888","HierDyt6unctcz","sub16","04","05","rl","test","75","img/b_d_check.png","7","75","color,pattern,shape","20","1",""
"null","51896","HierDyt6unctcz","sub16","04","05","feedback","test","null","","","na","","20","",""
"702.7000000029802","52600","HierDyt6unctcz","sub16","04","05","rl","test","70","img/o_s_check.png","4","70","color,pattern,shape","21","1",""
"null","53609","HierDyt6unctcz","sub16","04","05","feedback","test","null","","","na","","21","",""
"707.8999999985099","54318","HierDyt6unctcz","sub16","04","05","rl","test","74","img/b_s_stripes.png","6","74","color,pattern,shape","22","1",""
"null","55327","HierDyt6unctcz","sub16","04","05","feedback","test","null","","","na","","22","",""
"813.3999999985099","56142","HierDyt6unctcz","sub16","04","05","rl","test","83","img/o_s_stripes.png","2","83","color,pattern,shape","23","1",""
"null","57151","HierDyt6unctcz","sub16","04","05","feedback","test","null","","","na","","23","",""
"1097.300000000745","58250","HierDyt6unctcz","sub16","04","05","rl","test","65","img/o_d_stripes.png","1","65","color,pattern,shape","24","1",""
"null","59254","HierDyt6unctcz","sub16","04","05","feedback","test","null","","","na","","24","",""
"1206.5","60462","HierDyt6unctcz","sub16","04","05","rl","test","68","img/o_d_check.png","3","68","color,pattern,shape","25","1",""
"null","61474","HierDyt6unctcz","sub16","04","05","feedback","test","null","","","na","","25","",""
"892.7000000029802","62368","HierDyt6unctcz","sub16","04","05","rl","test","70","img/o_d_check.png","3","68","color,pattern,shape","26","0",""
"null","63376","HierDyt6unctcz","sub16","04","05","feedback","test","null","","","na","","26","",""
"1974","65351","HierDyt6unctcz","sub16","04","05","rl","test","75","img/b_d_check.png","7","75","color,pattern,shape","27","1",""
"null","66359","HierDyt6unctcz","sub16","04","05","feedback","test","null","","","na","","27","",""
"1197.8999999985099","67558","HierDyt6unctcz","sub16","04","05","rl","test","76","img/b_s_check.png","8","76","color,pattern,shape","28","1",""
"null","68566","HierDyt6unctcz","sub16","04","05","feedback","test","null","","","na","","28","",""
"982.9000000022352","69551","HierDyt6unctcz","sub16","04","05","rl","test","65","img/o_d_stripes.png","1","65","color,pattern,shape","29","1",""
"null","70557","HierDyt6unctcz","sub16","04","05","feedback","test","null","","","na","","29","",""
"1438.800000000745","71997","HierDyt6unctcz","sub16","04","05","rl","test","72","img/b_d_stripes.png","5","72","color,pattern,shape","30","1",""
"null","73008","HierDyt6unctcz","sub16","04","05","feedback","test","null","","","na","","30","",""
"746.2000000029802","73755","HierDyt6unctcz","sub16","04","05","rl","test","70","img/o_s_check.png","4","70","color,pattern,shape","31","1",""
"null","74758","HierDyt6unctcz","sub16","04","05","feedback","test","null","","","na","","31","",""
"710.1000000014901","75468","HierDyt6unctcz","sub16","04","05","rl","test","74","img/b_s_stripes.png","6","74","color,pattern,shape","32","1",""
"null","76479","HierDyt6unctcz","sub16","04","05","feedback","test","null","","","na","","32","",""
"816.3000000007451","77296","HierDyt6unctcz","sub16","04","05","rl","test","70","img/o_s_check.png","4","70","color,pattern,shape","33","1",""
"null","78301","HierDyt6unctcz","sub16","04","05","feedback","test","null","","","na","","33","",""
"965.5999999977648","79267","HierDyt6unctcz","sub16","04","05","rl","test","68","img/o_d_check.png","3","68","color,pattern,shape","34","1",""
"null","80279","HierDyt6unctcz","sub16","04","05","feedback","test","null","","","na","","34","",""
"848.5999999977648","81128","HierDyt6unctcz","sub16","04","05","rl","test","83","img/o_s_stripes.png","2","83","color,pattern,shape","35","1",""
"null","82132","HierDyt6unctcz","sub16","04","05","feedback","test","null","","","na","","35","",""
"839.6000000014901","82972","HierDyt6unctcz","sub16","04","05","rl","test","65","img/o_d_stripes.png","1","65","color,pattern,shape","36","1",""
"null","83983","HierDyt6unctcz","sub16","04","05","feedback","test","null","","","na","","36","",""
"1343.4000000022352","85327","HierDyt6unctcz","sub16","04","05","rl","test","65","img/o_d_stripes.png","1","65","color,pattern,shape","37","1",""
"null","86333","HierDyt6unctcz","sub16","04","05","feedback","test","null","","","na","","37","",""
"1021.9000000022352","87355","HierDyt6unctcz","sub16","04","05","rl","test","74","img/b_s_stripes.png","6","74","color,pattern,shape","38","1",""
"null","88364","HierDyt6unctcz","sub16","04","05","feedback","test","null","","","na","","38","",""
"1686.0999999977648","90051","HierDyt6unctcz","sub16","04","05","rl","test","76","img/b_s_check.png","8","76","color,pattern,shape","39","1",""
"null","91063","HierDyt6unctcz","sub16","04","05","feedback","test","null","","","na","","39","",""
"630.6999999992549","91695","HierDyt6unctcz","sub16","04","05","rl","test","75","img/b_d_check.png","7","75","color,pattern,shape","40","1",""
"null","92704","HierDyt6unctcz","sub16","04","05","feedback","test","null","","","na","","40","",""
"762.6000000014901","93467","HierDyt6unctcz","sub16","04","05","rl","test","74","img/b_s_stripes.png","6","74","color,pattern,shape","41","1",""
"null","94479","HierDyt6unctcz","sub16","04","05","feedback","test","null","","","na","","41","",""
"984.3000000007451","95464","HierDyt6unctcz","sub16","04","05","rl","test","75","img/b_d_check.png","7","75","color,pattern,shape","42","1",""
"null","96468","HierDyt6unctcz","sub16","04","05","feedback","test","null","","","na","","42","",""
"662.5999999977648","97131","HierDyt6unctcz","sub16","04","05","rl","test","83","img/o_d_check.png","3","68","color,pattern,shape","43","0",""
"null","98142","HierDyt6unctcz","sub16","04","05","feedback","test","null","","","na","","43","",""
"764.7999999970198","98908","HierDyt6unctcz","sub16","04","05","rl","test","72","img/b_d_stripes.png","5","72","color,pattern,shape","44","1",""
"null","99915","HierDyt6unctcz","sub16","04","05","feedback","test","null","","","na","","44","",""
"1829.2000000029802","101745","HierDyt6unctcz","sub16","04","05","rl","test","75","img/b_s_check.png","8","76","color,pattern,shape","45","0",""
"null","102749","HierDyt6unctcz","sub16","04","05","feedback","test","null","","","na","","45","",""
"1015.8999999985099","103765","HierDyt6unctcz","sub16","04","05","rl","test","70","img/o_s_check.png","4","70","color,pattern,shape","46","1",""
"null","104774","HierDyt6unctcz","sub16","04","05","feedback","test","null","","","na","","46","",""
"1173.5999999977648","105948","HierDyt6unctcz","sub16","04","05","rl","test","68","img/o_d_check.png","3","68","color,pattern,shape","47","1",""
"null","106957","HierDyt6unctcz","sub16","04","05","feedback","test","null","","","na","","47","",""
"904.9000000022352","107863","HierDyt6unctcz","sub16","04","05","rl","test","72","img/b_d_stripes.png","5","72","color,pattern,shape","48","1",""
"null","108868","HierDyt6unctcz","sub16","04","05","feedback","test","null","","","na","","48","",""
"713.6999999992549","109582","HierDyt6unctcz","sub16","04","05","rl","test","70","img/o_s_check.png","4","70","color,pattern,shape","49","1",""
"null","110586","HierDyt6unctcz","sub16","04","05","feedback","test","null","","","na","","49","",""
"1140.9000000022352","111728","HierDyt6unctcz","sub16","04","05","rl","test","83","img/o_s_stripes.png","2","83","color,pattern,shape","50","1",""
"null","112735","HierDyt6unctcz","sub16","04","05","feedback","test","null","","","na","","50","",""
"917.1000000014901","113652","HierDyt6unctcz","sub16","04","05","rl","test","74","img/b_s_stripes.png","6","74","color,pattern,shape","51","1",""
"null","114658","HierDyt6unctcz","sub16","04","05","feedback","test","null","","","na","","51","",""
"934.6000000014901","115593","HierDyt6unctcz","sub16","04","05","rl","test","65","img/o_d_stripes.png","1","65","color,pattern,shape","52","1",""
"null","116606","HierDyt6unctcz","sub16","04","05","feedback","test","null","","","na","","52","",""
"1417.6000000014901","118026","HierDyt6unctcz","sub16","04","05","rl","test","75","img/b_s_check.png","8","76","color,pattern,shape","53","0",""
"null","119035","HierDyt6unctcz","sub16","04","05","feedback","test","null","","","na","","53","",""
"1844.1000000014901","120880","HierDyt6unctcz","sub16","04","05","rl","test","75","img/b_d_check.png","7","75","color,pattern,shape","54","1",""
"null","121884","HierDyt6unctcz","sub16","04","05","feedback","test","null","","","na","","54","",""
"923.1999999992549","122809","HierDyt6unctcz","sub16","04","05","rl","test","72","img/b_d_stripes.png","5","72","color,pattern,shape","55","1",""
"null","123821","HierDyt6unctcz","sub16","04","05","feedback","test","null","","","na","","55","",""
"634.6999999992549","124456","HierDyt6unctcz","sub16","04","05","rl","test","74","img/b_s_stripes.png","6","74","color,pattern,shape","56","1",""
"null","125467","HierDyt6unctcz","sub16","04","05","feedback","test","null","","","na","","56","",""
"758.9000000022352","126227","HierDyt6unctcz","sub16","04","05","rl","test","83","img/o_s_stripes.png","2","83","color,pattern,shape","57","1",""
"null","127236","HierDyt6unctcz","sub16","04","05","feedback","test","null","","","na","","57","",""
"734.5","127971","HierDyt6unctcz","sub16","04","05","rl","test","70","img/o_s_check.png","4","70","color,pattern,shape","58","1",""
"null","128977","HierDyt6unctcz","sub16","04","05","feedback","test","null","","","na","","58","",""
"1185.5","130164","HierDyt6unctcz","sub16","04","05","rl","test","83","img/o_s_stripes.png","2","83","color,pattern,shape","59","1",""
"null","131173","HierDyt6unctcz","sub16","04","05","feedback","test","null","","","na","","59","",""
"1177.3999999985099","132351","HierDyt6unctcz","sub16","04","05","rl","test","75","img/b_d_check.png","7","75","color,pattern,shape","60","1",""
"null","133356","HierDyt6unctcz","sub16","04","05","feedback","test","null","","","na","","60","",""
"1599.199999999255","134956","HierDyt6unctcz","sub16","04","05","rl","test","76","img/b_s_check.png","8","76","color,pattern,shape","61","1",""
"null","135963","HierDyt6unctcz","sub16","04","05","feedback","test","null","","","na","","61","",""
"963.5","136928","HierDyt6unctcz","sub16","04","05","rl","test","68","img/o_d_check.png","3","68","color,pattern,shape","62","1",""
"null","137937","HierDyt6unctcz","sub16","04","05","feedback","test","null","","","na","","62","",""
"1268.199999999255","139206","HierDyt6unctcz","sub16","04","05","rl","test","65","img/o_d_stripes.png","1","65","color,pattern,shape","63","1",""
"null","140211","HierDyt6unctcz","sub16","04","05","feedback","test","null","","","na","","63","",""
"977.5","141190","HierDyt6unctcz","sub16","04","05","rl","test","72","img/b_d_stripes.png","5","72","color,pattern,shape","64","1",""
"null","142196","HierDyt6unctcz","sub16","04","05","feedback","test","null","","","na","","64","",""
"674.1000000014901","142871","HierDyt6unctcz","sub16","04","05","rl","test","72","img/b_d_stripes.png","5","72","color,pattern,shape","65","1",""
"null","143875","HierDyt6unctcz","sub16","04","05","feedback","test","null","","","na","","65","",""
"1021.8000000007451","144898","HierDyt6unctcz","sub16","04","05","rl","test","74","img/b_s_stripes.png","6","74","color,pattern,shape","66","1",""
"null","145905","HierDyt6unctcz","sub16","04","05","feedback","test","null","","","na","","66","",""
"747.6000000014901","146653","HierDyt6unctcz","sub16","04","05","rl","test","65","img/o_d_stripes.png","1","65","color,pattern,shape","67","1",""
"null","147659","HierDyt6unctcz","sub16","04","05","feedback","test","null","","","na","","67","",""
"1054.699999999255","148714","HierDyt6unctcz","sub16","04","05","rl","test","72","img/b_d_stripes.png","5","72","color,pattern,shape","68","1",""
"null","149723","HierDyt6unctcz","sub16","04","05","feedback","test","null","","","na","","68","",""
"794.6999999992549","150518","HierDyt6unctcz","sub16","04","05","rl","test","70","img/o_s_check.png","4","70","color,pattern,shape","69","1",""
"null","151522","HierDyt6unctcz","sub16","04","05","feedback","test","null","","","na","","69","",""
"1295.6000000014901","152818","HierDyt6unctcz","sub16","04","05","rl","test","76","img/b_s_check.png","8","76","color,pattern,shape","70","1",""
"null","153824","HierDyt6unctcz","sub16","04","05","feedback","test","null","","","na","","70","",""
"1009.1999999992549","154834","HierDyt6unctcz","sub16","04","05","rl","test","83","img/o_s_stripes.png","2","83","color,pattern,shape","71","1",""
"null","155840","HierDyt6unctcz","sub16","04","05","feedback","test","null","","","na","","71","",""
"1554.1000000014901","157395","HierDyt6unctcz","sub16","04","05","rl","test","65","img/o_d_stripes.png","1","65","color,pattern,shape","72","1",""
"null","158405","HierDyt6unctcz","sub16","04","05","feedback","test","null","","","na","","72","",""
"1801.300000000745","160207","HierDyt6unctcz","sub16","04","05","rl","test","75","img/b_d_check.png","7","75","color,pattern,shape","73","1",""
"null","161211","HierDyt6unctcz","sub16","04","05","feedback","test","null","","","na","","73","",""
"1262.0999999977648","162474","HierDyt6unctcz","sub16","04","05","rl","test","68","img/o_d_check.png","3","68","color,pattern,shape","74","1",""
"null","163481","HierDyt6unctcz","sub16","04","05","feedback","test","null","","","na","","74","",""
"1474.3999999985099","164956","HierDyt6unctcz","sub16","04","05","rl","test","68","img/o_d_check.png","3","68","color,pattern,shape","75","1",""
"null","165961","HierDyt6unctcz","sub16","04","05","feedback","test","null","","","na","","75","",""
"1611","167572","HierDyt6unctcz","sub16","04","05","rl","test","76","img/b_d_check.png","7","75","color,pattern,shape","76","0",""
"null","168578","HierDyt6unctcz","sub16","04","05","feedback","test","null","","","na","","76","",""
"678.5","169258","HierDyt6unctcz","sub16","04","05","rl","test","70","img/o_s_check.png","4","70","color,pattern,shape","77","1",""
"null","170263","HierDyt6unctcz","sub16","04","05","feedback","test","null","","","na","","77","",""
"727.5","170992","HierDyt6unctcz","sub16","04","05","rl","test","83","img/o_s_stripes.png","2","83","color,pattern,shape","78","1",""
"null","171999","HierDyt6unctcz","sub16","04","05","feedback","test","null","","","na","","78","",""
"1072","173072","HierDyt6unctcz","sub16","04","05","rl","test","74","img/b_s_stripes.png","6","74","color,pattern,shape","79","1",""
"null","174084","HierDyt6unctcz","sub16","04","05","feedback","test","null","","","na","","79","",""
"1365.8999999985099","175451","HierDyt6unctcz","sub16","04","05","rl","test","76","img/b_s_check.png","8","76","color,pattern,shape","80","1",""
"null","176456","HierDyt6unctcz","sub16","04","05","feedback","test","null","","","na","","80","",""
"748.1000000014901","177206","HierDyt6unctcz","sub16","04","05","rl","test","70","img/o_s_check.png","4","70","color,pattern,shape","81","1",""
"null","178219","HierDyt6unctcz","sub16","04","05","feedback","test","null","","","na","","81","",""
"983.6000000014901","179203","HierDyt6unctcz","sub16","04","05","rl","test","74","img/b_d_stripes.png","5","72","color,pattern,shape","82","0",""
"null","180207","HierDyt6unctcz","sub16","04","05","feedback","test","null","","","na","","82","",""
"1016.4000000022352","181224","HierDyt6unctcz","sub16","04","05","rl","test","83","img/o_s_stripes.png","2","83","color,pattern,shape","83","1",""
"null","182233","HierDyt6unctcz","sub16","04","05","feedback","test","null","","","na","","83","",""
"758.6000000014901","182993","HierDyt6unctcz","sub16","04","05","rl","test","72","img/b_d_stripes.png","5","72","color,pattern,shape","84","1",""
"null","184000","HierDyt6unctcz","sub16","04","05","feedback","test","null","","","na","","84","",""
"937.0999999977648","184939","HierDyt6unctcz","sub16","04","05","rl","test","74","img/b_s_stripes.png","6","74","color,pattern,shape","85","1",""
"null","185946","HierDyt6unctcz","sub16","04","05","feedback","test","null","","","na","","85","",""
"1236.3999999985099","187183","HierDyt6unctcz","sub16","04","05","rl","test","68","img/o_d_check.png","3","68","color,pattern,shape","86","1",""
"null","188192","HierDyt6unctcz","sub16","04","05","feedback","test","null","","","na","","86","",""
"1014","189206","HierDyt6unctcz","sub16","04","05","rl","test","65","img/o_d_stripes.png","1","65","color,pattern,shape","87","1",""
"null","190214","HierDyt6unctcz","sub16","04","05","feedback","test","null","","","na","","87","",""
"717.6000000014901","190932","HierDyt6unctcz","sub16","04","05","rl","test","65","img/o_d_stripes.png","1","65","color,pattern,shape","88","1",""
"null","191937","HierDyt6unctcz","sub16","04","05","feedback","test","null","","","na","","88","",""
"1258.300000000745","193195","HierDyt6unctcz","sub16","04","05","rl","test","75","img/b_d_check.png","7","75","color,pattern,shape","89","1",""
"null","194201","HierDyt6unctcz","sub16","04","05","feedback","test","null","","","na","","89","",""
"1105.9000000022352","195308","HierDyt6unctcz","sub16","04","05","rl","test","76","img/b_s_check.png","8","76","color,pattern,shape","90","1",""
"null","196313","HierDyt6unctcz","sub16","04","05","feedback","test","null","","","na","","90","",""
"690","197004","HierDyt6unctcz","sub16","04","05","rl","test","83","img/o_s_stripes.png","2","83","color,pattern,shape","91","1",""
"null","198008","HierDyt6unctcz","sub16","04","05","feedback","test","null","","","na","","91","",""
"834.5999999977648","198844","HierDyt6unctcz","sub16","04","05","rl","test","74","img/b_s_stripes.png","6","74","color,pattern,shape","92","1",""
"null","199846","HierDyt6unctcz","sub16","04","05","feedback","test","null","","","na","","92","",""
"1645.300000000745","201492","HierDyt6unctcz","sub16","04","05","rl","test","70","img/o_s_check.png","4","70","color,pattern,shape","93","1",""
"null","202496","HierDyt6unctcz","sub16","04","05","feedback","test","null","","","na","","93","",""
"859.4000000022352","203356","HierDyt6unctcz","sub16","04","05","rl","test","76","img/b_s_check.png","8","76","color,pattern,shape","94","1",""
"null","204358","HierDyt6unctcz","sub16","04","05","feedback","test","null","","","na","","94","",""
"913.1999999992549","205272","HierDyt6unctcz","sub16","04","05","rl","test","68","img/o_d_check.png","3","68","color,pattern,shape","95","1",""
"null","206278","HierDyt6unctcz","sub16","04","05","feedback","test","null","","","na","","95","",""
"789.2000000029802","207068","HierDyt6unctcz","sub16","04","05","rl","test","68","img/o_d_check.png","3","68","color,pattern,shape","96","1",""
"null","208072","HierDyt6unctcz","sub16","04","05","feedback","test","null","","","na","","96","",""
"950.1000000014901","209023","HierDyt6unctcz","sub16","04","05","rl","test","83","img/o_s_stripes.png","2","83","color,pattern,shape","97","1",""
"null","210034","HierDyt6unctcz","sub16","04","05","feedback","test","null","","","na","","97","",""
"856.0999999977648","210891","HierDyt6unctcz","sub16","04","05","rl","test","72","img/b_d_stripes.png","5","72","color,pattern,shape","98","1",""
"null","211895","HierDyt6unctcz","sub16","04","05","feedback","test","null","","","na","","98","",""
"750.1000000014901","212646","HierDyt6unctcz","sub16","04","05","rl","test","65","img/o_d_stripes.png","1","65","color,pattern,shape","99","1",""
"null","213653","HierDyt6unctcz","sub16","04","05","feedback","test","null","","","na","","99","",""
"1141.699999999255","214796","HierDyt6unctcz","sub16","04","05","rl","test","75","img/b_d_check.png","7","75","color,pattern,shape","100","1",""
"null","215799","HierDyt6unctcz","sub16","04","05","feedback","test","null","","","na","","100","",""
"863.6000000014901","216664","HierDyt6unctcz","sub16","04","05","rl","test","83","img/o_s_stripes.png","2","83","color,pattern,shape","101","1",""
"null","217669","HierDyt6unctcz","sub16","04","05","feedback","test","null","","","na","","101","",""
"1323.5999999977648","218993","HierDyt6unctcz","sub16","04","05","rl","test","76","img/b_d_check.png","7","75","color,pattern,shape","102","0",""
"null","219998","HierDyt6unctcz","sub16","04","05","feedback","test","null","","","na","","102","",""
"1682.1000000014901","221681","HierDyt6unctcz","sub16","04","05","rl","test","72","img/b_d_stripes.png","5","72","color,pattern,shape","103","1",""
"null","222685","HierDyt6unctcz","sub16","04","05","feedback","test","null","","","na","","103","",""
"1601.300000000745","224287","HierDyt6unctcz","sub16","04","05","rl","test","75","img/b_s_check.png","8","76","color,pattern,shape","104","0",""
"null","225293","HierDyt6unctcz","sub16","04","05","feedback","test","null","","","na","","104","",""
"896.1000000014901","226189","HierDyt6unctcz","sub16","04","05","rl","test","74","img/b_s_stripes.png","6","74","color,pattern,shape","105","1",""
"null","227199","HierDyt6unctcz","sub16","04","05","feedback","test","null","","","na","","105","",""
"1202.699999999255","228403","HierDyt6unctcz","sub16","04","05","rl","test","72","img/b_d_stripes.png","5","72","color,pattern,shape","106","1",""
"null","229407","HierDyt6unctcz","sub16","04","05","feedback","test","null","","","na","","106","",""
"652.8999999985099","230061","HierDyt6unctcz","sub16","04","05","rl","test","70","img/o_s_check.png","4","70","color,pattern,shape","107","1",""
"null","231068","HierDyt6unctcz","sub16","04","05","feedback","test","null","","","na","","107","",""
"744.5999999977648","231813","HierDyt6unctcz","sub16","04","05","rl","test","70","img/o_s_check.png","4","70","color,pattern,shape","108","1",""
"null","232821","HierDyt6unctcz","sub16","04","05","feedback","test","null","","","na","","108","",""
"2190","235012","HierDyt6unctcz","sub16","04","05","rl","test","75","img/b_s_check.png","8","76","color,pattern,shape","109","0",""
"null","236024","HierDyt6unctcz","sub16","04","05","feedback","test","null","","","na","","109","",""
"742.0999999977648","236767","HierDyt6unctcz","sub16","04","05","rl","test","68","img/o_d_check.png","3","68","color,pattern,shape","110","1",""
"null","237773","HierDyt6unctcz","sub16","04","05","feedback","test","null","","","na","","110","",""
"1639","239413","HierDyt6unctcz","sub16","04","05","rl","test","75","img/b_d_check.png","7","75","color,pattern,shape","111","1",""
"null","240425","HierDyt6unctcz","sub16","04","05","feedback","test","null","","","na","","111","",""
"789.3000000007451","241215","HierDyt6unctcz","sub16","04","05","rl","test","74","img/b_s_stripes.png","6","74","color,pattern,shape","112","1",""
"null","242221","HierDyt6unctcz","sub16","04","05","feedback","test","null","","","na","","112","",""
"1612.6000000014901","243834","HierDyt6unctcz","sub16","04","05","rl","test","75","img/b_d_check.png","7","75","color,pattern,shape","113","1",""
"null","244836","HierDyt6unctcz","sub16","04","05","feedback","test","null","","","na","","113","",""
"697.3999999985099","245535","HierDyt6unctcz","sub16","04","05","rl","test","65","img/o_d_stripes.png","1","65","color,pattern,shape","114","1",""
"null","246540","HierDyt6unctcz","sub16","04","05","feedback","test","null","","","na","","114","",""
"1277.9000000022352","247819","HierDyt6unctcz","sub16","04","05","rl","test","76","img/b_s_check.png","8","76","color,pattern,shape","115","1",""
"null","248832","HierDyt6unctcz","sub16","04","05","feedback","test","null","","","na","","115","",""
"1116.8999999985099","249951","HierDyt6unctcz","sub16","04","05","rl","test","83","img/o_s_stripes.png","2","83","color,pattern,shape","116","1",""
"null","250958","HierDyt6unctcz","sub16","04","05","feedback","test","null","","","na","","116","",""
"1102.3999999985099","252061","HierDyt6unctcz","sub16","04","05","rl","test","65","img/o_d_stripes.png","1","65","color,pattern,shape","117","1",""
"null","253068","HierDyt6unctcz","sub16","04","05","feedback","test","null","","","na","","117","",""
"806.6000000014901","253877","HierDyt6unctcz","sub16","04","05","rl","test","68","img/o_d_check.png","3","68","color,pattern,shape","118","1",""
"null","254883","HierDyt6unctcz","sub16","04","05","feedback","test","null","","","na","","118","",""
"1141.199999999255","256026","HierDyt6unctcz","sub16","04","05","rl","test","70","img/o_s_check.png","4","70","color,pattern,shape","119","1",""
"null","257036","HierDyt6unctcz","sub16","04","05","feedback","test","null","","","na","","119","",""
"null","259540","HierDyt6unctcz","sub16","04","05","rl","test","null","img/b_s_stripes.png","6","74","color,pattern,shape","120","0",""
"null","260547","HierDyt6unctcz","sub16","04","05","feedback","test","null","","","na","","120","",""
"832.5","261380","HierDyt6unctcz","sub16","04","05","rl","test","72","img/b_d_stripes.png","5","72","color,pattern,shape","121","1",""
"null","262387","HierDyt6unctcz","sub16","04","05","feedback","test","null","","","na","","121","",""
"1414.0999999977648","263802","HierDyt6unctcz","sub16","04","05","rl","test","65","img/o_d_stripes.png","1","65","color,pattern,shape","122","1",""
"null","264813","HierDyt6unctcz","sub16","04","05","feedback","test","null","","","na","","122","",""
"1685.1000000014901","266499","HierDyt6unctcz","sub16","04","05","rl","test","75","img/b_d_check.png","7","75","color,pattern,shape","123","1",""
"null","267511","HierDyt6unctcz","sub16","04","05","feedback","test","null","","","na","","123","",""
"927.1999999992549","268439","HierDyt6unctcz","sub16","04","05","rl","test","68","img/b_s_stripes.png","6","74","color,pattern,shape","124","0",""
"null","269442","HierDyt6unctcz","sub16","04","05","feedback","test","null","","","na","","124","",""
"988.2999999970198","270432","HierDyt6unctcz","sub16","04","05","rl","test","68","img/o_d_check.png","3","68","color,pattern,shape","125","1",""
"null","271435","HierDyt6unctcz","sub16","04","05","feedback","test","null","","","na","","125","",""
"824.1999999992549","272260","HierDyt6unctcz","sub16","04","05","rl","test","74","img/b_s_stripes.png","6","74","color,pattern,shape","126","1",""
"null","273266","HierDyt6unctcz","sub16","04","05","feedback","test","null","","","na","","126","",""
"1703.5","274970","HierDyt6unctcz","sub16","04","05","rl","test","76","img/b_s_check.png","8","76","color,pattern,shape","127","1",""
"null","275982","HierDyt6unctcz","sub16","04","05","feedback","test","null","","","na","","127","",""
"787.3000000007451","276770","HierDyt6unctcz","sub16","04","05","rl","test","83","img/o_s_stripes.png","2","83","color,pattern,shape","128","1",""
"null","277782","HierDyt6unctcz","sub16","04","05","feedback","test","null","","","na","","128","",""
"936.6000000014901","278719","HierDyt6unctcz","sub16","04","05","rl","test","75","img/b_d_check.png","7","75","color,pattern,shape","129","1",""
"null","279722","HierDyt6unctcz","sub16","04","05","feedback","test","null","","","na","","129","",""
"943.6999999992549","280667","HierDyt6unctcz","sub16","04","05","rl","test","72","img/b_d_stripes.png","5","72","color,pattern,shape","130","1",""
"null","281678","HierDyt6unctcz","sub16","04","05","feedback","test","null","","","na","","130","",""
"802.3999999985099","282481","HierDyt6unctcz","sub16","04","05","rl","test","83","img/o_s_stripes.png","2","83","color,pattern,shape","131","1",""
"null","283484","HierDyt6unctcz","sub16","04","05","feedback","test","null","","","na","","131","",""
"716.1000000014901","284201","HierDyt6unctcz","sub16","04","05","rl","test","70","img/o_s_check.png","4","70","color,pattern,shape","132","1",""
"null","285209","HierDyt6unctcz","sub16","04","05","feedback","test","null","","","na","","132","",""
"703.3000000007451","285913","HierDyt6unctcz","sub16","04","05","rl","test","70","img/o_s_check.png","4","70","color,pattern,shape","133","1",""
"null","286922","HierDyt6unctcz","sub16","04","05","feedback","test","null","","","na","","133","",""
"null","289427","HierDyt6unctcz","sub16","04","05","rl","test","null","img/o_d_stripes.png","1","65","color,pattern,shape","134","0",""
"null","290437","HierDyt6unctcz","sub16","04","05","feedback","test","null","","","na","","134","",""
"1006.5","291444","HierDyt6unctcz","sub16","04","05","rl","test","68","img/o_d_check.png","3","68","color,pattern,shape","135","1",""
"null","292449","HierDyt6unctcz","sub16","04","05","feedback","test","null","","","na","","135","",""
"1032.199999999255","293482","HierDyt6unctcz","sub16","04","05","rl","test","76","img/b_s_check.png","8","76","color,pattern,shape","136","1",""
"null","294489","HierDyt6unctcz","sub16","04","05","feedback","test","null","","","na","","136","",""
"942.5","295433","HierDyt6unctcz","sub16","04","05","rl","test","74","img/b_s_stripes.png","6","74","color,pattern,shape","137","1",""
"null","296441","HierDyt6unctcz","sub16","04","05","feedback","test","null","","","na","","137","",""
"762.5","297204","HierDyt6unctcz","sub16","04","05","rl","test","65","img/o_d_stripes.png","1","65","color,pattern,shape","138","1",""
"null","298212","HierDyt6unctcz","sub16","04","05","feedback","test","null","","","na","","138","",""
"837.1999999992549","299050","HierDyt6unctcz","sub16","04","05","rl","test","70","img/o_s_check.png","4","70","color,pattern,shape","139","1",""
"null","300061","HierDyt6unctcz","sub16","04","05","feedback","test","null","","","na","","139","",""
"836.5999999977648","300898","HierDyt6unctcz","sub16","04","05","rl","test","68","img/o_d_check.png","3","68","color,pattern,shape","140","1",""
"null","301908","HierDyt6unctcz","sub16","04","05","feedback","test","null","","","na","","140","",""
"891.6000000014901","302800","HierDyt6unctcz","sub16","04","05","rl","test","70","img/o_s_check.png","4","70","color,pattern,shape","141","1",""
"null","303811","HierDyt6unctcz","sub16","04","05","feedback","test","null","","","na","","141","",""
"1683.199999999255","305495","HierDyt6unctcz","sub16","04","05","rl","test","75","img/b_d_check.png","7","75","color,pattern,shape","142","1",""
"null","306496","HierDyt6unctcz","sub16","04","05","feedback","test","null","","","na","","142","",""
"1797.8999999985099","308295","HierDyt6unctcz","sub16","04","05","rl","test","76","img/b_s_check.png","8","76","color,pattern,shape","143","1",""
"null","309299","HierDyt6unctcz","sub16","04","05","feedback","test","null","","","na","","143","",""
"942.9000000022352","310243","HierDyt6unctcz","sub16","04","05","rl","test","72","img/b_d_stripes.png","5","72","color,pattern,shape","144","1",""
"null","311251","HierDyt6unctcz","sub16","04","05","feedback","test","null","","","na","","144","",""
"673.1000000014901","311925","HierDyt6unctcz","sub16","04","05","rl","test","83","img/o_s_stripes.png","2","83","color,pattern,shape","145","1",""
"null","312933","HierDyt6unctcz","sub16","04","05","feedback","test","null","","","na","","145","",""
"770.4000000022352","313705","HierDyt6unctcz","sub16","04","05","rl","test","83","img/o_s_stripes.png","2","83","color,pattern,shape","146","1",""
"null","314713","HierDyt6unctcz","sub16","04","05","feedback","test","null","","","na","","146","",""
"1223.7000000029802","315938","HierDyt6unctcz","sub16","04","05","rl","test","72","img/b_d_stripes.png","5","72","color,pattern,shape","147","1",""
"null","316945","HierDyt6unctcz","sub16","04","05","feedback","test","null","","","na","","147","",""
"2210.7000000029802","319157","HierDyt6unctcz","sub16","04","05","rl","test","68","img/o_d_check.png","3","68","color,pattern,shape","148","1",""
"null","320161","HierDyt6unctcz","sub16","04","05","feedback","test","null","","","na","","148","",""
"1457.6999999955297","321620","HierDyt6unctcz","sub16","04","05","rl","test","75","img/b_d_check.png","7","75","color,pattern,shape","149","1",""
"null","322626","HierDyt6unctcz","sub16","04","05","feedback","test","null","","","na","","149","",""
"844","323472","HierDyt6unctcz","sub16","04","05","rl","test","74","img/b_s_stripes.png","6","74","color,pattern,shape","150","1",""
"null","324482","HierDyt6unctcz","sub16","04","05","feedback","test","null","","","na","","150","",""
"1100.5","325584","HierDyt6unctcz","sub16","04","05","rl","test","75","img/b_s_check.png","8","76","color,pattern,shape","151","0",""
"null","326592","HierDyt6unctcz","sub16","04","05","feedback","test","null","","","na","","151","",""
"740.2999999970198","327334","HierDyt6unctcz","sub16","04","05","rl","test","65","img/o_d_stripes.png","1","65","color,pattern,shape","152","1",""
"null","328338","HierDyt6unctcz","sub16","04","05","feedback","test","null","","","na","","152","",""
"763.3000000044703","329103","HierDyt6unctcz","sub16","04","05","rl","test","70","img/o_s_check.png","4","70","color,pattern,shape","153","1",""
"null","330113","HierDyt6unctcz","sub16","04","05","feedback","test","null","","","na","","153","",""
"830.7999999970198","330946","HierDyt6unctcz","sub16","04","05","rl","test","76","img/b_s_check.png","8","76","color,pattern,shape","154","1",""
"null","331956","HierDyt6unctcz","sub16","04","05","feedback","test","null","","","na","","154","",""
"773.7999999970198","332731","HierDyt6unctcz","sub16","04","05","rl","test","83","img/o_s_stripes.png","2","83","color,pattern,shape","155","1",""
"null","333735","HierDyt6unctcz","sub16","04","05","feedback","test","null","","","na","","155","",""
"881.1000000014901","334617","HierDyt6unctcz","sub16","04","05","rl","test","74","img/b_s_stripes.png","6","74","color,pattern,shape","156","1",""
"null","335624","HierDyt6unctcz","sub16","04","05","feedback","test","null","","","na","","156","",""
"784.6000000014901","336410","HierDyt6unctcz","sub16","04","05","rl","test","72","img/b_d_stripes.png","5","72","color,pattern,shape","157","1",""
"null","337417","HierDyt6unctcz","sub16","04","05","feedback","test","null","","","na","","157","",""
"1270.1000000014901","338688","HierDyt6unctcz","sub16","04","05","rl","test","75","img/b_d_check.png","7","75","color,pattern,shape","158","1",""
"null","339695","HierDyt6unctcz","sub16","04","05","feedback","test","null","","","na","","158","",""
"1041.8999999985099","340739","HierDyt6unctcz","sub16","04","05","rl","test","68","img/o_d_check.png","3","68","color,pattern,shape","159","1",""
"null","341745","HierDyt6unctcz","sub16","04","05","feedback","test","null","","","na","","159","",""
"666.8999999985099","342414","HierDyt6unctcz","sub16","04","05","rl","test","83","img/o_s_stripes.png","2","83","color,pattern,shape","160","1",""
"null","343429","HierDyt6unctcz","sub16","04","05","feedback","test","null","","","na","","160","",""
"1398.3999999985099","344829","HierDyt6unctcz","sub16","04","05","rl","test","68","img/o_d_check.png","3","68","color,pattern,shape","161","1",""
"null","345833","HierDyt6unctcz","sub16","04","05","feedback","test","null","","","na","","161","",""
"2455.6999999955297","348290","HierDyt6unctcz","sub16","04","05","rl","test","70","img/o_d_stripes.png","1","65","color,pattern,shape","162","0",""
"null","349298","HierDyt6unctcz","sub16","04","05","feedback","test","null","","","na","","162","",""
"615.2000000029802","349914","HierDyt6unctcz","sub16","04","05","rl","test","65","img/o_d_stripes.png","1","65","color,pattern,shape","163","1",""
"null","350921","HierDyt6unctcz","sub16","04","05","feedback","test","null","","","na","","163","",""
"840.2999999970198","351763","HierDyt6unctcz","sub16","04","05","rl","test","72","img/b_d_stripes.png","5","72","color,pattern,shape","164","1",""
"null","352770","HierDyt6unctcz","sub16","04","05","feedback","test","null","","","na","","164","",""
"913.7999999970198","353686","HierDyt6unctcz","sub16","04","05","rl","test","70","img/o_s_check.png","4","70","color,pattern,shape","165","1",""
"null","354702","HierDyt6unctcz","sub16","04","05","feedback","test","null","","","na","","165","",""
"1533.1999999955297","356237","HierDyt6unctcz","sub16","04","05","rl","test","75","img/b_d_check.png","7","75","color,pattern,shape","166","1",""
"null","357251","HierDyt6unctcz","sub16","04","05","feedback","test","null","","","na","","166","",""
"806.1000000014901","358059","HierDyt6unctcz","sub16","04","05","rl","test","65","img/o_d_stripes.png","1","65","color,pattern,shape","167","1",""
"null","359065","HierDyt6unctcz","sub16","04","05","feedback","test","null","","","na","","167","",""
"1507.8000000044703","360575","HierDyt6unctcz","sub16","04","05","rl","test","74","img/b_s_check.png","8","76","color,pattern,shape","168","0",""
"null","361584","HierDyt6unctcz","sub16","04","05","feedback","test","null","","","na","","168","",""
"800.2000000029802","362385","HierDyt6unctcz","sub16","04","05","rl","test","74","img/b_s_stripes.png","6","74","color,pattern,shape","169","1",""
"null","363395","HierDyt6unctcz","sub16","04","05","feedback","test","null","","","na","","169","",""
"793.2000000029802","364190","HierDyt6unctcz","sub16","04","05","rl","test","75","img/b_s_check.png","8","76","color,pattern,shape","170","0",""
"null","365198","HierDyt6unctcz","sub16","04","05","feedback","test","null","","","na","","170","",""
"629.1999999955297","365829","HierDyt6unctcz","sub16","04","05","rl","test","83","img/o_s_stripes.png","2","83","color,pattern,shape","171","1",""
"null","366844","HierDyt6unctcz","sub16","04","05","feedback","test","null","","","na","","171","",""
"890.6000000014901","367737","HierDyt6unctcz","sub16","04","05","rl","test","74","img/b_s_stripes.png","6","74","color,pattern,shape","172","1",""
"null","368743","HierDyt6unctcz","sub16","04","05","feedback","test","null","","","na","","172","",""
"663.3999999985099","369408","HierDyt6unctcz","sub16","04","05","rl","test","74","img/b_s_stripes.png","6","74","color,pattern,shape","173","1",""
"null","370415","HierDyt6unctcz","sub16","04","05","feedback","test","null","","","na","","173","",""
"754.8999999985099","371172","HierDyt6unctcz","sub16","04","05","rl","test","70","img/o_s_check.png","4","70","color,pattern,shape","174","1",""
"null","372178","HierDyt6unctcz","sub16","04","05","feedback","test","null","","","na","","174","",""
"788.6000000014901","372968","HierDyt6unctcz","sub16","04","05","rl","test","83","img/o_s_stripes.png","2","83","color,pattern,shape","175","1",""
"null","373974","HierDyt6unctcz","sub16","04","05","feedback","test","null","","","na","","175","",""
"877","374853","HierDyt6unctcz","sub16","04","05","rl","test","68","img/o_d_check.png","3","68","color,pattern,shape","176","1",""
"null","375864","HierDyt6unctcz","sub16","04","05","feedback","test","null","","","na","","176","",""
"1276.8999999985099","377142","HierDyt6unctcz","sub16","04","05","rl","test","75","img/b_d_check.png","7","75","color,pattern,shape","177","1",""
"null","378152","HierDyt6unctcz","sub16","04","05","feedback","test","null","","","na","","177","",""
"703.1000000014901","378857","HierDyt6unctcz","sub16","04","05","rl","test","74","img/b_d_stripes.png","5","72","color,pattern,shape","178","0",""
"null","379863","HierDyt6unctcz","sub16","04","05","feedback","test","null","","","na","","178","",""
"721.8999999985099","380587","HierDyt6unctcz","sub16","04","05","rl","test","70","img/o_s_check.png","4","70","color,pattern,shape","179","1",""
"null","381593","HierDyt6unctcz","sub16","04","05","feedback","test","null","","","na","","179","",""
"1068.9000000059605","382664","HierDyt6unctcz","sub16","04","05","rl","test","72","img/b_d_stripes.png","5","72","color,pattern,shape","180","1",""
"null","383673","HierDyt6unctcz","sub16","04","05","feedback","test","null","","","na","","180","",""
"1220.8000000044703","384895","HierDyt6unctcz","sub16","04","05","rl","test","74","img/b_d_check.png","7","75","color,pattern,shape","181","0",""
"null","385902","HierDyt6unctcz","sub16","04","05","feedback","test","null","","","na","","181","",""
"740.8000000044703","386645","HierDyt6unctcz","sub16","04","05","rl","test","65","img/o_d_stripes.png","1","65","color,pattern,shape","182","1",""
"null","387654","HierDyt6unctcz","sub16","04","05","feedback","test","null","","","na","","182","",""
"1201.1000000014901","388856","HierDyt6unctcz","sub16","04","05","rl","test","68","img/o_d_check.png","3","68","color,pattern,shape","183","1",""
"null","389863","HierDyt6unctcz","sub16","04","05","feedback","test","null","","","na","","183","",""
"679","390544","HierDyt6unctcz","sub16","04","05","rl","test","70","img/o_s_check.png","4","70","color,pattern,shape","184","1",""
"null","391549","HierDyt6unctcz","sub16","04","05","feedback","test","null","","","na","","184","",""
"1647.7999999970198","393198","HierDyt6unctcz","sub16","04","05","rl","test","76","img/b_s_check.png","8","76","color,pattern,shape","185","1",""
"null","394206","HierDyt6unctcz","sub16","04","05","feedback","test","null","","","na","","185","",""
"1035.3999999985099","395243","HierDyt6unctcz","sub16","04","05","rl","test","72","img/b_d_stripes.png","5","72","color,pattern,shape","186","1",""
"null","396254","HierDyt6unctcz","sub16","04","05","feedback","test","null","","","na","","186","",""
"810.6000000014901","397066","HierDyt6unctcz","sub16","04","05","rl","test","83","img/o_s_stripes.png","2","83","color,pattern,shape","187","1",""
"null","398072","HierDyt6unctcz","sub16","04","05","feedback","test","null","","","na","","187","",""
"988.5999999940395","399062","HierDyt6unctcz","sub16","04","05","rl","test","74","img/b_s_stripes.png","6","74","color,pattern,shape","188","1",""
"null","400072","HierDyt6unctcz","sub16","04","05","feedback","test","null","","","na","","188","",""
"958.5999999940395","401032","HierDyt6unctcz","sub16","04","05","rl","test","68","img/o_d_check.png","3","68","color,pattern,shape","189","1",""
"null","402038","HierDyt6unctcz","sub16","04","05","feedback","test","null","","","na","","189","",""
"709.8999999985099","402749","HierDyt6unctcz","sub16","04","05","rl","test","65","img/o_d_stripes.png","1","65","color,pattern,shape","190","1",""
"null","403759","HierDyt6unctcz","sub16","04","05","feedback","test","null","","","na","","190","",""
"1108.5","404869","HierDyt6unctcz","sub16","04","05","rl","test","75","img/b_d_check.png","7","75","color,pattern,shape","191","1",""
"null","405879","HierDyt6unctcz","sub16","04","05","feedback","test","null","","","na","","191","",""
"827.6000000014901","406708","HierDyt6unctcz","sub16","04","05","rl","test","76","img/b_s_check.png","8","76","color,pattern,shape","192","1",""
"null","407723","HierDyt6unctcz","sub16","04","05","feedback","test","null","","","na","","192","",""
"688.6999999955297","408414","HierDyt6unctcz","sub16","04","05","rl","test","76","img/b_s_check.png","8","76","color,pattern,shape","193","1",""
"null","409420","HierDyt6unctcz","sub16","04","05","feedback","test","null","","","na","","193","",""
"788.1999999955297","410210","HierDyt6unctcz","sub16","04","05","rl","test","75","img/b_d_check.png","7","75","color,pattern,shape","194","1",""
"null","411213","HierDyt6unctcz","sub16","04","05","feedback","test","null","","","na","","194","",""
"936.1000000014901","412150","HierDyt6unctcz","sub16","04","05","rl","test","68","img/o_d_check.png","3","68","color,pattern,shape","195","1",""
"null","413159","HierDyt6unctcz","sub16","04","05","feedback","test","null","","","na","","195","",""
"769.3999999985099","413930","HierDyt6unctcz","sub16","04","05","rl","test","74","img/b_d_stripes.png","5","72","color,pattern,shape","196","0",""
"null","414936","HierDyt6unctcz","sub16","04","05","feedback","test","null","","","na","","196","",""
"709.6999999955297","415647","HierDyt6unctcz","sub16","04","05","rl","test","70","img/o_s_check.png","4","70","color,pattern,shape","197","1",""
"null","416654","HierDyt6unctcz","sub16","04","05","feedback","test","null","","","na","","197","",""
"844.2999999970198","417500","HierDyt6unctcz","sub16","04","05","rl","test","83","img/o_s_stripes.png","2","83","color,pattern,shape","198","1",""
"null","418509","HierDyt6unctcz","sub16","04","05","feedback","test","null","","","na","","198","",""
"1283.1000000014901","419793","HierDyt6unctcz","sub16","04","05","rl","test","65","img/o_d_stripes.png","1","65","color,pattern,shape","199","1",""
"null","420798","HierDyt6unctcz","sub16","04","05","feedback","test","null","","","na","","199","",""
"746.3999999985099","421546","HierDyt6unctcz","sub16","04","05","rl","test","74","img/b_s_stripes.png","6","74","color,pattern,shape","200","1",""
"null","422560","HierDyt6unctcz","sub16","04","05","feedback","test","null","","","na","","200","",""
"743.2000000029802","423304","HierDyt6unctcz","sub16","04","05","rl","test","72","img/b_d_stripes.png","5","72","color,pattern,shape","201","1",""
"null","424311","HierDyt6unctcz","sub16","04","05","feedback","test","null","","","na","","201","",""
"1174.1000000014901","425486","HierDyt6unctcz","sub16","04","05","rl","test","75","img/b_d_check.png","7","75","color,pattern,shape","202","1",""
"null","426494","HierDyt6unctcz","sub16","04","05","feedback","test","null","","","na","","202","",""
"729.7000000029802","427225","HierDyt6unctcz","sub16","04","05","rl","test","74","img/b_s_stripes.png","6","74","color,pattern,shape","203","1",""
"null","428231","HierDyt6unctcz","sub16","04","05","feedback","test","null","","","na","","203","",""
"590.1000000014901","428822","HierDyt6unctcz","sub16","04","05","rl","test","65","img/o_d_stripes.png","1","65","color,pattern,shape","204","1",""
"null","429829","HierDyt6unctcz","sub16","04","05","feedback","test","null","","","na","","204","",""
"521.8000000044703","430352","HierDyt6unctcz","sub16","04","05","rl","test","83","img/o_s_stripes.png","2","83","color,pattern,shape","205","1",""
"null","431359","HierDyt6unctcz","sub16","04","05","feedback","test","null","","","na","","205","",""
"1191.3000000044703","432552","HierDyt6unctcz","sub16","04","05","rl","test","76","img/b_s_check.png","8","76","color,pattern,shape","206","1",""
"null","433559","HierDyt6unctcz","sub16","04","05","feedback","test","null","","","na","","206","",""
"809.3000000044703","434370","HierDyt6unctcz","sub16","04","05","rl","test","83","img/o_s_stripes.png","2","83","color,pattern,shape","207","1",""
"null","435379","HierDyt6unctcz","sub16","04","05","feedback","test","null","","","na","","207","",""
"684.8999999985099","436065","HierDyt6unctcz","sub16","04","05","rl","test","70","img/o_s_check.png","4","70","color,pattern,shape","208","1",""
"null","437081","HierDyt6unctcz","sub16","04","05","feedback","test","null","","","na","","208","",""
"898","437981","HierDyt6unctcz","sub16","04","05","rl","test","68","img/o_d_check.png","3","68","color,pattern,shape","209","1",""
"null","438989","HierDyt6unctcz","sub16","04","05","feedback","test","null","","","na","","209","",""
"762.7999999970198","439753","HierDyt6unctcz","sub16","04","05","rl","test","68","img/o_d_check.png","3","68","color,pattern,shape","210","1",""
"null","440769","HierDyt6unctcz","sub16","04","05","feedback","test","null","","","na","","210","",""
"724.1000000014901","441495","HierDyt6unctcz","sub16","04","05","rl","test","83","img/o_s_stripes.png","2","83","color,pattern,shape","211","1",""
"null","442501","HierDyt6unctcz","sub16","04","05","feedback","test","null","","","na","","211","",""
"1745.3999999985099","444248","HierDyt6unctcz","sub16","04","05","rl","test","76","img/b_s_check.png","8","76","color,pattern,shape","212","1",""
"null","445250","HierDyt6unctcz","sub16","04","05","feedback","test","null","","","na","","212","",""
"1313.3999999985099","446565","HierDyt6unctcz","sub16","04","05","rl","test","65","img/o_d_stripes.png","1","65","color,pattern,shape","213","1",""
"null","447571","HierDyt6unctcz","sub16","04","05","feedback","test","null","","","na","","213","",""
"656.1000000014901","448228","HierDyt6unctcz","sub16","04","05","rl","test","75","img/b_d_check.png","7","75","color,pattern,shape","214","1",""
"null","449235","HierDyt6unctcz","sub16","04","05","feedback","test","null","","","na","","214","",""
"814.1000000014901","450051","HierDyt6unctcz","sub16","04","05","rl","test","72","img/b_d_stripes.png","5","72","color,pattern,shape","215","1",""
"null","451060","HierDyt6unctcz","sub16","04","05","feedback","test","null","","","na","","215","",""
"818.4000000059605","451880","HierDyt6unctcz","sub16","04","05","rl","test","76","img/b_s_check.png","8","76","color,pattern,shape","216","1",""
"null","452884","HierDyt6unctcz","sub16","04","05","feedback","test","null","","","na","","216","",""
"674.2000000029802","453560","HierDyt6unctcz","sub16","04","05","rl","test","70","img/o_s_check.png","4","70","color,pattern,shape","217","1",""
"null","454561","HierDyt6unctcz","sub16","04","05","feedback","test","null","","","na","","217","",""
"680.5","455243","HierDyt6unctcz","sub16","04","05","rl","test","74","img/b_s_stripes.png","6","74","color,pattern,shape","218","1",""
"null","456249","HierDyt6unctcz","sub16","04","05","feedback","test","null","","","na","","218","",""
"582.7999999970198","456833","HierDyt6unctcz","sub16","04","05","rl","test","74","img/b_s_stripes.png","6","74","color,pattern,shape","219","1",""
"null","457846","HierDyt6unctcz","sub16","04","05","feedback","test","null","","","na","","219","",""
"685.9000000059605","458533","HierDyt6unctcz","sub16","04","05","rl","test","70","img/o_s_check.png","4","70","color,pattern,shape","220","1",""
"null","459538","HierDyt6unctcz","sub16","04","05","feedback","test","null","","","na","","220","",""
"667.6000000014901","460206","HierDyt6unctcz","sub16","04","05","rl","test","65","img/o_d_stripes.png","1","65","color,pattern,shape","221","1",""
"null","461214","HierDyt6unctcz","sub16","04","05","feedback","test","null","","","na","","221","",""
"1167.6000000014901","462382","HierDyt6unctcz","sub16","04","05","rl","test","70","img/o_s_check.png","4","70","color,pattern,shape","222","1",""
"null","463389","HierDyt6unctcz","sub16","04","05","feedback","test","null","","","na","","222","",""
"1214.7000000029802","464605","HierDyt6unctcz","sub16","04","05","rl","test","68","img/o_d_check.png","3","68","color,pattern,shape","223","1",""
"null","465612","HierDyt6unctcz","sub16","04","05","feedback","test","null","","","na","","223","",""
"1586.8999999985099","467200","HierDyt6unctcz","sub16","04","05","rl","test","75","img/b_d_check.png","7","75","color,pattern,shape","224","1",""
"null","468212","HierDyt6unctcz","sub16","04","05","feedback","test","null","","","na","","224","",""
"738.6999999955297","468951","HierDyt6unctcz","sub16","04","05","rl","test","72","img/b_d_stripes.png","5","72","color,pattern,shape","225","1",""
"null","469962","HierDyt6unctcz","sub16","04","05","feedback","test","null","","","na","","225","",""
"705.3000000044703","470668","HierDyt6unctcz","sub16","04","05","rl","test","83","img/o_s_stripes.png","2","83","color,pattern,shape","226","1",""
"null","471675","HierDyt6unctcz","sub16","04","05","feedback","test","null","","","na","","226","",""
"785.7999999970198","472462","HierDyt6unctcz","sub16","04","05","rl","test","68","img/o_d_check.png","3","68","color,pattern,shape","227","1",""
"null","473466","HierDyt6unctcz","sub16","04","05","feedback","test","null","","","na","","227","",""
"941.1000000014901","474408","HierDyt6unctcz","sub16","04","05","rl","test","74","img/b_s_check.png","8","76","color,pattern,shape","228","0",""
"null","475416","HierDyt6unctcz","sub16","04","05","feedback","test","null","","","na","","228","",""
"780","476197","HierDyt6unctcz","sub16","04","05","rl","test","74","img/b_d_check.png","7","75","color,pattern,shape","229","0",""
"null","477200","HierDyt6unctcz","sub16","04","05","feedback","test","null","","","na","","229","",""
"683.6000000014901","477885","HierDyt6unctcz","sub16","04","05","rl","test","74","img/b_s_stripes.png","6","74","color,pattern,shape","230","1",""
"null","478891","HierDyt6unctcz","sub16","04","05","feedback","test","null","","","na","","230","",""
"1546.2999999970198","480439","HierDyt6unctcz","sub16","04","05","rl","test","72","img/b_d_stripes.png","5","72","color,pattern,shape","231","1",""
"null","481444","HierDyt6unctcz","sub16","04","05","feedback","test","null","","","na","","231","",""
"1336.3000000044703","482782","HierDyt6unctcz","sub16","04","05","rl","test","74","img/b_s_stripes.png","6","74","color,pattern,shape","232","1",""
"null","483787","HierDyt6unctcz","sub16","04","05","feedback","test","null","","","na","","232","",""
"1019.8999999985099","484808","HierDyt6unctcz","sub16","04","05","rl","test","83","img/o_s_stripes.png","2","83","color,pattern,shape","233","1",""
"null","485816","HierDyt6unctcz","sub16","04","05","feedback","test","null","","","na","","233","",""
"883.3000000044703","486700","HierDyt6unctcz","sub16","04","05","rl","test","65","img/o_d_stripes.png","1","65","color,pattern,shape","234","1",""
"null","487707","HierDyt6unctcz","sub16","04","05","feedback","test","null","","","na","","234","",""
"812.7999999970198","488521","HierDyt6unctcz","sub16","04","05","rl","test","65","img/o_d_stripes.png","1","65","color,pattern,shape","235","1",""
"null","489530","HierDyt6unctcz","sub16","04","05","feedback","test","null","","","na","","235","",""
"1072.2999999970198","490603","HierDyt6unctcz","sub16","04","05","rl","test","75","img/b_s_check.png","8","76","color,pattern,shape","236","0",""
"null","491608","HierDyt6unctcz","sub16","04","05","feedback","test","null","","","na","","236","",""
"925.3999999985099","492535","HierDyt6unctcz","sub16","04","05","rl","test","70","img/o_s_check.png","4","70","color,pattern,shape","237","1",""
"null","493544","HierDyt6unctcz","sub16","04","05","feedback","test","null","","","na","","237","",""
"1164.8999999985099","494709","HierDyt6unctcz","sub16","04","05","rl","test","65","img/o_d_stripes.png","1","65","color,pattern,shape","238","1",""
"null","495713","HierDyt6unctcz","sub16","04","05","feedback","test","null","","","na","","238","",""
"986.1000000014901","496699","HierDyt6unctcz","sub16","04","05","rl","test","75","img/b_d_check.png","7","75","color,pattern,shape","239","1",""
"null","497703","HierDyt6unctcz","sub16","04","05","feedback","test","null","","","na","","239","",""
"824.2000000029802","498528","HierDyt6unctcz","sub16","04","05","rl","test","72","img/b_d_stripes.png","5","72","color,pattern,shape","240","1",""
"null","499536","HierDyt6unctcz","sub16","04","05","feedback","test","null","","","na","","240","",""
"1228","500765","HierDyt6unctcz","sub16","04","05","rl","test","68","img/o_d_check.png","3","68","color,pattern,shape","241","1",""
"null","501771","HierDyt6unctcz","sub16","04","05","feedback","test","null","","","na","","241","",""
"1364.1000000014901","503136","HierDyt6unctcz","sub16","04","05","rl","test","75","img/b_s_check.png","8","76","color,pattern,shape","242","0",""
"null","504143","HierDyt6unctcz","sub16","04","05","feedback","test","null","","","na","","242","",""
"1013.3000000044703","505158","HierDyt6unctcz","sub16","04","05","rl","test","68","img/o_d_check.png","3","68","color,pattern,shape","243","1",""
"null","506161","HierDyt6unctcz","sub16","04","05","feedback","test","null","","","na","","243","",""
"1210.1999999955297","507373","HierDyt6unctcz","sub16","04","05","rl","test","75","img/b_d_check.png","7","75","color,pattern,shape","244","1",""
"null","508377","HierDyt6unctcz","sub16","04","05","feedback","test","null","","","na","","244","",""
"669.3000000044703","509048","HierDyt6unctcz","sub16","04","05","rl","test","70","img/o_s_check.png","4","70","color,pattern,shape","245","1",""
"null","510055","HierDyt6unctcz","sub16","04","05","feedback","test","null","","","na","","245","",""
"640.5","510697","HierDyt6unctcz","sub16","04","05","rl","test","83","img/o_s_stripes.png","2","83","color,pattern,shape","246","1",""
"null","511704","HierDyt6unctcz","sub16","04","05","feedback","test","null","","","na","","246","",""
"686.3999999985099","512391","HierDyt6unctcz","sub16","04","05","rl","test","74","img/b_s_stripes.png","6","74","color,pattern,shape","247","1",""
"null","513401","HierDyt6unctcz","sub16","04","05","feedback","test","null","","","na","","247","",""
"2312.10000000149","515714","HierDyt6unctcz","sub16","04","05","rl","test","75","img/b_d_check.png","7","75","color,pattern,shape","248","1",""
"null","516720","HierDyt6unctcz","sub16","04","05","feedback","test","null","","","na","","248","",""
"3202.6999999955297","519931","HierDyt6unctcz","sub16","04","05","","","","","","","","","","{""Q0"":""10""}"
"2641.7999999970198","522575","HierDyt6unctcz","sub16","04","05","","","","","","","","","","{""Q0"":""Blue= right and orange = left ; shapes on left are on opposite fingers than shape on right; made a streak in my head to try not to break them and keep going.""}"
"10089.10000000149","532665","HierDyt6unctcz","sub16","04","05","","","","","","","","","",""
