"rt","time_elapsed","subject","subID","group","day","trialType","phase","key_press","stim","stimNum","corrresp","hierarchy","trialNum","corr","responses"
"2729.39999999851","2732","HierDylk5jotx2","sub16","04","07","","","","","","","","","",""
"","8413","HierDylk5jotx2","sub16","04","07","fullscreen","","","","","","","","",""
"544.5","8959","HierDylk5jotx2","sub16","04","07","","prac","","","","","","","",""
"744.8999999985099","9708","HierDylk5jotx2","sub16","04","07","","","32","","","","","","",""
"419.9000000022352","10128","HierDylk5jotx2","sub16","04","07","","prac","","","","","","","",""
"654.5","10785","HierDylk5jotx2","sub16","04","07","rl","test","70","img/o_s_check.png","4","70","color,pattern,shape","1","1",""
"null","11795","HierDylk5jotx2","sub16","04","07","feedback","test","null","","","na","","1","",""
"798.0999999977648","12596","HierDylk5jotx2","sub16","04","07","rl","test","68","img/o_d_check.png","3","68","color,pattern,shape","2","1",""
"null","13608","HierDylk5jotx2","sub16","04","07","feedback","test","null","","","na","","2","",""
"720.8000000007451","14331","HierDylk5jotx2","sub16","04","07","rl","test","65","img/o_d_stripes.png","1","65","color,pattern,shape","3","1",""
"null","15338","HierDylk5jotx2","sub16","04","07","feedback","test","null","","","na","","3","",""
"711.8999999985099","16052","HierDylk5jotx2","sub16","04","07","rl","test","74","img/b_s_stripes.png","6","74","color,pattern,shape","4","1",""
"null","17058","HierDylk5jotx2","sub16","04","07","feedback","test","null","","","na","","4","",""
"1138.7000000029802","18199","HierDylk5jotx2","sub16","04","07","rl","test","72","img/b_d_stripes.png","5","72","color,pattern,shape","5","1",""
"null","19205","HierDylk5jotx2","sub16","04","07","feedback","test","null","","","na","","5","",""
"977.7000000029802","20185","HierDylk5jotx2","sub16","04","07","rl","test","83","img/o_s_stripes.png","2","83","color,pattern,shape","6","1",""
"null","21198","HierDylk5jotx2","sub16","04","07","feedback","test","null","","","na","","6","",""
"976.5","22176","HierDylk5jotx2","sub16","04","07","rl","test","74","img/b_s_stripes.png","6","74","color,pattern,shape","7","1",""
"null","23185","HierDylk5jotx2","sub16","04","07","feedback","test","null","","","na","","7","",""
"1572.9000000022352","24759","HierDylk5jotx2","sub16","04","07","rl","test","75","img/b_d_check.png","7","75","color,pattern,shape","8","1",""
"null","25769","HierDylk5jotx2","sub16","04","07","feedback","test","null","","","na","","8","",""
"851.1999999992549","26621","HierDylk5jotx2","sub16","04","07","rl","test","75","img/b_d_check.png","7","75","color,pattern,shape","9","1",""
"null","27628","HierDylk5jotx2","sub16","04","07","feedback","test","null","","","na","","9","",""
"699.8000000007451","28329","HierDylk5jotx2","sub16","04","07","rl","test","76","img/b_s_check.png","8","76","color,pattern,shape","10","1",""
"null","29338","HierDylk5jotx2","sub16","04","07","feedback","test","null","","","na","","10","",""
"748.1999999992549","30087","HierDylk5jotx2","sub16","04","07","rl","test","72","img/b_d_stripes.png","5","72","color,pattern,shape","11","1",""
"null","31101","HierDylk5jotx2","sub16","04","07","feedback","test","null","","","na","","11","",""
"661.5","31765","HierDylk5jotx2","sub16","04","07","rl","test","70","img/o_s_check.png","4","70","color,pattern,shape","12","1",""
"null","32772","HierDylk5jotx2","sub16","04","07","feedback","test","null","","","na","","12","",""
"757.6999999992549","33532","HierDylk5jotx2","sub16","04","07","rl","test","68","img/o_d_check.png","3","68","color,pattern,shape","13","1",""
"null","34539","HierDylk5jotx2","sub16","04","07","feedback","test","null","","","na","","13","",""
"806.6000000014901","35347","HierDylk5jotx2","sub16","04","07","rl","test","76","img/b_s_check.png","8","76","color,pattern,shape","14","1",""
"null","36353","HierDylk5jotx2","sub16","04","07","feedback","test","null","","","na","","14","",""
"890","37245","HierDylk5jotx2","sub16","04","07","rl","test","65","img/o_d_stripes.png","1","65","color,pattern,shape","15","1",""
"null","38251","HierDylk5jotx2","sub16","04","07","feedback","test","null","","","na","","15","",""
"1077.4000000022352","39330","HierDylk5jotx2","sub16","04","07","rl","test","68","img/o_d_check.png","3","68","color,pattern,shape","16","1",""
"null","40342","HierDylk5jotx2","sub16","04","07","feedback","test","null","","","na","","16","",""
"784.9000000022352","41129","HierDylk5jotx2","sub16","04","07","rl","test","65","img/o_d_stripes.png","1","65","color,pattern,shape","17","1",""
"null","42143","HierDylk5jotx2","sub16","04","07","feedback","test","null","","","na","","17","",""
"1185.4000000022352","43330","HierDylk5jotx2","sub16","04","07","rl","test","75","img/b_d_check.png","7","75","color,pattern,shape","18","1",""
"null","44337","HierDylk5jotx2","sub16","04","07","feedback","test","null","","","na","","18","",""
"1305.300000000745","45643","HierDylk5jotx2","sub16","04","07","rl","test","83","img/o_s_stripes.png","2","83","color,pattern,shape","19","1",""
"null","46650","HierDylk5jotx2","sub16","04","07","feedback","test","null","","","na","","19","",""
"634","47286","HierDylk5jotx2","sub16","04","07","rl","test","83","img/o_s_stripes.png","2","83","color,pattern,shape","20","1",""
"null","48289","HierDylk5jotx2","sub16","04","07","feedback","test","null","","","na","","20","",""
"1581.8999999985099","49872","HierDylk5jotx2","sub16","04","07","rl","test","74","img/b_s_stripes.png","6","74","color,pattern,shape","21","1",""
"null","50880","HierDylk5jotx2","sub16","04","07","feedback","test","null","","","na","","21","",""
"2134.400000002235","53016","HierDylk5jotx2","sub16","04","07","rl","test","76","img/b_s_check.png","8","76","color,pattern,shape","22","1",""
"null","54027","HierDylk5jotx2","sub16","04","07","feedback","test","null","","","na","","22","",""
"888.4000000022352","54917","HierDylk5jotx2","sub16","04","07","rl","test","75","img/b_d_check.png","7","75","color,pattern,shape","23","1",""
"null","55923","HierDylk5jotx2","sub16","04","07","feedback","test","null","","","na","","23","",""
"729.0999999977648","56654","HierDylk5jotx2","sub16","04","07","rl","test","72","img/b_d_stripes.png","5","72","color,pattern,shape","24","1",""
"null","57667","HierDylk5jotx2","sub16","04","07","feedback","test","null","","","na","","24","",""
"785.6000000014901","58454","HierDylk5jotx2","sub16","04","07","rl","test","74","img/b_s_stripes.png","6","74","color,pattern,shape","25","1",""
"null","59463","HierDylk5jotx2","sub16","04","07","feedback","test","null","","","na","","25","",""
"644.6999999992549","60109","HierDylk5jotx2","sub16","04","07","rl","test","70","img/o_s_check.png","4","70","color,pattern,shape","26","1",""
"null","61112","HierDylk5jotx2","sub16","04","07","feedback","test","null","","","na","","26","",""
"863.2000000029802","61977","HierDylk5jotx2","sub16","04","07","rl","test","83","img/o_s_stripes.png","2","83","color,pattern,shape","27","1",""
"null","62984","HierDylk5jotx2","sub16","04","07","feedback","test","null","","","na","","27","",""
"724.6999999992549","63710","HierDylk5jotx2","sub16","04","07","rl","test","70","img/o_s_check.png","4","70","color,pattern,shape","28","1",""
"null","64720","HierDylk5jotx2","sub16","04","07","feedback","test","null","","","na","","28","",""
"785.4000000022352","65507","HierDylk5jotx2","sub16","04","07","rl","test","68","img/o_d_check.png","3","68","color,pattern,shape","29","1",""
"null","66513","HierDylk5jotx2","sub16","04","07","feedback","test","null","","","na","","29","",""
"747","67262","HierDylk5jotx2","sub16","04","07","rl","test","72","img/b_d_stripes.png","5","72","color,pattern,shape","30","1",""
"null","68271","HierDylk5jotx2","sub16","04","07","feedback","test","null","","","na","","30","",""
"765.5","69038","HierDylk5jotx2","sub16","04","07","rl","test","76","img/b_s_check.png","8","76","color,pattern,shape","31","1",""
"null","70052","HierDylk5jotx2","sub16","04","07","feedback","test","null","","","na","","31","",""
"686.1000000014901","70739","HierDylk5jotx2","sub16","04","07","rl","test","65","img/o_d_stripes.png","1","65","color,pattern,shape","32","1",""
"null","71744","HierDylk5jotx2","sub16","04","07","feedback","test","null","","","na","","32","",""
"598.1999999992549","72344","HierDylk5jotx2","sub16","04","07","rl","test","70","img/o_s_check.png","4","70","color,pattern,shape","33","1",""
"null","73351","HierDylk5jotx2","sub16","04","07","feedback","test","null","","","na","","33","",""
"722.5","74075","HierDylk5jotx2","sub16","04","07","rl","test","72","img/b_d_stripes.png","5","72","color,pattern,shape","34","1",""
"null","75081","HierDylk5jotx2","sub16","04","07","feedback","test","null","","","na","","34","",""
"1014.5","76097","HierDylk5jotx2","sub16","04","07","rl","test","83","img/o_s_stripes.png","2","83","color,pattern,shape","35","1",""
"null","77103","HierDylk5jotx2","sub16","04","07","feedback","test","null","","","na","","35","",""
"919.0999999977648","78023","HierDylk5jotx2","sub16","04","07","rl","test","68","img/o_d_check.png","3","68","color,pattern,shape","36","1",""
"null","79037","HierDylk5jotx2","sub16","04","07","feedback","test","null","","","na","","36","",""
"1169.5","80208","HierDylk5jotx2","sub16","04","07","rl","test","75","img/b_d_check.png","7","75","color,pattern,shape","37","1",""
"null","81217","HierDylk5jotx2","sub16","04","07","feedback","test","null","","","na","","37","",""
"835.8999999985099","82055","HierDylk5jotx2","sub16","04","07","rl","test","65","img/o_s_stripes.png","2","83","color,pattern,shape","38","0",""
"null","83066","HierDylk5jotx2","sub16","04","07","feedback","test","null","","","na","","38","",""
"1319.699999999255","84388","HierDylk5jotx2","sub16","04","07","rl","test","75","img/b_d_check.png","7","75","color,pattern,shape","39","1",""
"null","85390","HierDylk5jotx2","sub16","04","07","feedback","test","null","","","na","","39","",""
"1095.5999999977648","86487","HierDylk5jotx2","sub16","04","07","rl","test","76","img/b_s_stripes.png","6","74","color,pattern,shape","40","0",""
"null","87495","HierDylk5jotx2","sub16","04","07","feedback","test","null","","","na","","40","",""
"1773.300000000745","89270","HierDylk5jotx2","sub16","04","07","rl","test","76","img/b_s_check.png","8","76","color,pattern,shape","41","1",""
"null","90283","HierDylk5jotx2","sub16","04","07","feedback","test","null","","","na","","41","",""
"647.3000000007451","90932","HierDylk5jotx2","sub16","04","07","rl","test","76","img/b_s_check.png","8","76","color,pattern,shape","42","1",""
"null","91938","HierDylk5jotx2","sub16","04","07","feedback","test","null","","","na","","42","",""
"719.3999999985099","92659","HierDylk5jotx2","sub16","04","07","rl","test","65","img/o_d_stripes.png","1","65","color,pattern,shape","43","1",""
"null","93664","HierDylk5jotx2","sub16","04","07","feedback","test","null","","","na","","43","",""
"1425.5999999977648","95092","HierDylk5jotx2","sub16","04","07","rl","test","74","img/b_s_stripes.png","6","74","color,pattern,shape","44","1",""
"null","96096","HierDylk5jotx2","sub16","04","07","feedback","test","null","","","na","","44","",""
"978.9000000022352","97076","HierDylk5jotx2","sub16","04","07","rl","test","70","img/o_s_check.png","4","70","color,pattern,shape","45","1",""
"null","98092","HierDylk5jotx2","sub16","04","07","feedback","test","null","","","na","","45","",""
"1170.5999999977648","99264","HierDylk5jotx2","sub16","04","07","rl","test","65","img/o_d_stripes.png","1","65","color,pattern,shape","46","1",""
"null","100271","HierDylk5jotx2","sub16","04","07","feedback","test","null","","","na","","46","",""
"865.3000000007451","101138","HierDylk5jotx2","sub16","04","07","rl","test","68","img/o_d_check.png","3","68","color,pattern,shape","47","1",""
"null","102145","HierDylk5jotx2","sub16","04","07","feedback","test","null","","","na","","47","",""
"992.6000000014901","103139","HierDylk5jotx2","sub16","04","07","rl","test","72","img/b_d_stripes.png","5","72","color,pattern,shape","48","1",""
"null","104145","HierDylk5jotx2","sub16","04","07","feedback","test","null","","","na","","48","",""
"1225","105371","HierDylk5jotx2","sub16","04","07","rl","test","75","img/b_d_check.png","7","75","color,pattern,shape","49","1",""
"null","106385","HierDylk5jotx2","sub16","04","07","feedback","test","null","","","na","","49","",""
"977.5","107364","HierDylk5jotx2","sub16","04","07","rl","test","72","img/b_d_stripes.png","5","72","color,pattern,shape","50","1",""
"null","108365","HierDylk5jotx2","sub16","04","07","feedback","test","null","","","na","","50","",""
"703.1000000014901","109070","HierDylk5jotx2","sub16","04","07","rl","test","70","img/o_s_check.png","4","70","color,pattern,shape","51","1",""
"null","110079","HierDylk5jotx2","sub16","04","07","feedback","test","null","","","na","","51","",""
"1441.6000000014901","111522","HierDylk5jotx2","sub16","04","07","rl","test","74","img/b_s_stripes.png","6","74","color,pattern,shape","52","1",""
"null","112526","HierDylk5jotx2","sub16","04","07","feedback","test","null","","","na","","52","",""
"1179.4000000022352","113707","HierDylk5jotx2","sub16","04","07","rl","test","83","img/o_s_stripes.png","2","83","color,pattern,shape","53","1",""
"null","114712","HierDylk5jotx2","sub16","04","07","feedback","test","null","","","na","","53","",""
"969.1999999992549","115683","HierDylk5jotx2","sub16","04","07","rl","test","68","img/o_d_check.png","3","68","color,pattern,shape","54","1",""
"null","116689","HierDylk5jotx2","sub16","04","07","feedback","test","null","","","na","","54","",""
"928.3000000007451","117619","HierDylk5jotx2","sub16","04","07","rl","test","65","img/o_d_stripes.png","1","65","color,pattern,shape","55","1",""
"null","118625","HierDylk5jotx2","sub16","04","07","feedback","test","null","","","na","","55","",""
"657","119284","HierDylk5jotx2","sub16","04","07","rl","test","70","img/o_s_check.png","4","70","color,pattern,shape","56","1",""
"null","120294","HierDylk5jotx2","sub16","04","07","feedback","test","null","","","na","","56","",""
"1604","121899","HierDylk5jotx2","sub16","04","07","rl","test","76","img/b_s_check.png","8","76","color,pattern,shape","57","1",""
"null","122911","HierDylk5jotx2","sub16","04","07","feedback","test","null","","","na","","57","",""
"783.5","123696","HierDylk5jotx2","sub16","04","07","rl","test","76","img/b_s_check.png","8","76","color,pattern,shape","58","1",""
"null","124702","HierDylk5jotx2","sub16","04","07","feedback","test","null","","","na","","58","",""
"868.5","125572","HierDylk5jotx2","sub16","04","07","rl","test","68","img/o_d_check.png","3","68","color,pattern,shape","59","1",""
"null","126587","HierDylk5jotx2","sub16","04","07","feedback","test","null","","","na","","59","",""
"637.5","127226","HierDylk5jotx2","sub16","04","07","rl","test","83","img/b_s_stripes.png","6","74","color,pattern,shape","60","0",""
"null","128232","HierDylk5jotx2","sub16","04","07","feedback","test","null","","","na","","60","",""
"1128.4000000022352","129362","HierDylk5jotx2","sub16","04","07","rl","test","75","img/b_d_check.png","7","75","color,pattern,shape","61","1",""
"null","130368","HierDylk5jotx2","sub16","04","07","feedback","test","null","","","na","","61","",""
"1399.9000000022352","131769","HierDylk5jotx2","sub16","04","07","rl","test","72","img/b_d_stripes.png","5","72","color,pattern,shape","62","1",""
"null","132776","HierDylk5jotx2","sub16","04","07","feedback","test","null","","","na","","62","",""
"1098.2000000029802","133876","HierDylk5jotx2","sub16","04","07","rl","test","83","img/o_s_stripes.png","2","83","color,pattern,shape","63","1",""
"null","134885","HierDylk5jotx2","sub16","04","07","feedback","test","null","","","na","","63","",""
"840","135727","HierDylk5jotx2","sub16","04","07","rl","test","65","img/o_d_stripes.png","1","65","color,pattern,shape","64","1",""
"null","136733","HierDylk5jotx2","sub16","04","07","feedback","test","null","","","na","","64","",""
"1307.1000000014901","138042","HierDylk5jotx2","sub16","04","07","rl","test","83","img/o_s_stripes.png","2","83","color,pattern,shape","65","1",""
"null","139057","HierDylk5jotx2","sub16","04","07","feedback","test","null","","","na","","65","",""
"828.5","139887","HierDylk5jotx2","sub16","04","07","rl","test","68","img/o_d_check.png","3","68","color,pattern,shape","66","1",""
"null","140894","HierDylk5jotx2","sub16","04","07","feedback","test","null","","","na","","66","",""
"1619.0999999977648","142514","HierDylk5jotx2","sub16","04","07","rl","test","76","img/b_d_check.png","7","75","color,pattern,shape","67","0",""
"null","143529","HierDylk5jotx2","sub16","04","07","feedback","test","null","","","na","","67","",""
"981.1000000014901","144512","HierDylk5jotx2","sub16","04","07","rl","test","65","img/o_d_stripes.png","1","65","color,pattern,shape","68","1",""
"null","145516","HierDylk5jotx2","sub16","04","07","feedback","test","null","","","na","","68","",""
"684.7999999970198","146202","HierDylk5jotx2","sub16","04","07","rl","test","70","img/o_s_check.png","4","70","color,pattern,shape","69","1",""
"null","147216","HierDylk5jotx2","sub16","04","07","feedback","test","null","","","na","","69","",""
"1647.5","148866","HierDylk5jotx2","sub16","04","07","rl","test","75","img/b_d_check.png","7","75","color,pattern,shape","70","1",""
"null","149879","HierDylk5jotx2","sub16","04","07","feedback","test","null","","","na","","70","",""
"1950.0999999977648","151831","HierDylk5jotx2","sub16","04","07","rl","test","74","img/b_s_stripes.png","6","74","color,pattern,shape","71","1",""
"null","152837","HierDylk5jotx2","sub16","04","07","feedback","test","null","","","na","","71","",""
"1917.199999999255","154756","HierDylk5jotx2","sub16","04","07","rl","test","76","img/b_s_check.png","8","76","color,pattern,shape","72","1",""
"null","155766","HierDylk5jotx2","sub16","04","07","feedback","test","null","","","na","","72","",""
"2069","157837","HierDylk5jotx2","sub16","04","07","rl","test","72","img/b_d_stripes.png","5","72","color,pattern,shape","73","1",""
"null","158843","HierDylk5jotx2","sub16","04","07","feedback","test","null","","","na","","73","",""
"670.1999999992549","159515","HierDylk5jotx2","sub16","04","07","rl","test","72","img/b_d_stripes.png","5","72","color,pattern,shape","74","1",""
"null","160528","HierDylk5jotx2","sub16","04","07","feedback","test","null","","","na","","74","",""
"836.7000000029802","161367","HierDylk5jotx2","sub16","04","07","rl","test","65","img/o_d_stripes.png","1","65","color,pattern,shape","75","1",""
"null","162373","HierDylk5jotx2","sub16","04","07","feedback","test","null","","","na","","75","",""
"907.1999999992549","163282","HierDylk5jotx2","sub16","04","07","rl","test","74","img/b_s_stripes.png","6","74","color,pattern,shape","76","1",""
"null","164296","HierDylk5jotx2","sub16","04","07","feedback","test","null","","","na","","76","",""
"704","165001","HierDylk5jotx2","sub16","04","07","rl","test","70","img/o_s_check.png","4","70","color,pattern,shape","77","1",""
"null","166013","HierDylk5jotx2","sub16","04","07","feedback","test","null","","","na","","77","",""
"854.8000000007451","166869","HierDylk5jotx2","sub16","04","07","rl","test","83","img/o_s_stripes.png","2","83","color,pattern,shape","78","1",""
"null","167876","HierDylk5jotx2","sub16","04","07","feedback","test","null","","","na","","78","",""
"781.6000000014901","168658","HierDylk5jotx2","sub16","04","07","rl","test","68","img/o_d_check.png","3","68","color,pattern,shape","79","1",""
"null","169670","HierDylk5jotx2","sub16","04","07","feedback","test","null","","","na","","79","",""
"947.8999999985099","170620","HierDylk5jotx2","sub16","04","07","rl","test","74","img/b_s_stripes.png","6","74","color,pattern,shape","80","1",""
"null","171627","HierDylk5jotx2","sub16","04","07","feedback","test","null","","","na","","80","",""
"1373.3999999985099","173002","HierDylk5jotx2","sub16","04","07","rl","test","68","img/o_d_check.png","3","68","color,pattern,shape","81","1",""
"null","174012","HierDylk5jotx2","sub16","04","07","feedback","test","null","","","na","","81","",""
"1281.5","175295","HierDylk5jotx2","sub16","04","07","rl","test","75","img/b_s_check.png","8","76","color,pattern,shape","82","0",""
"null","176298","HierDylk5jotx2","sub16","04","07","feedback","test","null","","","na","","82","",""
"812.1000000014901","177112","HierDylk5jotx2","sub16","04","07","rl","test","76","img/b_s_check.png","8","76","color,pattern,shape","83","1",""
"null","178118","HierDylk5jotx2","sub16","04","07","feedback","test","null","","","na","","83","",""
"724.2000000029802","178844","HierDylk5jotx2","sub16","04","07","rl","test","65","img/o_d_stripes.png","1","65","color,pattern,shape","84","1",""
"null","179850","HierDylk5jotx2","sub16","04","07","feedback","test","null","","","na","","84","",""
"997.5","180848","HierDylk5jotx2","sub16","04","07","rl","test","75","img/b_d_check.png","7","75","color,pattern,shape","85","1",""
"null","181859","HierDylk5jotx2","sub16","04","07","feedback","test","null","","","na","","85","",""
"1531.3999999985099","183392","HierDylk5jotx2","sub16","04","07","rl","test","72","img/b_d_stripes.png","5","72","color,pattern,shape","86","1",""
"null","184398","HierDylk5jotx2","sub16","04","07","feedback","test","null","","","na","","86","",""
"1544.5","185943","HierDylk5jotx2","sub16","04","07","rl","test","68","img/o_d_check.png","3","68","color,pattern,shape","87","1",""
"null","186949","HierDylk5jotx2","sub16","04","07","feedback","test","null","","","na","","87","",""
"1497.300000000745","188448","HierDylk5jotx2","sub16","04","07","rl","test","72","img/b_d_stripes.png","5","72","color,pattern,shape","88","1",""
"null","189462","HierDylk5jotx2","sub16","04","07","feedback","test","null","","","na","","88","",""
"1309.199999999255","190773","HierDylk5jotx2","sub16","04","07","rl","test","70","img/o_s_check.png","4","70","color,pattern,shape","89","1",""
"null","191779","HierDylk5jotx2","sub16","04","07","feedback","test","null","","","na","","89","",""
"1615.699999999255","193396","HierDylk5jotx2","sub16","04","07","rl","test","74","img/b_s_stripes.png","6","74","color,pattern,shape","90","1",""
"null","194405","HierDylk5jotx2","sub16","04","07","feedback","test","null","","","na","","90","",""
"941.8999999985099","195348","HierDylk5jotx2","sub16","04","07","rl","test","83","img/o_s_stripes.png","2","83","color,pattern,shape","91","1",""
"null","196355","HierDylk5jotx2","sub16","04","07","feedback","test","null","","","na","","91","",""
"825.8999999985099","197182","HierDylk5jotx2","sub16","04","07","rl","test","70","img/o_s_check.png","4","70","color,pattern,shape","92","1",""
"null","198188","HierDylk5jotx2","sub16","04","07","feedback","test","null","","","na","","92","",""
"1628.6000000014901","199818","HierDylk5jotx2","sub16","04","07","rl","test","65","img/o_d_stripes.png","1","65","color,pattern,shape","93","1",""
"null","200828","HierDylk5jotx2","sub16","04","07","feedback","test","null","","","na","","93","",""
"1341.4000000022352","202171","HierDylk5jotx2","sub16","04","07","rl","test","83","img/o_s_stripes.png","2","83","color,pattern,shape","94","1",""
"null","203177","HierDylk5jotx2","sub16","04","07","feedback","test","null","","","na","","94","",""
"1947.6000000014901","205126","HierDylk5jotx2","sub16","04","07","rl","test","70","img/b_s_check.png","8","76","color,pattern,shape","95","0",""
"null","206129","HierDylk5jotx2","sub16","04","07","feedback","test","null","","","na","","95","",""
"1057.6000000014901","207187","HierDylk5jotx2","sub16","04","07","rl","test","75","img/b_d_check.png","7","75","color,pattern,shape","96","1",""
"null","208197","HierDylk5jotx2","sub16","04","07","feedback","test","null","","","na","","96","",""
"653.5","208852","HierDylk5jotx2","sub16","04","07","rl","test","75","img/b_d_check.png","7","75","color,pattern,shape","97","1",""
"null","209857","HierDylk5jotx2","sub16","04","07","feedback","test","null","","","na","","97","",""
"955.7000000029802","210814","HierDylk5jotx2","sub16","04","07","rl","test","83","img/o_s_stripes.png","2","83","color,pattern,shape","98","1",""
"null","211820","HierDylk5jotx2","sub16","04","07","feedback","test","null","","","na","","98","",""
"612.6999999992549","212434","HierDylk5jotx2","sub16","04","07","rl","test","65","img/o_d_stripes.png","1","65","color,pattern,shape","99","1",""
"null","213441","HierDylk5jotx2","sub16","04","07","feedback","test","null","","","na","","99","",""
"1011.8999999985099","214454","HierDylk5jotx2","sub16","04","07","rl","test","76","img/b_s_check.png","8","76","color,pattern,shape","100","1",""
"null","215459","HierDylk5jotx2","sub16","04","07","feedback","test","null","","","na","","100","",""
"1001.0999999977648","216461","HierDylk5jotx2","sub16","04","07","rl","test","68","img/o_d_check.png","3","68","color,pattern,shape","101","1",""
"null","217467","HierDylk5jotx2","sub16","04","07","feedback","test","null","","","na","","101","",""
"1256.1000000014901","218724","HierDylk5jotx2","sub16","04","07","rl","test","72","img/b_d_stripes.png","5","72","color,pattern,shape","102","1",""
"null","219732","HierDylk5jotx2","sub16","04","07","feedback","test","null","","","na","","102","",""
"676.3000000007451","220410","HierDylk5jotx2","sub16","04","07","rl","test","70","img/o_s_check.png","4","70","color,pattern,shape","103","1",""
"null","221417","HierDylk5jotx2","sub16","04","07","feedback","test","null","","","na","","103","",""
"953.3000000007451","222372","HierDylk5jotx2","sub16","04","07","rl","test","74","img/b_s_stripes.png","6","74","color,pattern,shape","104","1",""
"null","223380","HierDylk5jotx2","sub16","04","07","feedback","test","null","","","na","","104","",""
"970.0999999977648","224351","HierDylk5jotx2","sub16","04","07","rl","test","83","img/o_s_stripes.png","2","83","color,pattern,shape","105","1",""
"null","225364","HierDylk5jotx2","sub16","04","07","feedback","test","null","","","na","","105","",""
"1436.5999999977648","226801","HierDylk5jotx2","sub16","04","07","rl","test","75","img/b_d_check.png","7","75","color,pattern,shape","106","1",""
"null","227812","HierDylk5jotx2","sub16","04","07","feedback","test","null","","","na","","106","",""
"721.1999999992549","228534","HierDylk5jotx2","sub16","04","07","rl","test","72","img/b_d_stripes.png","5","72","color,pattern,shape","107","1",""
"null","229541","HierDylk5jotx2","sub16","04","07","feedback","test","null","","","na","","107","",""
"1125.5","230668","HierDylk5jotx2","sub16","04","07","rl","test","76","img/b_s_check.png","8","76","color,pattern,shape","108","1",""
"null","231673","HierDylk5jotx2","sub16","04","07","feedback","test","null","","","na","","108","",""
"1314.800000000745","232990","HierDylk5jotx2","sub16","04","07","rl","test","68","img/o_d_check.png","3","68","color,pattern,shape","109","1",""
"null","233992","HierDylk5jotx2","sub16","04","07","feedback","test","null","","","na","","109","",""
"663.5999999977648","234658","HierDylk5jotx2","sub16","04","07","rl","test","70","img/o_s_check.png","4","70","color,pattern,shape","110","1",""
"null","235664","HierDylk5jotx2","sub16","04","07","feedback","test","null","","","na","","110","",""
"826.8000000007451","236492","HierDylk5jotx2","sub16","04","07","rl","test","74","img/b_s_stripes.png","6","74","color,pattern,shape","111","1",""
"null","237498","HierDylk5jotx2","sub16","04","07","feedback","test","null","","","na","","111","",""
"825.8999999985099","238326","HierDylk5jotx2","sub16","04","07","rl","test","65","img/o_d_stripes.png","1","65","color,pattern,shape","112","1",""
"null","239337","HierDylk5jotx2","sub16","04","07","feedback","test","null","","","na","","112","",""
"693.6999999992549","240032","HierDylk5jotx2","sub16","04","07","rl","test","68","img/o_d_check.png","3","68","color,pattern,shape","113","1",""
"null","241043","HierDylk5jotx2","sub16","04","07","feedback","test","null","","","na","","113","",""
"1660.699999999255","242705","HierDylk5jotx2","sub16","04","07","rl","test","75","img/b_s_stripes.png","6","74","color,pattern,shape","114","0",""
"null","243711","HierDylk5jotx2","sub16","04","07","feedback","test","null","","","na","","114","",""
"669.7000000029802","244382","HierDylk5jotx2","sub16","04","07","rl","test","83","img/o_s_stripes.png","2","83","color,pattern,shape","115","1",""
"null","245393","HierDylk5jotx2","sub16","04","07","feedback","test","null","","","na","","115","",""
"636.7000000029802","246031","HierDylk5jotx2","sub16","04","07","rl","test","70","img/o_s_check.png","4","70","color,pattern,shape","116","1",""
"null","247040","HierDylk5jotx2","sub16","04","07","feedback","test","null","","","na","","116","",""
"894.1999999992549","247936","HierDylk5jotx2","sub16","04","07","rl","test","65","img/o_d_stripes.png","1","65","color,pattern,shape","117","1",""
"null","248944","HierDylk5jotx2","sub16","04","07","feedback","test","null","","","na","","117","",""
"679.1999999992549","249624","HierDylk5jotx2","sub16","04","07","rl","test","70","img/o_s_check.png","4","70","color,pattern,shape","118","1",""
"null","250635","HierDylk5jotx2","sub16","04","07","feedback","test","null","","","na","","118","",""
"1737.199999999255","252373","HierDylk5jotx2","sub16","04","07","rl","test","76","img/b_s_check.png","8","76","color,pattern,shape","119","1",""
"null","253387","HierDylk5jotx2","sub16","04","07","feedback","test","null","","","na","","119","",""
"1182.5999999977648","254571","HierDylk5jotx2","sub16","04","07","rl","test","72","img/b_d_stripes.png","5","72","color,pattern,shape","120","1",""
"null","255578","HierDylk5jotx2","sub16","04","07","feedback","test","null","","","na","","120","",""
"993.0999999977648","256572","HierDylk5jotx2","sub16","04","07","rl","test","75","img/b_d_check.png","7","75","color,pattern,shape","121","1",""
"null","257579","HierDylk5jotx2","sub16","04","07","feedback","test","null","","","na","","121","",""
"1274.1000000014901","258854","HierDylk5jotx2","sub16","04","07","rl","test","75","img/b_d_check.png","7","75","color,pattern,shape","122","1",""
"null","259860","HierDylk5jotx2","sub16","04","07","feedback","test","null","","","na","","122","",""
"null","262369","HierDylk5jotx2","sub16","04","07","rl","test","null","img/b_s_stripes.png","6","74","color,pattern,shape","123","0",""
"null","263375","HierDylk5jotx2","sub16","04","07","feedback","test","null","","","na","","123","",""
"1679.199999999255","265056","HierDylk5jotx2","sub16","04","07","rl","test","76","img/b_s_check.png","8","76","color,pattern,shape","124","1",""
"null","266065","HierDylk5jotx2","sub16","04","07","feedback","test","null","","","na","","124","",""
"662.1000000014901","266729","HierDylk5jotx2","sub16","04","07","rl","test","65","img/o_d_stripes.png","1","65","color,pattern,shape","125","1",""
"null","267735","HierDylk5jotx2","sub16","04","07","feedback","test","null","","","na","","125","",""
"2070.099999997765","269807","HierDylk5jotx2","sub16","04","07","rl","test","70","img/b_d_stripes.png","5","72","color,pattern,shape","126","0",""
"null","270815","HierDylk5jotx2","sub16","04","07","feedback","test","null","","","na","","126","",""
"1568","272385","HierDylk5jotx2","sub16","04","07","rl","test","83","img/o_s_stripes.png","2","83","color,pattern,shape","127","1",""
"null","273392","HierDylk5jotx2","sub16","04","07","feedback","test","null","","","na","","127","",""
"1104","274498","HierDylk5jotx2","sub16","04","07","rl","test","68","img/o_d_check.png","3","68","color,pattern,shape","128","1",""
"null","275505","HierDylk5jotx2","sub16","04","07","feedback","test","null","","","na","","128","",""
"1607","277114","HierDylk5jotx2","sub16","04","07","rl","test","65","img/o_d_stripes.png","1","65","color,pattern,shape","129","1",""
"null","278119","HierDylk5jotx2","sub16","04","07","feedback","test","null","","","na","","129","",""
"976.4000000022352","279097","HierDylk5jotx2","sub16","04","07","rl","test","68","img/o_d_check.png","3","68","color,pattern,shape","130","1",""
"null","280103","HierDylk5jotx2","sub16","04","07","feedback","test","null","","","na","","130","",""
"620","280725","HierDylk5jotx2","sub16","04","07","rl","test","83","img/o_s_stripes.png","2","83","color,pattern,shape","131","1",""
"null","281739","HierDylk5jotx2","sub16","04","07","feedback","test","null","","","na","","131","",""
"662.3000000007451","282403","HierDylk5jotx2","sub16","04","07","rl","test","70","img/o_s_check.png","4","70","color,pattern,shape","132","1",""
"null","283409","HierDylk5jotx2","sub16","04","07","feedback","test","null","","","na","","132","",""
"2068.699999999255","285479","HierDylk5jotx2","sub16","04","07","rl","test","74","img/b_s_stripes.png","6","74","color,pattern,shape","133","1",""
"null","286487","HierDylk5jotx2","sub16","04","07","feedback","test","null","","","na","","133","",""
"2095.10000000149","288583","HierDylk5jotx2","sub16","04","07","rl","test","75","img/b_d_check.png","7","75","color,pattern,shape","134","1",""
"null","289593","HierDylk5jotx2","sub16","04","07","feedback","test","null","","","na","","134","",""
"851.6999999992549","290446","HierDylk5jotx2","sub16","04","07","rl","test","70","img/o_s_check.png","4","70","color,pattern,shape","135","1",""
"null","291458","HierDylk5jotx2","sub16","04","07","feedback","test","null","","","na","","135","",""
"1183.2000000029802","292643","HierDylk5jotx2","sub16","04","07","rl","test","72","img/b_d_stripes.png","5","72","color,pattern,shape","136","1",""
"null","293649","HierDylk5jotx2","sub16","04","07","feedback","test","null","","","na","","136","",""
"1079.5999999977648","294730","HierDylk5jotx2","sub16","04","07","rl","test","72","img/b_d_stripes.png","5","72","color,pattern,shape","137","1",""
"null","295737","HierDylk5jotx2","sub16","04","07","feedback","test","null","","","na","","137","",""
"2139.099999997765","297877","HierDylk5jotx2","sub16","04","07","rl","test","75","img/b_s_check.png","8","76","color,pattern,shape","138","0",""
"null","298887","HierDylk5jotx2","sub16","04","07","feedback","test","null","","","na","","138","",""
"1151","300040","HierDylk5jotx2","sub16","04","07","rl","test","74","img/b_s_stripes.png","6","74","color,pattern,shape","139","1",""
"null","301046","HierDylk5jotx2","sub16","04","07","feedback","test","null","","","na","","139","",""
"732.6999999992549","301780","HierDylk5jotx2","sub16","04","07","rl","test","65","img/o_d_stripes.png","1","65","color,pattern,shape","140","1",""
"null","302789","HierDylk5jotx2","sub16","04","07","feedback","test","null","","","na","","140","",""
"424.4000000022352","303215","HierDylk5jotx2","sub16","04","07","rl","test","76","img/b_s_check.png","8","76","color,pattern,shape","141","1",""
"null","304221","HierDylk5jotx2","sub16","04","07","feedback","test","null","","","na","","141","",""
"692.5999999977648","304915","HierDylk5jotx2","sub16","04","07","rl","test","75","img/b_d_check.png","7","75","color,pattern,shape","142","1",""
"null","305928","HierDylk5jotx2","sub16","04","07","feedback","test","null","","","na","","142","",""
"979.6999999992549","306910","HierDylk5jotx2","sub16","04","07","rl","test","68","img/o_d_check.png","3","68","color,pattern,shape","143","1",""
"null","307921","HierDylk5jotx2","sub16","04","07","feedback","test","null","","","na","","143","",""
"545","308468","HierDylk5jotx2","sub16","04","07","rl","test","70","img/o_s_check.png","4","70","color,pattern,shape","144","1",""
"null","309477","HierDylk5jotx2","sub16","04","07","feedback","test","null","","","na","","144","",""
"865.5","310344","HierDylk5jotx2","sub16","04","07","rl","test","68","img/o_d_check.png","3","68","color,pattern,shape","145","1",""
"null","311350","HierDylk5jotx2","sub16","04","07","feedback","test","null","","","na","","145","",""
"756","312107","HierDylk5jotx2","sub16","04","07","rl","test","83","img/o_s_stripes.png","2","83","color,pattern,shape","146","1",""
"null","313123","HierDylk5jotx2","sub16","04","07","feedback","test","null","","","na","","146","",""
"1100.699999999255","314225","HierDylk5jotx2","sub16","04","07","rl","test","65","img/o_d_stripes.png","1","65","color,pattern,shape","147","1",""
"null","315232","HierDylk5jotx2","sub16","04","07","feedback","test","null","","","na","","147","",""
"1925.300000000745","317159","HierDylk5jotx2","sub16","04","07","rl","test","75","img/b_d_check.png","7","75","color,pattern,shape","148","1",""
"null","318168","HierDylk5jotx2","sub16","04","07","feedback","test","null","","","na","","148","",""
"582.3000000007451","318752","HierDylk5jotx2","sub16","04","07","rl","test","75","img/b_d_check.png","7","75","color,pattern,shape","149","1",""
"null","319759","HierDylk5jotx2","sub16","04","07","feedback","test","null","","","na","","149","",""
"1326.9000000022352","321088","HierDylk5jotx2","sub16","04","07","rl","test","83","img/o_s_stripes.png","2","83","color,pattern,shape","150","1",""
"null","322093","HierDylk5jotx2","sub16","04","07","feedback","test","null","","","na","","150","",""
"1143.5","323238","HierDylk5jotx2","sub16","04","07","rl","test","74","img/b_s_stripes.png","6","74","color,pattern,shape","151","1",""
"null","324245","HierDylk5jotx2","sub16","04","07","feedback","test","null","","","na","","151","",""
"1291.5","325538","HierDylk5jotx2","sub16","04","07","rl","test","72","img/b_d_stripes.png","5","72","color,pattern,shape","152","1",""
"null","326544","HierDylk5jotx2","sub16","04","07","feedback","test","null","","","na","","152","",""
"1003.5999999977648","327549","HierDylk5jotx2","sub16","04","07","rl","test","74","img/b_s_stripes.png","6","74","color,pattern,shape","153","1",""
"null","328556","HierDylk5jotx2","sub16","04","07","feedback","test","null","","","na","","153","",""
"1517.3999999985099","330075","HierDylk5jotx2","sub16","04","07","rl","test","76","img/b_s_check.png","8","76","color,pattern,shape","154","1",""
"null","331084","HierDylk5jotx2","sub16","04","07","feedback","test","null","","","na","","154","",""
"1481.5","332567","HierDylk5jotx2","sub16","04","07","rl","test","68","img/o_d_check.png","3","68","color,pattern,shape","155","1",""
"null","333576","HierDylk5jotx2","sub16","04","07","feedback","test","null","","","na","","155","",""
"1401","334978","HierDylk5jotx2","sub16","04","07","rl","test","65","img/o_d_stripes.png","1","65","color,pattern,shape","156","1",""
"null","335989","HierDylk5jotx2","sub16","04","07","feedback","test","null","","","na","","156","",""
"2017","338007","HierDylk5jotx2","sub16","04","07","rl","test","72","img/b_d_stripes.png","5","72","color,pattern,shape","157","1",""
"null","339013","HierDylk5jotx2","sub16","04","07","feedback","test","null","","","na","","157","",""
"790.1000000014901","339804","HierDylk5jotx2","sub16","04","07","rl","test","70","img/o_s_check.png","4","70","color,pattern,shape","158","1",""
"null","340811","HierDylk5jotx2","sub16","04","07","feedback","test","null","","","na","","158","",""
"694","341507","HierDylk5jotx2","sub16","04","07","rl","test","65","img/o_d_stripes.png","1","65","color,pattern,shape","159","1",""
"null","342517","HierDylk5jotx2","sub16","04","07","feedback","test","null","","","na","","159","",""
"993.1999999992549","343511","HierDylk5jotx2","sub16","04","07","rl","test","75","img/b_d_check.png","7","75","color,pattern,shape","160","1",""
"null","344517","HierDylk5jotx2","sub16","04","07","feedback","test","null","","","na","","160","",""
"890.1999999992549","345409","HierDylk5jotx2","sub16","04","07","rl","test","76","img/b_s_check.png","8","76","color,pattern,shape","161","1",""
"null","346415","HierDylk5jotx2","sub16","04","07","feedback","test","null","","","na","","161","",""
"627","347044","HierDylk5jotx2","sub16","04","07","rl","test","76","img/b_s_check.png","8","76","color,pattern,shape","162","1",""
"null","348051","HierDylk5jotx2","sub16","04","07","feedback","test","null","","","na","","162","",""
"936","348988","HierDylk5jotx2","sub16","04","07","rl","test","68","img/o_d_check.png","3","68","color,pattern,shape","163","1",""
"null","349996","HierDylk5jotx2","sub16","04","07","feedback","test","null","","","na","","163","",""
"768.3000000007451","350766","HierDylk5jotx2","sub16","04","07","rl","test","83","img/o_s_stripes.png","2","83","color,pattern,shape","164","1",""
"null","351772","HierDylk5jotx2","sub16","04","07","feedback","test","null","","","na","","164","",""
"1358.5999999977648","353132","HierDylk5jotx2","sub16","04","07","rl","test","74","img/b_s_stripes.png","6","74","color,pattern,shape","165","1",""
"null","354141","HierDylk5jotx2","sub16","04","07","feedback","test","null","","","na","","165","",""
"855.6999999992549","354998","HierDylk5jotx2","sub16","04","07","rl","test","83","img/o_s_stripes.png","2","83","color,pattern,shape","166","1",""
"null","356004","HierDylk5jotx2","sub16","04","07","feedback","test","null","","","na","","166","",""
"721","356727","HierDylk5jotx2","sub16","04","07","rl","test","70","img/o_s_check.png","4","70","color,pattern,shape","167","1",""
"null","357732","HierDylk5jotx2","sub16","04","07","feedback","test","null","","","na","","167","",""
"1419.5","359154","HierDylk5jotx2","sub16","04","07","rl","test","72","img/b_d_stripes.png","5","72","color,pattern,shape","168","1",""
"null","360168","HierDylk5jotx2","sub16","04","07","feedback","test","null","","","na","","168","",""
"788.5999999977648","360958","HierDylk5jotx2","sub16","04","07","rl","test","83","img/o_s_stripes.png","2","83","color,pattern,shape","169","1",""
"null","361963","HierDylk5jotx2","sub16","04","07","feedback","test","null","","","na","","169","",""
"null","364467","HierDylk5jotx2","sub16","04","07","rl","test","null","img/b_s_check.png","8","76","color,pattern,shape","170","0",""
"null","365478","HierDylk5jotx2","sub16","04","07","feedback","test","null","","","na","","170","",""
"807.1000000014901","366287","HierDylk5jotx2","sub16","04","07","rl","test","70","img/o_s_check.png","4","70","color,pattern,shape","171","1",""
"null","367293","HierDylk5jotx2","sub16","04","07","feedback","test","null","","","na","","171","",""
"705.4000000022352","368000","HierDylk5jotx2","sub16","04","07","rl","test","65","img/o_d_stripes.png","1","65","color,pattern,shape","172","1",""
"null","369006","HierDylk5jotx2","sub16","04","07","feedback","test","null","","","na","","172","",""
"918.4000000022352","369926","HierDylk5jotx2","sub16","04","07","rl","test","72","img/b_d_stripes.png","5","72","color,pattern,shape","173","1",""
"null","370930","HierDylk5jotx2","sub16","04","07","feedback","test","null","","","na","","173","",""
"1176.0999999977648","372108","HierDylk5jotx2","sub16","04","07","rl","test","75","img/b_d_check.png","7","75","color,pattern,shape","174","1",""
"null","373114","HierDylk5jotx2","sub16","04","07","feedback","test","null","","","na","","174","",""
"1341.199999999255","374457","HierDylk5jotx2","sub16","04","07","rl","test","76","img/b_s_stripes.png","6","74","color,pattern,shape","175","0",""
"null","375473","HierDylk5jotx2","sub16","04","07","feedback","test","null","","","na","","175","",""
"1531.3999999985099","377006","HierDylk5jotx2","sub16","04","07","rl","test","76","img/b_s_check.png","8","76","color,pattern,shape","176","1",""
"null","378011","HierDylk5jotx2","sub16","04","07","feedback","test","null","","","na","","176","",""
"1757.199999999255","379770","HierDylk5jotx2","sub16","04","07","rl","test","74","img/b_s_stripes.png","6","74","color,pattern,shape","177","1",""
"null","380779","HierDylk5jotx2","sub16","04","07","feedback","test","null","","","na","","177","",""
"1485.300000000745","382266","HierDylk5jotx2","sub16","04","07","rl","test","68","img/o_d_check.png","3","68","color,pattern,shape","178","1",""
"null","383281","HierDylk5jotx2","sub16","04","07","feedback","test","null","","","na","","178","",""
"668.8000000007451","383951","HierDylk5jotx2","sub16","04","07","rl","test","65","img/o_d_stripes.png","1","65","color,pattern,shape","179","1",""
"null","384957","HierDylk5jotx2","sub16","04","07","feedback","test","null","","","na","","179","",""
"802.6999999992549","385761","HierDylk5jotx2","sub16","04","07","rl","test","83","img/o_s_stripes.png","2","83","color,pattern,shape","180","1",""
"null","386775","HierDylk5jotx2","sub16","04","07","feedback","test","null","","","na","","180","",""
"1308.300000000745","388085","HierDylk5jotx2","sub16","04","07","rl","test","83","img/o_s_stripes.png","2","83","color,pattern,shape","181","1",""
"null","389093","HierDylk5jotx2","sub16","04","07","feedback","test","null","","","na","","181","",""
"989.5","390084","HierDylk5jotx2","sub16","04","07","rl","test","68","img/o_d_check.png","3","68","color,pattern,shape","182","1",""
"null","391090","HierDylk5jotx2","sub16","04","07","feedback","test","null","","","na","","182","",""
"1387.8999999985099","392480","HierDylk5jotx2","sub16","04","07","rl","test","72","img/b_d_stripes.png","5","72","color,pattern,shape","183","1",""
"null","393494","HierDylk5jotx2","sub16","04","07","feedback","test","null","","","na","","183","",""
"682.0999999977648","394178","HierDylk5jotx2","sub16","04","07","rl","test","70","img/o_s_check.png","4","70","color,pattern,shape","184","1",""
"null","395186","HierDylk5jotx2","sub16","04","07","feedback","test","null","","","na","","184","",""
"926.5","396115","HierDylk5jotx2","sub16","04","07","rl","test","65","img/o_d_stripes.png","1","65","color,pattern,shape","185","1",""
"null","397122","HierDylk5jotx2","sub16","04","07","feedback","test","null","","","na","","185","",""
"2067.10000000149","399191","HierDylk5jotx2","sub16","04","07","rl","test","75","img/b_d_check.png","7","75","color,pattern,shape","186","1",""
"null","400198","HierDylk5jotx2","sub16","04","07","feedback","test","null","","","na","","186","",""
"955","401154","HierDylk5jotx2","sub16","04","07","rl","test","68","img/o_d_check.png","3","68","color,pattern,shape","187","1",""
"null","402162","HierDylk5jotx2","sub16","04","07","feedback","test","null","","","na","","187","",""
"811.1000000014901","402975","HierDylk5jotx2","sub16","04","07","rl","test","70","img/o_s_check.png","4","70","color,pattern,shape","188","1",""
"null","403982","HierDylk5jotx2","sub16","04","07","feedback","test","null","","","na","","188","",""
"1237.3999999985099","405221","HierDylk5jotx2","sub16","04","07","rl","test","75","img/b_d_check.png","7","75","color,pattern,shape","189","1",""
"null","406226","HierDylk5jotx2","sub16","04","07","feedback","test","null","","","na","","189","",""
"1016.1000000014901","407244","HierDylk5jotx2","sub16","04","07","rl","test","72","img/b_d_stripes.png","5","72","color,pattern,shape","190","1",""
"null","408249","HierDylk5jotx2","sub16","04","07","feedback","test","null","","","na","","190","",""
"1363.199999999255","409613","HierDylk5jotx2","sub16","04","07","rl","test","75","img/b_s_check.png","8","76","color,pattern,shape","191","0",""
"null","410620","HierDylk5jotx2","sub16","04","07","feedback","test","null","","","na","","191","",""
"1231.5","411853","HierDylk5jotx2","sub16","04","07","rl","test","75","img/b_s_stripes.png","6","74","color,pattern,shape","192","0",""
"null","412859","HierDylk5jotx2","sub16","04","07","feedback","test","null","","","na","","192","",""
"1443.199999999255","414304","HierDylk5jotx2","sub16","04","07","rl","test","65","img/o_d_stripes.png","1","65","color,pattern,shape","193","1",""
"null","415313","HierDylk5jotx2","sub16","04","07","feedback","test","null","","","na","","193","",""
"848.1000000014901","416163","HierDylk5jotx2","sub16","04","07","rl","test","83","img/o_s_stripes.png","2","83","color,pattern,shape","194","1",""
"null","417169","HierDylk5jotx2","sub16","04","07","feedback","test","null","","","na","","194","",""
"1291.7999999970198","418463","HierDylk5jotx2","sub16","04","07","rl","test","72","img/b_d_stripes.png","5","72","color,pattern,shape","195","1",""
"null","419473","HierDylk5jotx2","sub16","04","07","feedback","test","null","","","na","","195","",""
"1169.2000000029802","420644","HierDylk5jotx2","sub16","04","07","rl","test","75","img/o_d_check.png","3","68","color,pattern,shape","196","0",""
"null","421652","HierDylk5jotx2","sub16","04","07","feedback","test","null","","","na","","196","",""
"2096.300000000745","423750","HierDylk5jotx2","sub16","04","07","rl","test","70","img/o_s_check.png","4","70","color,pattern,shape","197","1",""
"null","424753","HierDylk5jotx2","sub16","04","07","feedback","test","null","","","na","","197","",""
"1433.6000000014901","426188","HierDylk5jotx2","sub16","04","07","rl","test","70","img/o_s_check.png","4","70","color,pattern,shape","198","1",""
"null","427195","HierDylk5jotx2","sub16","04","07","feedback","test","null","","","na","","198","",""
"2021.1000000014901","429218","HierDylk5jotx2","sub16","04","07","rl","test","76","img/b_s_check.png","8","76","color,pattern,shape","199","1",""
"null","430224","HierDylk5jotx2","sub16","04","07","feedback","test","null","","","na","","199","",""
"1120.5","431346","HierDylk5jotx2","sub16","04","07","rl","test","75","img/b_d_check.png","7","75","color,pattern,shape","200","1",""
"null","432351","HierDylk5jotx2","sub16","04","07","feedback","test","null","","","na","","200","",""
"754.8999999985099","433107","HierDylk5jotx2","sub16","04","07","rl","test","83","img/o_s_stripes.png","2","83","color,pattern,shape","201","1",""
"null","434111","HierDylk5jotx2","sub16","04","07","feedback","test","null","","","na","","201","",""
"1693","435806","HierDylk5jotx2","sub16","04","07","rl","test","75","img/b_s_stripes.png","6","74","color,pattern,shape","202","0",""
"null","436820","HierDylk5jotx2","sub16","04","07","feedback","test","null","","","na","","202","",""
"961.4000000022352","437783","HierDylk5jotx2","sub16","04","07","rl","test","74","img/b_d_check.png","7","75","color,pattern,shape","203","0",""
"null","438792","HierDylk5jotx2","sub16","04","07","feedback","test","null","","","na","","203","",""
"1734","440527","HierDylk5jotx2","sub16","04","07","rl","test","74","img/b_s_stripes.png","6","74","color,pattern,shape","204","1",""
"null","441535","HierDylk5jotx2","sub16","04","07","feedback","test","null","","","na","","204","",""
"1126.5","442663","HierDylk5jotx2","sub16","04","07","rl","test","65","img/o_d_stripes.png","1","65","color,pattern,shape","205","1",""
"null","443678","HierDylk5jotx2","sub16","04","07","feedback","test","null","","","na","","205","",""
"1942.800000000745","445622","HierDylk5jotx2","sub16","04","07","rl","test","75","img/b_s_check.png","8","76","color,pattern,shape","206","0",""
"null","446636","HierDylk5jotx2","sub16","04","07","feedback","test","null","","","na","","206","",""
"null","449145","HierDylk5jotx2","sub16","04","07","rl","test","null","img/b_d_stripes.png","5","72","color,pattern,shape","207","0",""
"null","450152","HierDylk5jotx2","sub16","04","07","feedback","test","null","","","na","","207","",""
"682","450836","HierDylk5jotx2","sub16","04","07","rl","test","72","img/b_d_stripes.png","5","72","color,pattern,shape","208","1",""
"null","451840","HierDylk5jotx2","sub16","04","07","feedback","test","null","","","na","","208","",""
"1572.800000000745","453414","HierDylk5jotx2","sub16","04","07","rl","test","75","img/b_d_check.png","7","75","color,pattern,shape","209","1",""
"null","454428","HierDylk5jotx2","sub16","04","07","feedback","test","null","","","na","","209","",""
"948.6999999992549","455379","HierDylk5jotx2","sub16","04","07","rl","test","68","img/o_d_check.png","3","68","color,pattern,shape","210","1",""
"null","456385","HierDylk5jotx2","sub16","04","07","feedback","test","null","","","na","","210","",""
"666.6000000014901","457053","HierDylk5jotx2","sub16","04","07","rl","test","70","img/o_s_check.png","4","70","color,pattern,shape","211","1",""
"null","458055","HierDylk5jotx2","sub16","04","07","feedback","test","null","","","na","","211","",""
"1243.7999999970198","459301","HierDylk5jotx2","sub16","04","07","rl","test","76","img/b_s_check.png","8","76","color,pattern,shape","212","1",""
"null","460303","HierDylk5jotx2","sub16","04","07","feedback","test","null","","","na","","212","",""
"1186","461489","HierDylk5jotx2","sub16","04","07","rl","test","65","img/o_d_stripes.png","1","65","color,pattern,shape","213","1",""
"null","462494","HierDylk5jotx2","sub16","04","07","feedback","test","null","","","na","","213","",""
"1043.5","463540","HierDylk5jotx2","sub16","04","07","rl","test","74","img/b_s_stripes.png","6","74","color,pattern,shape","214","1",""
"null","464545","HierDylk5jotx2","sub16","04","07","feedback","test","null","","","na","","214","",""
"1013","465560","HierDylk5jotx2","sub16","04","07","rl","test","68","img/o_d_check.png","3","68","color,pattern,shape","215","1",""
"null","466567","HierDylk5jotx2","sub16","04","07","feedback","test","null","","","na","","215","",""
"653.8000000007451","467223","HierDylk5jotx2","sub16","04","07","rl","test","83","img/o_s_stripes.png","2","83","color,pattern,shape","216","1",""
"null","468231","HierDylk5jotx2","sub16","04","07","feedback","test","null","","","na","","216","",""
"1459.800000000745","469692","HierDylk5jotx2","sub16","04","07","rl","test","65","img/o_d_stripes.png","1","65","color,pattern,shape","217","1",""
"null","470709","HierDylk5jotx2","sub16","04","07","feedback","test","null","","","na","","217","",""
"856.8000000007451","471568","HierDylk5jotx2","sub16","04","07","rl","test","83","img/o_s_stripes.png","2","83","color,pattern,shape","218","1",""
"null","472575","HierDylk5jotx2","sub16","04","07","feedback","test","null","","","na","","218","",""
"888.3999999985099","473465","HierDylk5jotx2","sub16","04","07","rl","test","72","img/b_d_stripes.png","5","72","color,pattern,shape","219","1",""
"null","474470","HierDylk5jotx2","sub16","04","07","feedback","test","null","","","na","","219","",""
"727.9000000022352","475199","HierDylk5jotx2","sub16","04","07","rl","test","70","img/o_s_check.png","4","70","color,pattern,shape","220","1",""
"null","476211","HierDylk5jotx2","sub16","04","07","feedback","test","null","","","na","","220","",""
"842.8999999985099","477055","HierDylk5jotx2","sub16","04","07","rl","test","83","img/o_s_stripes.png","2","83","color,pattern,shape","221","1",""
"null","478062","HierDylk5jotx2","sub16","04","07","feedback","test","null","","","na","","221","",""
"1105.8999999985099","479169","HierDylk5jotx2","sub16","04","07","rl","test","68","img/o_d_check.png","3","68","color,pattern,shape","222","1",""
"null","480176","HierDylk5jotx2","sub16","04","07","feedback","test","null","","","na","","222","",""
"1038.5","481215","HierDylk5jotx2","sub16","04","07","rl","test","74","img/b_d_check.png","7","75","color,pattern,shape","223","0",""
"null","482223","HierDylk5jotx2","sub16","04","07","feedback","test","null","","","na","","223","",""
"996.3999999985099","483221","HierDylk5jotx2","sub16","04","07","rl","test","83","img/b_s_stripes.png","6","74","color,pattern,shape","224","0",""
"null","484230","HierDylk5jotx2","sub16","04","07","feedback","test","null","","","na","","224","",""
"957","485189","HierDylk5jotx2","sub16","04","07","rl","test","75","img/b_s_stripes.png","6","74","color,pattern,shape","225","0",""
"null","486197","HierDylk5jotx2","sub16","04","07","feedback","test","null","","","na","","225","",""
"null","488709","HierDylk5jotx2","sub16","04","07","rl","test","null","img/b_s_check.png","8","76","color,pattern,shape","226","0",""
"null","489718","HierDylk5jotx2","sub16","04","07","feedback","test","null","","","na","","226","",""
"907.0999999977648","490626","HierDylk5jotx2","sub16","04","07","rl","test","76","img/b_s_check.png","8","76","color,pattern,shape","227","1",""
"null","491633","HierDylk5jotx2","sub16","04","07","feedback","test","null","","","na","","227","",""
"1342.800000000745","492978","HierDylk5jotx2","sub16","04","07","rl","test","75","img/b_d_check.png","7","75","color,pattern,shape","228","1",""
"null","493985","HierDylk5jotx2","sub16","04","07","feedback","test","null","","","na","","228","",""
"575.8999999985099","494562","HierDylk5jotx2","sub16","04","07","rl","test","65","img/o_d_stripes.png","1","65","color,pattern,shape","229","1",""
"null","495566","HierDylk5jotx2","sub16","04","07","feedback","test","null","","","na","","229","",""
"786.6999999992549","496354","HierDylk5jotx2","sub16","04","07","rl","test","68","img/o_d_check.png","3","68","color,pattern,shape","230","1",""
"null","497358","HierDylk5jotx2","sub16","04","07","feedback","test","null","","","na","","230","",""
"906.1000000014901","498265","HierDylk5jotx2","sub16","04","07","rl","test","70","img/o_s_check.png","4","70","color,pattern,shape","231","1",""
"null","499272","HierDylk5jotx2","sub16","04","07","feedback","test","null","","","na","","231","",""
"988.1999999992549","500262","HierDylk5jotx2","sub16","04","07","rl","test","72","img/b_d_stripes.png","5","72","color,pattern,shape","232","1",""
"null","501276","HierDylk5jotx2","sub16","04","07","feedback","test","null","","","na","","232","",""
"1280.800000000745","502558","HierDylk5jotx2","sub16","04","07","rl","test","75","img/b_s_check.png","8","76","color,pattern,shape","233","0",""
"null","503565","HierDylk5jotx2","sub16","04","07","feedback","test","null","","","na","","233","",""
"1302.1000000014901","504869","HierDylk5jotx2","sub16","04","07","rl","test","72","img/b_d_stripes.png","5","72","color,pattern,shape","234","1",""
"null","505878","HierDylk5jotx2","sub16","04","07","feedback","test","null","","","na","","234","",""
"715.3000000007451","506595","HierDylk5jotx2","sub16","04","07","rl","test","70","img/o_s_check.png","4","70","color,pattern,shape","235","1",""
"null","507598","HierDylk5jotx2","sub16","04","07","feedback","test","null","","","na","","235","",""
"1011.7000000029802","508612","HierDylk5jotx2","sub16","04","07","rl","test","83","img/o_s_stripes.png","2","83","color,pattern,shape","236","1",""
"null","509621","HierDylk5jotx2","sub16","04","07","feedback","test","null","","","na","","236","",""
"2246","511868","HierDylk5jotx2","sub16","04","07","rl","test","75","img/b_d_check.png","7","75","color,pattern,shape","237","1",""
"null","512880","HierDylk5jotx2","sub16","04","07","feedback","test","null","","","na","","237","",""
"663.8000000007451","513545","HierDylk5jotx2","sub16","04","07","rl","test","70","img/o_s_check.png","4","70","color,pattern,shape","238","1",""
"null","514551","HierDylk5jotx2","sub16","04","07","feedback","test","null","","","na","","238","",""
"838.5999999977648","515392","HierDylk5jotx2","sub16","04","07","rl","test","65","img/o_d_stripes.png","1","65","color,pattern,shape","239","1",""
"null","516399","HierDylk5jotx2","sub16","04","07","feedback","test","null","","","na","","239","",""
"1077.5","517478","HierDylk5jotx2","sub16","04","07","rl","test","75","img/b_s_stripes.png","6","74","color,pattern,shape","240","0",""
"null","518484","HierDylk5jotx2","sub16","04","07","feedback","test","null","","","na","","240","",""
"1041.3999999985099","519527","HierDylk5jotx2","sub16","04","07","rl","test","70","img/o_d_check.png","3","68","color,pattern,shape","241","0",""
"null","520536","HierDylk5jotx2","sub16","04","07","feedback","test","null","","","na","","241","",""
"1081.0999999977648","521618","HierDylk5jotx2","sub16","04","07","rl","test","83","img/o_s_stripes.png","2","83","color,pattern,shape","242","1",""
"null","522629","HierDylk5jotx2","sub16","04","07","feedback","test","null","","","na","","242","",""
"1454.9000000022352","524086","HierDylk5jotx2","sub16","04","07","rl","test","65","img/o_d_stripes.png","1","65","color,pattern,shape","243","1",""
"null","525092","HierDylk5jotx2","sub16","04","07","feedback","test","null","","","na","","243","",""
"1591.6000000014901","526685","HierDylk5jotx2","sub16","04","07","rl","test","68","img/o_d_check.png","3","68","color,pattern,shape","244","1",""
"null","527692","HierDylk5jotx2","sub16","04","07","feedback","test","null","","","na","","244","",""
"1385.800000000745","529079","HierDylk5jotx2","sub16","04","07","rl","test","75","img/b_d_check.png","7","75","color,pattern,shape","245","1",""
"null","530087","HierDylk5jotx2","sub16","04","07","feedback","test","null","","","na","","245","",""
"1625.4000000022352","531714","HierDylk5jotx2","sub16","04","07","rl","test","72","img/b_d_stripes.png","5","72","color,pattern,shape","246","1",""
"null","532728","HierDylk5jotx2","sub16","04","07","feedback","test","null","","","na","","246","",""
"566.6999999992549","533297","HierDylk5jotx2","sub16","04","07","rl","test","74","img/b_s_stripes.png","6","74","color,pattern,shape","247","1",""
"null","534300","HierDylk5jotx2","sub16","04","07","feedback","test","null","","","na","","247","",""
"1085.199999999255","535387","HierDylk5jotx2","sub16","04","07","rl","test","76","img/b_s_check.png","8","76","color,pattern,shape","248","1",""
"null","536400","HierDylk5jotx2","sub16","04","07","feedback","test","null","","","na","","248","",""
"2145.60000000149","538554","HierDylk5jotx2","sub16","04","07","","","","","","","","","","{""Q0"":""5""}"
"14200.39999999851","552757","HierDylk5jotx2","sub16","04","07","","","","","","","","","","{""Q0"":""keep a streak in my head to motivate me""}"
"2018.300000000745","554777","HierDylk5jotx2","sub16","04","07","","","","","","","","","",""
