"rt","time_elapsed","subject","subID","group","day","trialType","phase","key_press","stim","stimNum","corrresp","hierarchy","trialNum","corr","responses"
"16871.799999998882","16873","HierDypgldqb9o","sub16","04","02","","","","","","","","","",""
"","21269","HierDypgldqb9o","sub16","04","02","fullscreen","","","","","","","","",""
"33248.800000000745","54518","HierDypgldqb9o","sub16","04","02","","prac","","","","","","","",""
"58090.199999999255","112612","HierDypgldqb9o","sub16","04","02","","","32","","","","","","",""
"3883.5999999996275","116496","HierDypgldqb9o","sub16","04","02","","prac","","","","","","","",""
"1710.699999999255","118211","HierDypgldqb9o","sub16","04","02","rl","test","83","img/o_s_stripes.png","2","83","color,pattern,shape","1","1",""
"null","119227","HierDypgldqb9o","sub16","04","02","feedback","test","null","","","na","","1","",""
"992.1000000014901","120221","HierDypgldqb9o","sub16","04","02","rl","test","74","img/b_s_stripes.png","6","74","color,pattern,shape","2","1",""
"null","121228","HierDypgldqb9o","sub16","04","02","feedback","test","null","","","na","","2","",""
"698","121928","HierDypgldqb9o","sub16","04","02","rl","test","72","img/b_d_stripes.png","5","72","color,pattern,shape","3","1",""
"null","122935","HierDypgldqb9o","sub16","04","02","feedback","test","null","","","na","","3","",""
"901","123838","HierDypgldqb9o","sub16","04","02","rl","test","75","img/b_d_check.png","7","75","color,pattern,shape","4","1",""
"null","124845","HierDypgldqb9o","sub16","04","02","feedback","test","null","","","na","","4","",""
"778.9000000003725","125625","HierDypgldqb9o","sub16","04","02","rl","test","70","img/o_s_check.png","4","70","color,pattern,shape","5","1",""
"null","126632","HierDypgldqb9o","sub16","04","02","feedback","test","null","","","na","","5","",""
"819.1000000014901","127453","HierDypgldqb9o","sub16","04","02","rl","test","68","img/o_d_check.png","3","68","color,pattern,shape","6","1",""
"null","128463","HierDypgldqb9o","sub16","04","02","feedback","test","null","","","na","","6","",""
"1972.5999999996275","130437","HierDypgldqb9o","sub16","04","02","rl","test","65","img/o_d_stripes.png","1","65","color,pattern,shape","7","1",""
"null","131446","HierDypgldqb9o","sub16","04","02","feedback","test","null","","","na","","7","",""
"2029.300000000745","133477","HierDypgldqb9o","sub16","04","02","rl","test","75","img/b_s_check.png","8","76","color,pattern,shape","8","0",""
"null","134483","HierDypgldqb9o","sub16","04","02","feedback","test","null","","","na","","8","",""
"1165.2000000011176","135650","HierDypgldqb9o","sub16","04","02","rl","test","68","img/o_d_check.png","3","68","color,pattern,shape","9","1",""
"null","136659","HierDypgldqb9o","sub16","04","02","feedback","test","null","","","na","","9","",""
"708.3000000007451","137369","HierDypgldqb9o","sub16","04","02","rl","test","76","img/b_s_check.png","8","76","color,pattern,shape","10","1",""
"null","138384","HierDypgldqb9o","sub16","04","02","feedback","test","null","","","na","","10","",""
"1338.4000000003725","139724","HierDypgldqb9o","sub16","04","02","rl","test","83","img/o_s_stripes.png","2","83","color,pattern,shape","11","1",""
"null","140731","HierDypgldqb9o","sub16","04","02","feedback","test","null","","","na","","11","",""
"689.8000000007451","141423","HierDypgldqb9o","sub16","04","02","rl","test","72","img/b_d_stripes.png","5","72","color,pattern,shape","12","1",""
"null","142429","HierDypgldqb9o","sub16","04","02","feedback","test","null","","","na","","12","",""
"1487.9000000003725","143918","HierDypgldqb9o","sub16","04","02","rl","test","74","img/b_s_stripes.png","6","74","color,pattern,shape","13","1",""
"null","144925","HierDypgldqb9o","sub16","04","02","feedback","test","null","","","na","","13","",""
"1986.3999999985099","146913","HierDypgldqb9o","sub16","04","02","rl","test","75","img/b_d_check.png","7","75","color,pattern,shape","14","1",""
"null","147929","HierDypgldqb9o","sub16","04","02","feedback","test","null","","","na","","14","",""
"1792.5999999996275","149723","HierDypgldqb9o","sub16","04","02","rl","test","65","img/o_d_stripes.png","1","65","color,pattern,shape","15","1",""
"null","150731","HierDypgldqb9o","sub16","04","02","feedback","test","null","","","na","","15","",""
"559.2000000011176","151292","HierDypgldqb9o","sub16","04","02","rl","test","65","img/o_d_stripes.png","1","65","color,pattern,shape","16","1",""
"null","152299","HierDypgldqb9o","sub16","04","02","feedback","test","null","","","na","","16","",""
"786.6999999992549","153087","HierDypgldqb9o","sub16","04","02","rl","test","70","img/o_s_check.png","4","70","color,pattern,shape","17","1",""
"null","154091","HierDypgldqb9o","sub16","04","02","feedback","test","null","","","na","","17","",""
"1453.5","155546","HierDypgldqb9o","sub16","04","02","rl","test","75","img/b_d_check.png","7","75","color,pattern,shape","18","1",""
"null","156559","HierDypgldqb9o","sub16","04","02","feedback","test","null","","","na","","18","",""
"858.4000000003725","157419","HierDypgldqb9o","sub16","04","02","rl","test","74","img/b_s_stripes.png","6","74","color,pattern,shape","19","1",""
"null","158426","HierDypgldqb9o","sub16","04","02","feedback","test","null","","","na","","19","",""
"710","159137","HierDypgldqb9o","sub16","04","02","rl","test","70","img/o_s_check.png","4","70","color,pattern,shape","20","1",""
"null","160145","HierDypgldqb9o","sub16","04","02","feedback","test","null","","","na","","20","",""
"1013.2999999988824","161159","HierDypgldqb9o","sub16","04","02","rl","test","68","img/o_d_check.png","3","68","color,pattern,shape","21","1",""
"null","162163","HierDypgldqb9o","sub16","04","02","feedback","test","null","","","na","","21","",""
"637.5","162801","HierDypgldqb9o","sub16","04","02","rl","test","70","img/o_s_check.png","4","70","color,pattern,shape","22","1",""
"null","163809","HierDypgldqb9o","sub16","04","02","feedback","test","null","","","na","","22","",""
"991","164801","HierDypgldqb9o","sub16","04","02","rl","test","75","img/b_s_check.png","8","76","color,pattern,shape","23","0",""
"null","165809","HierDypgldqb9o","sub16","04","02","feedback","test","null","","","na","","23","",""
"1514.4000000003725","167324","HierDypgldqb9o","sub16","04","02","rl","test","83","img/o_s_stripes.png","2","83","color,pattern,shape","24","1",""
"null","168333","HierDypgldqb9o","sub16","04","02","feedback","test","null","","","na","","24","",""
"1619.9000000003725","169955","HierDypgldqb9o","sub16","04","02","rl","test","75","img/b_d_check.png","7","75","color,pattern,shape","25","1",""
"null","170962","HierDypgldqb9o","sub16","04","02","feedback","test","null","","","na","","25","",""
"1156.5","172120","HierDypgldqb9o","sub16","04","02","rl","test","72","img/b_d_stripes.png","5","72","color,pattern,shape","26","1",""
"null","173136","HierDypgldqb9o","sub16","04","02","feedback","test","null","","","na","","26","",""
"962.9000000003725","174101","HierDypgldqb9o","sub16","04","02","rl","test","72","img/b_d_stripes.png","5","72","color,pattern,shape","27","1",""
"null","175110","HierDypgldqb9o","sub16","04","02","feedback","test","null","","","na","","27","",""
"524.3000000007451","175635","HierDypgldqb9o","sub16","04","02","rl","test","76","img/b_s_check.png","8","76","color,pattern,shape","28","1",""
"null","176646","HierDypgldqb9o","sub16","04","02","feedback","test","null","","","na","","28","",""
"923.6999999992549","177571","HierDypgldqb9o","sub16","04","02","rl","test","68","img/o_d_check.png","3","68","color,pattern,shape","29","1",""
"null","178578","HierDypgldqb9o","sub16","04","02","feedback","test","null","","","na","","29","",""
"935.9000000003725","179515","HierDypgldqb9o","sub16","04","02","rl","test","83","img/o_s_stripes.png","2","83","color,pattern,shape","30","1",""
"null","180523","HierDypgldqb9o","sub16","04","02","feedback","test","null","","","na","","30","",""
"1015.3000000007451","181540","HierDypgldqb9o","sub16","04","02","rl","test","70","img/o_d_stripes.png","1","65","color,pattern,shape","31","0",""
"null","182547","HierDypgldqb9o","sub16","04","02","feedback","test","null","","","na","","31","",""
"null","185062","HierDypgldqb9o","sub16","04","02","rl","test","null","img/b_s_stripes.png","6","74","color,pattern,shape","32","0",""
"null","186067","HierDypgldqb9o","sub16","04","02","feedback","test","null","","","na","","32","",""
"971","187040","HierDypgldqb9o","sub16","04","02","rl","test","74","img/b_s_stripes.png","6","74","color,pattern,shape","33","1",""
"null","188050","HierDypgldqb9o","sub16","04","02","feedback","test","null","","","na","","33","",""
"873.8000000007451","188925","HierDypgldqb9o","sub16","04","02","rl","test","70","img/o_s_check.png","4","70","color,pattern,shape","34","1",""
"null","189931","HierDypgldqb9o","sub16","04","02","feedback","test","null","","","na","","34","",""
"1895.8999999985099","191828","HierDypgldqb9o","sub16","04","02","rl","test","76","img/b_s_check.png","8","76","color,pattern,shape","35","1",""
"null","192836","HierDypgldqb9o","sub16","04","02","feedback","test","null","","","na","","35","",""
"721.5","193560","HierDypgldqb9o","sub16","04","02","rl","test","72","img/b_d_stripes.png","5","72","color,pattern,shape","36","1",""
"null","194572","HierDypgldqb9o","sub16","04","02","feedback","test","null","","","na","","36","",""
"625.8999999985099","195200","HierDypgldqb9o","sub16","04","02","rl","test","75","img/b_d_check.png","7","75","color,pattern,shape","37","1",""
"null","196213","HierDypgldqb9o","sub16","04","02","feedback","test","null","","","na","","37","",""
"1975.5","198190","HierDypgldqb9o","sub16","04","02","rl","test","72","img/b_d_stripes.png","5","72","color,pattern,shape","38","1",""
"null","199196","HierDypgldqb9o","sub16","04","02","feedback","test","null","","","na","","38","",""
"1171.0999999996275","200369","HierDypgldqb9o","sub16","04","02","rl","test","83","img/o_d_check.png","3","68","color,pattern,shape","39","0",""
"null","201377","HierDypgldqb9o","sub16","04","02","feedback","test","null","","","na","","39","",""
"979.3000000007451","202358","HierDypgldqb9o","sub16","04","02","rl","test","76","img/b_s_check.png","8","76","color,pattern,shape","40","1",""
"null","203364","HierDypgldqb9o","sub16","04","02","feedback","test","null","","","na","","40","",""
"1376.3999999985099","204742","HierDypgldqb9o","sub16","04","02","rl","test","83","img/o_s_stripes.png","2","83","color,pattern,shape","41","1",""
"null","205749","HierDypgldqb9o","sub16","04","02","feedback","test","null","","","na","","41","",""
"1013.8999999985099","206764","HierDypgldqb9o","sub16","04","02","rl","test","68","img/o_d_check.png","3","68","color,pattern,shape","42","1",""
"null","207768","HierDypgldqb9o","sub16","04","02","feedback","test","null","","","na","","42","",""
"728.1999999992549","208498","HierDypgldqb9o","sub16","04","02","rl","test","70","img/o_s_check.png","4","70","color,pattern,shape","43","1",""
"null","209505","HierDypgldqb9o","sub16","04","02","feedback","test","null","","","na","","43","",""
"1389.7999999988824","210896","HierDypgldqb9o","sub16","04","02","rl","test","65","img/o_d_stripes.png","1","65","color,pattern,shape","44","1",""
"null","211904","HierDypgldqb9o","sub16","04","02","feedback","test","null","","","na","","44","",""
"984.5","212891","HierDypgldqb9o","sub16","04","02","rl","test","83","img/o_s_stripes.png","2","83","color,pattern,shape","45","1",""
"null","213897","HierDypgldqb9o","sub16","04","02","feedback","test","null","","","na","","45","",""
"820.1999999992549","214719","HierDypgldqb9o","sub16","04","02","rl","test","72","img/b_d_stripes.png","5","72","color,pattern,shape","46","1",""
"null","215732","HierDypgldqb9o","sub16","04","02","feedback","test","null","","","na","","46","",""
"761.7999999988824","216496","HierDypgldqb9o","sub16","04","02","rl","test","74","img/b_s_stripes.png","6","74","color,pattern,shape","47","1",""
"null","217506","HierDypgldqb9o","sub16","04","02","feedback","test","null","","","na","","47","",""
"961.5999999996275","218469","HierDypgldqb9o","sub16","04","02","rl","test","65","img/o_d_stripes.png","1","65","color,pattern,shape","48","1",""
"null","219476","HierDypgldqb9o","sub16","04","02","feedback","test","null","","","na","","48","",""
"1277.4000000003725","220755","HierDypgldqb9o","sub16","04","02","rl","test","74","img/b_s_stripes.png","6","74","color,pattern,shape","49","1",""
"null","221762","HierDypgldqb9o","sub16","04","02","feedback","test","null","","","na","","49","",""
"1019.8999999985099","222783","HierDypgldqb9o","sub16","04","02","rl","test","76","img/b_s_check.png","8","76","color,pattern,shape","50","1",""
"null","223796","HierDypgldqb9o","sub16","04","02","feedback","test","null","","","na","","50","",""
"546.0999999996275","224343","HierDypgldqb9o","sub16","04","02","rl","test","75","img/b_d_check.png","7","75","color,pattern,shape","51","1",""
"null","225356","HierDypgldqb9o","sub16","04","02","feedback","test","null","","","na","","51","",""
"1449.2999999988824","226806","HierDypgldqb9o","sub16","04","02","rl","test","83","img/o_s_stripes.png","2","83","color,pattern,shape","52","1",""
"null","227816","HierDypgldqb9o","sub16","04","02","feedback","test","null","","","na","","52","",""
"1670","229487","HierDypgldqb9o","sub16","04","02","rl","test","68","img/o_d_check.png","3","68","color,pattern,shape","53","1",""
"null","230496","HierDypgldqb9o","sub16","04","02","feedback","test","null","","","na","","53","",""
"null","233004","HierDypgldqb9o","sub16","04","02","rl","test","null","img/b_d_check.png","7","75","color,pattern,shape","54","0",""
"null","234007","HierDypgldqb9o","sub16","04","02","feedback","test","null","","","na","","54","",""
"745.5","234755","HierDypgldqb9o","sub16","04","02","rl","test","74","img/b_s_stripes.png","6","74","color,pattern,shape","55","1",""
"null","235762","HierDypgldqb9o","sub16","04","02","feedback","test","null","","","na","","55","",""
"868.7000000011176","236633","HierDypgldqb9o","sub16","04","02","rl","test","70","img/o_s_check.png","4","70","color,pattern,shape","56","1",""
"null","237640","HierDypgldqb9o","sub16","04","02","feedback","test","null","","","na","","56","",""
"943","238585","HierDypgldqb9o","sub16","04","02","rl","test","70","img/o_s_check.png","4","70","color,pattern,shape","57","1",""
"null","239591","HierDypgldqb9o","sub16","04","02","feedback","test","null","","","na","","57","",""
"1133.7999999988824","240727","HierDypgldqb9o","sub16","04","02","rl","test","83","img/o_d_stripes.png","1","65","color,pattern,shape","58","0",""
"null","241734","HierDypgldqb9o","sub16","04","02","feedback","test","null","","","na","","58","",""
"1411.2999999988824","243147","HierDypgldqb9o","sub16","04","02","rl","test","75","img/b_d_check.png","7","75","color,pattern,shape","59","1",""
"null","244153","HierDypgldqb9o","sub16","04","02","feedback","test","null","","","na","","59","",""
"1498.300000000745","245653","HierDypgldqb9o","sub16","04","02","rl","test","65","img/o_d_stripes.png","1","65","color,pattern,shape","60","1",""
"null","246667","HierDypgldqb9o","sub16","04","02","feedback","test","null","","","na","","60","",""
"921.2000000011176","247590","HierDypgldqb9o","sub16","04","02","rl","test","72","img/b_d_stripes.png","5","72","color,pattern,shape","61","1",""
"null","248601","HierDypgldqb9o","sub16","04","02","feedback","test","null","","","na","","61","",""
"1266.699999999255","249870","HierDypgldqb9o","sub16","04","02","rl","test","68","img/o_d_check.png","3","68","color,pattern,shape","62","1",""
"null","250880","HierDypgldqb9o","sub16","04","02","feedback","test","null","","","na","","62","",""
"1169.9000000003725","252052","HierDypgldqb9o","sub16","04","02","rl","test","83","img/o_s_stripes.png","2","83","color,pattern,shape","63","1",""
"null","253055","HierDypgldqb9o","sub16","04","02","feedback","test","null","","","na","","63","",""
"1294.9000000003725","254351","HierDypgldqb9o","sub16","04","02","rl","test","75","img/b_s_check.png","8","76","color,pattern,shape","64","0",""
"null","255358","HierDypgldqb9o","sub16","04","02","feedback","test","null","","","na","","64","",""
"620.3000000007451","255980","HierDypgldqb9o","sub16","04","02","rl","test","76","img/b_s_check.png","8","76","color,pattern,shape","65","1",""
"null","256991","HierDypgldqb9o","sub16","04","02","feedback","test","null","","","na","","65","",""
"821.5999999996275","257814","HierDypgldqb9o","sub16","04","02","rl","test","72","img/b_d_stripes.png","5","72","color,pattern,shape","66","1",""
"null","258826","HierDypgldqb9o","sub16","04","02","feedback","test","null","","","na","","66","",""
"946","259774","HierDypgldqb9o","sub16","04","02","rl","test","74","img/b_s_stripes.png","6","74","color,pattern,shape","67","1",""
"null","260786","HierDypgldqb9o","sub16","04","02","feedback","test","null","","","na","","67","",""
"1160.5999999996275","261948","HierDypgldqb9o","sub16","04","02","rl","test","83","img/o_d_check.png","3","68","color,pattern,shape","68","0",""
"null","262958","HierDypgldqb9o","sub16","04","02","feedback","test","null","","","na","","68","",""
"null","265466","HierDypgldqb9o","sub16","04","02","rl","test","null","img/b_d_check.png","7","75","color,pattern,shape","69","0",""
"null","266476","HierDypgldqb9o","sub16","04","02","feedback","test","null","","","na","","69","",""
"1305.5","267783","HierDypgldqb9o","sub16","04","02","rl","test","83","img/o_s_stripes.png","2","83","color,pattern,shape","70","1",""
"null","268789","HierDypgldqb9o","sub16","04","02","feedback","test","null","","","na","","70","",""
"821.6999999992549","269612","HierDypgldqb9o","sub16","04","02","rl","test","68","img/o_d_check.png","3","68","color,pattern,shape","71","1",""
"null","270621","HierDypgldqb9o","sub16","04","02","feedback","test","null","","","na","","71","",""
"1024.4000000003725","271647","HierDypgldqb9o","sub16","04","02","rl","test","70","img/o_s_check.png","4","70","color,pattern,shape","72","1",""
"null","272655","HierDypgldqb9o","sub16","04","02","feedback","test","null","","","na","","72","",""
"1562.4000000003725","274219","HierDypgldqb9o","sub16","04","02","rl","test","75","img/b_d_check.png","7","75","color,pattern,shape","73","1",""
"null","275233","HierDypgldqb9o","sub16","04","02","feedback","test","null","","","na","","73","",""
"1239.300000000745","276474","HierDypgldqb9o","sub16","04","02","rl","test","65","img/o_d_stripes.png","1","65","color,pattern,shape","74","1",""
"null","277479","HierDypgldqb9o","sub16","04","02","feedback","test","null","","","na","","74","",""
"739.7000000011176","278221","HierDypgldqb9o","sub16","04","02","rl","test","74","img/b_s_stripes.png","6","74","color,pattern,shape","75","1",""
"null","279232","HierDypgldqb9o","sub16","04","02","feedback","test","null","","","na","","75","",""
"1181.9000000003725","280416","HierDypgldqb9o","sub16","04","02","rl","test","83","img/o_s_stripes.png","2","83","color,pattern,shape","76","1",""
"null","281424","HierDypgldqb9o","sub16","04","02","feedback","test","null","","","na","","76","",""
"715.0999999996275","282141","HierDypgldqb9o","sub16","04","02","rl","test","70","img/o_s_check.png","4","70","color,pattern,shape","77","1",""
"null","283153","HierDypgldqb9o","sub16","04","02","feedback","test","null","","","na","","77","",""
"782.1999999992549","283937","HierDypgldqb9o","sub16","04","02","rl","test","72","img/b_d_stripes.png","5","72","color,pattern,shape","78","1",""
"null","284945","HierDypgldqb9o","sub16","04","02","feedback","test","null","","","na","","78","",""
"1215.9000000003725","286163","HierDypgldqb9o","sub16","04","02","rl","test","76","img/b_s_check.png","8","76","color,pattern,shape","79","1",""
"null","287177","HierDypgldqb9o","sub16","04","02","feedback","test","null","","","na","","79","",""
"1048.5999999996275","288227","HierDypgldqb9o","sub16","04","02","rl","test","83","img/o_s_stripes.png","2","83","color,pattern,shape","80","1",""
"null","289243","HierDypgldqb9o","sub16","04","02","feedback","test","null","","","na","","80","",""
"1246.2000000011176","290491","HierDypgldqb9o","sub16","04","02","rl","test","65","img/o_d_stripes.png","1","65","color,pattern,shape","81","1",""
"null","291505","HierDypgldqb9o","sub16","04","02","feedback","test","null","","","na","","81","",""
"1235.199999999255","292741","HierDypgldqb9o","sub16","04","02","rl","test","75","img/b_d_check.png","7","75","color,pattern,shape","82","1",""
"null","293749","HierDypgldqb9o","sub16","04","02","feedback","test","null","","","na","","82","",""
"1136.199999999255","294886","HierDypgldqb9o","sub16","04","02","rl","test","65","img/o_d_stripes.png","1","65","color,pattern,shape","83","1",""
"null","295893","HierDypgldqb9o","sub16","04","02","feedback","test","null","","","na","","83","",""
"1259.6000000014901","297154","HierDypgldqb9o","sub16","04","02","rl","test","68","img/o_d_check.png","3","68","color,pattern,shape","84","1",""
"null","298164","HierDypgldqb9o","sub16","04","02","feedback","test","null","","","na","","84","",""
"650.9000000003725","298816","HierDypgldqb9o","sub16","04","02","rl","test","70","img/o_s_check.png","4","70","color,pattern,shape","85","1",""
"null","299823","HierDypgldqb9o","sub16","04","02","feedback","test","null","","","na","","85","",""
"971.1999999992549","300796","HierDypgldqb9o","sub16","04","02","rl","test","74","img/b_s_stripes.png","6","74","color,pattern,shape","86","1",""
"null","301808","HierDypgldqb9o","sub16","04","02","feedback","test","null","","","na","","86","",""
"2221.800000000745","304032","HierDypgldqb9o","sub16","04","02","rl","test","83","img/o_d_check.png","3","68","color,pattern,shape","87","0",""
"null","305039","HierDypgldqb9o","sub16","04","02","feedback","test","null","","","na","","87","",""
"894.8999999985099","305935","HierDypgldqb9o","sub16","04","02","rl","test","72","img/b_d_stripes.png","5","72","color,pattern,shape","88","1",""
"null","306940","HierDypgldqb9o","sub16","04","02","feedback","test","null","","","na","","88","",""
"657.1999999992549","307599","HierDypgldqb9o","sub16","04","02","rl","test","72","img/b_d_stripes.png","5","72","color,pattern,shape","89","1",""
"null","308604","HierDypgldqb9o","sub16","04","02","feedback","test","null","","","na","","89","",""
"1174","309780","HierDypgldqb9o","sub16","04","02","rl","test","75","img/b_s_check.png","8","76","color,pattern,shape","90","0",""
"null","310788","HierDypgldqb9o","sub16","04","02","feedback","test","null","","","na","","90","",""
"735.0999999996275","311524","HierDypgldqb9o","sub16","04","02","rl","test","74","img/b_s_stripes.png","6","74","color,pattern,shape","91","1",""
"null","312531","HierDypgldqb9o","sub16","04","02","feedback","test","null","","","na","","91","",""
"736.2000000011176","313269","HierDypgldqb9o","sub16","04","02","rl","test","76","img/b_s_check.png","8","76","color,pattern,shape","92","1",""
"null","314276","HierDypgldqb9o","sub16","04","02","feedback","test","null","","","na","","92","",""
"1061.5999999996275","315340","HierDypgldqb9o","sub16","04","02","rl","test","83","img/o_s_stripes.png","2","83","color,pattern,shape","93","1",""
"null","316352","HierDypgldqb9o","sub16","04","02","feedback","test","null","","","na","","93","",""
"1740.7000000011176","318094","HierDypgldqb9o","sub16","04","02","rl","test","75","img/b_d_check.png","7","75","color,pattern,shape","94","1",""
"null","319099","HierDypgldqb9o","sub16","04","02","feedback","test","null","","","na","","94","",""
"694.5","319796","HierDypgldqb9o","sub16","04","02","rl","test","74","img/b_d_stripes.png","5","72","color,pattern,shape","95","0",""
"null","320802","HierDypgldqb9o","sub16","04","02","feedback","test","null","","","na","","95","",""
"1297.699999999255","322102","HierDypgldqb9o","sub16","04","02","rl","test","75","img/b_s_check.png","8","76","color,pattern,shape","96","0",""
"null","323109","HierDypgldqb9o","sub16","04","02","feedback","test","null","","","na","","96","",""
"785.4000000003725","323896","HierDypgldqb9o","sub16","04","02","rl","test","70","img/o_s_check.png","4","70","color,pattern,shape","97","1",""
"null","324901","HierDypgldqb9o","sub16","04","02","feedback","test","null","","","na","","97","",""
"993.6000000014901","325896","HierDypgldqb9o","sub16","04","02","rl","test","65","img/o_d_stripes.png","1","65","color,pattern,shape","98","1",""
"null","326903","HierDypgldqb9o","sub16","04","02","feedback","test","null","","","na","","98","",""
"874.6000000014901","327779","HierDypgldqb9o","sub16","04","02","rl","test","65","img/o_d_stripes.png","1","65","color,pattern,shape","99","1",""
"null","328787","HierDypgldqb9o","sub16","04","02","feedback","test","null","","","na","","99","",""
"666.5999999996275","329455","HierDypgldqb9o","sub16","04","02","rl","test","70","img/o_s_check.png","4","70","color,pattern,shape","100","1",""
"null","330462","HierDypgldqb9o","sub16","04","02","feedback","test","null","","","na","","100","",""
"959.6999999992549","331423","HierDypgldqb9o","sub16","04","02","rl","test","83","img/o_s_stripes.png","2","83","color,pattern,shape","101","1",""
"null","332426","HierDypgldqb9o","sub16","04","02","feedback","test","null","","","na","","101","",""
"1245.5","333673","HierDypgldqb9o","sub16","04","02","rl","test","68","img/o_d_check.png","3","68","color,pattern,shape","102","1",""
"null","334689","HierDypgldqb9o","sub16","04","02","feedback","test","null","","","na","","102","",""
"2170.199999999255","336860","HierDypgldqb9o","sub16","04","02","rl","test","75","img/b_d_check.png","7","75","color,pattern,shape","103","1",""
"null","337868","HierDypgldqb9o","sub16","04","02","feedback","test","null","","","na","","103","",""
"872.5","338743","HierDypgldqb9o","sub16","04","02","rl","test","74","img/b_s_stripes.png","6","74","color,pattern,shape","104","1",""
"null","339747","HierDypgldqb9o","sub16","04","02","feedback","test","null","","","na","","104","",""
"827.5","340576","HierDypgldqb9o","sub16","04","02","rl","test","83","img/o_s_stripes.png","2","83","color,pattern,shape","105","1",""
"null","341587","HierDypgldqb9o","sub16","04","02","feedback","test","null","","","na","","105","",""
"1267.8999999985099","342856","HierDypgldqb9o","sub16","04","02","rl","test","65","img/o_d_stripes.png","1","65","color,pattern,shape","106","1",""
"null","343866","HierDypgldqb9o","sub16","04","02","feedback","test","null","","","na","","106","",""
"813.5999999996275","344682","HierDypgldqb9o","sub16","04","02","rl","test","74","img/b_s_stripes.png","6","74","color,pattern,shape","107","1",""
"null","345696","HierDypgldqb9o","sub16","04","02","feedback","test","null","","","na","","107","",""
"1754.199999999255","347452","HierDypgldqb9o","sub16","04","02","rl","test","75","img/b_d_check.png","7","75","color,pattern,shape","108","1",""
"null","348459","HierDypgldqb9o","sub16","04","02","feedback","test","null","","","na","","108","",""
"1060.0999999996275","349520","HierDypgldqb9o","sub16","04","02","rl","test","72","img/b_d_stripes.png","5","72","color,pattern,shape","109","1",""
"null","350531","HierDypgldqb9o","sub16","04","02","feedback","test","null","","","na","","109","",""
"1968.699999999255","352501","HierDypgldqb9o","sub16","04","02","rl","test","83","img/o_d_check.png","3","68","color,pattern,shape","110","0",""
"null","353508","HierDypgldqb9o","sub16","04","02","feedback","test","null","","","na","","110","",""
"null","356019","HierDypgldqb9o","sub16","04","02","rl","test","null","img/b_s_check.png","8","76","color,pattern,shape","111","0",""
"null","357029","HierDypgldqb9o","sub16","04","02","feedback","test","null","","","na","","111","",""
"1382.9000000003725","358414","HierDypgldqb9o","sub16","04","02","rl","test","83","img/o_s_stripes.png","2","83","color,pattern,shape","112","1",""
"null","359420","HierDypgldqb9o","sub16","04","02","feedback","test","null","","","na","","112","",""
"1339.6000000014901","360761","HierDypgldqb9o","sub16","04","02","rl","test","76","img/b_s_check.png","8","76","color,pattern,shape","113","1",""
"null","361772","HierDypgldqb9o","sub16","04","02","feedback","test","null","","","na","","113","",""
"781.2999999988824","362555","HierDypgldqb9o","sub16","04","02","rl","test","65","img/o_s_check.png","4","70","color,pattern,shape","114","0",""
"null","363561","HierDypgldqb9o","sub16","04","02","feedback","test","null","","","na","","114","",""
"967.7000000011176","364531","HierDypgldqb9o","sub16","04","02","rl","test","70","img/o_s_check.png","4","70","color,pattern,shape","115","1",""
"null","365539","HierDypgldqb9o","sub16","04","02","feedback","test","null","","","na","","115","",""
"909.5999999996275","366450","HierDypgldqb9o","sub16","04","02","rl","test","65","img/o_d_stripes.png","1","65","color,pattern,shape","116","1",""
"null","367457","HierDypgldqb9o","sub16","04","02","feedback","test","null","","","na","","116","",""
"894.5999999996275","368353","HierDypgldqb9o","sub16","04","02","rl","test","75","img/b_d_check.png","7","75","color,pattern,shape","117","1",""
"null","369364","HierDypgldqb9o","sub16","04","02","feedback","test","null","","","na","","117","",""
"1765.2999999988824","371131","HierDypgldqb9o","sub16","04","02","rl","test","74","img/b_s_stripes.png","6","74","color,pattern,shape","118","1",""
"null","372136","HierDypgldqb9o","sub16","04","02","feedback","test","null","","","na","","118","",""
"1274.0999999996275","373412","HierDypgldqb9o","sub16","04","02","rl","test","75","img/b_s_check.png","8","76","color,pattern,shape","119","0",""
"null","374421","HierDypgldqb9o","sub16","04","02","feedback","test","null","","","na","","119","",""
"1000.4000000003725","375423","HierDypgldqb9o","sub16","04","02","rl","test","72","img/b_d_stripes.png","5","72","color,pattern,shape","120","1",""
"null","376432","HierDypgldqb9o","sub16","04","02","feedback","test","null","","","na","","120","",""
"1922.9000000003725","378356","HierDypgldqb9o","sub16","04","02","rl","test","75","img/b_d_check.png","7","75","color,pattern,shape","121","1",""
"null","379363","HierDypgldqb9o","sub16","04","02","feedback","test","null","","","na","","121","",""
"1367.9000000003725","380733","HierDypgldqb9o","sub16","04","02","rl","test","68","img/o_d_check.png","3","68","color,pattern,shape","122","1",""
"null","381738","HierDypgldqb9o","sub16","04","02","feedback","test","null","","","na","","122","",""
"597.9000000003725","382338","HierDypgldqb9o","sub16","04","02","rl","test","68","img/o_d_check.png","3","68","color,pattern,shape","123","1",""
"null","383347","HierDypgldqb9o","sub16","04","02","feedback","test","null","","","na","","123","",""
"1135.2999999988824","384484","HierDypgldqb9o","sub16","04","02","rl","test","65","img/o_d_stripes.png","1","65","color,pattern,shape","124","1",""
"null","385491","HierDypgldqb9o","sub16","04","02","feedback","test","null","","","na","","124","",""
"895.2000000011176","386388","HierDypgldqb9o","sub16","04","02","rl","test","70","img/o_s_check.png","4","70","color,pattern,shape","125","1",""
"null","387394","HierDypgldqb9o","sub16","04","02","feedback","test","null","","","na","","125","",""
"740.3000000007451","388136","HierDypgldqb9o","sub16","04","02","rl","test","74","img/b_s_stripes.png","6","74","color,pattern,shape","126","1",""
"null","389143","HierDypgldqb9o","sub16","04","02","feedback","test","null","","","na","","126","",""
"741.5999999996275","389886","HierDypgldqb9o","sub16","04","02","rl","test","83","img/o_s_stripes.png","2","83","color,pattern,shape","127","1",""
"null","390900","HierDypgldqb9o","sub16","04","02","feedback","test","null","","","na","","127","",""
"846.3000000007451","391748","HierDypgldqb9o","sub16","04","02","rl","test","74","img/b_s_stripes.png","6","74","color,pattern,shape","128","1",""
"null","392755","HierDypgldqb9o","sub16","04","02","feedback","test","null","","","na","","128","",""
"748.5999999996275","393505","HierDypgldqb9o","sub16","04","02","rl","test","72","img/b_d_stripes.png","5","72","color,pattern,shape","129","1",""
"null","394512","HierDypgldqb9o","sub16","04","02","feedback","test","null","","","na","","129","",""
"706.8999999985099","395220","HierDypgldqb9o","sub16","04","02","rl","test","70","img/o_s_check.png","4","70","color,pattern,shape","130","1",""
"null","396227","HierDypgldqb9o","sub16","04","02","feedback","test","null","","","na","","130","",""
"943.2999999988824","397172","HierDypgldqb9o","sub16","04","02","rl","test","65","img/o_d_stripes.png","1","65","color,pattern,shape","131","1",""
"null","398176","HierDypgldqb9o","sub16","04","02","feedback","test","null","","","na","","131","",""
"1485.4000000003725","399663","HierDypgldqb9o","sub16","04","02","rl","test","76","img/b_s_check.png","8","76","color,pattern,shape","132","1",""
"null","400676","HierDypgldqb9o","sub16","04","02","feedback","test","null","","","na","","132","",""
"946.0999999996275","401624","HierDypgldqb9o","sub16","04","02","rl","test","83","img/o_s_stripes.png","2","83","color,pattern,shape","133","1",""
"null","402631","HierDypgldqb9o","sub16","04","02","feedback","test","null","","","na","","133","",""
"1514.7000000011176","404147","HierDypgldqb9o","sub16","04","02","rl","test","72","img/b_d_stripes.png","5","72","color,pattern,shape","134","1",""
"null","405152","HierDypgldqb9o","sub16","04","02","feedback","test","null","","","na","","134","",""
"1064.5","406219","HierDypgldqb9o","sub16","04","02","rl","test","76","img/b_s_check.png","8","76","color,pattern,shape","135","1",""
"null","407226","HierDypgldqb9o","sub16","04","02","feedback","test","null","","","na","","135","",""
"897.2000000011176","408125","HierDypgldqb9o","sub16","04","02","rl","test","75","img/b_d_check.png","7","75","color,pattern,shape","136","1",""
"null","409141","HierDypgldqb9o","sub16","04","02","feedback","test","null","","","na","","136","",""
"1336.5","410479","HierDypgldqb9o","sub16","04","02","rl","test","83","img/o_d_check.png","3","68","color,pattern,shape","137","0",""
"null","411490","HierDypgldqb9o","sub16","04","02","feedback","test","null","","","na","","137","",""
"1126.0999999996275","412618","HierDypgldqb9o","sub16","04","02","rl","test","65","img/o_d_stripes.png","1","65","color,pattern,shape","138","1",""
"null","413626","HierDypgldqb9o","sub16","04","02","feedback","test","null","","","na","","138","",""
"852.5","414480","HierDypgldqb9o","sub16","04","02","rl","test","70","img/o_s_check.png","4","70","color,pattern,shape","139","1",""
"null","415487","HierDypgldqb9o","sub16","04","02","feedback","test","null","","","na","","139","",""
"1515.9000000003725","417004","HierDypgldqb9o","sub16","04","02","rl","test","75","img/b_s_stripes.png","6","74","color,pattern,shape","140","0",""
"null","418019","HierDypgldqb9o","sub16","04","02","feedback","test","null","","","na","","140","",""
"1183.4000000003725","419204","HierDypgldqb9o","sub16","04","02","rl","test","83","img/o_d_check.png","3","68","color,pattern,shape","141","0",""
"null","420216","HierDypgldqb9o","sub16","04","02","feedback","test","null","","","na","","141","",""
"1305.3999999985099","421523","HierDypgldqb9o","sub16","04","02","rl","test","75","img/b_d_check.png","7","75","color,pattern,shape","142","1",""
"null","422530","HierDypgldqb9o","sub16","04","02","feedback","test","null","","","na","","142","",""
"1131.2000000011176","423662","HierDypgldqb9o","sub16","04","02","rl","test","83","img/o_s_stripes.png","2","83","color,pattern,shape","143","1",""
"null","424674","HierDypgldqb9o","sub16","04","02","feedback","test","null","","","na","","143","",""
"1523.699999999255","426199","HierDypgldqb9o","sub16","04","02","rl","test","75","img/b_d_check.png","7","75","color,pattern,shape","144","1",""
"null","427206","HierDypgldqb9o","sub16","04","02","feedback","test","null","","","na","","144","",""
"2223.4000000003725","429431","HierDypgldqb9o","sub16","04","02","rl","test","72","img/b_d_stripes.png","5","72","color,pattern,shape","145","1",""
"null","430441","HierDypgldqb9o","sub16","04","02","feedback","test","null","","","na","","145","",""
"740.3000000007451","431183","HierDypgldqb9o","sub16","04","02","rl","test","72","img/b_d_stripes.png","5","72","color,pattern,shape","146","1",""
"null","432194","HierDypgldqb9o","sub16","04","02","feedback","test","null","","","na","","146","",""
"889.5","433085","HierDypgldqb9o","sub16","04","02","rl","test","65","img/o_d_stripes.png","1","65","color,pattern,shape","147","1",""
"null","434093","HierDypgldqb9o","sub16","04","02","feedback","test","null","","","na","","147","",""
"995.8000000007451","435090","HierDypgldqb9o","sub16","04","02","rl","test","83","img/b_s_check.png","8","76","color,pattern,shape","148","0",""
"null","436098","HierDypgldqb9o","sub16","04","02","feedback","test","null","","","na","","148","",""
"1491.7000000011176","437591","HierDypgldqb9o","sub16","04","02","rl","test","68","img/o_d_check.png","3","68","color,pattern,shape","149","1",""
"null","438598","HierDypgldqb9o","sub16","04","02","feedback","test","null","","","na","","149","",""
"1396.8999999985099","439997","HierDypgldqb9o","sub16","04","02","rl","test","83","img/o_s_stripes.png","2","83","color,pattern,shape","150","1",""
"null","441010","HierDypgldqb9o","sub16","04","02","feedback","test","null","","","na","","150","",""
"1096.5","442108","HierDypgldqb9o","sub16","04","02","rl","test","75","img/b_s_check.png","8","76","color,pattern,shape","151","0",""
"null","443122","HierDypgldqb9o","sub16","04","02","feedback","test","null","","","na","","151","",""
"1019.4000000003725","444143","HierDypgldqb9o","sub16","04","02","rl","test","70","img/o_s_check.png","4","70","color,pattern,shape","152","1",""
"null","445152","HierDypgldqb9o","sub16","04","02","feedback","test","null","","","na","","152","",""
"659.5","445813","HierDypgldqb9o","sub16","04","02","rl","test","70","img/o_s_check.png","4","70","color,pattern,shape","153","1",""
"null","446824","HierDypgldqb9o","sub16","04","02","feedback","test","null","","","na","","153","",""
"1029.8999999985099","447855","HierDypgldqb9o","sub16","04","02","rl","test","74","img/b_s_stripes.png","6","74","color,pattern,shape","154","1",""
"null","448864","HierDypgldqb9o","sub16","04","02","feedback","test","null","","","na","","154","",""
"1021.6999999992549","449887","HierDypgldqb9o","sub16","04","02","rl","test","75","img/b_d_check.png","7","75","color,pattern,shape","155","1",""
"null","450894","HierDypgldqb9o","sub16","04","02","feedback","test","null","","","na","","155","",""
"1037","451933","HierDypgldqb9o","sub16","04","02","rl","test","83","img/o_s_stripes.png","2","83","color,pattern,shape","156","1",""
"null","452947","HierDypgldqb9o","sub16","04","02","feedback","test","null","","","na","","156","",""
"901.5999999996275","453850","HierDypgldqb9o","sub16","04","02","rl","test","65","img/o_d_stripes.png","1","65","color,pattern,shape","157","1",""
"null","454867","HierDypgldqb9o","sub16","04","02","feedback","test","null","","","na","","157","",""
"924.0999999996275","455793","HierDypgldqb9o","sub16","04","02","rl","test","74","img/b_s_stripes.png","6","74","color,pattern,shape","158","1",""
"null","456799","HierDypgldqb9o","sub16","04","02","feedback","test","null","","","na","","158","",""
"814.8000000007451","457615","HierDypgldqb9o","sub16","04","02","rl","test","65","img/o_d_stripes.png","1","65","color,pattern,shape","159","1",""
"null","458622","HierDypgldqb9o","sub16","04","02","feedback","test","null","","","na","","159","",""
"946.0999999996275","459570","HierDypgldqb9o","sub16","04","02","rl","test","68","img/o_d_check.png","3","68","color,pattern,shape","160","1",""
"null","460584","HierDypgldqb9o","sub16","04","02","feedback","test","null","","","na","","160","",""
"1040.1000000014901","461626","HierDypgldqb9o","sub16","04","02","rl","test","72","img/b_d_stripes.png","5","72","color,pattern,shape","161","1",""
"null","462631","HierDypgldqb9o","sub16","04","02","feedback","test","null","","","na","","161","",""
"846.2999999988824","463479","HierDypgldqb9o","sub16","04","02","rl","test","83","img/o_s_stripes.png","2","83","color,pattern,shape","162","1",""
"null","464488","HierDypgldqb9o","sub16","04","02","feedback","test","null","","","na","","162","",""
"1318.5","465808","HierDypgldqb9o","sub16","04","02","rl","test","68","img/o_d_check.png","3","68","color,pattern,shape","163","1",""
"null","466815","HierDypgldqb9o","sub16","04","02","feedback","test","null","","","na","","163","",""
"765.5","467582","HierDypgldqb9o","sub16","04","02","rl","test","72","img/b_d_stripes.png","5","72","color,pattern,shape","164","1",""
"null","468589","HierDypgldqb9o","sub16","04","02","feedback","test","null","","","na","","164","",""
"776.7000000011176","469367","HierDypgldqb9o","sub16","04","02","rl","test","70","img/o_s_check.png","4","70","color,pattern,shape","165","1",""
"null","470376","HierDypgldqb9o","sub16","04","02","feedback","test","null","","","na","","165","",""
"1142.4000000003725","471520","HierDypgldqb9o","sub16","04","02","rl","test","75","img/b_s_check.png","8","76","color,pattern,shape","166","0",""
"null","472526","HierDypgldqb9o","sub16","04","02","feedback","test","null","","","na","","166","",""
"1076.3999999985099","473604","HierDypgldqb9o","sub16","04","02","rl","test","75","img/b_d_check.png","7","75","color,pattern,shape","167","1",""
"null","474614","HierDypgldqb9o","sub16","04","02","feedback","test","null","","","na","","167","",""
"1104.699999999255","475720","HierDypgldqb9o","sub16","04","02","rl","test","74","img/b_s_stripes.png","6","74","color,pattern,shape","168","1",""
"null","476724","HierDypgldqb9o","sub16","04","02","feedback","test","null","","","na","","168","",""
"1448.300000000745","478174","HierDypgldqb9o","sub16","04","02","rl","test","72","img/b_d_stripes.png","5","72","color,pattern,shape","169","1",""
"null","479182","HierDypgldqb9o","sub16","04","02","feedback","test","null","","","na","","169","",""
"641.5","479825","HierDypgldqb9o","sub16","04","02","rl","test","70","img/o_s_check.png","4","70","color,pattern,shape","170","1",""
"null","480840","HierDypgldqb9o","sub16","04","02","feedback","test","null","","","na","","170","",""
"1183.9000000003725","482025","HierDypgldqb9o","sub16","04","02","rl","test","75","img/b_d_check.png","7","75","color,pattern,shape","171","1",""
"null","483040","HierDypgldqb9o","sub16","04","02","feedback","test","null","","","na","","171","",""
"1202.300000000745","484244","HierDypgldqb9o","sub16","04","02","rl","test","68","img/o_d_check.png","3","68","color,pattern,shape","172","1",""
"null","485252","HierDypgldqb9o","sub16","04","02","feedback","test","null","","","na","","172","",""
"1295.199999999255","486549","HierDypgldqb9o","sub16","04","02","rl","test","74","img/b_d_check.png","7","75","color,pattern,shape","173","0",""
"null","487556","HierDypgldqb9o","sub16","04","02","feedback","test","null","","","na","","173","",""
"818.5","488376","HierDypgldqb9o","sub16","04","02","rl","test","65","img/o_d_stripes.png","1","65","color,pattern,shape","174","1",""
"null","489383","HierDypgldqb9o","sub16","04","02","feedback","test","null","","","na","","174","",""
"1046.3999999985099","490431","HierDypgldqb9o","sub16","04","02","rl","test","83","img/o_s_stripes.png","2","83","color,pattern,shape","175","1",""
"null","491438","HierDypgldqb9o","sub16","04","02","feedback","test","null","","","na","","175","",""
"935.5999999996275","492375","HierDypgldqb9o","sub16","04","02","rl","test","74","img/b_s_stripes.png","6","74","color,pattern,shape","176","1",""
"null","493379","HierDypgldqb9o","sub16","04","02","feedback","test","null","","","na","","176","",""
"930.6000000014901","494312","HierDypgldqb9o","sub16","04","02","rl","test","70","img/o_s_check.png","4","70","color,pattern,shape","177","1",""
"null","495317","HierDypgldqb9o","sub16","04","02","feedback","test","null","","","na","","177","",""
"954.6000000014901","496274","HierDypgldqb9o","sub16","04","02","rl","test","75","img/b_s_check.png","8","76","color,pattern,shape","178","0",""
"null","497283","HierDypgldqb9o","sub16","04","02","feedback","test","null","","","na","","178","",""
"944.8000000007451","498230","HierDypgldqb9o","sub16","04","02","rl","test","75","img/b_s_check.png","8","76","color,pattern,shape","179","0",""
"null","499235","HierDypgldqb9o","sub16","04","02","feedback","test","null","","","na","","179","",""
"865.3000000007451","500102","HierDypgldqb9o","sub16","04","02","rl","test","72","img/b_d_stripes.png","5","72","color,pattern,shape","180","1",""
"null","501107","HierDypgldqb9o","sub16","04","02","feedback","test","null","","","na","","180","",""
"1345","502453","HierDypgldqb9o","sub16","04","02","rl","test","83","img/o_d_check.png","3","68","color,pattern,shape","181","0",""
"null","503461","HierDypgldqb9o","sub16","04","02","feedback","test","null","","","na","","181","",""
"1490","504953","HierDypgldqb9o","sub16","04","02","rl","test","65","img/o_d_stripes.png","1","65","color,pattern,shape","182","1",""
"null","505967","HierDypgldqb9o","sub16","04","02","feedback","test","null","","","na","","182","",""
"882.8000000007451","506851","HierDypgldqb9o","sub16","04","02","rl","test","74","img/b_s_stripes.png","6","74","color,pattern,shape","183","1",""
"null","507859","HierDypgldqb9o","sub16","04","02","feedback","test","null","","","na","","183","",""
"1562.9000000003725","509424","HierDypgldqb9o","sub16","04","02","rl","test","83","img/o_s_stripes.png","2","83","color,pattern,shape","184","1",""
"null","510429","HierDypgldqb9o","sub16","04","02","feedback","test","null","","","na","","184","",""
"1414.800000000745","511845","HierDypgldqb9o","sub16","04","02","rl","test","74","img/b_s_stripes.png","6","74","color,pattern,shape","185","1",""
"null","512852","HierDypgldqb9o","sub16","04","02","feedback","test","null","","","na","","185","",""
"1924","514778","HierDypgldqb9o","sub16","04","02","rl","test","68","img/o_d_check.png","3","68","color,pattern,shape","186","1",""
"null","515787","HierDypgldqb9o","sub16","04","02","feedback","test","null","","","na","","186","",""
"1021.4000000003725","516810","HierDypgldqb9o","sub16","04","02","rl","test","75","img/b_d_check.png","7","75","color,pattern,shape","187","1",""
"null","517818","HierDypgldqb9o","sub16","04","02","feedback","test","null","","","na","","187","",""
"1149.0999999996275","518969","HierDypgldqb9o","sub16","04","02","rl","test","83","img/o_s_stripes.png","2","83","color,pattern,shape","188","1",""
"null","519982","HierDypgldqb9o","sub16","04","02","feedback","test","null","","","na","","188","",""
"1152.4000000003725","521136","HierDypgldqb9o","sub16","04","02","rl","test","75","img/b_s_check.png","8","76","color,pattern,shape","189","0",""
"null","522152","HierDypgldqb9o","sub16","04","02","feedback","test","null","","","na","","189","",""
"709.5","522863","HierDypgldqb9o","sub16","04","02","rl","test","70","img/o_s_check.png","4","70","color,pattern,shape","190","1",""
"null","523869","HierDypgldqb9o","sub16","04","02","feedback","test","null","","","na","","190","",""
"877.3999999985099","524748","HierDypgldqb9o","sub16","04","02","rl","test","74","img/b_d_stripes.png","5","72","color,pattern,shape","191","0",""
"null","525753","HierDypgldqb9o","sub16","04","02","feedback","test","null","","","na","","191","",""
"551.9000000003725","526306","HierDypgldqb9o","sub16","04","02","rl","test","72","img/b_d_stripes.png","5","72","color,pattern,shape","192","1",""
"null","527313","HierDypgldqb9o","sub16","04","02","feedback","test","null","","","na","","192","",""
"1382.5999999996275","528697","HierDypgldqb9o","sub16","04","02","rl","test","70","img/o_s_check.png","4","70","color,pattern,shape","193","1",""
"null","529706","HierDypgldqb9o","sub16","04","02","feedback","test","null","","","na","","193","",""
"878.4000000003725","530586","HierDypgldqb9o","sub16","04","02","rl","test","65","img/o_d_stripes.png","1","65","color,pattern,shape","194","1",""
"null","531593","HierDypgldqb9o","sub16","04","02","feedback","test","null","","","na","","194","",""
"1013.3999999985099","532608","HierDypgldqb9o","sub16","04","02","rl","test","75","img/b_s_check.png","8","76","color,pattern,shape","195","0",""
"null","533621","HierDypgldqb9o","sub16","04","02","feedback","test","null","","","na","","195","",""
"1088.800000000745","534712","HierDypgldqb9o","sub16","04","02","rl","test","68","img/o_d_check.png","3","68","color,pattern,shape","196","1",""
"null","535722","HierDypgldqb9o","sub16","04","02","feedback","test","null","","","na","","196","",""
"800.0999999996275","536524","HierDypgldqb9o","sub16","04","02","rl","test","65","img/o_d_stripes.png","1","65","color,pattern,shape","197","1",""
"null","537530","HierDypgldqb9o","sub16","04","02","feedback","test","null","","","na","","197","",""
"1123.7000000011176","538656","HierDypgldqb9o","sub16","04","02","rl","test","74","img/b_s_stripes.png","6","74","color,pattern,shape","198","1",""
"null","539669","HierDypgldqb9o","sub16","04","02","feedback","test","null","","","na","","198","",""
"853.0999999996275","540524","HierDypgldqb9o","sub16","04","02","rl","test","83","img/o_s_stripes.png","2","83","color,pattern,shape","199","1",""
"null","541530","HierDypgldqb9o","sub16","04","02","feedback","test","null","","","na","","199","",""
"638.0999999996275","542170","HierDypgldqb9o","sub16","04","02","rl","test","83","img/o_s_stripes.png","2","83","color,pattern,shape","200","1",""
"null","543176","HierDypgldqb9o","sub16","04","02","feedback","test","null","","","na","","200","",""
"807.7000000011176","543986","HierDypgldqb9o","sub16","04","02","rl","test","75","img/b_d_check.png","7","75","color,pattern,shape","201","1",""
"null","544992","HierDypgldqb9o","sub16","04","02","feedback","test","null","","","na","","201","",""
"583.5999999996275","545576","HierDypgldqb9o","sub16","04","02","rl","test","75","img/b_s_check.png","8","76","color,pattern,shape","202","0",""
"null","546584","HierDypgldqb9o","sub16","04","02","feedback","test","null","","","na","","202","",""
"871.5999999996275","547457","HierDypgldqb9o","sub16","04","02","rl","test","75","img/b_d_check.png","7","75","color,pattern,shape","203","1",""
"null","548465","HierDypgldqb9o","sub16","04","02","feedback","test","null","","","na","","203","",""
"1205.699999999255","549673","HierDypgldqb9o","sub16","04","02","rl","test","83","img/o_d_check.png","3","68","color,pattern,shape","204","0",""
"null","550680","HierDypgldqb9o","sub16","04","02","feedback","test","null","","","na","","204","",""
"836.6999999992549","551519","HierDypgldqb9o","sub16","04","02","rl","test","72","img/b_s_stripes.png","6","74","color,pattern,shape","205","0",""
"null","552532","HierDypgldqb9o","sub16","04","02","feedback","test","null","","","na","","205","",""
"708.0999999996275","553242","HierDypgldqb9o","sub16","04","02","rl","test","72","img/b_d_stripes.png","5","72","color,pattern,shape","206","1",""
"null","554249","HierDypgldqb9o","sub16","04","02","feedback","test","null","","","na","","206","",""
"836.3000000007451","555086","HierDypgldqb9o","sub16","04","02","rl","test","75","img/b_d_check.png","7","75","color,pattern,shape","207","1",""
"null","556092","HierDypgldqb9o","sub16","04","02","feedback","test","null","","","na","","207","",""
"767.1999999992549","556861","HierDypgldqb9o","sub16","04","02","rl","test","70","img/o_s_check.png","4","70","color,pattern,shape","208","1",""
"null","557868","HierDypgldqb9o","sub16","04","02","feedback","test","null","","","na","","208","",""
"1221","559091","HierDypgldqb9o","sub16","04","02","rl","test","70","img/o_s_check.png","4","70","color,pattern,shape","209","1",""
"null","560095","HierDypgldqb9o","sub16","04","02","feedback","test","null","","","na","","209","",""
"908.5999999996275","561005","HierDypgldqb9o","sub16","04","02","rl","test","65","img/o_d_stripes.png","1","65","color,pattern,shape","210","1",""
"null","562008","HierDypgldqb9o","sub16","04","02","feedback","test","null","","","na","","210","",""
"769.5","562780","HierDypgldqb9o","sub16","04","02","rl","test","72","img/b_d_stripes.png","5","72","color,pattern,shape","211","1",""
"null","563788","HierDypgldqb9o","sub16","04","02","feedback","test","null","","","na","","211","",""
"890.4000000003725","564680","HierDypgldqb9o","sub16","04","02","rl","test","83","img/o_s_stripes.png","2","83","color,pattern,shape","212","1",""
"null","565692","HierDypgldqb9o","sub16","04","02","feedback","test","null","","","na","","212","",""
"903.0999999996275","566597","HierDypgldqb9o","sub16","04","02","rl","test","74","img/b_s_stripes.png","6","74","color,pattern,shape","213","1",""
"null","567603","HierDypgldqb9o","sub16","04","02","feedback","test","null","","","na","","213","",""
"937.4000000003725","568542","HierDypgldqb9o","sub16","04","02","rl","test","65","img/o_d_stripes.png","1","65","color,pattern,shape","214","1",""
"null","569553","HierDypgldqb9o","sub16","04","02","feedback","test","null","","","na","","214","",""
"758.5","570313","HierDypgldqb9o","sub16","04","02","rl","test","70","img/o_s_check.png","4","70","color,pattern,shape","215","1",""
"null","571319","HierDypgldqb9o","sub16","04","02","feedback","test","null","","","na","","215","",""
"1670.5","572991","HierDypgldqb9o","sub16","04","02","rl","test","75","img/b_s_check.png","8","76","color,pattern,shape","216","0",""
"null","574000","HierDypgldqb9o","sub16","04","02","feedback","test","null","","","na","","216","",""
"969.2000000011176","574971","HierDypgldqb9o","sub16","04","02","rl","test","72","img/o_d_check.png","3","68","color,pattern,shape","217","0",""
"null","575976","HierDypgldqb9o","sub16","04","02","feedback","test","null","","","na","","217","",""
"1230.5","577208","HierDypgldqb9o","sub16","04","02","rl","test","75","img/b_s_check.png","8","76","color,pattern,shape","218","0",""
"null","578215","HierDypgldqb9o","sub16","04","02","feedback","test","null","","","na","","218","",""
"1145.800000000745","579362","HierDypgldqb9o","sub16","04","02","rl","test","65","img/o_d_stripes.png","1","65","color,pattern,shape","219","1",""
"null","580371","HierDypgldqb9o","sub16","04","02","feedback","test","null","","","na","","219","",""
"1032.0999999996275","581404","HierDypgldqb9o","sub16","04","02","rl","test","72","img/b_d_stripes.png","5","72","color,pattern,shape","220","1",""
"null","582409","HierDypgldqb9o","sub16","04","02","feedback","test","null","","","na","","220","",""
"1768.5","584179","HierDypgldqb9o","sub16","04","02","rl","test","70","img/o_d_check.png","3","68","color,pattern,shape","221","0",""
"null","585186","HierDypgldqb9o","sub16","04","02","feedback","test","null","","","na","","221","",""
"1140.7999999988824","586328","HierDypgldqb9o","sub16","04","02","rl","test","76","img/b_d_check.png","7","75","color,pattern,shape","222","0",""
"null","587336","HierDypgldqb9o","sub16","04","02","feedback","test","null","","","na","","222","",""
"906.8000000007451","588244","HierDypgldqb9o","sub16","04","02","rl","test","74","img/b_s_stripes.png","6","74","color,pattern,shape","223","1",""
"null","589259","HierDypgldqb9o","sub16","04","02","feedback","test","null","","","na","","223","",""
"971","590232","HierDypgldqb9o","sub16","04","02","rl","test","83","img/o_d_check.png","3","68","color,pattern,shape","224","0",""
"null","591242","HierDypgldqb9o","sub16","04","02","feedback","test","null","","","na","","224","",""
"931.5999999996275","592175","HierDypgldqb9o","sub16","04","02","rl","test","65","img/o_d_stripes.png","1","65","color,pattern,shape","225","1",""
"null","593182","HierDypgldqb9o","sub16","04","02","feedback","test","null","","","na","","225","",""
"898.6999999992549","594082","HierDypgldqb9o","sub16","04","02","rl","test","83","img/o_s_stripes.png","2","83","color,pattern,shape","226","1",""
"null","595087","HierDypgldqb9o","sub16","04","02","feedback","test","null","","","na","","226","",""
"699.8000000007451","595788","HierDypgldqb9o","sub16","04","02","rl","test","70","img/o_s_check.png","4","70","color,pattern,shape","227","1",""
"null","596794","HierDypgldqb9o","sub16","04","02","feedback","test","null","","","na","","227","",""
"789.2000000011176","597585","HierDypgldqb9o","sub16","04","02","rl","test","72","img/b_d_stripes.png","5","72","color,pattern,shape","228","1",""
"null","598592","HierDypgldqb9o","sub16","04","02","feedback","test","null","","","na","","228","",""
"924.1999999992549","599518","HierDypgldqb9o","sub16","04","02","rl","test","75","img/b_d_check.png","7","75","color,pattern,shape","229","1",""
"null","600526","HierDypgldqb9o","sub16","04","02","feedback","test","null","","","na","","229","",""
"731.0999999996275","601259","HierDypgldqb9o","sub16","04","02","rl","test","72","img/b_d_stripes.png","5","72","color,pattern,shape","230","1",""
"null","602266","HierDypgldqb9o","sub16","04","02","feedback","test","null","","","na","","230","",""
"775.4000000003725","603043","HierDypgldqb9o","sub16","04","02","rl","test","83","img/o_s_stripes.png","2","83","color,pattern,shape","231","1",""
"null","604049","HierDypgldqb9o","sub16","04","02","feedback","test","null","","","na","","231","",""
"986.1999999992549","605037","HierDypgldqb9o","sub16","04","02","rl","test","74","img/b_s_stripes.png","6","74","color,pattern,shape","232","1",""
"null","606047","HierDypgldqb9o","sub16","04","02","feedback","test","null","","","na","","232","",""
"1361.9000000003725","607410","HierDypgldqb9o","sub16","04","02","rl","test","76","img/b_s_check.png","8","76","color,pattern,shape","233","1",""
"null","608416","HierDypgldqb9o","sub16","04","02","feedback","test","null","","","na","","233","",""
"860.4000000003725","609278","HierDypgldqb9o","sub16","04","02","rl","test","76","img/b_s_check.png","8","76","color,pattern,shape","234","1",""
"null","610289","HierDypgldqb9o","sub16","04","02","feedback","test","null","","","na","","234","",""
"1053.5999999996275","611344","HierDypgldqb9o","sub16","04","02","rl","test","75","img/b_d_check.png","7","75","color,pattern,shape","235","1",""
"null","612350","HierDypgldqb9o","sub16","04","02","feedback","test","null","","","na","","235","",""
"1380.800000000745","613732","HierDypgldqb9o","sub16","04","02","rl","test","65","img/o_d_stripes.png","1","65","color,pattern,shape","236","1",""
"null","614746","HierDypgldqb9o","sub16","04","02","feedback","test","null","","","na","","236","",""
"673.4000000003725","615421","HierDypgldqb9o","sub16","04","02","rl","test","70","img/o_s_check.png","4","70","color,pattern,shape","237","1",""
"null","616434","HierDypgldqb9o","sub16","04","02","feedback","test","null","","","na","","237","",""
"1907.4000000003725","618343","HierDypgldqb9o","sub16","04","02","rl","test","75","img/b_d_check.png","7","75","color,pattern,shape","238","1",""
"null","619351","HierDypgldqb9o","sub16","04","02","feedback","test","null","","","na","","238","",""
"1273.2999999988824","620626","HierDypgldqb9o","sub16","04","02","rl","test","68","img/o_d_check.png","3","68","color,pattern,shape","239","1",""
"null","621630","HierDypgldqb9o","sub16","04","02","feedback","test","null","","","na","","239","",""
"1068.7999999988824","622700","HierDypgldqb9o","sub16","04","02","rl","test","74","img/b_s_stripes.png","6","74","color,pattern,shape","240","1",""
"null","623709","HierDypgldqb9o","sub16","04","02","feedback","test","null","","","na","","240","",""
"1192.7999999988824","624904","HierDypgldqb9o","sub16","04","02","rl","test","83","img/o_s_stripes.png","2","83","color,pattern,shape","241","1",""
"null","625911","HierDypgldqb9o","sub16","04","02","feedback","test","null","","","na","","241","",""
"1722.300000000745","627635","HierDypgldqb9o","sub16","04","02","rl","test","68","img/o_d_check.png","3","68","color,pattern,shape","242","1",""
"null","628647","HierDypgldqb9o","sub16","04","02","feedback","test","null","","","na","","242","",""
"1288.8999999985099","629937","HierDypgldqb9o","sub16","04","02","rl","test","65","img/o_d_stripes.png","1","65","color,pattern,shape","243","1",""
"null","630942","HierDypgldqb9o","sub16","04","02","feedback","test","null","","","na","","243","",""
"845.8999999985099","631790","HierDypgldqb9o","sub16","04","02","rl","test","74","img/b_s_stripes.png","6","74","color,pattern,shape","244","1",""
"null","632796","HierDypgldqb9o","sub16","04","02","feedback","test","null","","","na","","244","",""
"942.2999999988824","633740","HierDypgldqb9o","sub16","04","02","rl","test","72","img/b_d_stripes.png","5","72","color,pattern,shape","245","1",""
"null","634750","HierDypgldqb9o","sub16","04","02","feedback","test","null","","","na","","245","",""
"1206.300000000745","635958","HierDypgldqb9o","sub16","04","02","rl","test","83","img/o_s_stripes.png","2","83","color,pattern,shape","246","1",""
"null","636964","HierDypgldqb9o","sub16","04","02","feedback","test","null","","","na","","246","",""
"1587.6000000014901","638553","HierDypgldqb9o","sub16","04","02","rl","test","76","img/b_s_check.png","8","76","color,pattern,shape","247","1",""
"null","639559","HierDypgldqb9o","sub16","04","02","feedback","test","null","","","na","","247","",""
"760.4000000003725","640321","HierDypgldqb9o","sub16","04","02","rl","test","70","img/o_s_check.png","4","70","color,pattern,shape","248","1",""
"null","641329","HierDypgldqb9o","sub16","04","02","feedback","test","null","","","na","","248","",""
"18190.10000000149","659526","HierDypgldqb9o","sub16","04","02","","","","","","","","","","{""Q0"":""6""}"
"55984.29999999888","715512","HierDypgldqb9o","sub16","04","02","","","","","","","","","","{""Q0"":""Blue= right and orange = left ; shapes on left are on opposite fingers than shape on right; made a streak in my head to try not to break them and keep going.""}"
"4367.5","719880","HierDypgldqb9o","sub16","04","02","","","","","","","","","",""
