"rt","time_elapsed","subject","subID","group","day","trialType","key_press","stim","corrresp","phase","stimNum","trialNum","corr","repeatTrial","motorSwitch","pracCounter","hierarchy","responses"
"86955","86993","HierDyjn1krfhm","02","02","1","","","","","","","","","","","","",""
"","88640","HierDyjn1krfhm","02","02","1","fullscreen","","","","","","","","","","","",""
"47407","136059","HierDyjn1krfhm","02","02","1","","","","","","","","","","","","",""
"912","136986","HierDyjn1krfhm","02","02","1","motor","76","img/motor_8.png","76","motor","8","1","1","0","0","","",""
"null","137099","HierDyjn1krfhm","02","02","1","iti","null","img/motor_8.png","76","motor","","","","","","","",""
"489","137600","HierDyjn1krfhm","02","02","1","motor","75","img/motor_7.png","75","motor","7","2","1","0","0","","",""
"null","137713","HierDyjn1krfhm","02","02","1","iti","null","img/motor_7.png","75","motor","","","","","","","",""
"552","138276","HierDyjn1krfhm","02","02","1","motor","72","img/motor_5.png","72","motor","5","3","1","0","0","","",""
"null","138389","HierDyjn1krfhm","02","02","1","iti","null","img/motor_5.png","72","motor","","","","","","","",""
"448","138850","HierDyjn1krfhm","02","02","1","motor","76","img/motor_8.png","76","motor","8","4","1","0","0","","",""
"null","138963","HierDyjn1krfhm","02","02","1","iti","null","img/motor_8.png","76","motor","","","","","","","",""
"440","139414","HierDyjn1krfhm","02","02","1","motor","72","img/motor_5.png","72","motor","5","5","1","0","0","","",""
"null","139528","HierDyjn1krfhm","02","02","1","iti","null","img/motor_5.png","72","motor","","","","","","","",""
"996","140535","HierDyjn1krfhm","02","02","1","motor","68","img/motor_3.png","68","motor","3","6","1","0","0","","",""
"null","140647","HierDyjn1krfhm","02","02","1","iti","null","img/motor_3.png","68","motor","","","","","","","",""
"382","141040","HierDyjn1krfhm","02","02","1","motor","68","img/motor_3.png","68","motor","3","7","1","0","0","","",""
"null","141151","HierDyjn1krfhm","02","02","1","iti","null","img/motor_3.png","68","motor","","","","","","","",""
"404","141566","HierDyjn1krfhm","02","02","1","motor","76","img/motor_8.png","76","motor","8","8","1","0","0","","",""
"null","141676","HierDyjn1krfhm","02","02","1","iti","null","img/motor_8.png","76","motor","","","","","","","",""
"478","142163","HierDyjn1krfhm","02","02","1","motor","75","img/motor_7.png","75","motor","7","9","1","0","0","","",""
"null","142271","HierDyjn1krfhm","02","02","1","iti","null","img/motor_7.png","75","motor","","","","","","","",""
"637","142917","HierDyjn1krfhm","02","02","1","motor","83","img/motor_2.png","83","motor","2","10","1","0","0","","",""
"null","143024","HierDyjn1krfhm","02","02","1","iti","null","img/motor_2.png","83","motor","","","","","","","",""
"670","143701","HierDyjn1krfhm","02","02","1","motor","70","img/motor_4.png","70","motor","4","11","1","0","0","","",""
"null","143810","HierDyjn1krfhm","02","02","1","iti","null","img/motor_4.png","70","motor","","","","","","","",""
"596","144413","HierDyjn1krfhm","02","02","1","motor","83","img/motor_2.png","83","motor","2","12","1","0","0","","",""
"null","144522","HierDyjn1krfhm","02","02","1","iti","null","img/motor_2.png","83","motor","","","","","","","",""
"497","145023","HierDyjn1krfhm","02","02","1","motor","65","img/motor_1.png","65","motor","1","13","1","0","0","","",""
"null","145131","HierDyjn1krfhm","02","02","1","iti","null","img/motor_1.png","65","motor","","","","","","","",""
"482","145621","HierDyjn1krfhm","02","02","1","motor","83","img/motor_2.png","83","motor","2","14","1","0","0","","",""
"null","145726","HierDyjn1krfhm","02","02","1","iti","null","img/motor_2.png","83","motor","","","","","","","",""
"752","146483","HierDyjn1krfhm","02","02","1","motor","74","img/motor_6.png","74","motor","6","15","1","0","0","","",""
"null","146592","HierDyjn1krfhm","02","02","1","iti","null","img/motor_6.png","74","motor","","","","","","","",""
"448","147045","HierDyjn1krfhm","02","02","1","motor","75","img/motor_7.png","75","motor","7","16","1","0","0","","",""
"null","147152","HierDyjn1krfhm","02","02","1","iti","null","img/motor_7.png","75","motor","","","","","","","",""
"291","147450","HierDyjn1krfhm","02","02","1","motor","76","img/motor_8.png","76","motor","8","17","1","0","0","","",""
"null","147557","HierDyjn1krfhm","02","02","1","iti","null","img/motor_8.png","76","motor","","","","","","","",""
"459","148024","HierDyjn1krfhm","02","02","1","motor","65","img/motor_1.png","65","motor","1","18","1","0","0","","",""
"null","148130","HierDyjn1krfhm","02","02","1","iti","null","img/motor_1.png","65","motor","","","","","","","",""
"455","148591","HierDyjn1krfhm","02","02","1","motor","76","img/motor_8.png","76","motor","8","19","1","0","0","","",""
"null","148698","HierDyjn1krfhm","02","02","1","iti","null","img/motor_8.png","76","motor","","","","","","","",""
"778","149480","HierDyjn1krfhm","02","02","1","motor","68","img/motor_3.png","68","motor","3","20","1","0","0","","",""
"null","149588","HierDyjn1krfhm","02","02","1","iti","null","img/motor_3.png","68","motor","","","","","","","",""
"443","150038","HierDyjn1krfhm","02","02","1","motor","76","img/motor_8.png","76","motor","8","21","1","0","0","","",""
"null","150145","HierDyjn1krfhm","02","02","1","iti","null","img/motor_8.png","76","motor","","","","","","","",""
"627","150779","HierDyjn1krfhm","02","02","1","motor","74","img/motor_6.png","74","motor","6","22","1","0","0","","",""
"null","150887","HierDyjn1krfhm","02","02","1","iti","null","img/motor_6.png","74","motor","","","","","","","",""
"553","151449","HierDyjn1krfhm","02","02","1","motor","72","img/motor_5.png","72","motor","5","23","1","0","0","","",""
"null","151556","HierDyjn1krfhm","02","02","1","iti","null","img/motor_5.png","72","motor","","","","","","","",""
"411","151975","HierDyjn1krfhm","02","02","1","motor","74","img/motor_6.png","74","motor","6","24","1","0","0","","",""
"null","152083","HierDyjn1krfhm","02","02","1","iti","null","img/motor_6.png","74","motor","","","","","","","",""
"577","152667","HierDyjn1krfhm","02","02","1","motor","70","img/motor_4.png","70","motor","4","25","1","0","0","","",""
"null","152775","HierDyjn1krfhm","02","02","1","iti","null","img/motor_4.png","70","motor","","","","","","","",""
"490","153275","HierDyjn1krfhm","02","02","1","motor","74","img/motor_6.png","74","motor","6","26","1","0","0","","",""
"null","153383","HierDyjn1krfhm","02","02","1","iti","null","img/motor_6.png","74","motor","","","","","","","",""
"421","153809","HierDyjn1krfhm","02","02","1","motor","72","img/motor_6.png","74","motor","6","27","0","1","0","","",""
"329","154146","HierDyjn1krfhm","02","02","1","motorRepeat","74","img/motor_6.png","74","motor","6","27","1","0","0","","",""
"null","154255","HierDyjn1krfhm","02","02","1","iti","null","img/motor_6.png","74","motor","","","","","","","",""
"875","155137","HierDyjn1krfhm","02","02","1","motor","83","img/motor_2.png","83","motor","2","28","1","0","0","","",""
"null","155247","HierDyjn1krfhm","02","02","1","iti","null","img/motor_2.png","83","motor","","","","","","","",""
"499","155751","HierDyjn1krfhm","02","02","1","motor","72","img/motor_5.png","72","motor","5","29","1","0","0","","",""
"null","155860","HierDyjn1krfhm","02","02","1","iti","null","img/motor_5.png","72","motor","","","","","","","",""
"524","156391","HierDyjn1krfhm","02","02","1","motor","75","img/motor_7.png","75","motor","7","30","1","0","0","","",""
"null","156499","HierDyjn1krfhm","02","02","1","iti","null","img/motor_7.png","75","motor","","","","","","","",""
"367","156873","HierDyjn1krfhm","02","02","1","motor","75","img/motor_7.png","75","motor","7","31","1","0","0","","",""
"null","156980","HierDyjn1krfhm","02","02","1","iti","null","img/motor_7.png","75","motor","","","","","","","",""
"748","157733","HierDyjn1krfhm","02","02","1","motor","68","img/motor_3.png","68","motor","3","32","1","0","0","","",""
"null","157840","HierDyjn1krfhm","02","02","1","iti","null","img/motor_3.png","68","motor","","","","","","","",""
"715","158562","HierDyjn1krfhm","02","02","1","motor","72","img/motor_5.png","72","motor","5","33","1","0","0","","",""
"null","158670","HierDyjn1krfhm","02","02","1","iti","null","img/motor_5.png","72","motor","","","","","","","",""
"586","159263","HierDyjn1krfhm","02","02","1","motor","70","img/motor_4.png","70","motor","4","34","1","0","0","","",""
"null","159370","HierDyjn1krfhm","02","02","1","iti","null","img/motor_4.png","70","motor","","","","","","","",""
"520","159898","HierDyjn1krfhm","02","02","1","motor","65","img/motor_1.png","65","motor","1","35","1","0","0","","",""
"null","160006","HierDyjn1krfhm","02","02","1","iti","null","img/motor_1.png","65","motor","","","","","","","",""
"312","160327","HierDyjn1krfhm","02","02","1","motor","65","img/motor_1.png","65","motor","1","36","1","0","0","","",""
"null","160435","HierDyjn1krfhm","02","02","1","iti","null","img/motor_1.png","65","motor","","","","","","","",""
"600","161043","HierDyjn1krfhm","02","02","1","motor","83","img/motor_2.png","83","motor","2","37","1","0","0","","",""
"null","161151","HierDyjn1krfhm","02","02","1","iti","null","img/motor_2.png","83","motor","","","","","","","",""
"150","161310","HierDyjn1krfhm","02","02","1","motor","83","img/motor_1.png","65","motor","1","38","0","1","0","","",""
"397","161715","HierDyjn1krfhm","02","02","1","motorRepeat","65","img/motor_1.png","65","motor","1","38","1","0","0","","",""
"null","161823","HierDyjn1krfhm","02","02","1","iti","null","img/motor_1.png","65","motor","","","","","","","",""
"473","162303","HierDyjn1krfhm","02","02","1","motor","65","img/motor_1.png","65","motor","1","39","1","0","0","","",""
"null","162411","HierDyjn1krfhm","02","02","1","iti","null","img/motor_1.png","65","motor","","","","","","","",""
"746","163165","HierDyjn1krfhm","02","02","1","motor","74","img/motor_6.png","74","motor","6","40","1","0","0","","",""
"null","163273","HierDyjn1krfhm","02","02","1","iti","null","img/motor_6.png","74","motor","","","","","","","",""
"722","164003","HierDyjn1krfhm","02","02","1","motor","76","img/motor_8.png","76","motor","8","41","1","0","0","","",""
"null","164110","HierDyjn1krfhm","02","02","1","iti","null","img/motor_8.png","76","motor","","","","","","","",""
"619","164737","HierDyjn1krfhm","02","02","1","motor","70","img/motor_4.png","70","motor","4","42","1","0","0","","",""
"null","164844","HierDyjn1krfhm","02","02","1","iti","null","img/motor_4.png","70","motor","","","","","","","",""
"334","165187","HierDyjn1krfhm","02","02","1","motor","70","img/motor_4.png","70","motor","4","43","1","0","0","","",""
"null","165294","HierDyjn1krfhm","02","02","1","iti","null","img/motor_4.png","70","motor","","","","","","","",""
"594","165896","HierDyjn1krfhm","02","02","1","motor","72","img/motor_5.png","72","motor","5","44","1","0","0","","",""
"null","166002","HierDyjn1krfhm","02","02","1","iti","null","img/motor_5.png","72","motor","","","","","","","",""
"623","166632","HierDyjn1krfhm","02","02","1","motor","83","img/motor_2.png","83","motor","2","45","1","0","0","","",""
"null","166739","HierDyjn1krfhm","02","02","1","iti","null","img/motor_2.png","83","motor","","","","","","","",""
"61","166807","HierDyjn1krfhm","02","02","1","motor","83","img/motor_7.png","75","motor","7","46","0","1","0","","",""
"580","167394","HierDyjn1krfhm","02","02","1","motorRepeat","75","img/motor_7.png","75","motor","7","46","1","0","0","","",""
"null","167501","HierDyjn1krfhm","02","02","1","iti","null","img/motor_7.png","75","motor","","","","","","","",""
"692","168203","HierDyjn1krfhm","02","02","1","motor","83","img/motor_2.png","83","motor","2","47","1","0","0","","",""
"null","168311","HierDyjn1krfhm","02","02","1","iti","null","img/motor_2.png","83","motor","","","","","","","",""
"542","168860","HierDyjn1krfhm","02","02","1","motor","70","img/motor_5.png","72","motor","5","48","0","1","0","","",""
"334","169202","HierDyjn1krfhm","02","02","1","motorRepeat","72","img/motor_5.png","72","motor","5","48","1","0","0","","",""
"null","169310","HierDyjn1krfhm","02","02","1","iti","null","img/motor_5.png","72","motor","","","","","","","",""
"544","169863","HierDyjn1krfhm","02","02","1","motor","76","img/motor_8.png","76","motor","8","49","1","0","0","","",""
"null","169970","HierDyjn1krfhm","02","02","1","iti","null","img/motor_8.png","76","motor","","","","","","","",""
"398","170376","HierDyjn1krfhm","02","02","1","motor","65","img/motor_1.png","65","motor","1","50","1","0","0","","",""
"null","170484","HierDyjn1krfhm","02","02","1","iti","null","img/motor_1.png","65","motor","","","","","","","",""
"450","170941","HierDyjn1krfhm","02","02","1","motor","76","img/motor_8.png","76","motor","8","51","1","0","0","","",""
"null","171049","HierDyjn1krfhm","02","02","1","iti","null","img/motor_8.png","76","motor","","","","","","","",""
"611","171666","HierDyjn1krfhm","02","02","1","motor","72","img/motor_5.png","72","motor","5","52","1","0","0","","",""
"null","171773","HierDyjn1krfhm","02","02","1","iti","null","img/motor_5.png","72","motor","","","","","","","",""
"542","172321","HierDyjn1krfhm","02","02","1","motor","70","img/motor_4.png","70","motor","4","53","1","0","0","","",""
"null","172429","HierDyjn1krfhm","02","02","1","iti","null","img/motor_4.png","70","motor","","","","","","","",""
"473","172909","HierDyjn1krfhm","02","02","1","motor","76","img/motor_8.png","76","motor","8","54","1","0","0","","",""
"null","173018","HierDyjn1krfhm","02","02","1","iti","null","img/motor_8.png","76","motor","","","","","","","",""
"708","173734","HierDyjn1krfhm","02","02","1","motor","83","img/motor_2.png","83","motor","2","55","1","0","0","","",""
"null","173843","HierDyjn1krfhm","02","02","1","iti","null","img/motor_2.png","83","motor","","","","","","","",""
"545","174394","HierDyjn1krfhm","02","02","1","motor","68","img/motor_3.png","68","motor","3","56","1","0","0","","",""
"null","174502","HierDyjn1krfhm","02","02","1","iti","null","img/motor_3.png","68","motor","","","","","","","",""
"528","175037","HierDyjn1krfhm","02","02","1","motor","76","img/motor_8.png","76","motor","8","57","1","0","0","","",""
"null","175147","HierDyjn1krfhm","02","02","1","iti","null","img/motor_8.png","76","motor","","","","","","","",""
"535","175686","HierDyjn1krfhm","02","02","1","motor","75","img/motor_7.png","75","motor","7","58","1","0","0","","",""
"null","175794","HierDyjn1krfhm","02","02","1","iti","null","img/motor_7.png","75","motor","","","","","","","",""
"527","176328","HierDyjn1krfhm","02","02","1","motor","70","img/motor_4.png","70","motor","4","59","1","0","0","","",""
"null","176436","HierDyjn1krfhm","02","02","1","iti","null","img/motor_4.png","70","motor","","","","","","","",""
"641","177083","HierDyjn1krfhm","02","02","1","motor","68","img/motor_3.png","68","motor","3","60","1","0","0","","",""
"null","177189","HierDyjn1krfhm","02","02","1","iti","null","img/motor_3.png","68","motor","","","","","","","",""
"355","177552","HierDyjn1krfhm","02","02","1","motor","65","img/motor_1.png","65","motor","1","61","1","0","0","","",""
"null","177660","HierDyjn1krfhm","02","02","1","iti","null","img/motor_1.png","65","motor","","","","","","","",""
"466","178132","HierDyjn1krfhm","02","02","1","motor","83","img/motor_2.png","83","motor","2","62","1","0","0","","",""
"null","178238","HierDyjn1krfhm","02","02","1","iti","null","img/motor_2.png","83","motor","","","","","","","",""
"595","178840","HierDyjn1krfhm","02","02","1","motor","75","img/motor_7.png","75","motor","7","63","1","0","0","","",""
"null","178948","HierDyjn1krfhm","02","02","1","iti","null","img/motor_7.png","75","motor","","","","","","","",""
"714","179669","HierDyjn1krfhm","02","02","1","motor","83","img/motor_2.png","83","motor","2","64","1","0","0","","",""
"null","179775","HierDyjn1krfhm","02","02","1","iti","null","img/motor_2.png","83","motor","","","","","","","",""
"528","180311","HierDyjn1krfhm","02","02","1","motor","65","img/motor_1.png","65","motor","1","65","1","0","0","","",""
"null","180420","HierDyjn1krfhm","02","02","1","iti","null","img/motor_1.png","65","motor","","","","","","","",""
"591","181018","HierDyjn1krfhm","02","02","1","motor","75","img/motor_7.png","75","motor","7","66","1","0","0","","",""
"null","181126","HierDyjn1krfhm","02","02","1","iti","null","img/motor_7.png","75","motor","","","","","","","",""
"575","181707","HierDyjn1krfhm","02","02","1","motor","83","img/motor_2.png","83","motor","2","67","1","0","0","","",""
"null","181817","HierDyjn1krfhm","02","02","1","iti","null","img/motor_2.png","83","motor","","","","","","","",""
"766","182588","HierDyjn1krfhm","02","02","1","motor","74","img/motor_6.png","74","motor","6","68","1","0","0","","",""
"null","182697","HierDyjn1krfhm","02","02","1","iti","null","img/motor_6.png","74","motor","","","","","","","",""
"523","183226","HierDyjn1krfhm","02","02","1","motor","70","img/motor_4.png","70","motor","4","69","1","0","0","","",""
"null","183333","HierDyjn1krfhm","02","02","1","iti","null","img/motor_4.png","70","motor","","","","","","","",""
"537","183879","HierDyjn1krfhm","02","02","1","motor","83","img/motor_2.png","83","motor","2","70","1","0","0","","",""
"null","183986","HierDyjn1krfhm","02","02","1","iti","null","img/motor_2.png","83","motor","","","","","","","",""
"617","184611","HierDyjn1krfhm","02","02","1","motor","68","img/motor_3.png","68","motor","3","71","1","0","0","","",""
"null","184719","HierDyjn1krfhm","02","02","1","iti","null","img/motor_3.png","68","motor","","","","","","","",""
"608","185334","HierDyjn1krfhm","02","02","1","motor","74","img/motor_6.png","74","motor","6","72","1","0","0","","",""
"null","185443","HierDyjn1krfhm","02","02","1","iti","null","img/motor_6.png","74","motor","","","","","","","",""
"530","185985","HierDyjn1krfhm","02","02","1","motor","70","img/motor_4.png","70","motor","4","73","1","0","0","","",""
"null","186094","HierDyjn1krfhm","02","02","1","iti","null","img/motor_4.png","70","motor","","","","","","","",""
"752","186854","HierDyjn1krfhm","02","02","1","motor","83","img/motor_2.png","83","motor","2","74","1","0","0","","",""
"null","186961","HierDyjn1krfhm","02","02","1","iti","null","img/motor_2.png","83","motor","","","","","","","",""
"569","187539","HierDyjn1krfhm","02","02","1","motor","70","img/motor_4.png","70","motor","4","75","1","0","0","","",""
"null","187648","HierDyjn1krfhm","02","02","1","iti","null","img/motor_4.png","70","motor","","","","","","","",""
"694","188350","HierDyjn1krfhm","02","02","1","motor","75","img/motor_7.png","75","motor","7","76","1","0","0","","",""
"null","188458","HierDyjn1krfhm","02","02","1","iti","null","img/motor_7.png","75","motor","","","","","","","",""
"501","188968","HierDyjn1krfhm","02","02","1","motor","76","img/motor_8.png","76","motor","8","77","1","0","0","","",""
"null","189077","HierDyjn1krfhm","02","02","1","iti","null","img/motor_8.png","76","motor","","","","","","","",""
"633","189716","HierDyjn1krfhm","02","02","1","motor","83","img/motor_2.png","83","motor","2","78","1","0","0","","",""
"null","189825","HierDyjn1krfhm","02","02","1","iti","null","img/motor_2.png","83","motor","","","","","","","",""
"445","190280","HierDyjn1krfhm","02","02","1","motor","76","img/motor_8.png","76","motor","8","79","1","0","0","","",""
"null","190389","HierDyjn1krfhm","02","02","1","iti","null","img/motor_8.png","76","motor","","","","","","","",""
"593","190991","HierDyjn1krfhm","02","02","1","motor","74","img/motor_6.png","74","motor","6","80","1","0","0","","",""
"null","191099","HierDyjn1krfhm","02","02","1","iti","null","img/motor_6.png","74","motor","","","","","","","",""
"359","191468","HierDyjn1krfhm","02","02","1","motor","74","img/motor_6.png","74","motor","6","81","1","0","0","","",""
"null","191576","HierDyjn1krfhm","02","02","1","iti","null","img/motor_6.png","74","motor","","","","","","","",""
"468","192053","HierDyjn1krfhm","02","02","1","motor","70","img/motor_4.png","70","motor","4","82","1","0","0","","",""
"null","192162","HierDyjn1krfhm","02","02","1","iti","null","img/motor_4.png","70","motor","","","","","","","",""
"480","192650","HierDyjn1krfhm","02","02","1","motor","74","img/motor_6.png","74","motor","6","83","1","0","0","","",""
"null","192759","HierDyjn1krfhm","02","02","1","iti","null","img/motor_6.png","74","motor","","","","","","","",""
"589","193358","HierDyjn1krfhm","02","02","1","motor","72","img/motor_5.png","72","motor","5","84","1","0","0","","",""
"null","193466","HierDyjn1krfhm","02","02","1","iti","null","img/motor_5.png","72","motor","","","","","","","",""
"451","193924","HierDyjn1krfhm","02","02","1","motor","74","img/motor_6.png","74","motor","6","85","1","0","0","","",""
"null","194033","HierDyjn1krfhm","02","02","1","iti","null","img/motor_6.png","74","motor","","","","","","","",""
"473","194514","HierDyjn1krfhm","02","02","1","motor","72","img/motor_5.png","72","motor","5","86","1","0","0","","",""
"null","194622","HierDyjn1krfhm","02","02","1","iti","null","img/motor_5.png","72","motor","","","","","","","",""
"620","195250","HierDyjn1krfhm","02","02","1","motor","68","img/motor_3.png","68","motor","3","87","1","0","0","","",""
"null","195358","HierDyjn1krfhm","02","02","1","iti","null","img/motor_3.png","68","motor","","","","","","","",""
"481","195847","HierDyjn1krfhm","02","02","1","motor","76","img/motor_8.png","76","motor","8","88","1","0","0","","",""
"null","195955","HierDyjn1krfhm","02","02","1","iti","null","img/motor_8.png","76","motor","","","","","","","",""
"573","196536","HierDyjn1krfhm","02","02","1","motor","70","img/motor_4.png","70","motor","4","89","1","0","0","","",""
"null","196644","HierDyjn1krfhm","02","02","1","iti","null","img/motor_4.png","70","motor","","","","","","","",""
"414","197066","HierDyjn1krfhm","02","02","1","motor","74","img/motor_6.png","74","motor","6","90","1","0","0","","",""
"null","197175","HierDyjn1krfhm","02","02","1","iti","null","img/motor_6.png","74","motor","","","","","","","",""
"272","197456","HierDyjn1krfhm","02","02","1","motor","75","img/motor_7.png","75","motor","7","91","1","0","0","","",""
"null","197565","HierDyjn1krfhm","02","02","1","iti","null","img/motor_7.png","75","motor","","","","","","","",""
"480","198052","HierDyjn1krfhm","02","02","1","motor","72","img/motor_5.png","72","motor","5","92","1","0","0","","",""
"null","198160","HierDyjn1krfhm","02","02","1","iti","null","img/motor_5.png","72","motor","","","","","","","",""
"660","198828","HierDyjn1krfhm","02","02","1","motor","68","img/motor_3.png","68","motor","3","93","1","0","0","","",""
"null","198936","HierDyjn1krfhm","02","02","1","iti","null","img/motor_3.png","68","motor","","","","","","","",""
"632","199576","HierDyjn1krfhm","02","02","1","motor","74","img/motor_6.png","74","motor","6","94","1","0","0","","",""
"null","199684","HierDyjn1krfhm","02","02","1","iti","null","img/motor_6.png","74","motor","","","","","","","",""
"511","200203","HierDyjn1krfhm","02","02","1","motor","65","img/motor_1.png","65","motor","1","95","1","0","0","","",""
"null","200312","HierDyjn1krfhm","02","02","1","iti","null","img/motor_1.png","65","motor","","","","","","","",""
"593","200912","HierDyjn1krfhm","02","02","1","motor","72","img/motor_5.png","72","motor","5","96","1","0","0","","",""
"null","201021","HierDyjn1krfhm","02","02","1","iti","null","img/motor_5.png","72","motor","","","","","","","",""
"436","201464","HierDyjn1krfhm","02","02","1","motor","65","img/motor_1.png","65","motor","1","97","1","0","0","","",""
"null","201572","HierDyjn1krfhm","02","02","1","iti","null","img/motor_1.png","65","motor","","","","","","","",""
"672","202251","HierDyjn1krfhm","02","02","1","motor","70","img/motor_4.png","70","motor","4","98","1","0","0","","",""
"null","202360","HierDyjn1krfhm","02","02","1","iti","null","img/motor_4.png","70","motor","","","","","","","",""
"555","202923","HierDyjn1krfhm","02","02","1","motor","83","img/motor_2.png","83","motor","2","99","1","0","0","","",""
"null","203031","HierDyjn1krfhm","02","02","1","iti","null","img/motor_2.png","83","motor","","","","","","","",""
"623","203661","HierDyjn1krfhm","02","02","1","motor","74","img/motor_6.png","74","motor","6","100","1","0","0","","",""
"null","203769","HierDyjn1krfhm","02","02","1","iti","null","img/motor_6.png","74","motor","","","","","","","",""
"337","204113","HierDyjn1krfhm","02","02","1","motor","74","img/motor_6.png","74","motor","6","101","1","0","0","","",""
"2","204221","HierDyjn1krfhm","02","02","1","iti","72","img/motor_6.png","74","motor","","","","","","","",""
"538","204766","HierDyjn1krfhm","02","02","1","motor","76","img/motor_8.png","76","motor","8","102","1","0","0","","",""
"null","204874","HierDyjn1krfhm","02","02","1","iti","null","img/motor_8.png","76","motor","","","","","","","",""
"902","205783","HierDyjn1krfhm","02","02","1","motor","68","img/motor_3.png","68","motor","3","103","1","0","0","","",""
"null","205891","HierDyjn1krfhm","02","02","1","iti","null","img/motor_3.png","68","motor","","","","","","","",""
"461","206361","HierDyjn1krfhm","02","02","1","motor","76","img/motor_8.png","76","motor","8","104","1","0","0","","",""
"null","206469","HierDyjn1krfhm","02","02","1","iti","null","img/motor_8.png","76","motor","","","","","","","",""
"706","207182","HierDyjn1krfhm","02","02","1","motor","83","img/motor_2.png","83","motor","2","105","1","0","0","","",""
"null","207291","HierDyjn1krfhm","02","02","1","iti","null","img/motor_2.png","83","motor","","","","","","","",""
"537","207835","HierDyjn1krfhm","02","02","1","motor","68","img/motor_3.png","68","motor","3","106","1","0","0","","",""
"null","207943","HierDyjn1krfhm","02","02","1","iti","null","img/motor_3.png","68","motor","","","","","","","",""
"462","208413","HierDyjn1krfhm","02","02","1","motor","72","img/motor_5.png","72","motor","5","107","1","0","0","","",""
"null","208521","HierDyjn1krfhm","02","02","1","iti","null","img/motor_5.png","72","motor","","","","","","","",""
"560","209090","HierDyjn1krfhm","02","02","1","motor","83","img/motor_1.png","65","motor","1","108","0","1","0","","",""
"288","209387","HierDyjn1krfhm","02","02","1","motorRepeat","65","img/motor_1.png","65","motor","1","108","1","0","0","","",""
"null","209494","HierDyjn1krfhm","02","02","1","iti","null","img/motor_1.png","65","motor","","","","","","","",""
"860","210362","HierDyjn1krfhm","02","02","1","motor","76","img/motor_7.png","75","motor","7","109","0","1","0","","",""
"377","210747","HierDyjn1krfhm","02","02","1","motorRepeat","75","img/motor_7.png","75","motor","7","109","1","0","0","","",""
"null","210854","HierDyjn1krfhm","02","02","1","iti","null","img/motor_7.png","75","motor","","","","","","","",""
"614","211476","HierDyjn1krfhm","02","02","1","motor","70","img/motor_4.png","70","motor","4","110","1","0","0","","",""
"null","211584","HierDyjn1krfhm","02","02","1","iti","null","img/motor_4.png","70","motor","","","","","","","",""
"718","212310","HierDyjn1krfhm","02","02","1","motor","75","img/motor_7.png","75","motor","7","111","1","0","0","","",""
"null","212418","HierDyjn1krfhm","02","02","1","iti","null","img/motor_7.png","75","motor","","","","","","","",""
"354","212780","HierDyjn1krfhm","02","02","1","motor","75","img/motor_7.png","75","motor","7","112","1","0","0","","",""
"null","212888","HierDyjn1krfhm","02","02","1","iti","null","img/motor_7.png","75","motor","","","","","","","",""
"468","213363","HierDyjn1krfhm","02","02","1","motor","65","img/motor_1.png","65","motor","1","113","1","0","0","","",""
"null","213471","HierDyjn1krfhm","02","02","1","iti","null","img/motor_1.png","65","motor","","","","","","","",""
"565","214044","HierDyjn1krfhm","02","02","1","motor","70","img/motor_4.png","70","motor","4","114","1","0","0","","",""
"null","214152","HierDyjn1krfhm","02","02","1","iti","null","img/motor_4.png","70","motor","","","","","","","",""
"532","214691","HierDyjn1krfhm","02","02","1","motor","76","img/motor_8.png","76","motor","8","115","1","0","0","","",""
"null","214799","HierDyjn1krfhm","02","02","1","iti","null","img/motor_8.png","76","motor","","","","","","","",""
"719","215525","HierDyjn1krfhm","02","02","1","motor","68","img/motor_3.png","68","motor","3","116","1","0","0","","",""
"null","215634","HierDyjn1krfhm","02","02","1","iti","null","img/motor_3.png","68","motor","","","","","","","",""
"386","216026","HierDyjn1krfhm","02","02","1","motor","83","img/motor_2.png","83","motor","2","117","1","0","0","","",""
"null","216134","HierDyjn1krfhm","02","02","1","iti","null","img/motor_2.png","83","motor","","","","","","","",""
"440","216582","HierDyjn1krfhm","02","02","1","motor","83","img/motor_2.png","83","motor","2","118","1","0","0","","",""
"null","216691","HierDyjn1krfhm","02","02","1","iti","null","img/motor_2.png","83","motor","","","","","","","",""
"445","217144","HierDyjn1krfhm","02","02","1","motor","70","img/motor_4.png","70","motor","4","119","1","0","0","","",""
"null","217253","HierDyjn1krfhm","02","02","1","iti","null","img/motor_4.png","70","motor","","","","","","","",""
"636","217897","HierDyjn1krfhm","02","02","1","motor","68","img/motor_3.png","68","motor","3","120","1","0","0","","",""
"null","218005","HierDyjn1krfhm","02","02","1","iti","null","img/motor_3.png","68","motor","","","","","","","",""
"534","218546","HierDyjn1krfhm","02","02","1","motor","70","img/motor_4.png","70","motor","4","121","1","0","0","","",""
"null","218655","HierDyjn1krfhm","02","02","1","iti","null","img/motor_4.png","70","motor","","","","","","","",""
"423","219084","HierDyjn1krfhm","02","02","1","motor","65","img/motor_1.png","65","motor","1","122","1","0","0","","",""
"null","219192","HierDyjn1krfhm","02","02","1","iti","null","img/motor_1.png","65","motor","","","","","","","",""
"704","219903","HierDyjn1krfhm","02","02","1","motor","76","img/motor_8.png","76","motor","8","123","1","0","0","","",""
"null","220013","HierDyjn1krfhm","02","02","1","iti","null","img/motor_8.png","76","motor","","","","","","","",""
"412","220432","HierDyjn1krfhm","02","02","1","motor","65","img/motor_1.png","65","motor","1","124","1","0","0","","",""
"null","220540","HierDyjn1krfhm","02","02","1","iti","null","img/motor_1.png","65","motor","","","","","","","",""
"546","221094","HierDyjn1krfhm","02","02","1","motor","75","img/motor_6.png","74","motor","6","125","0","1","0","","",""
"273","221374","HierDyjn1krfhm","02","02","1","motorRepeat","74","img/motor_6.png","74","motor","6","125","1","0","0","","",""
"null","221483","HierDyjn1krfhm","02","02","1","iti","null","img/motor_6.png","74","motor","","","","","","","",""
"642","222133","HierDyjn1krfhm","02","02","1","motor","70","img/motor_4.png","70","motor","4","126","1","0","0","","",""
"null","222242","HierDyjn1krfhm","02","02","1","iti","null","img/motor_4.png","70","motor","","","","","","","",""
"526","222776","HierDyjn1krfhm","02","02","1","motor","76","img/motor_8.png","76","motor","8","127","1","0","0","","",""
"null","222884","HierDyjn1krfhm","02","02","1","iti","null","img/motor_8.png","76","motor","","","","","","","",""
"871","223763","HierDyjn1krfhm","02","02","1","motor","68","img/motor_3.png","68","motor","3","128","1","0","0","","",""
"null","223872","HierDyjn1krfhm","02","02","1","iti","null","img/motor_3.png","68","motor","","","","","","","",""
"410","224289","HierDyjn1krfhm","02","02","1","motor","83","img/motor_2.png","83","motor","2","129","1","0","0","","",""
"null","224398","HierDyjn1krfhm","02","02","1","iti","null","img/motor_2.png","83","motor","","","","","","","",""
"558","224964","HierDyjn1krfhm","02","02","1","motor","72","img/motor_5.png","72","motor","5","130","1","0","0","","",""
"null","225072","HierDyjn1krfhm","02","02","1","iti","null","img/motor_5.png","72","motor","","","","","","","",""
"1028","226107","HierDyjn1krfhm","02","02","1","motor","75","img/motor_7.png","75","motor","7","131","1","0","0","","",""
"null","226215","HierDyjn1krfhm","02","02","1","iti","null","img/motor_7.png","75","motor","","","","","","","",""
"569","226792","HierDyjn1krfhm","02","02","1","motor","74","img/motor_6.png","74","motor","6","132","1","0","0","","",""
"null","226900","HierDyjn1krfhm","02","02","1","iti","null","img/motor_6.png","74","motor","","","","","","","",""
"575","227483","HierDyjn1krfhm","02","02","1","motor","65","img/motor_1.png","65","motor","1","133","1","0","0","","",""
"null","227592","HierDyjn1krfhm","02","02","1","iti","null","img/motor_1.png","65","motor","","","","","","","",""
"831","228431","HierDyjn1krfhm","02","02","1","motor","74","img/motor_6.png","74","motor","6","134","1","0","0","","",""
"null","228539","HierDyjn1krfhm","02","02","1","iti","null","img/motor_6.png","74","motor","","","","","","","",""
"1677","230223","HierDyjn1krfhm","02","02","1","motor","68","img/motor_3.png","68","motor","3","135","1","0","0","","",""
"null","230331","HierDyjn1krfhm","02","02","1","iti","null","img/motor_3.png","68","motor","","","","","","","",""
"291","230630","HierDyjn1krfhm","02","02","1","motor","68","img/motor_3.png","68","motor","3","136","1","0","0","","",""
"null","230738","HierDyjn1krfhm","02","02","1","iti","null","img/motor_3.png","68","motor","","","","","","","",""
"564","231310","HierDyjn1krfhm","02","02","1","motor","74","img/motor_5.png","72","motor","5","137","0","1","0","","",""
"337","231656","HierDyjn1krfhm","02","02","1","motorRepeat","72","img/motor_5.png","72","motor","5","137","1","0","0","","",""
"null","231764","HierDyjn1krfhm","02","02","1","iti","null","img/motor_5.png","72","motor","","","","","","","",""
"554","232326","HierDyjn1krfhm","02","02","1","motor","68","img/motor_3.png","68","motor","3","138","1","0","0","","",""
"null","232435","HierDyjn1krfhm","02","02","1","iti","null","img/motor_3.png","68","motor","","","","","","","",""
"81","232523","HierDyjn1krfhm","02","02","1","motor","68","img/motor_2.png","83","motor","2","139","0","1","0","","",""
"528","233058","HierDyjn1krfhm","02","02","1","motorRepeat","83","img/motor_2.png","83","motor","2","139","1","0","0","","",""
"null","233166","HierDyjn1krfhm","02","02","1","iti","null","img/motor_2.png","83","motor","","","","","","","",""
"854","234028","HierDyjn1krfhm","02","02","1","motor","68","img/motor_3.png","68","motor","3","140","1","0","0","","",""
"null","234137","HierDyjn1krfhm","02","02","1","iti","null","img/motor_3.png","68","motor","","","","","","","",""
"311","234455","HierDyjn1krfhm","02","02","1","motor","68","img/motor_3.png","68","motor","3","141","1","0","0","","",""
"null","234563","HierDyjn1krfhm","02","02","1","iti","null","img/motor_3.png","68","motor","","","","","","","",""
"535","235106","HierDyjn1krfhm","02","02","1","motor","70","img/motor_4.png","70","motor","4","142","1","0","0","","",""
"null","235215","HierDyjn1krfhm","02","02","1","iti","null","img/motor_4.png","70","motor","","","","","","","",""
"525","235747","HierDyjn1krfhm","02","02","1","motor","83","img/motor_2.png","83","motor","2","143","1","0","0","","",""
"null","235856","HierDyjn1krfhm","02","02","1","iti","null","img/motor_2.png","83","motor","","","","","","","",""
"508","236372","HierDyjn1krfhm","02","02","1","motor","70","img/motor_4.png","70","motor","4","144","1","0","0","","",""
"null","236480","HierDyjn1krfhm","02","02","1","iti","null","img/motor_4.png","70","motor","","","","","","","",""
"560","237048","HierDyjn1krfhm","02","02","1","motor","75","img/motor_7.png","75","motor","7","145","1","0","0","","",""
"null","237156","HierDyjn1krfhm","02","02","1","iti","null","img/motor_7.png","75","motor","","","","","","","",""
"681","237847","HierDyjn1krfhm","02","02","1","motor","83","img/motor_2.png","83","motor","2","146","1","0","0","","",""
"null","237955","HierDyjn1krfhm","02","02","1","iti","null","img/motor_2.png","83","motor","","","","","","","",""
"512","238473","HierDyjn1krfhm","02","02","1","motor","76","img/motor_8.png","76","motor","8","147","1","0","0","","",""
"null","238582","HierDyjn1krfhm","02","02","1","iti","null","img/motor_8.png","76","motor","","","","","","","",""
"575","239165","HierDyjn1krfhm","02","02","1","motor","74","img/motor_6.png","74","motor","6","148","1","0","0","","",""
"null","239274","HierDyjn1krfhm","02","02","1","iti","null","img/motor_6.png","74","motor","","","","","","","",""
"392","239674","HierDyjn1krfhm","02","02","1","motor","76","img/motor_8.png","76","motor","8","149","1","0","0","","",""
"null","239783","HierDyjn1krfhm","02","02","1","iti","null","img/motor_8.png","76","motor","","","","","","","",""
"520","240311","HierDyjn1krfhm","02","02","1","motor","75","img/motor_7.png","75","motor","7","150","1","0","0","","",""
"null","240419","HierDyjn1krfhm","02","02","1","iti","null","img/motor_7.png","75","motor","","","","","","","",""
"555","240983","HierDyjn1krfhm","02","02","1","motor","76","img/motor_8.png","76","motor","8","151","1","0","0","","",""
"null","241091","HierDyjn1krfhm","02","02","1","iti","null","img/motor_8.png","76","motor","","","","","","","",""
"576","241675","HierDyjn1krfhm","02","02","1","motor","65","img/motor_1.png","65","motor","1","152","1","0","0","","",""
"null","241785","HierDyjn1krfhm","02","02","1","iti","null","img/motor_1.png","65","motor","","","","","","","",""
"691","242484","HierDyjn1krfhm","02","02","1","motor","76","img/motor_8.png","76","motor","8","153","1","0","0","","",""
"null","242592","HierDyjn1krfhm","02","02","1","iti","null","img/motor_8.png","76","motor","","","","","","","",""
"657","243257","HierDyjn1krfhm","02","02","1","motor","83","img/motor_2.png","83","motor","2","154","1","0","0","","",""
"null","243365","HierDyjn1krfhm","02","02","1","iti","null","img/motor_2.png","83","motor","","","","","","","",""
"626","243999","HierDyjn1krfhm","02","02","1","motor","74","img/motor_6.png","74","motor","6","155","1","0","0","","",""
"null","244107","HierDyjn1krfhm","02","02","1","iti","null","img/motor_6.png","74","motor","","","","","","","",""
"576","244691","HierDyjn1krfhm","02","02","1","motor","83","img/motor_2.png","83","motor","2","156","1","0","0","","",""
"null","244799","HierDyjn1krfhm","02","02","1","iti","null","img/motor_2.png","83","motor","","","","","","","",""
"863","245670","HierDyjn1krfhm","02","02","1","motor","74","img/motor_7.png","75","motor","7","157","0","1","0","","",""
"259","245937","HierDyjn1krfhm","02","02","1","motorRepeat","75","img/motor_7.png","75","motor","7","157","1","0","0","","",""
"null","246045","HierDyjn1krfhm","02","02","1","iti","null","img/motor_7.png","75","motor","","","","","","","",""
"780","246834","HierDyjn1krfhm","02","02","1","motor","83","img/motor_2.png","83","motor","2","158","1","0","0","","",""
"null","246942","HierDyjn1krfhm","02","02","1","iti","null","img/motor_2.png","83","motor","","","","","","","",""
"511","247462","HierDyjn1krfhm","02","02","1","motor","68","img/motor_3.png","68","motor","3","159","1","0","0","","",""
"null","247571","HierDyjn1krfhm","02","02","1","iti","null","img/motor_3.png","68","motor","","","","","","","",""
"795","248375","HierDyjn1krfhm","02","02","1","motor","72","img/motor_5.png","72","motor","5","160","1","0","0","","",""
"null","248483","HierDyjn1krfhm","02","02","1","iti","null","img/motor_5.png","72","motor","","","","","","","",""
"576","249066","HierDyjn1krfhm","02","02","1","motor","83","img/motor_2.png","83","motor","2","161","1","0","0","","",""
"null","249174","HierDyjn1krfhm","02","02","1","iti","null","img/motor_2.png","83","motor","","","","","","","",""
"549","249731","HierDyjn1krfhm","02","02","1","motor","68","img/motor_3.png","68","motor","3","162","1","0","0","","",""
"null","249840","HierDyjn1krfhm","02","02","1","iti","null","img/motor_3.png","68","motor","","","","","","","",""
"744","250595","HierDyjn1krfhm","02","02","1","motor","74","img/motor_6.png","74","motor","6","163","1","0","0","","",""
"null","250705","HierDyjn1krfhm","02","02","1","iti","null","img/motor_6.png","74","motor","","","","","","","",""
"562","251278","HierDyjn1krfhm","02","02","1","motor","72","img/motor_5.png","72","motor","5","164","1","0","0","","",""
"null","251387","HierDyjn1krfhm","02","02","1","iti","null","img/motor_5.png","72","motor","","","","","","","",""
"635","252030","HierDyjn1krfhm","02","02","1","motor","65","img/motor_1.png","65","motor","1","165","1","0","0","","",""
"null","252140","HierDyjn1krfhm","02","02","1","iti","null","img/motor_1.png","65","motor","","","","","","","",""
"949","253097","HierDyjn1krfhm","02","02","1","motor","68","img/motor_3.png","68","motor","3","166","1","0","0","","",""
"null","253206","HierDyjn1krfhm","02","02","1","iti","null","img/motor_3.png","68","motor","","","","","","","",""
"703","253916","HierDyjn1krfhm","02","02","1","motor","83","img/motor_2.png","83","motor","2","167","1","0","0","","",""
"null","254024","HierDyjn1krfhm","02","02","1","iti","null","img/motor_2.png","83","motor","","","","","","","",""
"354","254390","HierDyjn1krfhm","02","02","1","motor","65","img/motor_1.png","65","motor","1","168","1","0","0","","",""
"null","254500","HierDyjn1krfhm","02","02","1","iti","null","img/motor_1.png","65","motor","","","","","","","",""
"388","254899","HierDyjn1krfhm","02","02","1","motor","70","img/motor_4.png","70","motor","4","169","1","0","0","","",""
"null","255007","HierDyjn1krfhm","02","02","1","iti","null","img/motor_4.png","70","motor","","","","","","","",""
"596","255611","HierDyjn1krfhm","02","02","1","motor","72","img/motor_5.png","72","motor","5","170","1","0","0","","",""
"null","255720","HierDyjn1krfhm","02","02","1","iti","null","img/motor_5.png","72","motor","","","","","","","",""
"594","256324","HierDyjn1krfhm","02","02","1","motor","74","img/motor_6.png","74","motor","6","171","1","0","0","","",""
"null","256432","HierDyjn1krfhm","02","02","1","iti","null","img/motor_6.png","74","motor","","","","","","","",""
"544","256985","HierDyjn1krfhm","02","02","1","motor","76","img/motor_8.png","76","motor","8","172","1","0","0","","",""
"null","257094","HierDyjn1krfhm","02","02","1","iti","null","img/motor_8.png","76","motor","","","","","","","",""
"472","257574","HierDyjn1krfhm","02","02","1","motor","83","img/motor_2.png","83","motor","2","173","1","0","0","","",""
"null","257683","HierDyjn1krfhm","02","02","1","iti","null","img/motor_2.png","83","motor","","","","","","","",""
"756","258446","HierDyjn1krfhm","02","02","1","motor","74","img/motor_6.png","74","motor","6","174","1","0","0","","",""
"null","258555","HierDyjn1krfhm","02","02","1","iti","null","img/motor_6.png","74","motor","","","","","","","",""
"490","259053","HierDyjn1krfhm","02","02","1","motor","75","img/motor_7.png","75","motor","7","175","1","0","0","","",""
"null","259162","HierDyjn1krfhm","02","02","1","iti","null","img/motor_7.png","75","motor","","","","","","","",""
"585","259754","HierDyjn1krfhm","02","02","1","motor","70","img/motor_4.png","70","motor","4","176","1","0","0","","",""
"null","259862","HierDyjn1krfhm","02","02","1","iti","null","img/motor_4.png","70","motor","","","","","","","",""
"670","260539","HierDyjn1krfhm","02","02","1","motor","74","img/motor_6.png","74","motor","6","177","1","0","0","","",""
"null","260648","HierDyjn1krfhm","02","02","1","iti","null","img/motor_6.png","74","motor","","","","","","","",""
"642","261299","HierDyjn1krfhm","02","02","1","motor","72","img/motor_5.png","72","motor","5","178","1","0","0","","",""
"null","261407","HierDyjn1krfhm","02","02","1","iti","null","img/motor_5.png","72","motor","","","","","","","",""
"546","261962","HierDyjn1krfhm","02","02","1","motor","70","img/motor_4.png","70","motor","4","179","1","0","0","","",""
"null","262069","HierDyjn1krfhm","02","02","1","iti","null","img/motor_4.png","70","motor","","","","","","","",""
"550","262628","HierDyjn1krfhm","02","02","1","motor","75","img/motor_7.png","75","motor","7","180","1","0","0","","",""
"null","262737","HierDyjn1krfhm","02","02","1","iti","null","img/motor_7.png","75","motor","","","","","","","",""
"451","263196","HierDyjn1krfhm","02","02","1","motor","74","img/motor_6.png","74","motor","6","181","1","0","0","","",""
"null","263305","HierDyjn1krfhm","02","02","1","iti","null","img/motor_6.png","74","motor","","","","","","","",""
"445","263758","HierDyjn1krfhm","02","02","1","motor","65","img/motor_1.png","65","motor","1","182","1","0","0","","",""
"null","263867","HierDyjn1krfhm","02","02","1","iti","null","img/motor_1.png","65","motor","","","","","","","",""
"836","264710","HierDyjn1krfhm","02","02","1","motor","68","img/motor_3.png","68","motor","3","183","1","0","0","","",""
"null","264819","HierDyjn1krfhm","02","02","1","iti","null","img/motor_3.png","68","motor","","","","","","","",""
"545","265372","HierDyjn1krfhm","02","02","1","motor","83","img/motor_2.png","83","motor","2","184","1","0","0","","",""
"null","265482","HierDyjn1krfhm","02","02","1","iti","null","img/motor_2.png","83","motor","","","","","","","",""
"370","265859","HierDyjn1krfhm","02","02","1","motor","83","img/motor_2.png","83","motor","2","185","1","0","0","","",""
"null","265968","HierDyjn1krfhm","02","02","1","iti","null","img/motor_2.png","83","motor","","","","","","","",""
"571","266546","HierDyjn1krfhm","02","02","1","motor","72","img/motor_5.png","72","motor","5","186","1","0","0","","",""
"null","266655","HierDyjn1krfhm","02","02","1","iti","null","img/motor_5.png","72","motor","","","","","","","",""
"398","267059","HierDyjn1krfhm","02","02","1","motor","76","img/motor_8.png","76","motor","8","187","1","0","0","","",""
"null","267168","HierDyjn1krfhm","02","02","1","iti","null","img/motor_8.png","76","motor","","","","","","","",""
"1124","268299","HierDyjn1krfhm","02","02","1","motor","68","img/motor_3.png","68","motor","3","188","1","0","0","","",""
"null","268408","HierDyjn1krfhm","02","02","1","iti","null","img/motor_3.png","68","motor","","","","","","","",""
"675","269089","HierDyjn1krfhm","02","02","1","motor","70","img/motor_4.png","70","motor","4","189","1","0","0","","",""
"null","269197","HierDyjn1krfhm","02","02","1","iti","null","img/motor_4.png","70","motor","","","","","","","",""
"367","269572","HierDyjn1krfhm","02","02","1","motor","70","img/motor_4.png","70","motor","4","190","1","0","0","","",""
"null","269680","HierDyjn1krfhm","02","02","1","iti","null","img/motor_4.png","70","motor","","","","","","","",""
"516","270205","HierDyjn1krfhm","02","02","1","motor","76","img/motor_8.png","76","motor","8","191","1","0","0","","",""
"null","270313","HierDyjn1krfhm","02","02","1","iti","null","img/motor_8.png","76","motor","","","","","","","",""
"512","270834","HierDyjn1krfhm","02","02","1","motor","74","img/motor_6.png","74","motor","6","192","1","0","0","","",""
"null","270943","HierDyjn1krfhm","02","02","1","iti","null","img/motor_6.png","74","motor","","","","","","","",""
"524","271475","HierDyjn1krfhm","02","02","1","motor","72","img/motor_5.png","72","motor","5","193","1","0","0","","",""
"null","271583","HierDyjn1krfhm","02","02","1","iti","null","img/motor_5.png","72","motor","","","","","","","",""
"471","272063","HierDyjn1krfhm","02","02","1","motor","74","img/motor_6.png","74","motor","6","194","1","0","0","","",""
"null","272171","HierDyjn1krfhm","02","02","1","iti","null","img/motor_6.png","74","motor","","","","","","","",""
"460","272639","HierDyjn1krfhm","02","02","1","motor","76","img/motor_8.png","76","motor","8","195","1","0","0","","",""
"null","272747","HierDyjn1krfhm","02","02","1","iti","null","img/motor_8.png","76","motor","","","","","","","",""
"566","273322","HierDyjn1krfhm","02","02","1","motor","70","img/motor_4.png","70","motor","4","196","1","0","0","","",""
"null","273431","HierDyjn1krfhm","02","02","1","iti","null","img/motor_4.png","70","motor","","","","","","","",""
"499","273939","HierDyjn1krfhm","02","02","1","motor","68","img/motor_3.png","68","motor","3","197","1","0","0","","",""
"null","274047","HierDyjn1krfhm","02","02","1","iti","null","img/motor_3.png","68","motor","","","","","","","",""
"449","274503","HierDyjn1krfhm","02","02","1","motor","74","img/motor_5.png","72","motor","5","198","0","1","0","","",""
"307","274817","HierDyjn1krfhm","02","02","1","motorRepeat","72","img/motor_5.png","72","motor","5","198","1","0","0","","",""
"null","274925","HierDyjn1krfhm","02","02","1","iti","null","img/motor_5.png","72","motor","","","","","","","",""
"716","275650","HierDyjn1krfhm","02","02","1","motor","83","img/motor_2.png","83","motor","2","199","1","0","0","","",""
"null","275758","HierDyjn1krfhm","02","02","1","iti","null","img/motor_2.png","83","motor","","","","","","","",""
"747","276514","HierDyjn1krfhm","02","02","1","motor","75","img/motor_7.png","75","motor","7","200","1","0","0","","",""
"null","276623","HierDyjn1krfhm","02","02","1","iti","null","img/motor_7.png","75","motor","","","","","","","",""
"590","277221","HierDyjn1krfhm","02","02","1","motor","65","img/motor_1.png","65","motor","1","201","1","0","0","","",""
"null","277331","HierDyjn1krfhm","02","02","1","iti","null","img/motor_1.png","65","motor","","","","","","","",""
"555","277893","HierDyjn1krfhm","02","02","1","motor","76","img/motor_7.png","75","motor","7","202","0","1","0","","",""
"313","278215","HierDyjn1krfhm","02","02","1","motorRepeat","75","img/motor_7.png","75","motor","7","202","1","0","0","","",""
"null","278324","HierDyjn1krfhm","02","02","1","iti","null","img/motor_7.png","75","motor","","","","","","","",""
"592","278923","HierDyjn1krfhm","02","02","1","motor","76","img/motor_8.png","76","motor","8","203","1","0","0","","",""
"null","279032","HierDyjn1krfhm","02","02","1","iti","null","img/motor_8.png","76","motor","","","","","","","",""
"396","279436","HierDyjn1krfhm","02","02","1","motor","68","img/motor_4.png","70","motor","4","204","0","1","0","","",""
"333","279777","HierDyjn1krfhm","02","02","1","motorRepeat","70","img/motor_4.png","70","motor","4","204","1","0","0","","",""
"null","279886","HierDyjn1krfhm","02","02","1","iti","null","img/motor_4.png","70","motor","","","","","","","",""
"912","280806","HierDyjn1krfhm","02","02","1","motor","76","img/motor_8.png","76","motor","8","205","1","0","0","","",""
"null","280914","HierDyjn1krfhm","02","02","1","iti","null","img/motor_8.png","76","motor","","","","","","","",""
"575","281497","HierDyjn1krfhm","02","02","1","motor","75","img/motor_7.png","75","motor","7","206","1","0","0","","",""
"null","281606","HierDyjn1krfhm","02","02","1","iti","null","img/motor_7.png","75","motor","","","","","","","",""
"616","282230","HierDyjn1krfhm","02","02","1","motor","70","img/motor_4.png","70","motor","4","207","1","0","0","","",""
"null","282339","HierDyjn1krfhm","02","02","1","iti","null","img/motor_4.png","70","motor","","","","","","","",""
"756","283104","HierDyjn1krfhm","02","02","1","motor","72","img/motor_5.png","72","motor","5","208","1","0","0","","",""
"null","283212","HierDyjn1krfhm","02","02","1","iti","null","img/motor_5.png","72","motor","","","","","","","",""
"529","283750","HierDyjn1krfhm","02","02","1","motor","70","img/motor_4.png","70","motor","4","209","1","0","0","","",""
"null","283859","HierDyjn1krfhm","02","02","1","iti","null","img/motor_4.png","70","motor","","","","","","","",""
"642","284509","HierDyjn1krfhm","02","02","1","motor","75","img/motor_7.png","75","motor","7","210","1","0","0","","",""
"null","284617","HierDyjn1krfhm","02","02","1","iti","null","img/motor_7.png","75","motor","","","","","","","",""
"767","285393","HierDyjn1krfhm","02","02","1","motor","68","img/motor_3.png","68","motor","3","211","1","0","0","","",""
"null","285503","HierDyjn1krfhm","02","02","1","iti","null","img/motor_3.png","68","motor","","","","","","","",""
"307","285818","HierDyjn1krfhm","02","02","1","motor","83","img/motor_2.png","83","motor","2","212","1","0","0","","",""
"null","285926","HierDyjn1krfhm","02","02","1","iti","null","img/motor_2.png","83","motor","","","","","","","",""
"557","286491","HierDyjn1krfhm","02","02","1","motor","76","img/motor_8.png","76","motor","8","213","1","0","0","","",""
"null","286599","HierDyjn1krfhm","02","02","1","iti","null","img/motor_8.png","76","motor","","","","","","","",""
"366","286973","HierDyjn1krfhm","02","02","1","motor","76","img/motor_8.png","76","motor","8","214","1","0","0","","",""
"null","287084","HierDyjn1krfhm","02","02","1","iti","null","img/motor_8.png","76","motor","","","","","","","",""
"640","287732","HierDyjn1krfhm","02","02","1","motor","74","img/motor_6.png","74","motor","6","215","1","0","0","","",""
"null","287840","HierDyjn1krfhm","02","02","1","iti","null","img/motor_6.png","74","motor","","","","","","","",""
"524","288373","HierDyjn1krfhm","02","02","1","motor","70","img/motor_4.png","70","motor","4","216","1","0","0","","",""
"null","288482","HierDyjn1krfhm","02","02","1","iti","null","img/motor_4.png","70","motor","","","","","","","",""
"329","288819","HierDyjn1krfhm","02","02","1","motor","70","img/motor_4.png","70","motor","4","217","1","0","0","","",""
"null","288928","HierDyjn1krfhm","02","02","1","iti","null","img/motor_4.png","70","motor","","","","","","","",""
"530","289467","HierDyjn1krfhm","02","02","1","motor","76","img/motor_8.png","76","motor","8","218","1","0","0","","",""
"null","289575","HierDyjn1krfhm","02","02","1","iti","null","img/motor_8.png","76","motor","","","","","","","",""
"370","289953","HierDyjn1krfhm","02","02","1","motor","76","img/motor_8.png","76","motor","8","219","1","0","0","","",""
"null","290061","HierDyjn1krfhm","02","02","1","iti","null","img/motor_8.png","76","motor","","","","","","","",""
"683","290753","HierDyjn1krfhm","02","02","1","motor","72","img/motor_5.png","72","motor","5","220","1","0","0","","",""
"null","290862","HierDyjn1krfhm","02","02","1","iti","null","img/motor_5.png","72","motor","","","","","","","",""
"445","291316","HierDyjn1krfhm","02","02","1","motor","72","img/motor_5.png","72","motor","5","221","1","0","0","","",""
"null","291424","HierDyjn1krfhm","02","02","1","iti","null","img/motor_5.png","72","motor","","","","","","","",""
"520","291953","HierDyjn1krfhm","02","02","1","motor","83","img/motor_2.png","83","motor","2","222","1","0","0","","",""
"null","292061","HierDyjn1krfhm","02","02","1","iti","null","img/motor_2.png","83","motor","","","","","","","",""
"268","292339","HierDyjn1krfhm","02","02","1","motor","83","img/motor_2.png","83","motor","2","223","1","0","0","","",""
"null","292446","HierDyjn1krfhm","02","02","1","iti","null","img/motor_2.png","83","motor","","","","","","","",""
"520","292975","HierDyjn1krfhm","02","02","1","motor","70","img/motor_4.png","70","motor","4","224","1","0","0","","",""
"null","293084","HierDyjn1krfhm","02","02","1","iti","null","img/motor_4.png","70","motor","","","","","","","",""
"592","293684","HierDyjn1krfhm","02","02","1","motor","72","img/motor_5.png","72","motor","5","225","1","0","0","","",""
"null","293792","HierDyjn1krfhm","02","02","1","iti","null","img/motor_5.png","72","motor","","","","","","","",""
"1127","294928","HierDyjn1krfhm","02","02","1","motor","70","img/motor_4.png","70","motor","4","226","1","0","0","","",""
"null","295036","HierDyjn1krfhm","02","02","1","iti","null","img/motor_4.png","70","motor","","","","","","","",""
"1390","296435","HierDyjn1krfhm","02","02","1","motor","68","img/motor_3.png","68","motor","3","227","1","0","0","","",""
"null","296542","HierDyjn1krfhm","02","02","1","iti","null","img/motor_3.png","68","motor","","","","","","","",""
"657","297207","HierDyjn1krfhm","02","02","1","motor","76","img/motor_8.png","76","motor","8","228","1","0","0","","",""
"null","297316","HierDyjn1krfhm","02","02","1","iti","null","img/motor_8.png","76","motor","","","","","","","",""
"520","297845","HierDyjn1krfhm","02","02","1","motor","72","img/motor_5.png","72","motor","5","229","1","0","0","","",""
"null","297953","HierDyjn1krfhm","02","02","1","iti","null","img/motor_5.png","72","motor","","","","","","","",""
"690","298651","HierDyjn1krfhm","02","02","1","motor","70","img/motor_4.png","70","motor","4","230","1","0","0","","",""
"null","298760","HierDyjn1krfhm","02","02","1","iti","null","img/motor_4.png","70","motor","","","","","","","",""
"562","299329","HierDyjn1krfhm","02","02","1","motor","75","img/motor_7.png","75","motor","7","231","1","0","0","","",""
"null","299437","HierDyjn1krfhm","02","02","1","iti","null","img/motor_7.png","75","motor","","","","","","","",""
"890","300336","HierDyjn1krfhm","02","02","1","motor","83","img/motor_2.png","83","motor","2","232","1","0","0","","",""
"null","300444","HierDyjn1krfhm","02","02","1","iti","null","img/motor_2.png","83","motor","","","","","","","",""
"509","300961","HierDyjn1krfhm","02","02","1","motor","75","img/motor_7.png","75","motor","7","233","1","0","0","","",""
"null","301070","HierDyjn1krfhm","02","02","1","iti","null","img/motor_7.png","75","motor","","","","","","","",""
"299","301377","HierDyjn1krfhm","02","02","1","motor","83","img/motor_4.png","70","motor","4","234","0","1","0","","",""
"487","301873","HierDyjn1krfhm","02","02","1","motorRepeat","70","img/motor_4.png","70","motor","4","234","1","0","0","","",""
"null","301982","HierDyjn1krfhm","02","02","1","iti","null","img/motor_4.png","70","motor","","","","","","","",""
"490","302480","HierDyjn1krfhm","02","02","1","motor","76","img/motor_8.png","76","motor","8","235","1","0","0","","",""
"null","302590","HierDyjn1krfhm","02","02","1","iti","null","img/motor_8.png","76","motor","","","","","","","",""
"822","303418","HierDyjn1krfhm","02","02","1","motor","68","img/motor_3.png","68","motor","3","236","1","0","0","","",""
"null","303527","HierDyjn1krfhm","02","02","1","iti","null","img/motor_3.png","68","motor","","","","","","","",""
"646","304181","HierDyjn1krfhm","02","02","1","motor","74","img/motor_6.png","74","motor","6","237","1","0","0","","",""
"null","304289","HierDyjn1krfhm","02","02","1","iti","null","img/motor_6.png","74","motor","","","","","","","",""
"342","304641","HierDyjn1krfhm","02","02","1","motor","74","img/motor_6.png","74","motor","6","238","1","0","0","","",""
"null","304749","HierDyjn1krfhm","02","02","1","iti","null","img/motor_6.png","74","motor","","","","","","","",""
"619","305377","HierDyjn1krfhm","02","02","1","motor","75","img/motor_7.png","75","motor","7","239","1","0","0","","",""
"null","305486","HierDyjn1krfhm","02","02","1","iti","null","img/motor_7.png","75","motor","","","","","","","",""
"514","306009","HierDyjn1krfhm","02","02","1","motor","74","img/motor_6.png","74","motor","6","240","1","0","0","","",""
"null","306118","HierDyjn1krfhm","02","02","1","iti","null","img/motor_6.png","74","motor","","","","","","","",""
"828","306953","HierDyjn1krfhm","02","02","1","motor","68","img/motor_3.png","68","motor","3","241","1","0","0","","",""
"null","307062","HierDyjn1krfhm","02","02","1","iti","null","img/motor_3.png","68","motor","","","","","","","",""
"565","307636","HierDyjn1krfhm","02","02","1","motor","75","img/motor_7.png","75","motor","7","242","1","0","0","","",""
"null","307744","HierDyjn1krfhm","02","02","1","iti","null","img/motor_7.png","75","motor","","","","","","","",""
"646","308398","HierDyjn1krfhm","02","02","1","motor","68","img/motor_3.png","68","motor","3","243","1","0","0","","",""
"null","308506","HierDyjn1krfhm","02","02","1","iti","null","img/motor_3.png","68","motor","","","","","","","",""
"493","309006","HierDyjn1krfhm","02","02","1","motor","75","img/motor_7.png","75","motor","7","244","1","0","0","","",""
"null","309114","HierDyjn1krfhm","02","02","1","iti","null","img/motor_7.png","75","motor","","","","","","","",""
"702","309824","HierDyjn1krfhm","02","02","1","motor","70","img/motor_4.png","70","motor","4","245","1","0","0","","",""
"null","309932","HierDyjn1krfhm","02","02","1","iti","null","img/motor_4.png","70","motor","","","","","","","",""
"621","310561","HierDyjn1krfhm","02","02","1","motor","72","img/motor_5.png","72","motor","5","246","1","0","0","","",""
"null","310669","HierDyjn1krfhm","02","02","1","iti","null","img/motor_5.png","72","motor","","","","","","","",""
"638","311316","HierDyjn1krfhm","02","02","1","motor","70","img/motor_4.png","70","motor","4","247","1","0","0","","",""
"null","311425","HierDyjn1krfhm","02","02","1","iti","null","img/motor_4.png","70","motor","","","","","","","",""
"715","312148","HierDyjn1krfhm","02","02","1","motor","74","img/motor_6.png","74","motor","6","248","1","0","0","","",""
"null","312256","HierDyjn1krfhm","02","02","1","iti","null","img/motor_6.png","74","motor","","","","","","","",""
"429","312694","HierDyjn1krfhm","02","02","1","motor","75","img/motor_7.png","75","motor","7","249","1","0","0","","",""
"null","312803","HierDyjn1krfhm","02","02","1","iti","null","img/motor_7.png","75","motor","","","","","","","",""
"981","313793","HierDyjn1krfhm","02","02","1","motor","68","img/motor_3.png","68","motor","3","250","1","0","0","","",""
"null","313901","HierDyjn1krfhm","02","02","1","iti","null","img/motor_3.png","68","motor","","","","","","","",""
"471","314382","HierDyjn1krfhm","02","02","1","motor","65","img/motor_1.png","65","motor","1","251","1","0","0","","",""
"null","314491","HierDyjn1krfhm","02","02","1","iti","null","img/motor_1.png","65","motor","","","","","","","",""
"556","315060","HierDyjn1krfhm","02","02","1","motor","70","img/motor_4.png","70","motor","4","252","1","0","0","","",""
"null","315169","HierDyjn1krfhm","02","02","1","iti","null","img/motor_4.png","70","motor","","","","","","","",""
"637","315816","HierDyjn1krfhm","02","02","1","motor","83","img/motor_2.png","83","motor","2","253","1","0","0","","",""
"null","315925","HierDyjn1krfhm","02","02","1","iti","null","img/motor_2.png","83","motor","","","","","","","",""
"576","316510","HierDyjn1krfhm","02","02","1","motor","70","img/motor_4.png","70","motor","4","254","1","0","0","","",""
"null","316619","HierDyjn1krfhm","02","02","1","iti","null","img/motor_4.png","70","motor","","","","","","","",""
"553","317182","HierDyjn1krfhm","02","02","1","motor","68","img/motor_3.png","68","motor","3","255","1","0","0","","",""
"null","317290","HierDyjn1krfhm","02","02","1","iti","null","img/motor_3.png","68","motor","","","","","","","",""
"529","317827","HierDyjn1krfhm","02","02","1","motor","70","img/motor_4.png","70","motor","4","256","1","0","0","","",""
"null","317937","HierDyjn1krfhm","02","02","1","iti","null","img/motor_4.png","70","motor","","","","","","","",""
"560","318509","HierDyjn1krfhm","02","02","1","motor","74","img/motor_6.png","74","motor","6","257","1","0","0","","",""
"null","318617","HierDyjn1krfhm","02","02","1","iti","null","img/motor_6.png","74","motor","","","","","","","",""
"767","319397","HierDyjn1krfhm","02","02","1","motor","68","img/motor_3.png","68","motor","3","258","1","0","0","","",""
"null","319508","HierDyjn1krfhm","02","02","1","iti","null","img/motor_3.png","68","motor","","","","","","","",""
"453","319971","HierDyjn1krfhm","02","02","1","motor","76","img/motor_8.png","76","motor","8","259","1","0","0","","",""
"null","320080","HierDyjn1krfhm","02","02","1","iti","null","img/motor_8.png","76","motor","","","","","","","",""
"519","320608","HierDyjn1krfhm","02","02","1","motor","75","img/motor_7.png","75","motor","7","260","1","0","0","","",""
"null","320719","HierDyjn1krfhm","02","02","1","iti","null","img/motor_7.png","75","motor","","","","","","","",""
"522","321251","HierDyjn1krfhm","02","02","1","motor","72","img/motor_5.png","72","motor","5","261","1","0","0","","",""
"null","321359","HierDyjn1krfhm","02","02","1","iti","null","img/motor_5.png","72","motor","","","","","","","",""
"364","321732","HierDyjn1krfhm","02","02","1","motor","72","img/motor_5.png","72","motor","5","262","1","0","0","","",""
"null","321841","HierDyjn1krfhm","02","02","1","iti","null","img/motor_5.png","72","motor","","","","","","","",""
"520","322369","HierDyjn1krfhm","02","02","1","motor","65","img/motor_1.png","65","motor","1","263","1","0","0","","",""
"null","322479","HierDyjn1krfhm","02","02","1","iti","null","img/motor_1.png","65","motor","","","","","","","",""
"872","323360","HierDyjn1krfhm","02","02","1","motor","75","img/motor_7.png","75","motor","7","264","1","0","0","","",""
"null","323470","HierDyjn1krfhm","02","02","1","iti","null","img/motor_7.png","75","motor","","","","","","","",""
"528","324007","HierDyjn1krfhm","02","02","1","motor","76","img/motor_8.png","76","motor","8","265","1","0","0","","",""
"null","324116","HierDyjn1krfhm","02","02","1","iti","null","img/motor_8.png","76","motor","","","","","","","",""
"643","324769","HierDyjn1krfhm","02","02","1","motor","65","img/motor_1.png","65","motor","1","266","1","0","0","","",""
"null","324878","HierDyjn1krfhm","02","02","1","iti","null","img/motor_1.png","65","motor","","","","","","","",""
"860","325747","HierDyjn1krfhm","02","02","1","motor","68","img/motor_3.png","68","motor","3","267","1","0","0","","",""
"null","325856","HierDyjn1krfhm","02","02","1","iti","null","img/motor_3.png","68","motor","","","","","","","",""
"833","326698","HierDyjn1krfhm","02","02","1","motor","75","img/motor_7.png","75","motor","7","268","1","0","0","","",""
"null","326806","HierDyjn1krfhm","02","02","1","iti","null","img/motor_7.png","75","motor","","","","","","","",""
"485","327298","HierDyjn1krfhm","02","02","1","motor","74","img/motor_6.png","74","motor","6","269","1","0","0","","",""
"null","327407","HierDyjn1krfhm","02","02","1","iti","null","img/motor_6.png","74","motor","","","","","","","",""
"480","327895","HierDyjn1krfhm","02","02","1","motor","75","img/motor_7.png","75","motor","7","270","1","0","0","","",""
"null","328003","HierDyjn1krfhm","02","02","1","iti","null","img/motor_7.png","75","motor","","","","","","","",""
"557","328568","HierDyjn1krfhm","02","02","1","motor","74","img/motor_6.png","74","motor","6","271","1","0","0","","",""
"null","328675","HierDyjn1krfhm","02","02","1","iti","null","img/motor_6.png","74","motor","","","","","","","",""
"642","329325","HierDyjn1krfhm","02","02","1","motor","83","img/motor_2.png","83","motor","2","272","1","0","0","","",""
"null","329433","HierDyjn1krfhm","02","02","1","iti","null","img/motor_2.png","83","motor","","","","","","","",""
"637","330079","HierDyjn1krfhm","02","02","1","motor","76","img/motor_8.png","76","motor","8","273","1","0","0","","",""
"null","330188","HierDyjn1krfhm","02","02","1","iti","null","img/motor_8.png","76","motor","","","","","","","",""
"540","330737","HierDyjn1krfhm","02","02","1","motor","70","img/motor_4.png","70","motor","4","274","1","0","0","","",""
"null","330845","HierDyjn1krfhm","02","02","1","iti","null","img/motor_4.png","70","motor","","","","","","","",""
"616","331469","HierDyjn1krfhm","02","02","1","motor","65","img/motor_1.png","65","motor","1","275","1","0","0","","",""
"null","331578","HierDyjn1krfhm","02","02","1","iti","null","img/motor_1.png","65","motor","","","","","","","",""
"492","332077","HierDyjn1krfhm","02","02","1","motor","72","img/motor_5.png","72","motor","5","276","1","0","0","","",""
"null","332186","HierDyjn1krfhm","02","02","1","iti","null","img/motor_5.png","72","motor","","","","","","","",""
"660","332855","HierDyjn1krfhm","02","02","1","motor","83","img/motor_2.png","83","motor","2","277","1","0","0","","",""
"null","332963","HierDyjn1krfhm","02","02","1","iti","null","img/motor_2.png","83","motor","","","","","","","",""
"445","333416","HierDyjn1krfhm","02","02","1","motor","65","img/motor_1.png","65","motor","1","278","1","0","0","","",""
"null","333524","HierDyjn1krfhm","02","02","1","iti","null","img/motor_1.png","65","motor","","","","","","","",""
"490","334023","HierDyjn1krfhm","02","02","1","motor","76","img/motor_8.png","76","motor","8","279","1","0","0","","",""
"null","334132","HierDyjn1krfhm","02","02","1","iti","null","img/motor_8.png","76","motor","","","","","","","",""
"504","334643","HierDyjn1krfhm","02","02","1","motor","83","img/motor_2.png","83","motor","2","280","1","0","0","","",""
"null","334750","HierDyjn1krfhm","02","02","1","iti","null","img/motor_2.png","83","motor","","","","","","","",""
"521","335280","HierDyjn1krfhm","02","02","1","motor","65","img/motor_1.png","65","motor","1","281","1","0","0","","",""
"null","335386","HierDyjn1krfhm","02","02","1","iti","null","img/motor_1.png","65","motor","","","","","","","",""
"685","336079","HierDyjn1krfhm","02","02","1","motor","72","img/motor_5.png","72","motor","5","282","1","0","0","","",""
"null","336185","HierDyjn1krfhm","02","02","1","iti","null","img/motor_5.png","72","motor","","","","","","","",""
"620","336813","HierDyjn1krfhm","02","02","1","motor","70","img/motor_4.png","70","motor","4","283","1","0","0","","",""
"null","336920","HierDyjn1krfhm","02","02","1","iti","null","img/motor_4.png","70","motor","","","","","","","",""
"684","337613","HierDyjn1krfhm","02","02","1","motor","68","img/motor_2.png","83","motor","2","284","0","1","0","","",""
"383","338004","HierDyjn1krfhm","02","02","1","motorRepeat","83","img/motor_2.png","83","motor","2","284","1","0","0","","",""
"null","338112","HierDyjn1krfhm","02","02","1","iti","null","img/motor_2.png","83","motor","","","","","","","",""
"496","338617","HierDyjn1krfhm","02","02","1","motor","75","img/motor_7.png","75","motor","7","285","1","0","0","","",""
"null","338725","HierDyjn1krfhm","02","02","1","iti","null","img/motor_7.png","75","motor","","","","","","","",""
"767","339499","HierDyjn1krfhm","02","02","1","motor","68","img/motor_3.png","68","motor","3","286","1","0","0","","",""
"null","339607","HierDyjn1krfhm","02","02","1","iti","null","img/motor_3.png","68","motor","","","","","","","",""
"520","340137","HierDyjn1krfhm","02","02","1","motor","74","img/motor_6.png","74","motor","6","287","1","0","0","","",""
"null","340243","HierDyjn1krfhm","02","02","1","iti","null","img/motor_6.png","74","motor","","","","","","","",""
"453","340703","HierDyjn1krfhm","02","02","1","motor","72","img/motor_5.png","72","motor","5","288","1","0","0","","",""
"null","340810","HierDyjn1krfhm","02","02","1","iti","null","img/motor_5.png","72","motor","","","","","","","",""
"739","341557","HierDyjn1krfhm","02","02","1","motor","74","img/motor_6.png","74","motor","6","289","1","0","0","","",""
"null","341664","HierDyjn1krfhm","02","02","1","iti","null","img/motor_6.png","74","motor","","","","","","","",""
"513","342186","HierDyjn1krfhm","02","02","1","motor","65","img/motor_1.png","65","motor","1","290","1","0","0","","",""
"null","342295","HierDyjn1krfhm","02","02","1","iti","null","img/motor_1.png","65","motor","","","","","","","",""
"454","342757","HierDyjn1krfhm","02","02","1","motor","76","img/motor_8.png","76","motor","8","291","1","0","0","","",""
"null","342868","HierDyjn1krfhm","02","02","1","iti","null","img/motor_8.png","76","motor","","","","","","","",""
"803","343679","HierDyjn1krfhm","02","02","1","motor","68","img/motor_3.png","68","motor","3","292","1","0","0","","",""
"null","343789","HierDyjn1krfhm","02","02","1","iti","null","img/motor_3.png","68","motor","","","","","","","",""
"685","344483","HierDyjn1krfhm","02","02","1","motor","74","img/motor_6.png","74","motor","6","293","1","0","0","","",""
"null","344593","HierDyjn1krfhm","02","02","1","iti","null","img/motor_6.png","74","motor","","","","","","","",""
"579","345180","HierDyjn1krfhm","02","02","1","motor","68","img/motor_3.png","68","motor","3","294","1","0","0","","",""
"null","345290","HierDyjn1krfhm","02","02","1","iti","null","img/motor_3.png","68","motor","","","","","","","",""
"703","346001","HierDyjn1krfhm","02","02","1","motor","68","img/motor_3.png","68","motor","3","295","1","0","0","","",""
"null","346109","HierDyjn1krfhm","02","02","1","iti","null","img/motor_3.png","68","motor","","","","","","","",""
"550","346668","HierDyjn1krfhm","02","02","1","motor","74","img/motor_6.png","74","motor","6","296","1","0","0","","",""
"null","346776","HierDyjn1krfhm","02","02","1","iti","null","img/motor_6.png","74","motor","","","","","","","",""
"394","347178","HierDyjn1krfhm","02","02","1","motor","75","img/motor_7.png","75","motor","7","297","1","0","0","","",""
"null","347284","HierDyjn1krfhm","02","02","1","iti","null","img/motor_7.png","75","motor","","","","","","","",""
"630","347921","HierDyjn1krfhm","02","02","1","motor","83","img/motor_2.png","83","motor","2","298","1","0","0","","",""
"null","348028","HierDyjn1krfhm","02","02","1","iti","null","img/motor_2.png","83","motor","","","","","","","",""
"357","348394","HierDyjn1krfhm","02","02","1","motor","65","img/motor_1.png","65","motor","1","299","1","0","0","","",""
"null","348502","HierDyjn1krfhm","02","02","1","iti","null","img/motor_1.png","65","motor","","","","","","","",""
"634","349145","HierDyjn1krfhm","02","02","1","motor","72","img/motor_5.png","72","motor","5","300","1","0","0","","",""
"null","349251","HierDyjn1krfhm","02","02","1","iti","null","img/motor_5.png","72","motor","","","","","","","",""
"463","349722","HierDyjn1krfhm","02","02","1","motor","74","img/motor_6.png","74","motor","6","301","1","0","0","","",""
"null","349831","HierDyjn1krfhm","02","02","1","iti","null","img/motor_6.png","74","motor","","","","","","","",""
"668","350506","HierDyjn1krfhm","02","02","1","motor","70","img/motor_4.png","70","motor","4","302","1","0","0","","",""
"null","350615","HierDyjn1krfhm","02","02","1","iti","null","img/motor_4.png","70","motor","","","","","","","",""
"459","351084","HierDyjn1krfhm","02","02","1","motor","65","img/motor_1.png","65","motor","1","303","1","0","0","","",""
"null","351194","HierDyjn1krfhm","02","02","1","iti","null","img/motor_1.png","65","motor","","","","","","","",""
"805","352007","HierDyjn1krfhm","02","02","1","motor","68","img/motor_3.png","68","motor","3","304","1","0","0","","",""
"null","352117","HierDyjn1krfhm","02","02","1","iti","null","img/motor_3.png","68","motor","","","","","","","",""
"638","352763","HierDyjn1krfhm","02","02","1","motor","72","img/motor_5.png","72","motor","5","305","1","0","0","","",""
"null","352874","HierDyjn1krfhm","02","02","1","iti","null","img/motor_5.png","72","motor","","","","","","","",""
"316","353200","HierDyjn1krfhm","02","02","1","motor","74","img/motor_7.png","75","motor","7","306","0","1","0","","",""
"308","353517","HierDyjn1krfhm","02","02","1","motorRepeat","75","img/motor_7.png","75","motor","7","306","1","0","0","","",""
"null","353627","HierDyjn1krfhm","02","02","1","iti","null","img/motor_7.png","75","motor","","","","","","","",""
"362","353997","HierDyjn1krfhm","02","02","1","motor","75","img/motor_7.png","75","motor","7","307","1","0","0","","",""
"null","354106","HierDyjn1krfhm","02","02","1","iti","null","img/motor_7.png","75","motor","","","","","","","",""
"526","354640","HierDyjn1krfhm","02","02","1","motor","74","img/motor_6.png","74","motor","6","308","1","0","0","","",""
"null","354748","HierDyjn1krfhm","02","02","1","iti","null","img/motor_6.png","74","motor","","","","","","","",""
"603","355359","HierDyjn1krfhm","02","02","1","motor","83","img/motor_2.png","83","motor","2","309","1","0","0","","",""
"null","355466","HierDyjn1krfhm","02","02","1","iti","null","img/motor_2.png","83","motor","","","","","","","",""
"529","356002","HierDyjn1krfhm","02","02","1","motor","76","img/motor_8.png","76","motor","8","310","1","0","0","","",""
"null","356109","HierDyjn1krfhm","02","02","1","iti","null","img/motor_8.png","76","motor","","","","","","","",""
"560","356678","HierDyjn1krfhm","02","02","1","motor","72","img/motor_5.png","72","motor","5","311","1","0","0","","",""
"null","356786","HierDyjn1krfhm","02","02","1","iti","null","img/motor_5.png","72","motor","","","","","","","",""
"450","357245","HierDyjn1krfhm","02","02","1","motor","76","img/motor_8.png","76","motor","8","312","1","0","0","","",""
"null","357353","HierDyjn1krfhm","02","02","1","iti","null","img/motor_8.png","76","motor","","","","","","","",""
"626","357986","HierDyjn1krfhm","02","02","1","motor","74","img/motor_6.png","74","motor","6","313","1","0","0","","",""
"null","358094","HierDyjn1krfhm","02","02","1","iti","null","img/motor_6.png","74","motor","","","","","","","",""
"568","358670","HierDyjn1krfhm","02","02","1","motor","83","img/motor_2.png","83","motor","2","314","1","0","0","","",""
"null","358779","HierDyjn1krfhm","02","02","1","iti","null","img/motor_2.png","83","motor","","","","","","","",""
"692","359478","HierDyjn1krfhm","02","02","1","motor","72","img/motor_5.png","72","motor","5","315","1","0","0","","",""
"null","359585","HierDyjn1krfhm","02","02","1","iti","null","img/motor_5.png","72","motor","","","","","","","",""
"489","360081","HierDyjn1krfhm","02","02","1","motor","76","img/motor_8.png","76","motor","8","316","1","0","0","","",""
"null","360188","HierDyjn1krfhm","02","02","1","iti","null","img/motor_8.png","76","motor","","","","","","","",""
"609","360803","HierDyjn1krfhm","02","02","1","motor","70","img/motor_4.png","70","motor","4","317","1","0","0","","",""
"null","360911","HierDyjn1krfhm","02","02","1","iti","null","img/motor_4.png","70","motor","","","","","","","",""
"532","361451","HierDyjn1krfhm","02","02","1","motor","65","img/motor_1.png","65","motor","1","318","1","0","0","","",""
"null","361558","HierDyjn1krfhm","02","02","1","iti","null","img/motor_1.png","65","motor","","","","","","","",""
"522","362089","HierDyjn1krfhm","02","02","1","motor","70","img/motor_4.png","70","motor","4","319","1","0","0","","",""
"null","362196","HierDyjn1krfhm","02","02","1","iti","null","img/motor_4.png","70","motor","","","","","","","",""
"315","362519","HierDyjn1krfhm","02","02","1","motor","65","img/motor_1.png","65","motor","1","320","1","0","0","","",""
"null","362627","HierDyjn1krfhm","02","02","1","iti","null","img/motor_1.png","65","motor","","","","","","","",""
"371","363007","HierDyjn1krfhm","02","02","1","motor","70","img/motor_4.png","70","motor","4","321","1","0","0","","",""
"null","363115","HierDyjn1krfhm","02","02","1","iti","null","img/motor_4.png","70","motor","","","","","","","",""
"631","363755","HierDyjn1krfhm","02","02","1","motor","75","img/motor_7.png","75","motor","7","322","1","0","0","","",""
"null","363863","HierDyjn1krfhm","02","02","1","iti","null","img/motor_7.png","75","motor","","","","","","","",""
"561","364434","HierDyjn1krfhm","02","02","1","motor","72","img/motor_5.png","72","motor","5","323","1","0","0","","",""
"null","364544","HierDyjn1krfhm","02","02","1","iti","null","img/motor_5.png","72","motor","","","","","","","",""
"578","365130","HierDyjn1krfhm","02","02","1","motor","65","img/motor_1.png","65","motor","1","324","1","0","0","","",""
"null","365241","HierDyjn1krfhm","02","02","1","iti","null","img/motor_1.png","65","motor","","","","","","","",""
"765","366013","HierDyjn1krfhm","02","02","1","motor","74","img/motor_6.png","74","motor","6","325","1","0","0","","",""
"null","366125","HierDyjn1krfhm","02","02","1","iti","null","img/motor_6.png","74","motor","","","","","","","",""
"1035","367168","HierDyjn1krfhm","02","02","1","motor","68","img/motor_3.png","68","motor","3","326","1","0","0","","",""
"null","367278","HierDyjn1krfhm","02","02","1","iti","null","img/motor_3.png","68","motor","","","","","","","",""
"392","367679","HierDyjn1krfhm","02","02","1","motor","65","img/motor_1.png","65","motor","1","327","1","0","0","","",""
"null","367789","HierDyjn1krfhm","02","02","1","iti","null","img/motor_1.png","65","motor","","","","","","","",""
"502","368301","HierDyjn1krfhm","02","02","1","motor","72","img/motor_5.png","72","motor","5","328","1","0","0","","",""
"null","368410","HierDyjn1krfhm","02","02","1","iti","null","img/motor_5.png","72","motor","","","","","","","",""
"901","369320","HierDyjn1krfhm","02","02","1","motor","68","img/motor_3.png","68","motor","3","329","1","0","0","","",""
"null","369430","HierDyjn1krfhm","02","02","1","iti","null","img/motor_3.png","68","motor","","","","","","","",""
"696","370135","HierDyjn1krfhm","02","02","1","motor","75","img/motor_7.png","75","motor","7","330","1","0","0","","",""
"null","370244","HierDyjn1krfhm","02","02","1","iti","null","img/motor_7.png","75","motor","","","","","","","",""
"647","370899","HierDyjn1krfhm","02","02","1","motor","65","img/motor_1.png","65","motor","1","331","1","0","0","","",""
"null","371009","HierDyjn1krfhm","02","02","1","iti","null","img/motor_1.png","65","motor","","","","","","","",""
"524","371541","HierDyjn1krfhm","02","02","1","motor","76","img/motor_7.png","75","motor","7","332","0","1","0","","",""
"363","371913","HierDyjn1krfhm","02","02","1","motorRepeat","75","img/motor_7.png","75","motor","7","332","1","0","0","","",""
"null","372022","HierDyjn1krfhm","02","02","1","iti","null","img/motor_7.png","75","motor","","","","","","","",""
"538","372568","HierDyjn1krfhm","02","02","1","motor","76","img/motor_8.png","76","motor","8","333","1","0","0","","",""
"null","372677","HierDyjn1krfhm","02","02","1","iti","null","img/motor_8.png","76","motor","","","","","","","",""
"510","373194","HierDyjn1krfhm","02","02","1","motor","76","img/motor_8.png","76","motor","8","334","1","0","0","","",""
"null","373304","HierDyjn1krfhm","02","02","1","iti","null","img/motor_8.png","76","motor","","","","","","","",""
"661","373974","HierDyjn1krfhm","02","02","1","motor","70","img/motor_4.png","70","motor","4","335","1","0","0","","",""
"null","374083","HierDyjn1krfhm","02","02","1","iti","null","img/motor_4.png","70","motor","","","","","","","",""
"648","374740","HierDyjn1krfhm","02","02","1","motor","68","img/motor_3.png","68","motor","3","336","1","0","0","","",""
"null","374850","HierDyjn1krfhm","02","02","1","iti","null","img/motor_3.png","68","motor","","","","","","","",""
"545","375403","HierDyjn1krfhm","02","02","1","motor","65","img/motor_1.png","65","motor","1","337","1","0","0","","",""
"null","375514","HierDyjn1krfhm","02","02","1","iti","null","img/motor_1.png","65","motor","","","","","","","",""
"548","376072","HierDyjn1krfhm","02","02","1","motor","83","img/motor_2.png","83","motor","2","338","1","0","0","","",""
"null","376183","HierDyjn1krfhm","02","02","1","iti","null","img/motor_2.png","83","motor","","","","","","","",""
"258","376450","HierDyjn1krfhm","02","02","1","motor","83","img/motor_2.png","83","motor","2","339","1","0","0","","",""
"null","376559","HierDyjn1krfhm","02","02","1","iti","null","img/motor_2.png","83","motor","","","","","","","",""
"843","377411","HierDyjn1krfhm","02","02","1","motor","72","img/motor_5.png","72","motor","5","340","1","0","0","","",""
"null","377520","HierDyjn1krfhm","02","02","1","iti","null","img/motor_5.png","72","motor","","","","","","","",""
"887","378416","HierDyjn1krfhm","02","02","1","motor","83","img/motor_2.png","83","motor","2","341","1","0","0","","",""
"null","378527","HierDyjn1krfhm","02","02","1","iti","null","img/motor_2.png","83","motor","","","","","","","",""
"758","379295","HierDyjn1krfhm","02","02","1","motor","68","img/motor_3.png","68","motor","3","342","1","0","0","","",""
"null","379408","HierDyjn1krfhm","02","02","1","iti","null","img/motor_3.png","68","motor","","","","","","","",""
"467","379887","HierDyjn1krfhm","02","02","1","motor","70","img/motor_4.png","70","motor","4","343","1","0","0","","",""
"null","379998","HierDyjn1krfhm","02","02","1","iti","null","img/motor_4.png","70","motor","","","","","","","",""
"358","380365","HierDyjn1krfhm","02","02","1","motor","70","img/motor_4.png","70","motor","4","344","1","0","0","","",""
"null","380477","HierDyjn1krfhm","02","02","1","iti","null","img/motor_4.png","70","motor","","","","","","","",""
"559","381046","HierDyjn1krfhm","02","02","1","motor","76","img/motor_8.png","76","motor","8","345","1","0","0","","",""
"null","381157","HierDyjn1krfhm","02","02","1","iti","null","img/motor_8.png","76","motor","","","","","","","",""
"557","381724","HierDyjn1krfhm","02","02","1","motor","65","img/motor_1.png","65","motor","1","346","1","0","0","","",""
"null","381834","HierDyjn1krfhm","02","02","1","iti","null","img/motor_1.png","65","motor","","","","","","","",""
"739","382581","HierDyjn1krfhm","02","02","1","motor","74","img/motor_6.png","74","motor","6","347","1","0","0","","",""
"null","382690","HierDyjn1krfhm","02","02","1","iti","null","img/motor_6.png","74","motor","","","","","","","",""
"535","383237","HierDyjn1krfhm","02","02","1","motor","83","img/motor_2.png","83","motor","2","348","1","0","0","","",""
"null","383347","HierDyjn1krfhm","02","02","1","iti","null","img/motor_2.png","83","motor","","","","","","","",""
"716","384072","HierDyjn1krfhm","02","02","1","motor","76","img/motor_8.png","76","motor","8","349","1","0","0","","",""
"null","384181","HierDyjn1krfhm","02","02","1","iti","null","img/motor_8.png","76","motor","","","","","","","",""
"586","384775","HierDyjn1krfhm","02","02","1","motor","75","img/motor_7.png","75","motor","7","350","1","0","0","","",""
"null","384886","HierDyjn1krfhm","02","02","1","iti","null","img/motor_7.png","75","motor","","","","","","","",""
"396","385291","HierDyjn1krfhm","02","02","1","motor","75","img/motor_7.png","75","motor","7","351","1","0","0","","",""
"null","385400","HierDyjn1krfhm","02","02","1","iti","null","img/motor_7.png","75","motor","","","","","","","",""
"554","385963","HierDyjn1krfhm","02","02","1","motor","72","img/motor_5.png","72","motor","5","352","1","0","0","","",""
"null","386073","HierDyjn1krfhm","02","02","1","iti","null","img/motor_5.png","72","motor","","","","","","","",""
"550","386631","HierDyjn1krfhm","02","02","1","motor","75","img/motor_7.png","75","motor","7","353","1","0","0","","",""
"null","386741","HierDyjn1krfhm","02","02","1","iti","null","img/motor_7.png","75","motor","","","","","","","",""
"935","387685","HierDyjn1krfhm","02","02","1","motor","72","img/motor_5.png","72","motor","5","354","1","0","0","","",""
"null","387795","HierDyjn1krfhm","02","02","1","iti","null","img/motor_5.png","72","motor","","","","","","","",""
"639","388442","HierDyjn1krfhm","02","02","1","motor","68","img/motor_3.png","68","motor","3","355","1","0","0","","",""
"null","388553","HierDyjn1krfhm","02","02","1","iti","null","img/motor_3.png","68","motor","","","","","","","",""
"361","388922","HierDyjn1krfhm","02","02","1","motor","83","img/motor_2.png","83","motor","2","356","1","0","0","","",""
"null","389031","HierDyjn1krfhm","02","02","1","iti","null","img/motor_2.png","83","motor","","","","","","","",""
"788","389828","HierDyjn1krfhm","02","02","1","motor","74","img/motor_6.png","74","motor","6","357","1","0","0","","",""
"null","389937","HierDyjn1krfhm","02","02","1","iti","null","img/motor_6.png","74","motor","","","","","","","",""
"550","390496","HierDyjn1krfhm","02","02","1","motor","65","img/motor_1.png","65","motor","1","358","1","0","0","","",""
"null","390605","HierDyjn1krfhm","02","02","1","iti","null","img/motor_1.png","65","motor","","","","","","","",""
"680","391293","HierDyjn1krfhm","02","02","1","motor","68","img/motor_3.png","68","motor","3","359","1","0","0","","",""
"null","391401","HierDyjn1krfhm","02","02","1","iti","null","img/motor_3.png","68","motor","","","","","","","",""
"396","391807","HierDyjn1krfhm","02","02","1","motor","65","img/motor_1.png","65","motor","1","360","1","0","0","","",""
"null","391917","HierDyjn1krfhm","02","02","1","iti","null","img/motor_1.png","65","motor","","","","","","","",""
"628","392554","HierDyjn1krfhm","02","02","1","motor","70","img/motor_4.png","70","motor","4","361","1","0","0","","",""
"null","392662","HierDyjn1krfhm","02","02","1","iti","null","img/motor_4.png","70","motor","","","","","","","",""
"851","393522","HierDyjn1krfhm","02","02","1","motor","65","img/motor_1.png","65","motor","1","362","1","0","0","","",""
"null","393631","HierDyjn1krfhm","02","02","1","iti","null","img/motor_1.png","65","motor","","","","","","","",""
"660","394301","HierDyjn1krfhm","02","02","1","motor","83","img/motor_2.png","83","motor","2","363","1","0","0","","",""
"null","394410","HierDyjn1krfhm","02","02","1","iti","null","img/motor_2.png","83","motor","","","","","","","",""
"705","395123","HierDyjn1krfhm","02","02","1","motor","72","img/motor_5.png","72","motor","5","364","1","0","0","","",""
"null","395233","HierDyjn1krfhm","02","02","1","iti","null","img/motor_5.png","72","motor","","","","","","","",""
"594","395835","HierDyjn1krfhm","02","02","1","motor","65","img/motor_2.png","83","motor","2","365","0","1","0","","",""
"386","396230","HierDyjn1krfhm","02","02","1","motorRepeat","83","img/motor_2.png","83","motor","2","365","1","0","0","","",""
"null","396340","HierDyjn1krfhm","02","02","1","iti","null","img/motor_2.png","83","motor","","","","","","","",""
"733","397082","HierDyjn1krfhm","02","02","1","motor","70","img/motor_4.png","70","motor","4","366","1","0","0","","",""
"null","397190","HierDyjn1krfhm","02","02","1","iti","null","img/motor_4.png","70","motor","","","","","","","",""
"473","397672","HierDyjn1krfhm","02","02","1","motor","72","img/motor_5.png","72","motor","5","367","1","0","0","","",""
"null","397782","HierDyjn1krfhm","02","02","1","iti","null","img/motor_5.png","72","motor","","","","","","","",""
"751","398541","HierDyjn1krfhm","02","02","1","motor","68","img/motor_3.png","68","motor","3","368","1","0","0","","",""
"null","398651","HierDyjn1krfhm","02","02","1","iti","null","img/motor_3.png","68","motor","","","","","","","",""
"1126","399785","HierDyjn1krfhm","02","02","1","motor","70","img/motor_4.png","70","motor","4","369","1","0","0","","",""
"null","399895","HierDyjn1krfhm","02","02","1","iti","null","img/motor_4.png","70","motor","","","","","","","",""
"360","400263","HierDyjn1krfhm","02","02","1","motor","70","img/motor_4.png","70","motor","4","370","1","0","0","","",""
"null","400373","HierDyjn1krfhm","02","02","1","iti","null","img/motor_4.png","70","motor","","","","","","","",""
"675","401055","HierDyjn1krfhm","02","02","1","motor","83","img/motor_2.png","83","motor","2","371","1","0","0","","",""
"null","401164","HierDyjn1krfhm","02","02","1","iti","null","img/motor_2.png","83","motor","","","","","","","",""
"335","401508","HierDyjn1krfhm","02","02","1","motor","83","img/motor_2.png","83","motor","2","372","1","0","0","","",""
"null","401616","HierDyjn1krfhm","02","02","1","iti","null","img/motor_2.png","83","motor","","","","","","","",""
"666","402290","HierDyjn1krfhm","02","02","1","motor","74","img/motor_6.png","74","motor","6","373","1","0","0","","",""
"null","402399","HierDyjn1krfhm","02","02","1","iti","null","img/motor_6.png","74","motor","","","","","","","",""
"423","402831","HierDyjn1krfhm","02","02","1","motor","65","img/motor_1.png","65","motor","1","374","1","0","0","","",""
"null","402941","HierDyjn1krfhm","02","02","1","iti","null","img/motor_1.png","65","motor","","","","","","","",""
"1083","404031","HierDyjn1krfhm","02","02","1","motor","68","img/motor_3.png","68","motor","3","375","1","0","0","","",""
"null","404140","HierDyjn1krfhm","02","02","1","iti","null","img/motor_3.png","68","motor","","","","","","","",""
"616","404764","HierDyjn1krfhm","02","02","1","motor","72","img/motor_5.png","72","motor","5","376","1","0","0","","",""
"null","404872","HierDyjn1krfhm","02","02","1","iti","null","img/motor_5.png","72","motor","","","","","","","",""
"530","405411","HierDyjn1krfhm","02","02","1","motor","76","img/motor_8.png","76","motor","8","377","1","0","0","","",""
"null","405521","HierDyjn1krfhm","02","02","1","iti","null","img/motor_8.png","76","motor","","","","","","","",""
"528","406056","HierDyjn1krfhm","02","02","1","motor","65","img/motor_1.png","65","motor","1","378","1","0","0","","",""
"null","406164","HierDyjn1krfhm","02","02","1","iti","null","img/motor_1.png","65","motor","","","","","","","",""
"709","406883","HierDyjn1krfhm","02","02","1","motor","75","img/motor_7.png","75","motor","7","379","1","0","0","","",""
"null","406992","HierDyjn1krfhm","02","02","1","iti","null","img/motor_7.png","75","motor","","","","","","","",""
"712","407712","HierDyjn1krfhm","02","02","1","motor","65","img/motor_1.png","65","motor","1","380","1","0","0","","",""
"null","407821","HierDyjn1krfhm","02","02","1","iti","null","img/motor_1.png","65","motor","","","","","","","",""
"643","408474","HierDyjn1krfhm","02","02","1","motor","76","img/motor_8.png","76","motor","8","381","1","0","0","","",""
"null","408582","HierDyjn1krfhm","02","02","1","iti","null","img/motor_8.png","76","motor","","","","","","","",""
"335","408926","HierDyjn1krfhm","02","02","1","motor","76","img/motor_8.png","76","motor","8","382","1","0","0","","",""
"null","409036","HierDyjn1krfhm","02","02","1","iti","null","img/motor_8.png","76","motor","","","","","","","",""
"715","409759","HierDyjn1krfhm","02","02","1","motor","74","img/motor_6.png","74","motor","6","383","1","0","0","","",""
"null","409868","HierDyjn1krfhm","02","02","1","iti","null","img/motor_6.png","74","motor","","","","","","","",""
"724","410601","HierDyjn1krfhm","02","02","1","motor","72","img/motor_5.png","72","motor","5","384","1","0","0","","",""
"null","410710","HierDyjn1krfhm","02","02","1","iti","null","img/motor_5.png","72","motor","","","","","","","",""
"530","411250","HierDyjn1krfhm","02","02","1","motor","65","img/motor_1.png","65","motor","1","385","1","0","0","","",""
"null","411358","HierDyjn1krfhm","02","02","1","iti","null","img/motor_1.png","65","motor","","","","","","","",""
"504","411872","HierDyjn1krfhm","02","02","1","motor","83","img/motor_2.png","83","motor","2","386","1","0","0","","",""
"null","411980","HierDyjn1krfhm","02","02","1","iti","null","img/motor_2.png","83","motor","","","","","","","",""
"595","412584","HierDyjn1krfhm","02","02","1","motor","74","img/motor_6.png","74","motor","6","387","1","0","0","","",""
"null","412693","HierDyjn1krfhm","02","02","1","iti","null","img/motor_6.png","74","motor","","","","","","","",""
"579","413281","HierDyjn1krfhm","02","02","1","motor","76","img/motor_8.png","76","motor","8","388","1","0","0","","",""
"null","413390","HierDyjn1krfhm","02","02","1","iti","null","img/motor_8.png","76","motor","","","","","","","",""
"707","414105","HierDyjn1krfhm","02","02","1","motor","83","img/motor_2.png","83","motor","2","389","1","0","0","","",""
"null","414214","HierDyjn1krfhm","02","02","1","iti","null","img/motor_2.png","83","motor","","","","","","","",""
"1337","415560","HierDyjn1krfhm","02","02","1","motor","76","img/motor_8.png","76","motor","8","390","1","0","0","","",""
"null","415669","HierDyjn1krfhm","02","02","1","iti","null","img/motor_8.png","76","motor","","","","","","","",""
"356","416034","HierDyjn1krfhm","02","02","1","motor","76","img/motor_8.png","76","motor","8","391","1","0","0","","",""
"null","416143","HierDyjn1krfhm","02","02","1","iti","null","img/motor_8.png","76","motor","","","","","","","",""
"679","416831","HierDyjn1krfhm","02","02","1","motor","72","img/motor_5.png","72","motor","5","392","1","0","0","","",""
"null","416939","HierDyjn1krfhm","02","02","1","iti","null","img/motor_5.png","72","motor","","","","","","","",""
"686","417633","HierDyjn1krfhm","02","02","1","motor","75","img/motor_7.png","75","motor","7","393","1","0","0","","",""
"null","417742","HierDyjn1krfhm","02","02","1","iti","null","img/motor_7.png","75","motor","","","","","","","",""
"656","418406","HierDyjn1krfhm","02","02","1","motor","65","img/motor_1.png","65","motor","1","394","1","0","0","","",""
"null","418516","HierDyjn1krfhm","02","02","1","iti","null","img/motor_1.png","65","motor","","","","","","","",""
"310","418835","HierDyjn1krfhm","02","02","1","motor","65","img/motor_1.png","65","motor","1","395","1","0","0","","",""
"null","418944","HierDyjn1krfhm","02","02","1","iti","null","img/motor_1.png","65","motor","","","","","","","",""
"899","419852","HierDyjn1krfhm","02","02","1","motor","83","img/motor_3.png","68","motor","3","396","0","1","0","","",""
"472","420333","HierDyjn1krfhm","02","02","1","motorRepeat","68","img/motor_3.png","68","motor","3","396","1","0","0","","",""
"null","420442","HierDyjn1krfhm","02","02","1","iti","null","img/motor_3.png","68","motor","","","","","","","",""
"547","420997","HierDyjn1krfhm","02","02","1","motor","74","img/motor_6.png","74","motor","6","397","1","0","0","","",""
"null","421106","HierDyjn1krfhm","02","02","1","iti","null","img/motor_6.png","74","motor","","","","","","","",""
"718","421834","HierDyjn1krfhm","02","02","1","motor","68","img/motor_3.png","68","motor","3","398","1","0","0","","",""
"null","421943","HierDyjn1krfhm","02","02","1","iti","null","img/motor_3.png","68","motor","","","","","","","",""
"621","422572","HierDyjn1krfhm","02","02","1","motor","75","img/motor_7.png","75","motor","7","399","1","0","0","","",""
"null","422682","HierDyjn1krfhm","02","02","1","iti","null","img/motor_7.png","75","motor","","","","","","","",""
"558","423250","HierDyjn1krfhm","02","02","1","motor","76","img/motor_8.png","76","motor","8","400","1","0","0","","",""
"null","423360","HierDyjn1krfhm","02","02","1","iti","null","img/motor_8.png","76","motor","","","","","","","",""
"603","423972","HierDyjn1krfhm","02","02","1","motor","74","img/motor_6.png","74","motor","6","401","1","0","0","","",""
"null","424081","HierDyjn1krfhm","02","02","1","iti","null","img/motor_6.png","74","motor","","","","","","","",""
"653","424742","HierDyjn1krfhm","02","02","1","motor","70","img/motor_4.png","70","motor","4","402","1","0","0","","",""
"null","424852","HierDyjn1krfhm","02","02","1","iti","null","img/motor_4.png","70","motor","","","","","","","",""
"507","425367","HierDyjn1krfhm","02","02","1","motor","65","img/motor_1.png","65","motor","1","403","1","0","0","","",""
"null","425477","HierDyjn1krfhm","02","02","1","iti","null","img/motor_1.png","65","motor","","","","","","","",""
"654","426140","HierDyjn1krfhm","02","02","1","motor","74","img/motor_6.png","74","motor","6","404","1","0","0","","",""
"null","426249","HierDyjn1krfhm","02","02","1","iti","null","img/motor_6.png","74","motor","","","","","","","",""
"612","426870","HierDyjn1krfhm","02","02","1","motor","83","img/motor_2.png","83","motor","2","405","1","0","0","","",""
"null","426980","HierDyjn1krfhm","02","02","1","iti","null","img/motor_2.png","83","motor","","","","","","","",""
"597","427586","HierDyjn1krfhm","02","02","1","motor","65","img/motor_1.png","65","motor","1","406","1","0","0","","",""
"null","427696","HierDyjn1krfhm","02","02","1","iti","null","img/motor_1.png","65","motor","","","","","","","",""
"611","428316","HierDyjn1krfhm","02","02","1","motor","70","img/motor_4.png","70","motor","4","407","1","0","0","","",""
"null","428425","HierDyjn1krfhm","02","02","1","iti","null","img/motor_4.png","70","motor","","","","","","","",""
"723","429157","HierDyjn1krfhm","02","02","1","motor","72","img/motor_5.png","72","motor","5","408","1","0","0","","",""
"null","429266","HierDyjn1krfhm","02","02","1","iti","null","img/motor_5.png","72","motor","","","","","","","",""
