"rt","time_elapsed","subject","subID","group","day","trialType","key_press","stim","corrresp","phase","stimNum","trialNum","corr","repeatTrial","motorSwitch","pracCounter","hierarchy","responses"
"4024","4034","HierDy55os536l","sub08","08","1","","","","","","","","","","","","",""
"","5842","HierDy55os536l","sub08","08","1","fullscreen","","","","","","","","","","","",""
"2635283","2641137","HierDy55os536l","sub08","08","1","","","","","","","","","","","","",""
"800","2641949","HierDy55os536l","sub08","08","1","motor","68","img/motor_3.png","68","motor","3","1","1","0","0","","",""
"null","2642062","HierDy55os536l","sub08","08","1","iti","null","img/motor_3.png","68","motor","","","","","","","",""
"589","2642662","HierDy55os536l","sub08","08","1","motor","70","img/motor_4.png","70","motor","4","2","1","0","0","","",""
"null","2642774","HierDy55os536l","sub08","08","1","iti","null","img/motor_4.png","70","motor","","","","","","","",""
"921","2643706","HierDy55os536l","sub08","08","1","motor","76","img/motor_7.png","75","motor","7","3","0","1","0","","",""
"2312","2646029","HierDy55os536l","sub08","08","1","motorRepeat","76","img/motor_7.png","75","motor","7","3","0","1","0","","",""
"1997","2648038","HierDy55os536l","sub08","08","1","motorRepeat","76","img/motor_7.png","75","motor","7","3","0","1","0","","",""
"2732","2650781","HierDy55os536l","sub08","08","1","motorRepeat","76","img/motor_7.png","75","motor","7","3","0","1","0","","",""
"5221","2656015","HierDy55os536l","sub08","08","1","motorRepeat","75","img/motor_7.png","75","motor","7","3","1","0","0","","",""
"null","2656128","HierDy55os536l","sub08","08","1","iti","null","img/motor_7.png","75","motor","","","","","","","",""
"706","2656846","HierDy55os536l","sub08","08","1","motor","83","img/motor_2.png","83","motor","2","4","1","0","0","","",""
"null","2656960","HierDy55os536l","sub08","08","1","iti","null","img/motor_2.png","83","motor","","","","","","","",""
"709","2657679","HierDy55os536l","sub08","08","1","motor","76","img/motor_8.png","76","motor","8","5","1","0","0","","",""
"null","2657790","HierDy55os536l","sub08","08","1","iti","null","img/motor_8.png","76","motor","","","","","","","",""
"535","2658334","HierDy55os536l","sub08","08","1","motor","75","img/motor_7.png","75","motor","7","6","1","0","0","","",""
"null","2658445","HierDy55os536l","sub08","08","1","iti","null","img/motor_7.png","75","motor","","","","","","","",""
"452","2658908","HierDy55os536l","sub08","08","1","motor","76","img/motor_8.png","76","motor","8","7","1","0","0","","",""
"null","2659017","HierDy55os536l","sub08","08","1","iti","null","img/motor_8.png","76","motor","","","","","","","",""
"442","2659469","HierDy55os536l","sub08","08","1","motor","75","img/motor_7.png","75","motor","7","8","1","0","0","","",""
"null","2659578","HierDy55os536l","sub08","08","1","iti","null","img/motor_7.png","75","motor","","","","","","","",""
"612","2660199","HierDy55os536l","sub08","08","1","motor","72","img/motor_5.png","72","motor","5","9","1","0","0","","",""
"null","2660310","HierDy55os536l","sub08","08","1","iti","null","img/motor_5.png","72","motor","","","","","","","",""
"595","2660915","HierDy55os536l","sub08","08","1","motor","72","img/motor_5.png","72","motor","5","10","1","0","0","","",""
"null","2661024","HierDy55os536l","sub08","08","1","iti","null","img/motor_5.png","72","motor","","","","","","","",""
"628","2661662","HierDy55os536l","sub08","08","1","motor","70","img/motor_4.png","70","motor","4","11","1","0","0","","",""
"null","2661772","HierDy55os536l","sub08","08","1","iti","null","img/motor_4.png","70","motor","","","","","","","",""
"588","2662369","HierDy55os536l","sub08","08","1","motor","65","img/motor_1.png","65","motor","1","12","1","0","0","","",""
"null","2662479","HierDy55os536l","sub08","08","1","iti","null","img/motor_1.png","65","motor","","","","","","","",""
"506","2662993","HierDy55os536l","sub08","08","1","motor","68","img/motor_3.png","68","motor","3","13","1","0","0","","",""
"null","2663104","HierDy55os536l","sub08","08","1","iti","null","img/motor_3.png","68","motor","","","","","","","",""
"578","2663692","HierDy55os536l","sub08","08","1","motor","76","img/motor_8.png","76","motor","8","14","1","0","0","","",""
"null","2663802","HierDy55os536l","sub08","08","1","iti","null","img/motor_8.png","76","motor","","","","","","","",""
"701","2664512","HierDy55os536l","sub08","08","1","motor","70","img/motor_4.png","70","motor","4","15","1","0","0","","",""
"null","2664623","HierDy55os536l","sub08","08","1","iti","null","img/motor_4.png","70","motor","","","","","","","",""
"508","2665141","HierDy55os536l","sub08","08","1","motor","65","img/motor_1.png","65","motor","1","16","1","0","0","","",""
"null","2665252","HierDy55os536l","sub08","08","1","iti","null","img/motor_1.png","65","motor","","","","","","","",""
"533","2665792","HierDy55os536l","sub08","08","1","motor","68","img/motor_3.png","68","motor","3","17","1","0","0","","",""
"null","2665903","HierDy55os536l","sub08","08","1","iti","null","img/motor_3.png","68","motor","","","","","","","",""
"625","2666535","HierDy55os536l","sub08","08","1","motor","74","img/motor_5.png","72","motor","5","18","0","1","0","","",""
"452","2666997","HierDy55os536l","sub08","08","1","motorRepeat","72","img/motor_5.png","72","motor","5","18","1","0","0","","",""
"null","2667105","HierDy55os536l","sub08","08","1","iti","null","img/motor_5.png","72","motor","","","","","","","",""
"672","2667785","HierDy55os536l","sub08","08","1","motor","65","img/motor_1.png","65","motor","1","19","1","0","0","","",""
"null","2667895","HierDy55os536l","sub08","08","1","iti","null","img/motor_1.png","65","motor","","","","","","","",""
"781","2668684","HierDy55os536l","sub08","08","1","motor","74","img/motor_6.png","74","motor","6","20","1","0","0","","",""
"null","2668794","HierDy55os536l","sub08","08","1","iti","null","img/motor_6.png","74","motor","","","","","","","",""
"461","2669264","HierDy55os536l","sub08","08","1","motor","74","img/motor_6.png","74","motor","6","21","1","0","0","","",""
"null","2669374","HierDy55os536l","sub08","08","1","iti","null","img/motor_6.png","74","motor","","","","","","","",""
"531","2669916","HierDy55os536l","sub08","08","1","motor","76","img/motor_8.png","76","motor","8","22","1","0","0","","",""
"null","2670024","HierDy55os536l","sub08","08","1","iti","null","img/motor_8.png","76","motor","","","","","","","",""
"630","2670662","HierDy55os536l","sub08","08","1","motor","68","img/motor_3.png","68","motor","3","23","1","0","0","","",""
"null","2670771","HierDy55os536l","sub08","08","1","iti","null","img/motor_3.png","68","motor","","","","","","","",""
"479","2671259","HierDy55os536l","sub08","08","1","motor","65","img/motor_1.png","65","motor","1","24","1","0","0","","",""
"null","2671370","HierDy55os536l","sub08","08","1","iti","null","img/motor_1.png","65","motor","","","","","","","",""
"402","2671781","HierDy55os536l","sub08","08","1","motor","65","img/motor_1.png","65","motor","1","25","1","0","0","","",""
"null","2671891","HierDy55os536l","sub08","08","1","iti","null","img/motor_1.png","65","motor","","","","","","","",""
"530","2672431","HierDy55os536l","sub08","08","1","motor","70","img/motor_4.png","70","motor","4","26","1","0","0","","",""
"null","2672543","HierDy55os536l","sub08","08","1","iti","null","img/motor_4.png","70","motor","","","","","","","",""
"484","2673037","HierDy55os536l","sub08","08","1","motor","65","img/motor_1.png","65","motor","1","27","1","0","0","","",""
"null","2673147","HierDy55os536l","sub08","08","1","iti","null","img/motor_1.png","65","motor","","","","","","","",""
"521","2673678","HierDy55os536l","sub08","08","1","motor","83","img/motor_2.png","83","motor","2","28","1","0","0","","",""
"null","2673787","HierDy55os536l","sub08","08","1","iti","null","img/motor_2.png","83","motor","","","","","","","",""
"596","2674392","HierDy55os536l","sub08","08","1","motor","75","img/motor_7.png","75","motor","7","29","1","0","0","","",""
"null","2674501","HierDy55os536l","sub08","08","1","iti","null","img/motor_7.png","75","motor","","","","","","","",""
"570","2675079","HierDy55os536l","sub08","08","1","motor","68","img/motor_3.png","68","motor","3","30","1","0","0","","",""
"null","2675191","HierDy55os536l","sub08","08","1","iti","null","img/motor_3.png","68","motor","","","","","","","",""
"529","2675728","HierDy55os536l","sub08","08","1","motor","65","img/motor_1.png","65","motor","1","31","1","0","0","","",""
"null","2675838","HierDy55os536l","sub08","08","1","iti","null","img/motor_1.png","65","motor","","","","","","","",""
"552","2676400","HierDy55os536l","sub08","08","1","motor","76","img/motor_8.png","76","motor","8","32","1","0","0","","",""
"null","2676511","HierDy55os536l","sub08","08","1","iti","null","img/motor_8.png","76","motor","","","","","","","",""
"522","2677039","HierDy55os536l","sub08","08","1","motor","68","img/motor_4.png","70","motor","4","33","0","1","0","","",""
"293","2677342","HierDy55os536l","sub08","08","1","motorRepeat","70","img/motor_4.png","70","motor","4","33","1","0","0","","",""
"null","2677452","HierDy55os536l","sub08","08","1","iti","null","img/motor_4.png","70","motor","","","","","","","",""
"707","2678167","HierDy55os536l","sub08","08","1","motor","75","img/motor_7.png","75","motor","7","34","1","0","0","","",""
"null","2678278","HierDy55os536l","sub08","08","1","iti","null","img/motor_7.png","75","motor","","","","","","","",""
"556","2678843","HierDy55os536l","sub08","08","1","motor","65","img/motor_1.png","65","motor","1","35","1","0","0","","",""
"null","2678954","HierDy55os536l","sub08","08","1","iti","null","img/motor_1.png","65","motor","","","","","","","",""
"747","2679712","HierDy55os536l","sub08","08","1","motor","75","img/motor_7.png","75","motor","7","36","1","0","0","","",""
"null","2679822","HierDy55os536l","sub08","08","1","iti","null","img/motor_7.png","75","motor","","","","","","","",""
"624","2680456","HierDy55os536l","sub08","08","1","motor","70","img/motor_4.png","70","motor","4","37","1","0","0","","",""
"null","2680567","HierDy55os536l","sub08","08","1","iti","null","img/motor_4.png","70","motor","","","","","","","",""
"557","2681132","HierDy55os536l","sub08","08","1","motor","83","img/motor_2.png","83","motor","2","38","1","0","0","","",""
"null","2681243","HierDy55os536l","sub08","08","1","iti","null","img/motor_2.png","83","motor","","","","","","","",""
"727","2681981","HierDy55os536l","sub08","08","1","motor","76","img/motor_8.png","76","motor","8","39","1","0","0","","",""
"null","2682092","HierDy55os536l","sub08","08","1","iti","null","img/motor_8.png","76","motor","","","","","","","",""
"587","2682688","HierDy55os536l","sub08","08","1","motor","68","img/motor_3.png","68","motor","3","40","1","0","0","","",""
"null","2682798","HierDy55os536l","sub08","08","1","iti","null","img/motor_3.png","68","motor","","","","","","","",""
"633","2683441","HierDy55os536l","sub08","08","1","motor","75","img/motor_6.png","74","motor","6","41","0","1","0","","",""
"471","2683921","HierDy55os536l","sub08","08","1","motorRepeat","74","img/motor_6.png","74","motor","6","41","1","0","0","","",""
"null","2684030","HierDy55os536l","sub08","08","1","iti","null","img/motor_6.png","74","motor","","","","","","","",""
"668","2684706","HierDy55os536l","sub08","08","1","motor","68","img/motor_3.png","68","motor","3","42","1","0","0","","",""
"null","2684817","HierDy55os536l","sub08","08","1","iti","null","img/motor_3.png","68","motor","","","","","","","",""
"506","2685333","HierDy55os536l","sub08","08","1","motor","76","img/motor_8.png","76","motor","8","43","1","0","0","","",""
"null","2685444","HierDy55os536l","sub08","08","1","iti","null","img/motor_8.png","76","motor","","","","","","","",""
"609","2686063","HierDy55os536l","sub08","08","1","motor","75","img/motor_7.png","75","motor","7","44","1","0","0","","",""
"null","2686175","HierDy55os536l","sub08","08","1","iti","null","img/motor_7.png","75","motor","","","","","","","",""
"676","2686862","HierDy55os536l","sub08","08","1","motor","83","img/motor_2.png","83","motor","2","45","1","0","0","","",""
"null","2686973","HierDy55os536l","sub08","08","1","iti","null","img/motor_2.png","83","motor","","","","","","","",""
"527","2687510","HierDy55os536l","sub08","08","1","motor","65","img/motor_1.png","65","motor","1","46","1","0","0","","",""
"null","2687622","HierDy55os536l","sub08","08","1","iti","null","img/motor_1.png","65","motor","","","","","","","",""
"644","2688274","HierDy55os536l","sub08","08","1","motor","83","img/motor_2.png","83","motor","2","47","1","0","0","","",""
"null","2688385","HierDy55os536l","sub08","08","1","iti","null","img/motor_2.png","83","motor","","","","","","","",""
"564","2688959","HierDy55os536l","sub08","08","1","motor","75","img/motor_7.png","75","motor","7","48","1","0","0","","",""
"null","2689070","HierDy55os536l","sub08","08","1","iti","null","img/motor_7.png","75","motor","","","","","","","",""
"786","2689866","HierDy55os536l","sub08","08","1","motor","75","img/motor_7.png","75","motor","7","49","1","0","0","","",""
"null","2689977","HierDy55os536l","sub08","08","1","iti","null","img/motor_7.png","75","motor","","","","","","","",""
"708","2690695","HierDy55os536l","sub08","08","1","motor","70","img/motor_4.png","70","motor","4","50","1","0","0","","",""
"null","2690806","HierDy55os536l","sub08","08","1","iti","null","img/motor_4.png","70","motor","","","","","","","",""
"623","2691439","HierDy55os536l","sub08","08","1","motor","72","img/motor_5.png","72","motor","5","51","1","0","0","","",""
"null","2691549","HierDy55os536l","sub08","08","1","iti","null","img/motor_5.png","72","motor","","","","","","","",""
"656","2692215","HierDy55os536l","sub08","08","1","motor","68","img/motor_3.png","68","motor","3","52","1","0","0","","",""
"null","2692325","HierDy55os536l","sub08","08","1","iti","null","img/motor_3.png","68","motor","","","","","","","",""
"664","2692999","HierDy55os536l","sub08","08","1","motor","70","img/motor_4.png","70","motor","4","53","1","0","0","","",""
"null","2693108","HierDy55os536l","sub08","08","1","iti","null","img/motor_4.png","70","motor","","","","","","","",""
"519","2693636","HierDy55os536l","sub08","08","1","motor","70","img/motor_4.png","70","motor","4","54","1","0","0","","",""
"null","2693746","HierDy55os536l","sub08","08","1","iti","null","img/motor_4.png","70","motor","","","","","","","",""
"538","2694293","HierDy55os536l","sub08","08","1","motor","83","img/motor_2.png","83","motor","2","55","1","0","0","","",""
"null","2694405","HierDy55os536l","sub08","08","1","iti","null","img/motor_2.png","83","motor","","","","","","","",""
"587","2695001","HierDy55os536l","sub08","08","1","motor","76","img/motor_8.png","76","motor","8","56","1","0","0","","",""
"null","2695111","HierDy55os536l","sub08","08","1","iti","null","img/motor_8.png","76","motor","","","","","","","",""
"555","2695675","HierDy55os536l","sub08","08","1","motor","68","img/motor_3.png","68","motor","3","57","1","0","0","","",""
"null","2695786","HierDy55os536l","sub08","08","1","iti","null","img/motor_3.png","68","motor","","","","","","","",""
"626","2696422","HierDy55os536l","sub08","08","1","motor","75","img/motor_7.png","75","motor","7","58","1","0","0","","",""
"null","2696532","HierDy55os536l","sub08","08","1","iti","null","img/motor_7.png","75","motor","","","","","","","",""
"719","2697261","HierDy55os536l","sub08","08","1","motor","74","img/motor_6.png","74","motor","6","59","1","0","0","","",""
"null","2697371","HierDy55os536l","sub08","08","1","iti","null","img/motor_6.png","74","motor","","","","","","","",""
"46","2697425","HierDy55os536l","sub08","08","1","motor","74","img/motor_5.png","72","motor","5","60","0","1","0","","",""
"509","2697943","HierDy55os536l","sub08","08","1","motorRepeat","72","img/motor_5.png","72","motor","5","60","1","0","0","","",""
"null","2698053","HierDy55os536l","sub08","08","1","iti","null","img/motor_5.png","72","motor","","","","","","","",""
"479","2698540","HierDy55os536l","sub08","08","1","motor","68","img/motor_3.png","68","motor","3","61","1","0","0","","",""
"null","2698651","HierDy55os536l","sub08","08","1","iti","null","img/motor_3.png","68","motor","","","","","","","",""
"417","2699078","HierDy55os536l","sub08","08","1","motor","70","img/motor_4.png","70","motor","4","62","1","0","0","","",""
"null","2699188","HierDy55os536l","sub08","08","1","iti","null","img/motor_4.png","70","motor","","","","","","","",""
"485","2699681","HierDy55os536l","sub08","08","1","motor","76","img/motor_8.png","76","motor","8","63","1","0","0","","",""
"null","2699792","HierDy55os536l","sub08","08","1","iti","null","img/motor_8.png","76","motor","","","","","","","",""
"592","2700396","HierDy55os536l","sub08","08","1","motor","75","img/motor_6.png","74","motor","6","64","0","1","0","","",""
"252","2700660","HierDy55os536l","sub08","08","1","motorRepeat","74","img/motor_6.png","74","motor","6","64","1","0","0","","",""
"null","2700770","HierDy55os536l","sub08","08","1","iti","null","img/motor_6.png","74","motor","","","","","","","",""
"572","2701353","HierDy55os536l","sub08","08","1","motor","76","img/motor_8.png","76","motor","8","65","1","0","0","","",""
"null","2701465","HierDy55os536l","sub08","08","1","iti","null","img/motor_8.png","76","motor","","","","","","","",""
"676","2702152","HierDy55os536l","sub08","08","1","motor","72","img/motor_5.png","72","motor","5","66","1","0","0","","",""
"null","2702263","HierDy55os536l","sub08","08","1","iti","null","img/motor_5.png","72","motor","","","","","","","",""
"584","2702858","HierDy55os536l","sub08","08","1","motor","76","img/motor_8.png","76","motor","8","67","1","0","0","","",""
"null","2702968","HierDy55os536l","sub08","08","1","iti","null","img/motor_8.png","76","motor","","","","","","","",""
"613","2703590","HierDy55os536l","sub08","08","1","motor","76","img/motor_8.png","76","motor","8","68","1","0","0","","",""
"null","2703703","HierDy55os536l","sub08","08","1","iti","null","img/motor_8.png","76","motor","","","","","","","",""
"626","2704341","HierDy55os536l","sub08","08","1","motor","83","img/motor_2.png","83","motor","2","69","1","0","0","","",""
"null","2704452","HierDy55os536l","sub08","08","1","iti","null","img/motor_2.png","83","motor","","","","","","","",""
"578","2705040","HierDy55os536l","sub08","08","1","motor","72","img/motor_5.png","72","motor","5","70","1","0","0","","",""
"null","2705151","HierDy55os536l","sub08","08","1","iti","null","img/motor_5.png","72","motor","","","","","","","",""
"627","2705787","HierDy55os536l","sub08","08","1","motor","74","img/motor_6.png","74","motor","6","71","1","0","0","","",""
"null","2705899","HierDy55os536l","sub08","08","1","iti","null","img/motor_6.png","74","motor","","","","","","","",""
"547","2706456","HierDy55os536l","sub08","08","1","motor","65","img/motor_1.png","65","motor","1","72","1","0","0","","",""
"null","2706568","HierDy55os536l","sub08","08","1","iti","null","img/motor_1.png","65","motor","","","","","","","",""
"536","2707115","HierDy55os536l","sub08","08","1","motor","70","img/motor_4.png","70","motor","4","73","1","0","0","","",""
"null","2707227","HierDy55os536l","sub08","08","1","iti","null","img/motor_4.png","70","motor","","","","","","","",""
"499","2707737","HierDy55os536l","sub08","08","1","motor","83","img/motor_2.png","83","motor","2","74","1","0","0","","",""
"null","2707848","HierDy55os536l","sub08","08","1","iti","null","img/motor_2.png","83","motor","","","","","","","",""
"451","2708308","HierDy55os536l","sub08","08","1","motor","83","img/motor_2.png","83","motor","2","75","1","0","0","","",""
"null","2708419","HierDy55os536l","sub08","08","1","iti","null","img/motor_2.png","83","motor","","","","","","","",""
"452","2708881","HierDy55os536l","sub08","08","1","motor","76","img/motor_8.png","76","motor","8","76","1","0","0","","",""
"null","2708992","HierDy55os536l","sub08","08","1","iti","null","img/motor_8.png","76","motor","","","","","","","",""
"435","2709438","HierDy55os536l","sub08","08","1","motor","68","img/motor_3.png","68","motor","3","77","1","0","0","","",""
"null","2709548","HierDy55os536l","sub08","08","1","iti","null","img/motor_3.png","68","motor","","","","","","","",""
"424","2709981","HierDy55os536l","sub08","08","1","motor","68","img/motor_3.png","68","motor","3","78","1","0","0","","",""
"null","2710090","HierDy55os536l","sub08","08","1","iti","null","img/motor_3.png","68","motor","","","","","","","",""
"668","2710767","HierDy55os536l","sub08","08","1","motor","72","img/motor_5.png","72","motor","5","79","1","0","0","","",""
"null","2710879","HierDy55os536l","sub08","08","1","iti","null","img/motor_5.png","72","motor","","","","","","","",""
"538","2711426","HierDy55os536l","sub08","08","1","motor","75","img/motor_7.png","75","motor","7","80","1","0","0","","",""
"null","2711537","HierDy55os536l","sub08","08","1","iti","null","img/motor_7.png","75","motor","","","","","","","",""
"378","2711920","HierDy55os536l","sub08","08","1","motor","75","img/motor_7.png","75","motor","7","81","1","0","0","","",""
"null","2712027","HierDy55os536l","sub08","08","1","iti","null","img/motor_7.png","75","motor","","","","","","","",""
"433","2712468","HierDy55os536l","sub08","08","1","motor","76","img/motor_8.png","76","motor","8","82","1","0","0","","",""
"null","2712575","HierDy55os536l","sub08","08","1","iti","null","img/motor_8.png","76","motor","","","","","","","",""
"499","2713080","HierDy55os536l","sub08","08","1","motor","65","img/motor_1.png","65","motor","1","83","1","0","0","","",""
"null","2713187","HierDy55os536l","sub08","08","1","iti","null","img/motor_1.png","65","motor","","","","","","","",""
"462","2713661","HierDy55os536l","sub08","08","1","motor","72","img/motor_5.png","72","motor","5","84","1","0","0","","",""
"null","2713771","HierDy55os536l","sub08","08","1","iti","null","img/motor_5.png","72","motor","","","","","","","",""
"441","2714221","HierDy55os536l","sub08","08","1","motor","74","img/motor_6.png","74","motor","6","85","1","0","0","","",""
"null","2714332","HierDy55os536l","sub08","08","1","iti","null","img/motor_6.png","74","motor","","","","","","","",""
"679","2715018","HierDy55os536l","sub08","08","1","motor","70","img/motor_4.png","70","motor","4","86","1","0","0","","",""
"null","2715129","HierDy55os536l","sub08","08","1","iti","null","img/motor_4.png","70","motor","","","","","","","",""
"558","2715697","HierDy55os536l","sub08","08","1","motor","75","img/motor_6.png","74","motor","6","87","0","1","0","","",""
"238","2715945","HierDy55os536l","sub08","08","1","motorRepeat","74","img/motor_6.png","74","motor","6","87","1","0","0","","",""
"null","2716055","HierDy55os536l","sub08","08","1","iti","null","img/motor_6.png","74","motor","","","","","","","",""
"496","2716560","HierDy55os536l","sub08","08","1","motor","75","img/motor_7.png","75","motor","7","88","1","0","0","","",""
"null","2716668","HierDy55os536l","sub08","08","1","iti","null","img/motor_7.png","75","motor","","","","","","","",""
"499","2717174","HierDy55os536l","sub08","08","1","motor","65","img/motor_1.png","65","motor","1","89","1","0","0","","",""
"null","2717283","HierDy55os536l","sub08","08","1","iti","null","img/motor_1.png","65","motor","","","","","","","",""
"437","2717727","HierDy55os536l","sub08","08","1","motor","70","img/motor_4.png","70","motor","4","90","1","0","0","","",""
"null","2717838","HierDy55os536l","sub08","08","1","iti","null","img/motor_4.png","70","motor","","","","","","","",""
"499","2718347","HierDy55os536l","sub08","08","1","motor","72","img/motor_5.png","72","motor","5","91","1","0","0","","",""
"null","2718458","HierDy55os536l","sub08","08","1","iti","null","img/motor_5.png","72","motor","","","","","","","",""
"437","2718904","HierDy55os536l","sub08","08","1","motor","76","img/motor_8.png","76","motor","8","92","1","0","0","","",""
"null","2719013","HierDy55os536l","sub08","08","1","iti","null","img/motor_8.png","76","motor","","","","","","","",""
"707","2719731","HierDy55os536l","sub08","08","1","motor","74","img/motor_6.png","74","motor","6","93","1","0","0","","",""
"null","2719841","HierDy55os536l","sub08","08","1","iti","null","img/motor_6.png","74","motor","","","","","","","",""
"521","2720371","HierDy55os536l","sub08","08","1","motor","83","img/motor_2.png","83","motor","2","94","1","0","0","","",""
"null","2720482","HierDy55os536l","sub08","08","1","iti","null","img/motor_2.png","83","motor","","","","","","","",""
"596","2721088","HierDy55os536l","sub08","08","1","motor","75","img/motor_6.png","74","motor","6","95","0","1","0","","",""
"277","2721375","HierDy55os536l","sub08","08","1","motorRepeat","74","img/motor_6.png","74","motor","6","95","1","0","0","","",""
"null","2721487","HierDy55os536l","sub08","08","1","iti","null","img/motor_6.png","74","motor","","","","","","","",""
"570","2722066","HierDy55os536l","sub08","08","1","motor","70","img/motor_4.png","70","motor","4","96","1","0","0","","",""
"null","2722178","HierDy55os536l","sub08","08","1","iti","null","img/motor_4.png","70","motor","","","","","","","",""
"648","2722836","HierDy55os536l","sub08","08","1","motor","74","img/motor_6.png","74","motor","6","97","1","0","0","","",""
"null","2722947","HierDy55os536l","sub08","08","1","iti","null","img/motor_6.png","74","motor","","","","","","","",""
"595","2723552","HierDy55os536l","sub08","08","1","motor","68","img/motor_3.png","68","motor","3","98","1","0","0","","",""
"null","2723663","HierDy55os536l","sub08","08","1","iti","null","img/motor_3.png","68","motor","","","","","","","",""
"562","2724235","HierDy55os536l","sub08","08","1","motor","68","img/motor_3.png","68","motor","3","99","1","0","0","","",""
"null","2724347","HierDy55os536l","sub08","08","1","iti","null","img/motor_3.png","68","motor","","","","","","","",""
"548","2724905","HierDy55os536l","sub08","08","1","motor","72","img/motor_5.png","72","motor","5","100","1","0","0","","",""
"null","2725016","HierDy55os536l","sub08","08","1","iti","null","img/motor_5.png","72","motor","","","","","","","",""
"444","2725470","HierDy55os536l","sub08","08","1","motor","65","img/motor_1.png","65","motor","1","101","1","0","0","","",""
"null","2725582","HierDy55os536l","sub08","08","1","iti","null","img/motor_1.png","65","motor","","","","","","","",""
"657","2726248","HierDy55os536l","sub08","08","1","motor","74","img/motor_6.png","74","motor","6","102","1","0","0","","",""
"null","2726360","HierDy55os536l","sub08","08","1","iti","null","img/motor_6.png","74","motor","","","","","","","",""
"462","2726832","HierDy55os536l","sub08","08","1","motor","68","img/motor_4.png","70","motor","4","103","0","1","0","","",""
"281","2727123","HierDy55os536l","sub08","08","1","motorRepeat","70","img/motor_4.png","70","motor","4","103","1","0","0","","",""
"null","2727233","HierDy55os536l","sub08","08","1","iti","null","img/motor_4.png","70","motor","","","","","","","",""
"457","2727698","HierDy55os536l","sub08","08","1","motor","68","img/motor_3.png","68","motor","3","104","1","0","0","","",""
"null","2727810","HierDy55os536l","sub08","08","1","iti","null","img/motor_3.png","68","motor","","","","","","","",""
"466","2728283","HierDy55os536l","sub08","08","1","motor","76","img/motor_8.png","76","motor","8","105","1","0","0","","",""
"null","2728395","HierDy55os536l","sub08","08","1","iti","null","img/motor_8.png","76","motor","","","","","","","",""
"666","2729069","HierDy55os536l","sub08","08","1","motor","74","img/motor_6.png","74","motor","6","106","1","0","0","","",""
"null","2729178","HierDy55os536l","sub08","08","1","iti","null","img/motor_6.png","74","motor","","","","","","","",""
"435","2729623","HierDy55os536l","sub08","08","1","motor","72","img/motor_4.png","70","motor","4","107","0","1","0","","",""
"279","2729912","HierDy55os536l","sub08","08","1","motorRepeat","70","img/motor_4.png","70","motor","4","107","1","0","0","","",""
"null","2730022","HierDy55os536l","sub08","08","1","iti","null","img/motor_4.png","70","motor","","","","","","","",""
"479","2730511","HierDy55os536l","sub08","08","1","motor","72","img/motor_5.png","72","motor","5","108","1","0","0","","",""
"null","2730620","HierDy55os536l","sub08","08","1","iti","null","img/motor_5.png","72","motor","","","","","","","",""
"467","2731097","HierDy55os536l","sub08","08","1","motor","74","img/motor_6.png","74","motor","6","109","1","0","0","","",""
"null","2731208","HierDy55os536l","sub08","08","1","iti","null","img/motor_6.png","74","motor","","","","","","","",""
"528","2731744","HierDy55os536l","sub08","08","1","motor","70","img/motor_4.png","70","motor","4","110","1","0","0","","",""
"null","2731853","HierDy55os536l","sub08","08","1","iti","null","img/motor_4.png","70","motor","","","","","","","",""
"468","2732333","HierDy55os536l","sub08","08","1","motor","74","img/motor_6.png","74","motor","6","111","1","0","0","","",""
"null","2732443","HierDy55os536l","sub08","08","1","iti","null","img/motor_6.png","74","motor","","","","","","","",""
"476","2732929","HierDy55os536l","sub08","08","1","motor","75","img/motor_7.png","75","motor","7","112","1","0","0","","",""
"null","2733037","HierDy55os536l","sub08","08","1","iti","null","img/motor_7.png","75","motor","","","","","","","",""
"481","2733526","HierDy55os536l","sub08","08","1","motor","70","img/motor_4.png","70","motor","4","113","1","0","0","","",""
"null","2733635","HierDy55os536l","sub08","08","1","iti","null","img/motor_4.png","70","motor","","","","","","","",""
"474","2734119","HierDy55os536l","sub08","08","1","motor","72","img/motor_5.png","72","motor","5","114","1","0","0","","",""
"null","2734229","HierDy55os536l","sub08","08","1","iti","null","img/motor_5.png","72","motor","","","","","","","",""
"440","2734678","HierDy55os536l","sub08","08","1","motor","76","img/motor_8.png","76","motor","8","115","1","0","0","","",""
"null","2734788","HierDy55os536l","sub08","08","1","iti","null","img/motor_8.png","76","motor","","","","","","","",""
"625","2735424","HierDy55os536l","sub08","08","1","motor","83","img/motor_2.png","83","motor","2","116","1","0","0","","",""
"null","2735533","HierDy55os536l","sub08","08","1","iti","null","img/motor_2.png","83","motor","","","","","","","",""
"451","2735994","HierDy55os536l","sub08","08","1","motor","72","img/motor_5.png","72","motor","5","117","1","0","0","","",""
"null","2736105","HierDy55os536l","sub08","08","1","iti","null","img/motor_5.png","72","motor","","","","","","","",""
"444","2736559","HierDy55os536l","sub08","08","1","motor","83","img/motor_2.png","83","motor","2","118","1","0","0","","",""
"null","2736668","HierDy55os536l","sub08","08","1","iti","null","img/motor_2.png","83","motor","","","","","","","",""
"355","2737030","HierDy55os536l","sub08","08","1","motor","72","img/motor_5.png","72","motor","5","119","1","0","0","","",""
"null","2737140","HierDy55os536l","sub08","08","1","iti","null","img/motor_5.png","72","motor","","","","","","","",""
"434","2737585","HierDy55os536l","sub08","08","1","motor","83","img/motor_1.png","65","motor","1","120","0","1","0","","",""
"243","2737837","HierDy55os536l","sub08","08","1","motorRepeat","65","img/motor_1.png","65","motor","1","120","1","0","0","","",""
"null","2737948","HierDy55os536l","sub08","08","1","iti","null","img/motor_1.png","65","motor","","","","","","","",""
"588","2738544","HierDy55os536l","sub08","08","1","motor","75","img/motor_7.png","75","motor","7","121","1","0","0","","",""
"null","2738655","HierDy55os536l","sub08","08","1","iti","null","img/motor_7.png","75","motor","","","","","","","",""
"542","2739205","HierDy55os536l","sub08","08","1","motor","74","img/motor_6.png","74","motor","6","122","1","0","0","","",""
"null","2739316","HierDy55os536l","sub08","08","1","iti","null","img/motor_6.png","74","motor","","","","","","","",""
"540","2739867","HierDy55os536l","sub08","08","1","motor","70","img/motor_4.png","70","motor","4","123","1","0","0","","",""
"null","2739976","HierDy55os536l","sub08","08","1","iti","null","img/motor_4.png","70","motor","","","","","","","",""
"579","2740562","HierDy55os536l","sub08","08","1","motor","68","img/motor_3.png","68","motor","3","124","1","0","0","","",""
"null","2740673","HierDy55os536l","sub08","08","1","iti","null","img/motor_3.png","68","motor","","","","","","","",""
"494","2741176","HierDy55os536l","sub08","08","1","motor","65","img/motor_1.png","65","motor","1","125","1","0","0","","",""
"null","2741287","HierDy55os536l","sub08","08","1","iti","null","img/motor_1.png","65","motor","","","","","","","",""
"521","2741819","HierDy55os536l","sub08","08","1","motor","83","img/motor_2.png","83","motor","2","126","1","0","0","","",""
"null","2741929","HierDy55os536l","sub08","08","1","iti","null","img/motor_2.png","83","motor","","","","","","","",""
"548","2742486","HierDy55os536l","sub08","08","1","motor","65","img/motor_1.png","65","motor","1","127","1","0","0","","",""
"null","2742597","HierDy55os536l","sub08","08","1","iti","null","img/motor_1.png","65","motor","","","","","","","",""
"489","2743094","HierDy55os536l","sub08","08","1","motor","70","img/motor_4.png","70","motor","4","128","1","0","0","","",""
"null","2743206","HierDy55os536l","sub08","08","1","iti","null","img/motor_4.png","70","motor","","","","","","","",""
"423","2743639","HierDy55os536l","sub08","08","1","motor","68","img/motor_3.png","68","motor","3","129","1","0","0","","",""
"null","2743749","HierDy55os536l","sub08","08","1","iti","null","img/motor_3.png","68","motor","","","","","","","",""
"580","2744340","HierDy55os536l","sub08","08","1","motor","75","img/motor_7.png","75","motor","7","130","1","0","0","","",""
"null","2744450","HierDy55os536l","sub08","08","1","iti","null","img/motor_7.png","75","motor","","","","","","","",""
"438","2744900","HierDy55os536l","sub08","08","1","motor","65","img/motor_1.png","65","motor","1","131","1","0","0","","",""
"null","2745009","HierDy55os536l","sub08","08","1","iti","null","img/motor_1.png","65","motor","","","","","","","",""
"414","2745434","HierDy55os536l","sub08","08","1","motor","65","img/motor_1.png","65","motor","1","132","1","0","0","","",""
"null","2745546","HierDy55os536l","sub08","08","1","iti","null","img/motor_1.png","65","motor","","","","","","","",""
"547","2746102","HierDy55os536l","sub08","08","1","motor","70","img/motor_4.png","70","motor","4","133","1","0","0","","",""
"null","2746212","HierDy55os536l","sub08","08","1","iti","null","img/motor_4.png","70","motor","","","","","","","",""
"414","2746637","HierDy55os536l","sub08","08","1","motor","70","img/motor_4.png","70","motor","4","134","1","0","0","","",""
"null","2746749","HierDy55os536l","sub08","08","1","iti","null","img/motor_4.png","70","motor","","","","","","","",""
"512","2747270","HierDy55os536l","sub08","08","1","motor","72","img/motor_7.png","75","motor","7","135","0","1","0","","",""
"251","2747530","HierDy55os536l","sub08","08","1","motorRepeat","75","img/motor_7.png","75","motor","7","135","1","0","0","","",""
"null","2747642","HierDy55os536l","sub08","08","1","iti","null","img/motor_7.png","75","motor","","","","","","","",""
"467","2748120","HierDy55os536l","sub08","08","1","motor","72","img/motor_5.png","72","motor","5","136","1","0","0","","",""
"null","2748228","HierDy55os536l","sub08","08","1","iti","null","img/motor_5.png","72","motor","","","","","","","",""
"518","2748756","HierDy55os536l","sub08","08","1","motor","70","img/motor_4.png","70","motor","4","137","1","0","0","","",""
"null","2748866","HierDy55os536l","sub08","08","1","iti","null","img/motor_4.png","70","motor","","","","","","","",""
"500","2749376","HierDy55os536l","sub08","08","1","motor","76","img/motor_8.png","76","motor","8","138","1","0","0","","",""
"null","2749487","HierDy55os536l","sub08","08","1","iti","null","img/motor_8.png","76","motor","","","","","","","",""
"573","2750071","HierDy55os536l","sub08","08","1","motor","68","img/motor_3.png","68","motor","3","139","1","0","0","","",""
"null","2750182","HierDy55os536l","sub08","08","1","iti","null","img/motor_3.png","68","motor","","","","","","","",""
"421","2750613","HierDy55os536l","sub08","08","1","motor","72","img/motor_4.png","70","motor","4","140","0","1","0","","",""
"332","2750955","HierDy55os536l","sub08","08","1","motorRepeat","70","img/motor_4.png","70","motor","4","140","1","0","0","","",""
"null","2751066","HierDy55os536l","sub08","08","1","iti","null","img/motor_4.png","70","motor","","","","","","","",""
"598","2751674","HierDy55os536l","sub08","08","1","motor","75","img/motor_6.png","74","motor","6","141","0","1","0","","",""
"262","2751945","HierDy55os536l","sub08","08","1","motorRepeat","74","img/motor_6.png","74","motor","6","141","1","0","0","","",""
"null","2752054","HierDy55os536l","sub08","08","1","iti","null","img/motor_6.png","74","motor","","","","","","","",""
"508","2752571","HierDy55os536l","sub08","08","1","motor","75","img/motor_7.png","75","motor","7","142","1","0","0","","",""
"null","2752681","HierDy55os536l","sub08","08","1","iti","null","img/motor_7.png","75","motor","","","","","","","",""
"458","2753149","HierDy55os536l","sub08","08","1","motor","65","img/motor_1.png","65","motor","1","143","1","0","0","","",""
"null","2753260","HierDy55os536l","sub08","08","1","iti","null","img/motor_1.png","65","motor","","","","","","","",""
"763","2754033","HierDy55os536l","sub08","08","1","motor","72","img/motor_5.png","72","motor","5","144","1","0","0","","",""
"null","2754142","HierDy55os536l","sub08","08","1","iti","null","img/motor_5.png","72","motor","","","","","","","",""
"548","2754700","HierDy55os536l","sub08","08","1","motor","83","img/motor_2.png","83","motor","2","145","1","0","0","","",""
"null","2754811","HierDy55os536l","sub08","08","1","iti","null","img/motor_2.png","83","motor","","","","","","","",""
"507","2755327","HierDy55os536l","sub08","08","1","motor","70","img/motor_4.png","70","motor","4","146","1","0","0","","",""
"null","2755437","HierDy55os536l","sub08","08","1","iti","null","img/motor_4.png","70","motor","","","","","","","",""
"422","2755870","HierDy55os536l","sub08","08","1","motor","68","img/motor_3.png","68","motor","3","147","1","0","0","","",""
"null","2755981","HierDy55os536l","sub08","08","1","iti","null","img/motor_3.png","68","motor","","","","","","","",""
"567","2756558","HierDy55os536l","sub08","08","1","motor","74","img/motor_6.png","74","motor","6","148","1","0","0","","",""
"null","2756669","HierDy55os536l","sub08","08","1","iti","null","img/motor_6.png","74","motor","","","","","","","",""
"380","2757059","HierDy55os536l","sub08","08","1","motor","74","img/motor_6.png","74","motor","6","149","1","0","0","","",""
"null","2757171","HierDy55os536l","sub08","08","1","iti","null","img/motor_6.png","74","motor","","","","","","","",""
"482","2757663","HierDy55os536l","sub08","08","1","motor","83","img/motor_2.png","83","motor","2","150","1","0","0","","",""
"null","2757772","HierDy55os536l","sub08","08","1","iti","null","img/motor_2.png","83","motor","","","","","","","",""
"507","2758289","HierDy55os536l","sub08","08","1","motor","74","img/motor_6.png","74","motor","6","151","1","0","0","","",""
"null","2758400","HierDy55os536l","sub08","08","1","iti","null","img/motor_6.png","74","motor","","","","","","","",""
"417","2758827","HierDy55os536l","sub08","08","1","motor","65","img/motor_1.png","65","motor","1","152","1","0","0","","",""
"null","2758940","HierDy55os536l","sub08","08","1","iti","null","img/motor_1.png","65","motor","","","","","","","",""
"488","2759438","HierDy55os536l","sub08","08","1","motor","75","img/motor_7.png","75","motor","7","153","1","0","0","","",""
"null","2759549","HierDy55os536l","sub08","08","1","iti","null","img/motor_7.png","75","motor","","","","","","","",""
"431","2759991","HierDy55os536l","sub08","08","1","motor","74","img/motor_6.png","74","motor","6","154","1","0","0","","",""
"null","2760103","HierDy55os536l","sub08","08","1","iti","null","img/motor_6.png","74","motor","","","","","","","",""
"460","2760573","HierDy55os536l","sub08","08","1","motor","68","img/motor_3.png","68","motor","3","155","1","0","0","","",""
"null","2760682","HierDy55os536l","sub08","08","1","iti","null","img/motor_3.png","68","motor","","","","","","","",""
"403","2761095","HierDy55os536l","sub08","08","1","motor","68","img/motor_3.png","68","motor","3","156","1","0","0","","",""
"null","2761207","HierDy55os536l","sub08","08","1","iti","null","img/motor_3.png","68","motor","","","","","","","",""
"430","2761648","HierDy55os536l","sub08","08","1","motor","83","img/motor_2.png","83","motor","2","157","1","0","0","","",""
"null","2761757","HierDy55os536l","sub08","08","1","iti","null","img/motor_2.png","83","motor","","","","","","","",""
"543","2762310","HierDy55os536l","sub08","08","1","motor","76","img/motor_8.png","76","motor","8","158","1","0","0","","",""
"null","2762421","HierDy55os536l","sub08","08","1","iti","null","img/motor_8.png","76","motor","","","","","","","",""
"527","2762958","HierDy55os536l","sub08","08","1","motor","75","img/motor_7.png","75","motor","7","159","1","0","0","","",""
"null","2763069","HierDy55os536l","sub08","08","1","iti","null","img/motor_7.png","75","motor","","","","","","","",""
"521","2763599","HierDy55os536l","sub08","08","1","motor","72","img/motor_5.png","72","motor","5","160","1","0","0","","",""
"null","2763710","HierDy55os536l","sub08","08","1","iti","null","img/motor_5.png","72","motor","","","","","","","",""
"426","2764147","HierDy55os536l","sub08","08","1","motor","65","img/motor_1.png","65","motor","1","161","1","0","0","","",""
"null","2764257","HierDy55os536l","sub08","08","1","iti","null","img/motor_1.png","65","motor","","","","","","","",""
"633","2764902","HierDy55os536l","sub08","08","1","motor","75","img/motor_7.png","75","motor","7","162","1","0","0","","",""
"null","2765014","HierDy55os536l","sub08","08","1","iti","null","img/motor_7.png","75","motor","","","","","","","",""
"479","2765504","HierDy55os536l","sub08","08","1","motor","74","img/motor_6.png","74","motor","6","163","1","0","0","","",""
"null","2765615","HierDy55os536l","sub08","08","1","iti","null","img/motor_6.png","74","motor","","","","","","","",""
"380","2766004","HierDy55os536l","sub08","08","1","motor","72","img/motor_5.png","72","motor","5","164","1","0","0","","",""
"null","2766117","HierDy55os536l","sub08","08","1","iti","null","img/motor_5.png","72","motor","","","","","","","",""
"465","2766592","HierDy55os536l","sub08","08","1","motor","68","img/motor_3.png","68","motor","3","165","1","0","0","","",""
"null","2766704","HierDy55os536l","sub08","08","1","iti","null","img/motor_3.png","68","motor","","","","","","","",""
"472","2767186","HierDy55os536l","sub08","08","1","motor","74","img/motor_6.png","74","motor","6","166","1","0","0","","",""
"null","2767297","HierDy55os536l","sub08","08","1","iti","null","img/motor_6.png","74","motor","","","","","","","",""
"335","2767642","HierDy55os536l","sub08","08","1","motor","72","img/motor_5.png","72","motor","5","167","1","0","0","","",""
"null","2767752","HierDy55os536l","sub08","08","1","iti","null","img/motor_5.png","72","motor","","","","","","","",""
"442","2768203","HierDy55os536l","sub08","08","1","motor","75","img/motor_7.png","75","motor","7","168","1","0","0","","",""
"null","2768315","HierDy55os536l","sub08","08","1","iti","null","img/motor_7.png","75","motor","","","","","","","",""
"642","2768970","HierDy55os536l","sub08","08","1","motor","68","img/motor_3.png","68","motor","3","169","1","0","0","","",""
"null","2769083","HierDy55os536l","sub08","08","1","iti","null","img/motor_3.png","68","motor","","","","","","","",""
"701","2769794","HierDy55os536l","sub08","08","1","motor","76","img/motor_8.png","76","motor","8","170","1","0","0","","",""
"null","2769906","HierDy55os536l","sub08","08","1","iti","null","img/motor_8.png","76","motor","","","","","","","",""
"561","2770478","HierDy55os536l","sub08","08","1","motor","75","img/motor_6.png","74","motor","6","171","0","1","0","","",""
"240","2770730","HierDy55os536l","sub08","08","1","motorRepeat","74","img/motor_6.png","74","motor","6","171","1","0","0","","",""
"null","2770839","HierDy55os536l","sub08","08","1","iti","null","img/motor_6.png","74","motor","","","","","","","",""
"427","2771273","HierDy55os536l","sub08","08","1","motor","76","img/motor_8.png","76","motor","8","172","1","0","0","","",""
"null","2771385","HierDy55os536l","sub08","08","1","iti","null","img/motor_8.png","76","motor","","","","","","","",""
"595","2771991","HierDy55os536l","sub08","08","1","motor","72","img/motor_5.png","72","motor","5","173","1","0","0","","",""
"null","2772103","HierDy55os536l","sub08","08","1","iti","null","img/motor_5.png","72","motor","","","","","","","",""
"499","2772614","HierDy55os536l","sub08","08","1","motor","75","img/motor_7.png","75","motor","7","174","1","0","0","","",""
"null","2772725","HierDy55os536l","sub08","08","1","iti","null","img/motor_7.png","75","motor","","","","","","","",""
"559","2773292","HierDy55os536l","sub08","08","1","motor","70","img/motor_4.png","70","motor","4","175","1","0","0","","",""
"null","2773404","HierDy55os536l","sub08","08","1","iti","null","img/motor_4.png","70","motor","","","","","","","",""
"464","2773878","HierDy55os536l","sub08","08","1","motor","65","img/motor_1.png","65","motor","1","176","1","0","0","","",""
"null","2773989","HierDy55os536l","sub08","08","1","iti","null","img/motor_1.png","65","motor","","","","","","","",""
"509","2774508","HierDy55os536l","sub08","08","1","motor","76","img/motor_8.png","76","motor","8","177","1","0","0","","",""
"null","2774620","HierDy55os536l","sub08","08","1","iti","null","img/motor_8.png","76","motor","","","","","","","",""
"440","2775070","HierDy55os536l","sub08","08","1","motor","75","img/motor_7.png","75","motor","7","178","1","0","0","","",""
"null","2775180","HierDy55os536l","sub08","08","1","iti","null","img/motor_7.png","75","motor","","","","","","","",""
"587","2775777","HierDy55os536l","sub08","08","1","motor","68","img/motor_3.png","68","motor","3","179","1","0","0","","",""
"null","2775889","HierDy55os536l","sub08","08","1","iti","null","img/motor_3.png","68","motor","","","","","","","",""
"463","2776362","HierDy55os536l","sub08","08","1","motor","76","img/motor_8.png","76","motor","8","180","1","0","0","","",""
"null","2776475","HierDy55os536l","sub08","08","1","iti","null","img/motor_8.png","76","motor","","","","","","","",""
"480","2776962","HierDy55os536l","sub08","08","1","motor","65","img/motor_1.png","65","motor","1","181","1","0","0","","",""
"null","2777072","HierDy55os536l","sub08","08","1","iti","null","img/motor_1.png","65","motor","","","","","","","",""
"458","2777539","HierDy55os536l","sub08","08","1","motor","68","img/motor_3.png","68","motor","3","182","1","0","0","","",""
"null","2777649","HierDy55os536l","sub08","08","1","iti","null","img/motor_3.png","68","motor","","","","","","","",""
"474","2778133","HierDy55os536l","sub08","08","1","motor","83","img/motor_2.png","83","motor","2","183","1","0","0","","",""
"null","2778244","HierDy55os536l","sub08","08","1","iti","null","img/motor_2.png","83","motor","","","","","","","",""
"402","2778656","HierDy55os536l","sub08","08","1","motor","68","img/motor_4.png","70","motor","4","184","0","1","0","","",""
"284","2778950","HierDy55os536l","sub08","08","1","motorRepeat","70","img/motor_4.png","70","motor","4","184","1","0","0","","",""
"null","2779061","HierDy55os536l","sub08","08","1","iti","null","img/motor_4.png","70","motor","","","","","","","",""
"368","2779437","HierDy55os536l","sub08","08","1","motor","83","img/motor_2.png","83","motor","2","185","1","0","0","","",""
"null","2779550","HierDy55os536l","sub08","08","1","iti","null","img/motor_2.png","83","motor","","","","","","","",""
"416","2779975","HierDy55os536l","sub08","08","1","motor","68","img/motor_3.png","68","motor","3","186","1","0","0","","",""
"null","2780084","HierDy55os536l","sub08","08","1","iti","null","img/motor_3.png","68","motor","","","","","","","",""
"404","2780499","HierDy55os536l","sub08","08","1","motor","68","img/motor_3.png","68","motor","3","187","1","0","0","","",""
"null","2780609","HierDy55os536l","sub08","08","1","iti","null","img/motor_3.png","68","motor","","","","","","","",""
"454","2781074","HierDy55os536l","sub08","08","1","motor","70","img/motor_5.png","72","motor","5","188","0","1","0","","",""
"271","2781355","HierDy55os536l","sub08","08","1","motorRepeat","72","img/motor_5.png","72","motor","5","188","1","0","0","","",""
"null","2781467","HierDy55os536l","sub08","08","1","iti","null","img/motor_5.png","72","motor","","","","","","","",""
"621","2782098","HierDy55os536l","sub08","08","1","motor","70","img/motor_4.png","70","motor","4","189","1","0","0","","",""
"null","2782210","HierDy55os536l","sub08","08","1","iti","null","img/motor_4.png","70","motor","","","","","","","",""
"626","2782847","HierDy55os536l","sub08","08","1","motor","83","img/motor_2.png","83","motor","2","190","1","0","0","","",""
"null","2782959","HierDy55os536l","sub08","08","1","iti","null","img/motor_2.png","83","motor","","","","","","","",""
"460","2783429","HierDy55os536l","sub08","08","1","motor","70","img/motor_4.png","70","motor","4","191","1","0","0","","",""
"null","2783541","HierDy55os536l","sub08","08","1","iti","null","img/motor_4.png","70","motor","","","","","","","",""
"493","2784043","HierDy55os536l","sub08","08","1","motor","72","img/motor_5.png","72","motor","5","192","1","0","0","","",""
"null","2784155","HierDy55os536l","sub08","08","1","iti","null","img/motor_5.png","72","motor","","","","","","","",""
"453","2784618","HierDy55os536l","sub08","08","1","motor","76","img/motor_8.png","76","motor","8","193","1","0","0","","",""
"null","2784729","HierDy55os536l","sub08","08","1","iti","null","img/motor_8.png","76","motor","","","","","","","",""
"543","2785280","HierDy55os536l","sub08","08","1","motor","68","img/motor_3.png","68","motor","3","194","1","0","0","","",""
"null","2785392","HierDy55os536l","sub08","08","1","iti","null","img/motor_3.png","68","motor","","","","","","","",""
"536","2785937","HierDy55os536l","sub08","08","1","motor","83","img/motor_2.png","83","motor","2","195","1","0","0","","",""
"null","2786049","HierDy55os536l","sub08","08","1","iti","null","img/motor_2.png","83","motor","","","","","","","",""
"782","2786843","HierDy55os536l","sub08","08","1","motor","74","img/motor_6.png","74","motor","6","196","1","0","0","","",""
"null","2786954","HierDy55os536l","sub08","08","1","iti","null","img/motor_6.png","74","motor","","","","","","","",""
"390","2787354","HierDy55os536l","sub08","08","1","motor","72","img/motor_5.png","72","motor","5","197","1","0","0","","",""
"null","2787464","HierDy55os536l","sub08","08","1","iti","null","img/motor_5.png","72","motor","","","","","","","",""
"466","2787941","HierDy55os536l","sub08","08","1","motor","70","img/motor_4.png","70","motor","4","198","1","0","0","","",""
"null","2788052","HierDy55os536l","sub08","08","1","iti","null","img/motor_4.png","70","motor","","","","","","","",""
"601","2788664","HierDy55os536l","sub08","08","1","motor","74","img/motor_6.png","74","motor","6","199","1","0","0","","",""
"null","2788775","HierDy55os536l","sub08","08","1","iti","null","img/motor_6.png","74","motor","","","","","","","",""
"353","2789137","HierDy55os536l","sub08","08","1","motor","75","img/motor_7.png","75","motor","7","200","1","0","0","","",""
"null","2789246","HierDy55os536l","sub08","08","1","iti","null","img/motor_7.png","75","motor","","","","","","","",""
"594","2789850","HierDy55os536l","sub08","08","1","motor","83","img/motor_2.png","83","motor","2","201","1","0","0","","",""
"null","2789962","HierDy55os536l","sub08","08","1","iti","null","img/motor_2.png","83","motor","","","","","","","",""
"338","2790311","HierDy55os536l","sub08","08","1","motor","70","img/motor_4.png","70","motor","4","202","1","0","0","","",""
"null","2790423","HierDy55os536l","sub08","08","1","iti","null","img/motor_4.png","70","motor","","","","","","","",""
"534","2790968","HierDy55os536l","sub08","08","1","motor","76","img/motor_8.png","76","motor","8","203","1","0","0","","",""
"null","2791078","HierDy55os536l","sub08","08","1","iti","null","img/motor_8.png","76","motor","","","","","","","",""
"458","2791543","HierDy55os536l","sub08","08","1","motor","65","img/motor_1.png","65","motor","1","204","1","0","0","","",""
"null","2791655","HierDy55os536l","sub08","08","1","iti","null","img/motor_1.png","65","motor","","","","","","","",""
"353","2792019","HierDy55os536l","sub08","08","1","motor","65","img/motor_1.png","65","motor","1","205","1","0","0","","",""
"null","2792129","HierDy55os536l","sub08","08","1","iti","null","img/motor_1.png","65","motor","","","","","","","",""
"555","2792694","HierDy55os536l","sub08","08","1","motor","75","img/motor_7.png","75","motor","7","206","1","0","0","","",""
"null","2792805","HierDy55os536l","sub08","08","1","iti","null","img/motor_7.png","75","motor","","","","","","","",""
"473","2793287","HierDy55os536l","sub08","08","1","motor","83","img/motor_4.png","70","motor","4","207","0","1","0","","",""
"259","2793556","HierDy55os536l","sub08","08","1","motorRepeat","70","img/motor_4.png","70","motor","4","207","1","0","0","","",""
"null","2793667","HierDy55os536l","sub08","08","1","iti","null","img/motor_4.png","70","motor","","","","","","","",""
"501","2794178","HierDy55os536l","sub08","08","1","motor","68","img/motor_3.png","68","motor","3","208","1","0","0","","",""
"null","2794289","HierDy55os536l","sub08","08","1","iti","null","img/motor_3.png","68","motor","","","","","","","",""
"489","2794786","HierDy55os536l","sub08","08","1","motor","74","img/motor_6.png","74","motor","6","209","1","0","0","","",""
"null","2794898","HierDy55os536l","sub08","08","1","iti","null","img/motor_6.png","74","motor","","","","","","","",""
"479","2795388","HierDy55os536l","sub08","08","1","motor","83","img/motor_2.png","83","motor","2","210","1","0","0","","",""
"null","2795499","HierDy55os536l","sub08","08","1","iti","null","img/motor_2.png","83","motor","","","","","","","",""
"511","2796020","HierDy55os536l","sub08","08","1","motor","72","img/motor_5.png","72","motor","5","211","1","0","0","","",""
"null","2796131","HierDy55os536l","sub08","08","1","iti","null","img/motor_5.png","72","motor","","","","","","","",""
"556","2796696","HierDy55os536l","sub08","08","1","motor","75","img/motor_7.png","75","motor","7","212","1","0","0","","",""
"null","2796808","HierDy55os536l","sub08","08","1","iti","null","img/motor_7.png","75","motor","","","","","","","",""
"727","2797545","HierDy55os536l","sub08","08","1","motor","68","img/motor_3.png","68","motor","3","213","1","0","0","","",""
"null","2797657","HierDy55os536l","sub08","08","1","iti","null","img/motor_3.png","68","motor","","","","","","","",""
"402","2798070","HierDy55os536l","sub08","08","1","motor","65","img/motor_1.png","65","motor","1","214","1","0","0","","",""
"null","2798182","HierDy55os536l","sub08","08","1","iti","null","img/motor_1.png","65","motor","","","","","","","",""
"476","2798670","HierDy55os536l","sub08","08","1","motor","75","img/motor_6.png","74","motor","6","215","0","1","0","","",""
"169","2798850","HierDy55os536l","sub08","08","1","motorRepeat","74","img/motor_6.png","74","motor","6","215","1","0","0","","",""
"null","2798962","HierDy55os536l","sub08","08","1","iti","null","img/motor_6.png","74","motor","","","","","","","",""
"476","2799450","HierDy55os536l","sub08","08","1","motor","76","img/motor_8.png","76","motor","8","216","1","0","0","","",""
"null","2799562","HierDy55os536l","sub08","08","1","iti","null","img/motor_8.png","76","motor","","","","","","","",""
"460","2800033","HierDy55os536l","sub08","08","1","motor","68","img/motor_4.png","70","motor","4","217","0","1","0","","",""
"274","2800316","HierDy55os536l","sub08","08","1","motorRepeat","70","img/motor_4.png","70","motor","4","217","1","0","0","","",""
"null","2800429","HierDy55os536l","sub08","08","1","iti","null","img/motor_4.png","70","motor","","","","","","","",""
"435","2800873","HierDy55os536l","sub08","08","1","motor","76","img/motor_8.png","76","motor","8","218","1","0","0","","",""
"null","2800985","HierDy55os536l","sub08","08","1","iti","null","img/motor_8.png","76","motor","","","","","","","",""
"475","2801470","HierDy55os536l","sub08","08","1","motor","65","img/motor_1.png","65","motor","1","219","1","0","0","","",""
"null","2801582","HierDy55os536l","sub08","08","1","iti","null","img/motor_1.png","65","motor","","","","","","","",""
"439","2802032","HierDy55os536l","sub08","08","1","motor","68","img/motor_3.png","68","motor","3","220","1","0","0","","",""
"null","2802142","HierDy55os536l","sub08","08","1","iti","null","img/motor_3.png","68","motor","","","","","","","",""
"484","2802636","HierDy55os536l","sub08","08","1","motor","65","img/motor_1.png","65","motor","1","221","1","0","0","","",""
"null","2802747","HierDy55os536l","sub08","08","1","iti","null","img/motor_1.png","65","motor","","","","","","","",""
"451","2803208","HierDy55os536l","sub08","08","1","motor","72","img/motor_5.png","72","motor","5","222","1","0","0","","",""
"null","2803320","HierDy55os536l","sub08","08","1","iti","null","img/motor_5.png","72","motor","","","","","","","",""
"424","2803751","HierDy55os536l","sub08","08","1","motor","76","img/motor_8.png","76","motor","8","223","1","0","0","","",""
"null","2803864","HierDy55os536l","sub08","08","1","iti","null","img/motor_8.png","76","motor","","","","","","","",""
"402","2804275","HierDy55os536l","sub08","08","1","motor","76","img/motor_8.png","76","motor","8","224","1","0","0","","",""
"null","2804386","HierDy55os536l","sub08","08","1","iti","null","img/motor_8.png","76","motor","","","","","","","",""
"561","2804958","HierDy55os536l","sub08","08","1","motor","68","img/motor_2.png","83","motor","2","225","0","1","0","","",""
"206","2805175","HierDy55os536l","sub08","08","1","motorRepeat","83","img/motor_2.png","83","motor","2","225","1","0","0","","",""
"null","2805285","HierDy55os536l","sub08","08","1","iti","null","img/motor_2.png","83","motor","","","","","","","",""
"491","2805785","HierDy55os536l","sub08","08","1","motor","74","img/motor_5.png","72","motor","5","226","0","1","0","","",""
"418","2806214","HierDy55os536l","sub08","08","1","motorRepeat","72","img/motor_5.png","72","motor","5","226","1","0","0","","",""
"null","2806325","HierDy55os536l","sub08","08","1","iti","null","img/motor_5.png","72","motor","","","","","","","",""
"647","2806984","HierDy55os536l","sub08","08","1","motor","74","img/motor_6.png","74","motor","6","227","1","0","0","","",""
"null","2807096","HierDy55os536l","sub08","08","1","iti","null","img/motor_6.png","74","motor","","","","","","","",""
"373","2807480","HierDy55os536l","sub08","08","1","motor","75","img/motor_7.png","75","motor","7","228","1","0","0","","",""
"null","2807591","HierDy55os536l","sub08","08","1","iti","null","img/motor_7.png","75","motor","","","","","","","",""
"335","2807936","HierDy55os536l","sub08","08","1","motor","76","img/motor_8.png","76","motor","8","229","1","0","0","","",""
"null","2808048","HierDy55os536l","sub08","08","1","iti","null","img/motor_8.png","76","motor","","","","","","","",""
"535","2808593","HierDy55os536l","sub08","08","1","motor","75","img/motor_7.png","75","motor","7","230","1","0","0","","",""
"null","2808705","HierDy55os536l","sub08","08","1","iti","null","img/motor_7.png","75","motor","","","","","","","",""
"446","2809162","HierDy55os536l","sub08","08","1","motor","75","img/motor_7.png","75","motor","7","231","1","0","0","","",""
"null","2809271","HierDy55os536l","sub08","08","1","iti","null","img/motor_7.png","75","motor","","","","","","","",""
"341","2809623","HierDy55os536l","sub08","08","1","motor","76","img/motor_8.png","76","motor","8","232","1","0","0","","",""
"null","2809734","HierDy55os536l","sub08","08","1","iti","null","img/motor_8.png","76","motor","","","","","","","",""
"490","2810234","HierDy55os536l","sub08","08","1","motor","70","img/motor_4.png","70","motor","4","233","1","0","0","","",""
"null","2810346","HierDy55os536l","sub08","08","1","iti","null","img/motor_4.png","70","motor","","","","","","","",""
"538","2810895","HierDy55os536l","sub08","08","1","motor","83","img/motor_2.png","83","motor","2","234","1","0","0","","",""
"null","2811004","HierDy55os536l","sub08","08","1","iti","null","img/motor_2.png","83","motor","","","","","","","",""
"370","2811384","HierDy55os536l","sub08","08","1","motor","68","img/motor_3.png","68","motor","3","235","1","0","0","","",""
"null","2811496","HierDy55os536l","sub08","08","1","iti","null","img/motor_3.png","68","motor","","","","","","","",""
"497","2812002","HierDy55os536l","sub08","08","1","motor","75","img/motor_7.png","75","motor","7","236","1","0","0","","",""
"null","2812113","HierDy55os536l","sub08","08","1","iti","null","img/motor_7.png","75","motor","","","","","","","",""
"571","2812694","HierDy55os536l","sub08","08","1","motor","76","img/motor_8.png","76","motor","8","237","1","0","0","","",""
"null","2812805","HierDy55os536l","sub08","08","1","iti","null","img/motor_8.png","76","motor","","","","","","","",""
"554","2813369","HierDy55os536l","sub08","08","1","motor","72","img/motor_5.png","72","motor","5","238","1","0","0","","",""
"null","2813481","HierDy55os536l","sub08","08","1","iti","null","img/motor_5.png","72","motor","","","","","","","",""
"413","2813904","HierDy55os536l","sub08","08","1","motor","76","img/motor_8.png","76","motor","8","239","1","0","0","","",""
"null","2814015","HierDy55os536l","sub08","08","1","iti","null","img/motor_8.png","76","motor","","","","","","","",""
"490","2814516","HierDy55os536l","sub08","08","1","motor","70","img/motor_4.png","70","motor","4","240","1","0","0","","",""
"null","2814629","HierDy55os536l","sub08","08","1","iti","null","img/motor_4.png","70","motor","","","","","","","",""
"482","2815121","HierDy55os536l","sub08","08","1","motor","68","img/motor_3.png","68","motor","3","241","1","0","0","","",""
"null","2815231","HierDy55os536l","sub08","08","1","iti","null","img/motor_3.png","68","motor","","","","","","","",""
"465","2815707","HierDy55os536l","sub08","08","1","motor","65","img/motor_1.png","65","motor","1","242","1","0","0","","",""
"null","2815817","HierDy55os536l","sub08","08","1","iti","null","img/motor_1.png","65","motor","","","","","","","",""
"602","2816430","HierDy55os536l","sub08","08","1","motor","74","img/motor_6.png","74","motor","6","243","1","0","0","","",""
"null","2816538","HierDy55os536l","sub08","08","1","iti","null","img/motor_6.png","74","motor","","","","","","","",""
"487","2817035","HierDy55os536l","sub08","08","1","motor","75","img/motor_7.png","75","motor","7","244","1","0","0","","",""
"null","2817146","HierDy55os536l","sub08","08","1","iti","null","img/motor_7.png","75","motor","","","","","","","",""
"88","2817243","HierDy55os536l","sub08","08","1","motor","75","img/motor_5.png","72","motor","5","245","0","1","0","","",""
"96","2817346","HierDy55os536l","sub08","08","1","motorRepeat","75","img/motor_5.png","72","motor","5","245","0","1","0","","",""
"293","2817650","HierDy55os536l","sub08","08","1","motorRepeat","72","img/motor_5.png","72","motor","5","245","1","0","0","","",""
"null","2817760","HierDy55os536l","sub08","08","1","iti","null","img/motor_5.png","72","motor","","","","","","","",""
"400","2818171","HierDy55os536l","sub08","08","1","motor","75","img/motor_7.png","75","motor","7","246","1","0","0","","",""
"null","2818281","HierDy55os536l","sub08","08","1","iti","null","img/motor_7.png","75","motor","","","","","","","",""
"347","2818639","HierDy55os536l","sub08","08","1","motor","76","img/motor_8.png","76","motor","8","247","1","0","0","","",""
"null","2818751","HierDy55os536l","sub08","08","1","iti","null","img/motor_8.png","76","motor","","","","","","","",""
"475","2819235","HierDy55os536l","sub08","08","1","motor","70","img/motor_4.png","70","motor","4","248","1","0","0","","",""
"null","2819346","HierDy55os536l","sub08","08","1","iti","null","img/motor_4.png","70","motor","","","","","","","",""
"351","2819708","HierDy55os536l","sub08","08","1","motor","70","img/motor_4.png","70","motor","4","249","1","0","0","","",""
"null","2819819","HierDy55os536l","sub08","08","1","iti","null","img/motor_4.png","70","motor","","","","","","","",""
"472","2820301","HierDy55os536l","sub08","08","1","motor","76","img/motor_8.png","76","motor","8","250","1","0","0","","",""
"null","2820412","HierDy55os536l","sub08","08","1","iti","null","img/motor_8.png","76","motor","","","","","","","",""
"366","2820787","HierDy55os536l","sub08","08","1","motor","76","img/motor_8.png","76","motor","8","251","1","0","0","","",""
"null","2820897","HierDy55os536l","sub08","08","1","iti","null","img/motor_8.png","76","motor","","","","","","","",""
"497","2821405","HierDy55os536l","sub08","08","1","motor","65","img/motor_1.png","65","motor","1","252","1","0","0","","",""
"null","2821516","HierDy55os536l","sub08","08","1","iti","null","img/motor_1.png","65","motor","","","","","","","",""
"546","2822073","HierDy55os536l","sub08","08","1","motor","83","img/motor_2.png","83","motor","2","253","1","0","0","","",""
"null","2822185","HierDy55os536l","sub08","08","1","iti","null","img/motor_2.png","83","motor","","","","","","","",""
"635","2822831","HierDy55os536l","sub08","08","1","motor","75","img/motor_7.png","75","motor","7","254","1","0","0","","",""
"null","2822943","HierDy55os536l","sub08","08","1","iti","null","img/motor_7.png","75","motor","","","","","","","",""
"341","2823293","HierDy55os536l","sub08","08","1","motor","72","img/motor_5.png","72","motor","5","255","1","0","0","","",""
"null","2823404","HierDy55os536l","sub08","08","1","iti","null","img/motor_5.png","72","motor","","","","","","","",""
"592","2824008","HierDy55os536l","sub08","08","1","motor","68","img/motor_3.png","68","motor","3","256","1","0","0","","",""
"null","2824120","HierDy55os536l","sub08","08","1","iti","null","img/motor_3.png","68","motor","","","","","","","",""
"755","2824885","HierDy55os536l","sub08","08","1","motor","75","img/motor_7.png","75","motor","7","257","1","0","0","","",""
"null","2824995","HierDy55os536l","sub08","08","1","iti","null","img/motor_7.png","75","motor","","","","","","","",""
"380","2825385","HierDy55os536l","sub08","08","1","motor","70","img/motor_3.png","68","motor","3","258","0","1","0","","",""
"408","2825803","HierDy55os536l","sub08","08","1","motorRepeat","68","img/motor_3.png","68","motor","3","258","1","0","0","","",""
"null","2825914","HierDy55os536l","sub08","08","1","iti","null","img/motor_3.png","68","motor","","","","","","","",""
"590","2826516","HierDy55os536l","sub08","08","1","motor","76","img/motor_8.png","76","motor","8","259","1","0","0","","",""
"null","2826628","HierDy55os536l","sub08","08","1","iti","null","img/motor_8.png","76","motor","","","","","","","",""
"459","2827097","HierDy55os536l","sub08","08","1","motor","65","img/motor_2.png","83","motor","2","260","0","1","0","","",""
"337","2827444","HierDy55os536l","sub08","08","1","motorRepeat","83","img/motor_2.png","83","motor","2","260","1","0","0","","",""
"null","2827556","HierDy55os536l","sub08","08","1","iti","null","img/motor_2.png","83","motor","","","","","","","",""
"605","2828173","HierDy55os536l","sub08","08","1","motor","74","img/motor_6.png","74","motor","6","261","1","0","0","","",""
"null","2828282","HierDy55os536l","sub08","08","1","iti","null","img/motor_6.png","74","motor","","","","","","","",""
"541","2828837","HierDy55os536l","sub08","08","1","motor","68","img/motor_3.png","68","motor","3","262","1","0","0","","",""
"null","2828951","HierDy55os536l","sub08","08","1","iti","null","img/motor_3.png","68","motor","","","","","","","",""
"535","2829497","HierDy55os536l","sub08","08","1","motor","74","img/motor_6.png","74","motor","6","263","1","0","0","","",""
"null","2829607","HierDy55os536l","sub08","08","1","iti","null","img/motor_6.png","74","motor","","","","","","","",""
"357","2829973","HierDy55os536l","sub08","08","1","motor","74","img/motor_6.png","74","motor","6","264","1","0","0","","",""
"null","2830087","HierDy55os536l","sub08","08","1","iti","null","img/motor_6.png","74","motor","","","","","","","",""
"607","2830707","HierDy55os536l","sub08","08","1","motor","83","img/motor_2.png","83","motor","2","265","1","0","0","","",""
"null","2830818","HierDy55os536l","sub08","08","1","iti","null","img/motor_2.png","83","motor","","","","","","","",""
"361","2831189","HierDy55os536l","sub08","08","1","motor","83","img/motor_2.png","83","motor","2","266","1","0","0","","",""
"null","2831300","HierDy55os536l","sub08","08","1","iti","null","img/motor_2.png","83","motor","","","","","","","",""
"480","2831791","HierDy55os536l","sub08","08","1","motor","75","img/motor_7.png","75","motor","7","267","1","0","0","","",""
"null","2831902","HierDy55os536l","sub08","08","1","iti","null","img/motor_7.png","75","motor","","","","","","","",""
"482","2832396","HierDy55os536l","sub08","08","1","motor","65","img/motor_1.png","65","motor","1","268","1","0","0","","",""
"null","2832508","HierDy55os536l","sub08","08","1","iti","null","img/motor_1.png","65","motor","","","","","","","",""
"512","2833032","HierDy55os536l","sub08","08","1","motor","72","img/motor_5.png","72","motor","5","269","1","0","0","","",""
"null","2833144","HierDy55os536l","sub08","08","1","iti","null","img/motor_5.png","72","motor","","","","","","","",""
"407","2833564","HierDy55os536l","sub08","08","1","motor","72","img/motor_5.png","72","motor","5","270","1","0","0","","",""
"null","2833676","HierDy55os536l","sub08","08","1","iti","null","img/motor_5.png","72","motor","","","","","","","",""
"388","2834073","HierDy55os536l","sub08","08","1","motor","76","img/motor_8.png","76","motor","8","271","1","0","0","","",""
"null","2834187","HierDy55os536l","sub08","08","1","iti","null","img/motor_8.png","76","motor","","","","","","","",""
"639","2834838","HierDy55os536l","sub08","08","1","motor","83","img/motor_2.png","83","motor","2","272","1","0","0","","",""
"null","2834950","HierDy55os536l","sub08","08","1","iti","null","img/motor_2.png","83","motor","","","","","","","",""
"373","2835335","HierDy55os536l","sub08","08","1","motor","72","img/motor_4.png","70","motor","4","273","0","1","0","","",""
"255","2835602","HierDy55os536l","sub08","08","1","motorRepeat","70","img/motor_4.png","70","motor","4","273","1","0","0","","",""
"null","2835715","HierDy55os536l","sub08","08","1","iti","null","img/motor_4.png","70","motor","","","","","","","",""
"384","2836109","HierDy55os536l","sub08","08","1","motor","70","img/motor_4.png","70","motor","4","274","1","0","0","","",""
"null","2836221","HierDy55os536l","sub08","08","1","iti","null","img/motor_4.png","70","motor","","","","","","","",""
"488","2836721","HierDy55os536l","sub08","08","1","motor","75","img/motor_7.png","75","motor","7","275","1","0","0","","",""
"null","2836833","HierDy55os536l","sub08","08","1","iti","null","img/motor_7.png","75","motor","","","","","","","",""
"576","2837420","HierDy55os536l","sub08","08","1","motor","83","img/motor_4.png","70","motor","4","276","0","1","0","","",""
"180","2837610","HierDy55os536l","sub08","08","1","motorRepeat","70","img/motor_4.png","70","motor","4","276","1","0","0","","",""
"null","2837722","HierDy55os536l","sub08","08","1","iti","null","img/motor_4.png","70","motor","","","","","","","",""
"613","2838346","HierDy55os536l","sub08","08","1","motor","83","img/motor_2.png","83","motor","2","277","1","0","0","","",""
"null","2838458","HierDy55os536l","sub08","08","1","iti","null","img/motor_2.png","83","motor","","","","","","","",""
"441","2838911","HierDy55os536l","sub08","08","1","motor","65","img/motor_1.png","65","motor","1","278","1","0","0","","",""
"null","2839021","HierDy55os536l","sub08","08","1","iti","null","img/motor_1.png","65","motor","","","","","","","",""
"489","2839521","HierDy55os536l","sub08","08","1","motor","70","img/motor_4.png","70","motor","4","279","1","0","0","","",""
"null","2839634","HierDy55os536l","sub08","08","1","iti","null","img/motor_4.png","70","motor","","","","","","","",""
"499","2840143","HierDy55os536l","sub08","08","1","motor","72","img/motor_5.png","72","motor","5","280","1","0","0","","",""
"null","2840255","HierDy55os536l","sub08","08","1","iti","null","img/motor_5.png","72","motor","","","","","","","",""
"501","2840766","HierDy55os536l","sub08","08","1","motor","83","img/motor_2.png","83","motor","2","281","1","0","0","","",""
"null","2840878","HierDy55os536l","sub08","08","1","iti","null","img/motor_2.png","83","motor","","","","","","","",""
"712","2841599","HierDy55os536l","sub08","08","1","motor","74","img/motor_6.png","74","motor","6","282","1","0","0","","",""
"null","2841710","HierDy55os536l","sub08","08","1","iti","null","img/motor_6.png","74","motor","","","","","","","",""
"475","2842197","HierDy55os536l","sub08","08","1","motor","70","img/motor_4.png","70","motor","4","283","1","0","0","","",""
"null","2842310","HierDy55os536l","sub08","08","1","iti","null","img/motor_4.png","70","motor","","","","","","","",""
"389","2842708","HierDy55os536l","sub08","08","1","motor","72","img/motor_5.png","72","motor","5","284","1","0","0","","",""
"null","2842821","HierDy55os536l","sub08","08","1","iti","null","img/motor_5.png","72","motor","","","","","","","",""
"375","2843206","HierDy55os536l","sub08","08","1","motor","70","img/motor_4.png","70","motor","4","285","1","0","0","","",""
"null","2843317","HierDy55os536l","sub08","08","1","iti","null","img/motor_4.png","70","motor","","","","","","","",""
"545","2843874","HierDy55os536l","sub08","08","1","motor","68","img/motor_3.png","68","motor","3","286","1","0","0","","",""
"null","2843986","HierDy55os536l","sub08","08","1","iti","null","img/motor_3.png","68","motor","","","","","","","",""
"646","2844642","HierDy55os536l","sub08","08","1","motor","75","img/motor_7.png","75","motor","7","287","1","0","0","","",""
"null","2844753","HierDy55os536l","sub08","08","1","iti","null","img/motor_7.png","75","motor","","","","","","","",""
"456","2845219","HierDy55os536l","sub08","08","1","motor","72","img/motor_5.png","72","motor","5","288","1","0","0","","",""
"null","2845331","HierDy55os536l","sub08","08","1","iti","null","img/motor_5.png","72","motor","","","","","","","",""
"439","2845779","HierDy55os536l","sub08","08","1","motor","74","img/motor_6.png","74","motor","6","289","1","0","0","","",""
"null","2845891","HierDy55os536l","sub08","08","1","iti","null","img/motor_6.png","74","motor","","","","","","","",""
"654","2846555","HierDy55os536l","sub08","08","1","motor","83","img/motor_2.png","83","motor","2","290","1","0","0","","",""
"null","2846668","HierDy55os536l","sub08","08","1","iti","null","img/motor_2.png","83","motor","","","","","","","",""
"627","2847305","HierDy55os536l","sub08","08","1","motor","74","img/motor_6.png","74","motor","6","291","1","0","0","","",""
"null","2847414","HierDy55os536l","sub08","08","1","iti","null","img/motor_6.png","74","motor","","","","","","","",""
"454","2847878","HierDy55os536l","sub08","08","1","motor","68","img/motor_3.png","68","motor","3","292","1","0","0","","",""
"null","2847988","HierDy55os536l","sub08","08","1","iti","null","img/motor_3.png","68","motor","","","","","","","",""
"462","2848461","HierDy55os536l","sub08","08","1","motor","70","img/motor_4.png","70","motor","4","293","1","0","0","","",""
"null","2848573","HierDy55os536l","sub08","08","1","iti","null","img/motor_4.png","70","motor","","","","","","","",""
"395","2848978","HierDy55os536l","sub08","08","1","motor","72","img/motor_6.png","74","motor","6","294","0","1","0","","",""
"466","2849455","HierDy55os536l","sub08","08","1","motorRepeat","74","img/motor_6.png","74","motor","6","294","1","0","0","","",""
"null","2849567","HierDy55os536l","sub08","08","1","iti","null","img/motor_6.png","74","motor","","","","","","","",""
"486","2850062","HierDy55os536l","sub08","08","1","motor","74","img/motor_6.png","74","motor","6","295","1","0","0","","",""
"null","2850172","HierDy55os536l","sub08","08","1","iti","null","img/motor_6.png","74","motor","","","","","","","",""
"437","2850618","HierDy55os536l","sub08","08","1","motor","75","img/motor_7.png","75","motor","7","296","1","0","0","","",""
"null","2850730","HierDy55os536l","sub08","08","1","iti","null","img/motor_7.png","75","motor","","","","","","","",""
"428","2851165","HierDy55os536l","sub08","08","1","motor","74","img/motor_6.png","74","motor","6","297","1","0","0","","",""
"null","2851275","HierDy55os536l","sub08","08","1","iti","null","img/motor_6.png","74","motor","","","","","","","",""
"600","2851886","HierDy55os536l","sub08","08","1","motor","70","img/motor_3.png","68","motor","3","298","0","1","0","","",""
"60","2851954","HierDy55os536l","sub08","08","1","motorRepeat","68","img/motor_3.png","68","motor","3","298","1","0","0","","",""
"null","2852067","HierDy55os536l","sub08","08","1","iti","null","img/motor_3.png","68","motor","","","","","","","",""
"520","2852598","HierDy55os536l","sub08","08","1","motor","75","img/motor_7.png","75","motor","7","299","1","0","0","","",""
"null","2852708","HierDy55os536l","sub08","08","1","iti","null","img/motor_7.png","75","motor","","","","","","","",""
"511","2853231","HierDy55os536l","sub08","08","1","motor","65","img/motor_1.png","65","motor","1","300","1","0","0","","",""
"null","2853343","HierDy55os536l","sub08","08","1","iti","null","img/motor_1.png","65","motor","","","","","","","",""
"599","2853954","HierDy55os536l","sub08","08","1","motor","68","img/motor_3.png","68","motor","3","301","1","0","0","","",""
"null","2854065","HierDy55os536l","sub08","08","1","iti","null","img/motor_3.png","68","motor","","","","","","","",""
"470","2854543","HierDy55os536l","sub08","08","1","motor","72","img/motor_5.png","72","motor","5","302","1","0","0","","",""
"null","2854654","HierDy55os536l","sub08","08","1","iti","null","img/motor_5.png","72","motor","","","","","","","",""
"522","2855189","HierDy55os536l","sub08","08","1","motor","83","img/motor_2.png","83","motor","2","303","1","0","0","","",""
"null","2855299","HierDy55os536l","sub08","08","1","iti","null","img/motor_2.png","83","motor","","","","","","","",""
"372","2855682","HierDy55os536l","sub08","08","1","motor","72","img/motor_5.png","72","motor","5","304","1","0","0","","",""
"null","2855792","HierDy55os536l","sub08","08","1","iti","null","img/motor_5.png","72","motor","","","","","","","",""
"476","2856278","HierDy55os536l","sub08","08","1","motor","75","img/motor_7.png","75","motor","7","305","1","0","0","","",""
"null","2856391","HierDy55os536l","sub08","08","1","iti","null","img/motor_7.png","75","motor","","","","","","","",""
"388","2856787","HierDy55os536l","sub08","08","1","motor","75","img/motor_7.png","75","motor","7","306","1","0","0","","",""
"null","2856900","HierDy55os536l","sub08","08","1","iti","null","img/motor_7.png","75","motor","","","","","","","",""
"394","2857303","HierDy55os536l","sub08","08","1","motor","76","img/motor_8.png","76","motor","8","307","1","0","0","","",""
"null","2857416","HierDy55os536l","sub08","08","1","iti","null","img/motor_8.png","76","motor","","","","","","","",""
"674","2858100","HierDy55os536l","sub08","08","1","motor","74","img/motor_7.png","75","motor","7","308","0","1","0","","",""
"280","2858392","HierDy55os536l","sub08","08","1","motorRepeat","75","img/motor_7.png","75","motor","7","308","1","0","0","","",""
"null","2858503","HierDy55os536l","sub08","08","1","iti","null","img/motor_7.png","75","motor","","","","","","","",""
"540","2859053","HierDy55os536l","sub08","08","1","motor","68","img/motor_3.png","68","motor","3","309","1","0","0","","",""
"null","2859166","HierDy55os536l","sub08","08","1","iti","null","img/motor_3.png","68","motor","","","","","","","",""
"395","2859570","HierDy55os536l","sub08","08","1","motor","70","img/motor_4.png","70","motor","4","310","1","0","0","","",""
"null","2859680","HierDy55os536l","sub08","08","1","iti","null","img/motor_4.png","70","motor","","","","","","","",""
"552","2860243","HierDy55os536l","sub08","08","1","motor","75","img/motor_7.png","75","motor","7","311","1","0","0","","",""
"null","2860353","HierDy55os536l","sub08","08","1","iti","null","img/motor_7.png","75","motor","","","","","","","",""
"754","2861119","HierDy55os536l","sub08","08","1","motor","70","img/motor_4.png","70","motor","4","312","1","0","0","","",""
"null","2861230","HierDy55os536l","sub08","08","1","iti","null","img/motor_4.png","70","motor","","","","","","","",""
"444","2861685","HierDy55os536l","sub08","08","1","motor","70","img/motor_4.png","70","motor","4","313","1","0","0","","",""
"null","2861798","HierDy55os536l","sub08","08","1","iti","null","img/motor_4.png","70","motor","","","","","","","",""
"509","2862318","HierDy55os536l","sub08","08","1","motor","75","img/motor_7.png","75","motor","7","314","1","0","0","","",""
"null","2862430","HierDy55os536l","sub08","08","1","iti","null","img/motor_7.png","75","motor","","","","","","","",""
"626","2863067","HierDy55os536l","sub08","08","1","motor","74","img/motor_6.png","74","motor","6","315","1","0","0","","",""
"null","2863179","HierDy55os536l","sub08","08","1","iti","null","img/motor_6.png","74","motor","","","","","","","",""
"511","2863702","HierDy55os536l","sub08","08","1","motor","76","img/motor_8.png","76","motor","8","316","1","0","0","","",""
"null","2863815","HierDy55os536l","sub08","08","1","iti","null","img/motor_8.png","76","motor","","","","","","","",""
"626","2864450","HierDy55os536l","sub08","08","1","motor","68","img/motor_3.png","68","motor","3","317","1","0","0","","",""
"null","2864562","HierDy55os536l","sub08","08","1","iti","null","img/motor_3.png","68","motor","","","","","","","",""
"546","2865119","HierDy55os536l","sub08","08","1","motor","83","img/motor_2.png","83","motor","2","318","1","0","0","","",""
"null","2865231","HierDy55os536l","sub08","08","1","iti","null","img/motor_2.png","83","motor","","","","","","","",""
"577","2865819","HierDy55os536l","sub08","08","1","motor","75","img/motor_7.png","75","motor","7","319","1","0","0","","",""
"null","2865930","HierDy55os536l","sub08","08","1","iti","null","img/motor_7.png","75","motor","","","","","","","",""
"447","2866387","HierDy55os536l","sub08","08","1","motor","83","img/motor_2.png","83","motor","2","320","1","0","0","","",""
"null","2866497","HierDy55os536l","sub08","08","1","iti","null","img/motor_2.png","83","motor","","","","","","","",""
"462","2866969","HierDy55os536l","sub08","08","1","motor","68","img/motor_3.png","68","motor","3","321","1","0","0","","",""
"null","2867081","HierDy55os536l","sub08","08","1","iti","null","img/motor_3.png","68","motor","","","","","","","",""
"605","2867697","HierDy55os536l","sub08","08","1","motor","75","img/motor_6.png","74","motor","6","322","0","1","0","","",""
"849","2868557","HierDy55os536l","sub08","08","1","motorRepeat","74","img/motor_6.png","74","motor","6","322","1","0","0","","",""
"null","2868669","HierDy55os536l","sub08","08","1","iti","null","img/motor_6.png","74","motor","","","","","","","",""
"645","2869325","HierDy55os536l","sub08","08","1","motor","83","img/motor_2.png","83","motor","2","323","1","0","0","","",""
"null","2869436","HierDy55os536l","sub08","08","1","iti","null","img/motor_2.png","83","motor","","","","","","","",""
"490","2869937","HierDy55os536l","sub08","08","1","motor","76","img/motor_8.png","76","motor","8","324","1","0","0","","",""
"null","2870048","HierDy55os536l","sub08","08","1","iti","null","img/motor_8.png","76","motor","","","","","","","",""
"448","2870507","HierDy55os536l","sub08","08","1","motor","76","img/motor_8.png","76","motor","8","325","1","0","0","","",""
"null","2870619","HierDy55os536l","sub08","08","1","iti","null","img/motor_8.png","76","motor","","","","","","","",""
"528","2871158","HierDy55os536l","sub08","08","1","motor","75","img/motor_6.png","74","motor","6","326","0","1","0","","",""
"234","2871402","HierDy55os536l","sub08","08","1","motorRepeat","74","img/motor_6.png","74","motor","6","326","1","0","0","","",""
"null","2871515","HierDy55os536l","sub08","08","1","iti","null","img/motor_6.png","74","motor","","","","","","","",""
"490","2872015","HierDy55os536l","sub08","08","1","motor","65","img/motor_1.png","65","motor","1","327","1","0","0","","",""
"null","2872127","HierDy55os536l","sub08","08","1","iti","null","img/motor_1.png","65","motor","","","","","","","",""
"420","2872557","HierDy55os536l","sub08","08","1","motor","65","img/motor_1.png","65","motor","1","328","1","0","0","","",""
"null","2872669","HierDy55os536l","sub08","08","1","iti","null","img/motor_1.png","65","motor","","","","","","","",""
"339","2873019","HierDy55os536l","sub08","08","1","motor","68","img/motor_3.png","68","motor","3","329","1","0","0","","",""
"null","2873131","HierDy55os536l","sub08","08","1","iti","null","img/motor_3.png","68","motor","","","","","","","",""
"604","2873744","HierDy55os536l","sub08","08","1","motor","74","img/motor_7.png","75","motor","7","330","0","1","0","","",""
"169","2873924","HierDy55os536l","sub08","08","1","motorRepeat","75","img/motor_7.png","75","motor","7","330","1","0","0","","",""
"null","2874036","HierDy55os536l","sub08","08","1","iti","null","img/motor_7.png","75","motor","","","","","","","",""
"508","2874554","HierDy55os536l","sub08","08","1","motor","65","img/motor_1.png","65","motor","1","331","1","0","0","","",""
"null","2874665","HierDy55os536l","sub08","08","1","iti","null","img/motor_1.png","65","motor","","","","","","","",""
"679","2875354","HierDy55os536l","sub08","08","1","motor","75","img/motor_7.png","75","motor","7","332","1","0","0","","",""
"null","2875466","HierDy55os536l","sub08","08","1","iti","null","img/motor_7.png","75","motor","","","","","","","",""
"455","2875932","HierDy55os536l","sub08","08","1","motor","74","img/motor_6.png","74","motor","6","333","1","0","0","","",""
"null","2876041","HierDy55os536l","sub08","08","1","iti","null","img/motor_6.png","74","motor","","","","","","","",""
"381","2876432","HierDy55os536l","sub08","08","1","motor","76","img/motor_8.png","76","motor","8","334","1","0","0","","",""
"null","2876544","HierDy55os536l","sub08","08","1","iti","null","img/motor_8.png","76","motor","","","","","","","",""
"317","2876871","HierDy55os536l","sub08","08","1","motor","74","img/motor_6.png","74","motor","6","335","1","0","0","","",""
"null","2876982","HierDy55os536l","sub08","08","1","iti","null","img/motor_6.png","74","motor","","","","","","","",""
"480","2877473","HierDy55os536l","sub08","08","1","motor","72","img/motor_5.png","72","motor","5","336","1","0","0","","",""
"null","2877586","HierDy55os536l","sub08","08","1","iti","null","img/motor_5.png","72","motor","","","","","","","",""
"378","2877975","HierDy55os536l","sub08","08","1","motor","76","img/motor_8.png","76","motor","8","337","1","0","0","","",""
"null","2878086","HierDy55os536l","sub08","08","1","iti","null","img/motor_8.png","76","motor","","","","","","","",""
"642","2878739","HierDy55os536l","sub08","08","1","motor","83","img/motor_2.png","83","motor","2","338","1","0","0","","",""
"null","2878852","HierDy55os536l","sub08","08","1","iti","null","img/motor_2.png","83","motor","","","","","","","",""
"532","2879394","HierDy55os536l","sub08","08","1","motor","68","img/motor_3.png","68","motor","3","339","1","0","0","","",""
"null","2879506","HierDy55os536l","sub08","08","1","iti","null","img/motor_3.png","68","motor","","","","","","","",""
"425","2879941","HierDy55os536l","sub08","08","1","motor","76","img/motor_8.png","76","motor","8","340","1","0","0","","",""
"null","2880052","HierDy55os536l","sub08","08","1","iti","null","img/motor_8.png","76","motor","","","","","","","",""
"502","2880565","HierDy55os536l","sub08","08","1","motor","75","img/motor_6.png","74","motor","6","341","0","1","0","","",""
"270","2880846","HierDy55os536l","sub08","08","1","motorRepeat","74","img/motor_6.png","74","motor","6","341","1","0","0","","",""
"null","2880957","HierDy55os536l","sub08","08","1","iti","null","img/motor_6.png","74","motor","","","","","","","",""
"655","2881623","HierDy55os536l","sub08","08","1","motor","83","img/motor_2.png","83","motor","2","342","1","0","0","","",""
"null","2881735","HierDy55os536l","sub08","08","1","iti","null","img/motor_2.png","83","motor","","","","","","","",""
"378","2882123","HierDy55os536l","sub08","08","1","motor","83","img/motor_2.png","83","motor","2","343","1","0","0","","",""
"null","2882235","HierDy55os536l","sub08","08","1","iti","null","img/motor_2.png","83","motor","","","","","","","",""
"458","2882705","HierDy55os536l","sub08","08","1","motor","72","img/motor_5.png","72","motor","5","344","1","0","0","","",""
"null","2882817","HierDy55os536l","sub08","08","1","iti","null","img/motor_5.png","72","motor","","","","","","","",""
"426","2883256","HierDy55os536l","sub08","08","1","motor","83","img/motor_2.png","83","motor","2","345","1","0","0","","",""
"null","2883366","HierDy55os536l","sub08","08","1","iti","null","img/motor_2.png","83","motor","","","","","","","",""
"461","2883838","HierDy55os536l","sub08","08","1","motor","65","img/motor_1.png","65","motor","1","346","1","0","0","","",""
"null","2883951","HierDy55os536l","sub08","08","1","iti","null","img/motor_1.png","65","motor","","","","","","","",""
"446","2884409","HierDy55os536l","sub08","08","1","motor","83","img/motor_3.png","68","motor","3","347","0","1","0","","",""
"226","2884646","HierDy55os536l","sub08","08","1","motorRepeat","68","img/motor_3.png","68","motor","3","347","1","0","0","","",""
"null","2884756","HierDy55os536l","sub08","08","1","iti","null","img/motor_3.png","68","motor","","","","","","","",""
"421","2885187","HierDy55os536l","sub08","08","1","motor","65","img/motor_1.png","65","motor","1","348","1","0","0","","",""
"null","2885297","HierDy55os536l","sub08","08","1","iti","null","img/motor_1.png","65","motor","","","","","","","",""
"532","2885841","HierDy55os536l","sub08","08","1","motor","75","img/motor_6.png","74","motor","6","349","0","1","0","","",""
"291","2886142","HierDy55os536l","sub08","08","1","motorRepeat","74","img/motor_6.png","74","motor","6","349","1","0","0","","",""
"null","2886253","HierDy55os536l","sub08","08","1","iti","null","img/motor_6.png","74","motor","","","","","","","",""
"592","2886856","HierDy55os536l","sub08","08","1","motor","65","img/motor_1.png","65","motor","1","350","1","0","0","","",""
"null","2886968","HierDy55os536l","sub08","08","1","iti","null","img/motor_1.png","65","motor","","","","","","","",""
"605","2887583","HierDy55os536l","sub08","08","1","motor","75","img/motor_7.png","75","motor","7","351","1","0","0","","",""
"null","2887694","HierDy55os536l","sub08","08","1","iti","null","img/motor_7.png","75","motor","","","","","","","",""
"602","2888308","HierDy55os536l","sub08","08","1","motor","68","img/motor_3.png","68","motor","3","352","1","0","0","","",""
"null","2888420","HierDy55os536l","sub08","08","1","iti","null","img/motor_3.png","68","motor","","","","","","","",""
"567","2888998","HierDy55os536l","sub08","08","1","motor","70","img/motor_4.png","70","motor","4","353","1","0","0","","",""
"null","2889111","HierDy55os536l","sub08","08","1","iti","null","img/motor_4.png","70","motor","","","","","","","",""
"500","2889620","HierDy55os536l","sub08","08","1","motor","75","img/motor_7.png","75","motor","7","354","1","0","0","","",""
"null","2889734","HierDy55os536l","sub08","08","1","iti","null","img/motor_7.png","75","motor","","","","","","","",""
"404","2890149","HierDy55os536l","sub08","08","1","motor","76","img/motor_8.png","76","motor","8","355","1","0","0","","",""
"null","2890261","HierDy55os536l","sub08","08","1","iti","null","img/motor_8.png","76","motor","","","","","","","",""
"623","2890896","HierDy55os536l","sub08","08","1","motor","70","img/motor_4.png","70","motor","4","356","1","0","0","","",""
"null","2891005","HierDy55os536l","sub08","08","1","iti","null","img/motor_4.png","70","motor","","","","","","","",""
"443","2891458","HierDy55os536l","sub08","08","1","motor","76","img/motor_8.png","76","motor","8","357","1","0","0","","",""
"null","2891569","HierDy55os536l","sub08","08","1","iti","null","img/motor_8.png","76","motor","","","","","","","",""
"671","2892248","HierDy55os536l","sub08","08","1","motor","83","img/motor_2.png","83","motor","2","358","1","0","0","","",""
"null","2892361","HierDy55os536l","sub08","08","1","iti","null","img/motor_2.png","83","motor","","","","","","","",""
"740","2893114","HierDy55os536l","sub08","08","1","motor","74","img/motor_6.png","74","motor","6","359","1","0","0","","",""
"null","2893228","HierDy55os536l","sub08","08","1","iti","null","img/motor_6.png","74","motor","","","","","","","",""
"531","2893770","HierDy55os536l","sub08","08","1","motor","83","img/motor_2.png","83","motor","2","360","1","0","0","","",""
"null","2893881","HierDy55os536l","sub08","08","1","iti","null","img/motor_2.png","83","motor","","","","","","","",""
"497","2894389","HierDy55os536l","sub08","08","1","motor","83","img/motor_2.png","83","motor","2","361","1","0","0","","",""
"null","2894503","HierDy55os536l","sub08","08","1","iti","null","img/motor_2.png","83","motor","","","","","","","",""
"487","2895002","HierDy55os536l","sub08","08","1","motor","72","img/motor_5.png","72","motor","5","362","1","0","0","","",""
"null","2895114","HierDy55os536l","sub08","08","1","iti","null","img/motor_5.png","72","motor","","","","","","","",""
"523","2895648","HierDy55os536l","sub08","08","1","motor","68","img/motor_3.png","68","motor","3","363","1","0","0","","",""
"null","2895759","HierDy55os536l","sub08","08","1","iti","null","img/motor_3.png","68","motor","","","","","","","",""
"567","2896338","HierDy55os536l","sub08","08","1","motor","83","img/motor_2.png","83","motor","2","364","1","0","0","","",""
"null","2896450","HierDy55os536l","sub08","08","1","iti","null","img/motor_2.png","83","motor","","","","","","","",""
"529","2896988","HierDy55os536l","sub08","08","1","motor","70","img/motor_4.png","70","motor","4","365","1","0","0","","",""
"null","2897099","HierDy55os536l","sub08","08","1","iti","null","img/motor_4.png","70","motor","","","","","","","",""
"365","2897480","HierDy55os536l","sub08","08","1","motor","65","img/motor_1.png","65","motor","1","366","1","0","0","","",""
"null","2897594","HierDy55os536l","sub08","08","1","iti","null","img/motor_1.png","65","motor","","","","","","","",""
"464","2898069","HierDy55os536l","sub08","08","1","motor","72","img/motor_5.png","72","motor","5","367","1","0","0","","",""
"null","2898181","HierDy55os536l","sub08","08","1","iti","null","img/motor_5.png","72","motor","","","","","","","",""
"484","2898676","HierDy55os536l","sub08","08","1","motor","75","img/motor_7.png","75","motor","7","368","1","0","0","","",""
"null","2898786","HierDy55os536l","sub08","08","1","iti","null","img/motor_7.png","75","motor","","","","","","","",""
"491","2899288","HierDy55os536l","sub08","08","1","motor","83","img/motor_2.png","83","motor","2","369","1","0","0","","",""
"null","2899398","HierDy55os536l","sub08","08","1","iti","null","img/motor_2.png","83","motor","","","","","","","",""
"483","2899893","HierDy55os536l","sub08","08","1","motor","70","img/motor_4.png","70","motor","4","370","1","0","0","","",""
"null","2900006","HierDy55os536l","sub08","08","1","iti","null","img/motor_4.png","70","motor","","","","","","","",""
"420","2900438","HierDy55os536l","sub08","08","1","motor","75","img/motor_7.png","75","motor","7","371","1","0","0","","",""
"null","2900551","HierDy55os536l","sub08","08","1","iti","null","img/motor_7.png","75","motor","","","","","","","",""
"494","2901053","HierDy55os536l","sub08","08","1","motor","83","img/motor_2.png","83","motor","2","372","1","0","0","","",""
"null","2901165","HierDy55os536l","sub08","08","1","iti","null","img/motor_2.png","83","motor","","","","","","","",""
"484","2901660","HierDy55os536l","sub08","08","1","motor","68","img/motor_3.png","68","motor","3","373","1","0","0","","",""
"null","2901770","HierDy55os536l","sub08","08","1","iti","null","img/motor_3.png","68","motor","","","","","","","",""
"496","2902275","HierDy55os536l","sub08","08","1","motor","75","img/motor_7.png","75","motor","7","374","1","0","0","","",""
"null","2902388","HierDy55os536l","sub08","08","1","iti","null","img/motor_7.png","75","motor","","","","","","","",""
"400","2902796","HierDy55os536l","sub08","08","1","motor","75","img/motor_7.png","75","motor","7","375","1","0","0","","",""
"null","2902907","HierDy55os536l","sub08","08","1","iti","null","img/motor_7.png","75","motor","","","","","","","",""
"462","2903379","HierDy55os536l","sub08","08","1","motor","72","img/motor_5.png","72","motor","5","376","1","0","0","","",""
"null","2903491","HierDy55os536l","sub08","08","1","iti","null","img/motor_5.png","72","motor","","","","","","","",""
"449","2903950","HierDy55os536l","sub08","08","1","motor","65","img/motor_1.png","65","motor","1","377","1","0","0","","",""
"null","2904062","HierDy55os536l","sub08","08","1","iti","null","img/motor_1.png","65","motor","","","","","","","",""
"466","2904537","HierDy55os536l","sub08","08","1","motor","68","img/motor_3.png","68","motor","3","378","1","0","0","","",""
"null","2904649","HierDy55os536l","sub08","08","1","iti","null","img/motor_3.png","68","motor","","","","","","","",""
"624","2905282","HierDy55os536l","sub08","08","1","motor","83","img/motor_2.png","83","motor","2","379","1","0","0","","",""
"null","2905393","HierDy55os536l","sub08","08","1","iti","null","img/motor_2.png","83","motor","","","","","","","",""
"400","2905804","HierDy55os536l","sub08","08","1","motor","65","img/motor_1.png","65","motor","1","380","1","0","0","","",""
"null","2905916","HierDy55os536l","sub08","08","1","iti","null","img/motor_1.png","65","motor","","","","","","","",""
"450","2906377","HierDy55os536l","sub08","08","1","motor","76","img/motor_6.png","74","motor","6","381","0","1","0","","",""
"215","2906603","HierDy55os536l","sub08","08","1","motorRepeat","74","img/motor_6.png","74","motor","6","381","1","0","0","","",""
"null","2906716","HierDy55os536l","sub08","08","1","iti","null","img/motor_6.png","74","motor","","","","","","","",""
"657","2907383","HierDy55os536l","sub08","08","1","motor","70","img/motor_4.png","70","motor","4","382","1","0","0","","",""
"null","2907495","HierDy55os536l","sub08","08","1","iti","null","img/motor_4.png","70","motor","","","","","","","",""
"452","2907957","HierDy55os536l","sub08","08","1","motor","76","img/motor_8.png","76","motor","8","383","1","0","0","","",""
"null","2908069","HierDy55os536l","sub08","08","1","iti","null","img/motor_8.png","76","motor","","","","","","","",""
