"rt","time_elapsed","subject","subID","group","day","trialType","phase","key_press","stim","stimNum","corrresp","hierarchy","trialNum","corr","responses"
"8662","8663","HierDy223mj93s","sub05","05","7","","","","","","","","","",""
"","12530","HierDy223mj93s","sub05","05","7","fullscreen","","","","","","","","",""
"5583","18113","HierDy223mj93s","sub05","05","7","","prac","","","","","","","",""
"1431","19547","HierDy223mj93s","sub05","05","7","","","32","","","","","","",""
"922","20471","HierDy223mj93s","sub05","05","7","","prac","","","","","","","",""
"1747","22221","HierDy223mj93s","sub05","05","7","rl","test","72","img/b_c_dots.png","5","72","pattern,shape,color","1","1",""
"null","23226","HierDy223mj93s","sub05","05","7","feedback","test","null","","","na","","1","",""
"1570","24799","HierDy223mj93s","sub05","05","7","rl","test","75","img/p_d_dots.png","8","76","pattern,shape,color","2","0",""
"null","25802","HierDy223mj93s","sub05","05","7","feedback","test","null","","","na","","2","",""
"1509","27312","HierDy223mj93s","sub05","05","7","rl","test","65","img/b_c_diag.png","1","65","pattern,shape,color","3","1",""
"null","28315","HierDy223mj93s","sub05","05","7","feedback","test","null","","","na","","3","",""
"1013","29329","HierDy223mj93s","sub05","05","7","rl","test","74","img/p_c_dots.png","6","74","pattern,shape,color","4","1",""
"null","30332","HierDy223mj93s","sub05","05","7","feedback","test","null","","","na","","4","",""
"719.9999999999927","31054","HierDy223mj93s","sub05","05","7","rl","test","70","img/p_d_diag.png","4","70","pattern,shape,color","5","1",""
"null","32056","HierDy223mj93s","sub05","05","7","feedback","test","null","","","na","","5","",""
"949","33007","HierDy223mj93s","sub05","05","7","rl","test","83","img/p_c_diag.png","2","83","pattern,shape,color","6","1",""
"null","34010","HierDy223mj93s","sub05","05","7","feedback","test","null","","","na","","6","",""
"1510","35522","HierDy223mj93s","sub05","05","7","rl","test","75","img/b_d_dots.png","7","75","pattern,shape,color","7","1",""
"null","36524","HierDy223mj93s","sub05","05","7","feedback","test","null","","","na","","7","",""
"953","37479","HierDy223mj93s","sub05","05","7","rl","test","68","img/b_d_diag.png","3","68","pattern,shape,color","8","1",""
"null","38482","HierDy223mj93s","sub05","05","7","feedback","test","null","","","na","","8","",""
"969","39452","HierDy223mj93s","sub05","05","7","rl","test","83","img/p_c_diag.png","2","83","pattern,shape,color","9","1",""
"null","40454","HierDy223mj93s","sub05","05","7","feedback","test","null","","","na","","9","",""
"833.0000000000073","41289","HierDy223mj93s","sub05","05","7","rl","test","65","img/b_c_diag.png","1","65","pattern,shape,color","10","1",""
"null","42292","HierDy223mj93s","sub05","05","7","feedback","test","null","","","na","","10","",""
"648","42941","HierDy223mj93s","sub05","05","7","rl","test","70","img/b_d_diag.png","3","68","pattern,shape,color","11","0",""
"null","43943","HierDy223mj93s","sub05","05","7","feedback","test","null","","","na","","11","",""
"1816","45761","HierDy223mj93s","sub05","05","7","rl","test","75","img/b_d_dots.png","7","75","pattern,shape,color","12","1",""
"null","46764","HierDy223mj93s","sub05","05","7","feedback","test","null","","","na","","12","",""
"1069","47835","HierDy223mj93s","sub05","05","7","rl","test","76","img/p_d_dots.png","8","76","pattern,shape,color","13","1",""
"null","48838","HierDy223mj93s","sub05","05","7","feedback","test","null","","","na","","13","",""
"1195","50035","HierDy223mj93s","sub05","05","7","rl","test","72","img/b_c_dots.png","5","72","pattern,shape,color","14","1",""
"null","51037","HierDy223mj93s","sub05","05","7","feedback","test","null","","","na","","14","",""
"957.9999999999927","51997","HierDy223mj93s","sub05","05","7","rl","test","72","img/b_c_dots.png","5","72","pattern,shape,color","15","1",""
"null","52999","HierDy223mj93s","sub05","05","7","feedback","test","null","","","na","","15","",""
"826","53827","HierDy223mj93s","sub05","05","7","rl","test","74","img/p_c_dots.png","6","74","pattern,shape,color","16","1",""
"null","54830","HierDy223mj93s","sub05","05","7","feedback","test","null","","","na","","16","",""
"715","55547","HierDy223mj93s","sub05","05","7","rl","test","76","img/p_d_dots.png","8","76","pattern,shape,color","17","1",""
"null","56550","HierDy223mj93s","sub05","05","7","feedback","test","null","","","na","","17","",""
"1202","57753","HierDy223mj93s","sub05","05","7","rl","test","83","img/p_c_diag.png","2","83","pattern,shape,color","18","1",""
"null","58756","HierDy223mj93s","sub05","05","7","feedback","test","null","","","na","","18","",""
"830","59588","HierDy223mj93s","sub05","05","7","rl","test","70","img/p_d_diag.png","4","70","pattern,shape,color","19","1",""
"null","60590","HierDy223mj93s","sub05","05","7","feedback","test","null","","","na","","19","",""
"1378","61971","HierDy223mj93s","sub05","05","7","rl","test","75","img/b_d_dots.png","7","75","pattern,shape,color","20","1",""
"null","62973","HierDy223mj93s","sub05","05","7","feedback","test","null","","","na","","20","",""
"1078.0000000000073","64053","HierDy223mj93s","sub05","05","7","rl","test","70","img/p_d_diag.png","4","70","pattern,shape,color","21","1",""
"null","65056","HierDy223mj93s","sub05","05","7","feedback","test","null","","","na","","21","",""
"963","66021","HierDy223mj93s","sub05","05","7","rl","test","74","img/p_c_dots.png","6","74","pattern,shape,color","22","1",""
"null","67024","HierDy223mj93s","sub05","05","7","feedback","test","null","","","na","","22","",""
"1205","68231","HierDy223mj93s","sub05","05","7","rl","test","83","img/p_c_diag.png","2","83","pattern,shape,color","23","1",""
"null","69234","HierDy223mj93s","sub05","05","7","feedback","test","null","","","na","","23","",""
"1033","70269","HierDy223mj93s","sub05","05","7","rl","test","65","img/b_c_diag.png","1","65","pattern,shape,color","24","1",""
"null","71271","HierDy223mj93s","sub05","05","7","feedback","test","null","","","na","","24","",""
"2410","73682","HierDy223mj93s","sub05","05","7","rl","test","68","img/b_d_diag.png","3","68","pattern,shape,color","25","1",""
"null","74685","HierDy223mj93s","sub05","05","7","feedback","test","null","","","na","","25","",""
"625","75312","HierDy223mj93s","sub05","05","7","rl","test","68","img/b_d_diag.png","3","68","pattern,shape,color","26","1",""
"null","76315","HierDy223mj93s","sub05","05","7","feedback","test","null","","","na","","26","",""
"968","77285","HierDy223mj93s","sub05","05","7","rl","test","75","img/b_d_dots.png","7","75","pattern,shape,color","27","1",""
"null","78287","HierDy223mj93s","sub05","05","7","feedback","test","null","","","na","","27","",""
"849","79139","HierDy223mj93s","sub05","05","7","rl","test","76","img/p_d_dots.png","8","76","pattern,shape,color","28","1",""
"null","80142","HierDy223mj93s","sub05","05","7","feedback","test","null","","","na","","28","",""
"1215","81359","HierDy223mj93s","sub05","05","7","rl","test","65","img/b_c_diag.png","1","65","pattern,shape,color","29","1",""
"null","82362","HierDy223mj93s","sub05","05","7","feedback","test","null","","","na","","29","",""
"947","83311","HierDy223mj93s","sub05","05","7","rl","test","72","img/b_c_dots.png","5","72","pattern,shape,color","30","1",""
"null","84315","HierDy223mj93s","sub05","05","7","feedback","test","null","","","na","","30","",""
"1249","85566","HierDy223mj93s","sub05","05","7","rl","test","70","img/p_d_diag.png","4","70","pattern,shape,color","31","1",""
"null","86570","HierDy223mj93s","sub05","05","7","feedback","test","null","","","na","","31","",""
"1326","87898","HierDy223mj93s","sub05","05","7","rl","test","74","img/p_c_dots.png","6","74","pattern,shape,color","32","1",""
"null","88902","HierDy223mj93s","sub05","05","7","feedback","test","null","","","na","","32","",""
"1143","90047","HierDy223mj93s","sub05","05","7","rl","test","70","img/p_d_diag.png","4","70","pattern,shape,color","33","1",""
"null","91050","HierDy223mj93s","sub05","05","7","feedback","test","null","","","na","","33","",""
"877","91929","HierDy223mj93s","sub05","05","7","rl","test","68","img/b_d_diag.png","3","68","pattern,shape,color","34","1",""
"null","92932","HierDy223mj93s","sub05","05","7","feedback","test","null","","","na","","34","",""
"1325","94259","HierDy223mj93s","sub05","05","7","rl","test","83","img/p_c_diag.png","2","83","pattern,shape,color","35","1",""
"null","95263","HierDy223mj93s","sub05","05","7","feedback","test","null","","","na","","35","",""
"743","96007","HierDy223mj93s","sub05","05","7","rl","test","65","img/b_c_diag.png","1","65","pattern,shape,color","36","1",""
"null","97011","HierDy223mj93s","sub05","05","7","feedback","test","null","","","na","","36","",""
"741","97754","HierDy223mj93s","sub05","05","7","rl","test","65","img/b_c_diag.png","1","65","pattern,shape,color","37","1",""
"null","98757","HierDy223mj93s","sub05","05","7","feedback","test","null","","","na","","37","",""
"1025","99784","HierDy223mj93s","sub05","05","7","rl","test","74","img/p_c_dots.png","6","74","pattern,shape,color","38","1",""
"null","100787","HierDy223mj93s","sub05","05","7","feedback","test","null","","","na","","38","",""
"941","101730","HierDy223mj93s","sub05","05","7","rl","test","76","img/p_d_dots.png","8","76","pattern,shape,color","39","1",""
"null","102732","HierDy223mj93s","sub05","05","7","feedback","test","null","","","na","","39","",""
"994","103729","HierDy223mj93s","sub05","05","7","rl","test","75","img/b_d_dots.png","7","75","pattern,shape,color","40","1",""
"null","104732","HierDy223mj93s","sub05","05","7","feedback","test","null","","","na","","40","",""
"738","105472","HierDy223mj93s","sub05","05","7","rl","test","74","img/p_c_dots.png","6","74","pattern,shape,color","41","1",""
"null","106476","HierDy223mj93s","sub05","05","7","feedback","test","null","","","na","","41","",""
"1096.0000000000146","107574","HierDy223mj93s","sub05","05","7","rl","test","75","img/b_d_dots.png","7","75","pattern,shape,color","42","1",""
"null","108577","HierDy223mj93s","sub05","05","7","feedback","test","null","","","na","","42","",""
"850.9999999999854","109431","HierDy223mj93s","sub05","05","7","rl","test","68","img/b_d_diag.png","3","68","pattern,shape,color","43","1",""
"null","110434","HierDy223mj93s","sub05","05","7","feedback","test","null","","","na","","43","",""
"489","110925","HierDy223mj93s","sub05","05","7","rl","test","72","img/b_c_dots.png","5","72","pattern,shape,color","44","1",""
"null","111927","HierDy223mj93s","sub05","05","7","feedback","test","null","","","na","","44","",""
"1501","113431","HierDy223mj93s","sub05","05","7","rl","test","76","img/p_d_dots.png","8","76","pattern,shape,color","45","1",""
"null","114434","HierDy223mj93s","sub05","05","7","feedback","test","null","","","na","","45","",""
"904","115340","HierDy223mj93s","sub05","05","7","rl","test","70","img/p_d_diag.png","4","70","pattern,shape,color","46","1",""
"null","116344","HierDy223mj93s","sub05","05","7","feedback","test","null","","","na","","46","",""
"1368","117715","HierDy223mj93s","sub05","05","7","rl","test","68","img/b_d_diag.png","3","68","pattern,shape,color","47","1",""
"null","118719","HierDy223mj93s","sub05","05","7","feedback","test","null","","","na","","47","",""
"741","119462","HierDy223mj93s","sub05","05","7","rl","test","72","img/b_c_dots.png","5","72","pattern,shape,color","48","1",""
"null","120465","HierDy223mj93s","sub05","05","7","feedback","test","null","","","na","","48","",""
"676","121144","HierDy223mj93s","sub05","05","7","rl","test","70","img/p_d_diag.png","4","70","pattern,shape,color","49","1",""
"null","122146","HierDy223mj93s","sub05","05","7","feedback","test","null","","","na","","49","",""
"1033","123181","HierDy223mj93s","sub05","05","7","rl","test","83","img/p_c_diag.png","2","83","pattern,shape,color","50","1",""
"null","124184","HierDy223mj93s","sub05","05","7","feedback","test","null","","","na","","50","",""
"1173.0000000000146","125359","HierDy223mj93s","sub05","05","7","rl","test","74","img/p_c_dots.png","6","74","pattern,shape,color","51","1",""
"null","126363","HierDy223mj93s","sub05","05","7","feedback","test","null","","","na","","51","",""
"920","127285","HierDy223mj93s","sub05","05","7","rl","test","65","img/b_c_diag.png","1","65","pattern,shape,color","52","1",""
"null","128289","HierDy223mj93s","sub05","05","7","feedback","test","null","","","na","","52","",""
"1763.9999999999854","130055","HierDy223mj93s","sub05","05","7","rl","test","76","img/p_d_dots.png","8","76","pattern,shape,color","53","1",""
"null","131059","HierDy223mj93s","sub05","05","7","feedback","test","null","","","na","","53","",""
"1138","132199","HierDy223mj93s","sub05","05","7","rl","test","75","img/b_d_dots.png","7","75","pattern,shape,color","54","1",""
"null","133204","HierDy223mj93s","sub05","05","7","feedback","test","null","","","na","","54","",""
"1584","134790","HierDy223mj93s","sub05","05","7","rl","test","72","img/b_c_dots.png","5","72","pattern,shape,color","55","1",""
"null","135793","HierDy223mj93s","sub05","05","7","feedback","test","null","","","na","","55","",""
"660","136456","HierDy223mj93s","sub05","05","7","rl","test","74","img/p_c_dots.png","6","74","pattern,shape,color","56","1",""
"null","137460","HierDy223mj93s","sub05","05","7","feedback","test","null","","","na","","56","",""
"1127","138589","HierDy223mj93s","sub05","05","7","rl","test","83","img/p_c_diag.png","2","83","pattern,shape,color","57","1",""
"null","139593","HierDy223mj93s","sub05","05","7","feedback","test","null","","","na","","57","",""
"1006","140601","HierDy223mj93s","sub05","05","7","rl","test","70","img/p_d_diag.png","4","70","pattern,shape,color","58","1",""
"null","141604","HierDy223mj93s","sub05","05","7","feedback","test","null","","","na","","58","",""
"901","142507","HierDy223mj93s","sub05","05","7","rl","test","83","img/p_c_diag.png","2","83","pattern,shape,color","59","1",""
"null","143511","HierDy223mj93s","sub05","05","7","feedback","test","null","","","na","","59","",""
"1753","145266","HierDy223mj93s","sub05","05","7","rl","test","75","img/b_d_dots.png","7","75","pattern,shape,color","60","1",""
"null","146269","HierDy223mj93s","sub05","05","7","feedback","test","null","","","na","","60","",""
"736","147007","HierDy223mj93s","sub05","05","7","rl","test","76","img/p_d_dots.png","8","76","pattern,shape,color","61","1",""
"null","148010","HierDy223mj93s","sub05","05","7","feedback","test","null","","","na","","61","",""
"1026","149039","HierDy223mj93s","sub05","05","7","rl","test","68","img/b_d_diag.png","3","68","pattern,shape,color","62","1",""
"null","150042","HierDy223mj93s","sub05","05","7","feedback","test","null","","","na","","62","",""
"1535","151580","HierDy223mj93s","sub05","05","7","rl","test","65","img/b_c_diag.png","1","65","pattern,shape,color","63","1",""
"null","152583","HierDy223mj93s","sub05","05","7","feedback","test","null","","","na","","63","",""
"796","153381","HierDy223mj93s","sub05","05","7","rl","test","72","img/b_c_dots.png","5","72","pattern,shape,color","64","1",""
"null","154385","HierDy223mj93s","sub05","05","7","feedback","test","null","","","na","","64","",""
"1742","156129","HierDy223mj93s","sub05","05","7","rl","test","72","img/b_c_dots.png","5","72","pattern,shape,color","65","1",""
"null","157132","HierDy223mj93s","sub05","05","7","feedback","test","null","","","na","","65","",""
"825","157960","HierDy223mj93s","sub05","05","7","rl","test","74","img/p_c_dots.png","6","74","pattern,shape,color","66","1",""
"null","158963","HierDy223mj93s","sub05","05","7","feedback","test","null","","","na","","66","",""
"1992","160958","HierDy223mj93s","sub05","05","7","rl","test","65","img/b_c_diag.png","1","65","pattern,shape,color","67","1",""
"null","161961","HierDy223mj93s","sub05","05","7","feedback","test","null","","","na","","67","",""
"1390","163353","HierDy223mj93s","sub05","05","7","rl","test","74","img/b_c_dots.png","5","72","pattern,shape,color","68","0",""
"null","164360","HierDy223mj93s","sub05","05","7","feedback","test","null","","","na","","68","",""
"1224","165586","HierDy223mj93s","sub05","05","7","rl","test","70","img/p_d_diag.png","4","70","pattern,shape,color","69","1",""
"null","166589","HierDy223mj93s","sub05","05","7","feedback","test","null","","","na","","69","",""
"998.0000000000291","167590","HierDy223mj93s","sub05","05","7","rl","test","76","img/p_d_dots.png","8","76","pattern,shape,color","70","1",""
"null","168593","HierDy223mj93s","sub05","05","7","feedback","test","null","","","na","","70","",""
"1202","169798","HierDy223mj93s","sub05","05","7","rl","test","83","img/p_c_diag.png","2","83","pattern,shape,color","71","1",""
"null","170801","HierDy223mj93s","sub05","05","7","feedback","test","null","","","na","","71","",""
"2040.999999999971","172844","HierDy223mj93s","sub05","05","7","rl","test","65","img/b_c_diag.png","1","65","pattern,shape,color","72","1",""
"null","173847","HierDy223mj93s","sub05","05","7","feedback","test","null","","","na","","72","",""
"1486","175336","HierDy223mj93s","sub05","05","7","rl","test","75","img/b_d_dots.png","7","75","pattern,shape,color","73","1",""
"null","176340","HierDy223mj93s","sub05","05","7","feedback","test","null","","","na","","73","",""
"1414","177755","HierDy223mj93s","sub05","05","7","rl","test","68","img/b_d_diag.png","3","68","pattern,shape,color","74","1",""
"null","178759","HierDy223mj93s","sub05","05","7","feedback","test","null","","","na","","74","",""
"701","179462","HierDy223mj93s","sub05","05","7","rl","test","68","img/b_d_diag.png","3","68","pattern,shape,color","75","1",""
"null","180465","HierDy223mj93s","sub05","05","7","feedback","test","null","","","na","","75","",""
"null","182968","HierDy223mj93s","sub05","05","7","rl","test","null","img/b_d_dots.png","7","75","pattern,shape,color","76","0",""
"null","183972","HierDy223mj93s","sub05","05","7","feedback","test","null","","","na","","76","",""
"1348","185322","HierDy223mj93s","sub05","05","7","rl","test","70","img/p_d_diag.png","4","70","pattern,shape,color","77","1",""
"null","186325","HierDy223mj93s","sub05","05","7","feedback","test","null","","","na","","77","",""
"1791.999999999971","188120","HierDy223mj93s","sub05","05","7","rl","test","83","img/p_c_diag.png","2","83","pattern,shape,color","78","1",""
"null","189126","HierDy223mj93s","sub05","05","7","feedback","test","null","","","na","","78","",""
"2139.000000000029","191267","HierDy223mj93s","sub05","05","7","rl","test","74","img/p_c_dots.png","6","74","pattern,shape,color","79","1",""
"null","192271","HierDy223mj93s","sub05","05","7","feedback","test","null","","","na","","79","",""
"1134","193408","HierDy223mj93s","sub05","05","7","rl","test","76","img/p_d_dots.png","8","76","pattern,shape,color","80","1",""
"null","194412","HierDy223mj93s","sub05","05","7","feedback","test","null","","","na","","80","",""
"825","195240","HierDy223mj93s","sub05","05","7","rl","test","70","img/p_d_diag.png","4","70","pattern,shape,color","81","1",""
"null","196243","HierDy223mj93s","sub05","05","7","feedback","test","null","","","na","","81","",""
"1791","198037","HierDy223mj93s","sub05","05","7","rl","test","72","img/b_c_dots.png","5","72","pattern,shape,color","82","1",""
"null","199039","HierDy223mj93s","sub05","05","7","feedback","test","null","","","na","","82","",""
"1402","200445","HierDy223mj93s","sub05","05","7","rl","test","83","img/p_c_diag.png","2","83","pattern,shape,color","83","1",""
"null","201448","HierDy223mj93s","sub05","05","7","feedback","test","null","","","na","","83","",""
"2147","203597","HierDy223mj93s","sub05","05","7","rl","test","72","img/b_c_dots.png","5","72","pattern,shape,color","84","1",""
"null","204601","HierDy223mj93s","sub05","05","7","feedback","test","null","","","na","","84","",""
"643","205245","HierDy223mj93s","sub05","05","7","rl","test","74","img/p_c_dots.png","6","74","pattern,shape,color","85","1",""
"null","206248","HierDy223mj93s","sub05","05","7","feedback","test","null","","","na","","85","",""
"759","207009","HierDy223mj93s","sub05","05","7","rl","test","68","img/b_d_diag.png","3","68","pattern,shape,color","86","1",""
"null","208013","HierDy223mj93s","sub05","05","7","feedback","test","null","","","na","","86","",""
"978","208993","HierDy223mj93s","sub05","05","7","rl","test","83","img/b_c_diag.png","1","65","pattern,shape,color","87","0",""
"null","209997","HierDy223mj93s","sub05","05","7","feedback","test","null","","","na","","87","",""
"638","210637","HierDy223mj93s","sub05","05","7","rl","test","65","img/b_c_diag.png","1","65","pattern,shape,color","88","1",""
"null","211641","HierDy223mj93s","sub05","05","7","feedback","test","null","","","na","","88","",""
"984","212630","HierDy223mj93s","sub05","05","7","rl","test","75","img/b_d_dots.png","7","75","pattern,shape,color","89","1",""
"null","213634","HierDy223mj93s","sub05","05","7","feedback","test","null","","","na","","89","",""
"1323","214960","HierDy223mj93s","sub05","05","7","rl","test","76","img/p_d_dots.png","8","76","pattern,shape,color","90","1",""
"null","215964","HierDy223mj93s","sub05","05","7","feedback","test","null","","","na","","90","",""
"1861.000000000029","217827","HierDy223mj93s","sub05","05","7","rl","test","83","img/p_c_diag.png","2","83","pattern,shape,color","91","1",""
"null","218831","HierDy223mj93s","sub05","05","7","feedback","test","null","","","na","","91","",""
"1073.999999999971","219906","HierDy223mj93s","sub05","05","7","rl","test","74","img/p_c_dots.png","6","74","pattern,shape,color","92","1",""
"null","220910","HierDy223mj93s","sub05","05","7","feedback","test","null","","","na","","92","",""
"872.0000000000291","221785","HierDy223mj93s","sub05","05","7","rl","test","70","img/p_d_diag.png","4","70","pattern,shape,color","93","1",""
"null","222788","HierDy223mj93s","sub05","05","7","feedback","test","null","","","na","","93","",""
"1064","223854","HierDy223mj93s","sub05","05","7","rl","test","76","img/p_d_dots.png","8","76","pattern,shape,color","94","1",""
"null","224857","HierDy223mj93s","sub05","05","7","feedback","test","null","","","na","","94","",""
"1977","226836","HierDy223mj93s","sub05","05","7","rl","test","68","img/b_d_diag.png","3","68","pattern,shape,color","95","1",""
"null","227840","HierDy223mj93s","sub05","05","7","feedback","test","null","","","na","","95","",""
"478","228320","HierDy223mj93s","sub05","05","7","rl","test","68","img/b_d_diag.png","3","68","pattern,shape,color","96","1",""
"null","229323","HierDy223mj93s","sub05","05","7","feedback","test","null","","","na","","96","",""
"794","230120","HierDy223mj93s","sub05","05","7","rl","test","83","img/p_c_diag.png","2","83","pattern,shape,color","97","1",""
"null","231123","HierDy223mj93s","sub05","05","7","feedback","test","null","","","na","","97","",""
"1141.000000000029","232267","HierDy223mj93s","sub05","05","7","rl","test","72","img/b_c_dots.png","5","72","pattern,shape,color","98","1",""
"null","233270","HierDy223mj93s","sub05","05","7","feedback","test","null","","","na","","98","",""
"1003.9999999999709","234276","HierDy223mj93s","sub05","05","7","rl","test","65","img/b_c_diag.png","1","65","pattern,shape,color","99","1",""
"null","235280","HierDy223mj93s","sub05","05","7","feedback","test","null","","","na","","99","",""
"1185","236467","HierDy223mj93s","sub05","05","7","rl","test","75","img/b_d_dots.png","7","75","pattern,shape,color","100","1",""
"null","237470","HierDy223mj93s","sub05","05","7","feedback","test","null","","","na","","100","",""
"1082","238553","HierDy223mj93s","sub05","05","7","rl","test","83","img/p_c_diag.png","2","83","pattern,shape,color","101","1",""
"null","239557","HierDy223mj93s","sub05","05","7","feedback","test","null","","","na","","101","",""
"617.9999999999709","240176","HierDy223mj93s","sub05","05","7","rl","test","75","img/b_d_dots.png","7","75","pattern,shape,color","102","1",""
"null","241180","HierDy223mj93s","sub05","05","7","feedback","test","null","","","na","","102","",""
"706","241888","HierDy223mj93s","sub05","05","7","rl","test","72","img/b_c_dots.png","5","72","pattern,shape,color","103","1",""
"null","242892","HierDy223mj93s","sub05","05","7","feedback","test","null","","","na","","103","",""
"954.0000000000291","243850","HierDy223mj93s","sub05","05","7","rl","test","76","img/p_d_dots.png","8","76","pattern,shape,color","104","1",""
"null","244853","HierDy223mj93s","sub05","05","7","feedback","test","null","","","na","","104","",""
"430","245286","HierDy223mj93s","sub05","05","7","rl","test","74","img/p_c_dots.png","6","74","pattern,shape,color","105","1",""
"null","246289","HierDy223mj93s","sub05","05","7","feedback","test","null","","","na","","105","",""
"1252","247543","HierDy223mj93s","sub05","05","7","rl","test","72","img/b_c_dots.png","5","72","pattern,shape,color","106","1",""
"null","248547","HierDy223mj93s","sub05","05","7","feedback","test","null","","","na","","106","",""
"1364","249914","HierDy223mj93s","sub05","05","7","rl","test","70","img/p_d_diag.png","4","70","pattern,shape,color","107","1",""
"null","250917","HierDy223mj93s","sub05","05","7","feedback","test","null","","","na","","107","",""
"490.0000000000291","251409","HierDy223mj93s","sub05","05","7","rl","test","70","img/p_d_diag.png","4","70","pattern,shape,color","108","1",""
"null","252413","HierDy223mj93s","sub05","05","7","feedback","test","null","","","na","","108","",""
"1786","254201","HierDy223mj93s","sub05","05","7","rl","test","76","img/p_d_dots.png","8","76","pattern,shape,color","109","1",""
"null","255204","HierDy223mj93s","sub05","05","7","feedback","test","null","","","na","","109","",""
"909.0000000000582","256115","HierDy223mj93s","sub05","05","7","rl","test","68","img/b_d_diag.png","3","68","pattern,shape,color","110","1",""
"null","257119","HierDy223mj93s","sub05","05","7","feedback","test","null","","","na","","110","",""
"1713.000000000029","258835","HierDy223mj93s","sub05","05","7","rl","test","75","img/b_d_dots.png","7","75","pattern,shape,color","111","1",""
"null","259838","HierDy223mj93s","sub05","05","7","feedback","test","null","","","na","","111","",""
"1328.0000000000582","261169","HierDy223mj93s","sub05","05","7","rl","test","74","img/p_c_dots.png","6","74","pattern,shape,color","112","1",""
"null","262172","HierDy223mj93s","sub05","05","7","feedback","test","null","","","na","","112","",""
"1856","264030","HierDy223mj93s","sub05","05","7","rl","test","75","img/b_d_dots.png","7","75","pattern,shape,color","113","1",""
"null","265033","HierDy223mj93s","sub05","05","7","feedback","test","null","","","na","","113","",""
"1209","266243","HierDy223mj93s","sub05","05","7","rl","test","65","img/b_c_diag.png","1","65","pattern,shape,color","114","1",""
"null","267246","HierDy223mj93s","sub05","05","7","feedback","test","null","","","na","","114","",""
"2022","269270","HierDy223mj93s","sub05","05","7","rl","test","76","img/p_d_dots.png","8","76","pattern,shape,color","115","1",""
"null","270274","HierDy223mj93s","sub05","05","7","feedback","test","null","","","na","","115","",""
"1324","271600","HierDy223mj93s","sub05","05","7","rl","test","83","img/p_c_diag.png","2","83","pattern,shape,color","116","1",""
"null","272603","HierDy223mj93s","sub05","05","7","feedback","test","null","","","na","","116","",""
"1436","274041","HierDy223mj93s","sub05","05","7","rl","test","65","img/b_c_diag.png","1","65","pattern,shape,color","117","1",""
"null","275047","HierDy223mj93s","sub05","05","7","feedback","test","null","","","na","","117","",""
"1108","276157","HierDy223mj93s","sub05","05","7","rl","test","68","img/b_d_diag.png","3","68","pattern,shape,color","118","1",""
"null","277160","HierDy223mj93s","sub05","05","7","feedback","test","null","","","na","","118","",""
"1510","278673","HierDy223mj93s","sub05","05","7","rl","test","70","img/p_d_diag.png","4","70","pattern,shape,color","119","1",""
"null","279677","HierDy223mj93s","sub05","05","7","feedback","test","null","","","na","","119","",""
"1910","281589","HierDy223mj93s","sub05","05","7","rl","test","74","img/p_c_dots.png","6","74","pattern,shape,color","120","1",""
"null","282592","HierDy223mj93s","sub05","05","7","feedback","test","null","","","na","","120","",""
"1320","283914","HierDy223mj93s","sub05","05","7","rl","test","72","img/b_c_dots.png","5","72","pattern,shape,color","121","1",""
"null","284917","HierDy223mj93s","sub05","05","7","feedback","test","null","","","na","","121","",""
"917","285837","HierDy223mj93s","sub05","05","7","rl","test","65","img/b_c_diag.png","1","65","pattern,shape,color","122","1",""
"null","286840","HierDy223mj93s","sub05","05","7","feedback","test","null","","","na","","122","",""
"2002","288844","HierDy223mj93s","sub05","05","7","rl","test","75","img/b_d_dots.png","7","75","pattern,shape,color","123","1",""
"null","289847","HierDy223mj93s","sub05","05","7","feedback","test","null","","","na","","123","",""
"895","290744","HierDy223mj93s","sub05","05","7","rl","test","74","img/p_c_dots.png","6","74","pattern,shape,color","124","1",""
"null","291747","HierDy223mj93s","sub05","05","7","feedback","test","null","","","na","","124","",""
"1234","292984","HierDy223mj93s","sub05","05","7","rl","test","68","img/b_d_diag.png","3","68","pattern,shape,color","125","1",""
"null","293988","HierDy223mj93s","sub05","05","7","feedback","test","null","","","na","","125","",""
"1512","295502","HierDy223mj93s","sub05","05","7","rl","test","74","img/p_c_dots.png","6","74","pattern,shape,color","126","1",""
"null","296506","HierDy223mj93s","sub05","05","7","feedback","test","null","","","na","","126","",""
"null","299009","HierDy223mj93s","sub05","05","7","rl","test","null","img/p_d_dots.png","8","76","pattern,shape,color","127","0",""
"null","300014","HierDy223mj93s","sub05","05","7","feedback","test","null","","","na","","127","",""
"1074","301090","HierDy223mj93s","sub05","05","7","rl","test","83","img/p_c_diag.png","2","83","pattern,shape,color","128","1",""
"null","302094","HierDy223mj93s","sub05","05","7","feedback","test","null","","","na","","128","",""
"1936","304031","HierDy223mj93s","sub05","05","7","rl","test","75","img/b_d_dots.png","7","75","pattern,shape,color","129","1",""
"null","305035","HierDy223mj93s","sub05","05","7","feedback","test","null","","","na","","129","",""
"1235","306271","HierDy223mj93s","sub05","05","7","rl","test","72","img/b_c_dots.png","5","72","pattern,shape,color","130","1",""
"null","307275","HierDy223mj93s","sub05","05","7","feedback","test","null","","","na","","130","",""
"1357","308634","HierDy223mj93s","sub05","05","7","rl","test","83","img/p_c_diag.png","2","83","pattern,shape,color","131","1",""
"null","309640","HierDy223mj93s","sub05","05","7","feedback","test","null","","","na","","131","",""
"921","310563","HierDy223mj93s","sub05","05","7","rl","test","70","img/p_d_diag.png","4","70","pattern,shape,color","132","1",""
"null","311566","HierDy223mj93s","sub05","05","7","feedback","test","null","","","na","","132","",""
"1774","313343","HierDy223mj93s","sub05","05","7","rl","test","70","img/p_d_diag.png","4","70","pattern,shape,color","133","1",""
"null","314346","HierDy223mj93s","sub05","05","7","feedback","test","null","","","na","","133","",""
"1664","316013","HierDy223mj93s","sub05","05","7","rl","test","83","img/b_c_diag.png","1","65","pattern,shape,color","134","0",""
"null","317017","HierDy223mj93s","sub05","05","7","feedback","test","null","","","na","","134","",""
"690","317710","HierDy223mj93s","sub05","05","7","rl","test","68","img/b_d_diag.png","3","68","pattern,shape,color","135","1",""
"null","318713","HierDy223mj93s","sub05","05","7","feedback","test","null","","","na","","135","",""
"1447.9999999999418","320163","HierDy223mj93s","sub05","05","7","rl","test","76","img/p_d_dots.png","8","76","pattern,shape,color","136","1",""
"null","321167","HierDy223mj93s","sub05","05","7","feedback","test","null","","","na","","136","",""
"862.0000000000582","322031","HierDy223mj93s","sub05","05","7","rl","test","74","img/p_c_dots.png","6","74","pattern,shape,color","137","1",""
"null","323034","HierDy223mj93s","sub05","05","7","feedback","test","null","","","na","","137","",""
"1206","324243","HierDy223mj93s","sub05","05","7","rl","test","65","img/b_c_diag.png","1","65","pattern,shape,color","138","1",""
"null","325246","HierDy223mj93s","sub05","05","7","feedback","test","null","","","na","","138","",""
"716","325964","HierDy223mj93s","sub05","05","7","rl","test","70","img/p_d_diag.png","4","70","pattern,shape,color","139","1",""
"null","326967","HierDy223mj93s","sub05","05","7","feedback","test","null","","","na","","139","",""
"627","327596","HierDy223mj93s","sub05","05","7","rl","test","68","img/b_d_diag.png","3","68","pattern,shape,color","140","1",""
"null","328598","HierDy223mj93s","sub05","05","7","feedback","test","null","","","na","","140","",""
"614","329214","HierDy223mj93s","sub05","05","7","rl","test","70","img/p_d_diag.png","4","70","pattern,shape,color","141","1",""
"null","330218","HierDy223mj93s","sub05","05","7","feedback","test","null","","","na","","141","",""
"1412","331631","HierDy223mj93s","sub05","05","7","rl","test","75","img/b_d_dots.png","7","75","pattern,shape,color","142","1",""
"null","332633","HierDy223mj93s","sub05","05","7","feedback","test","null","","","na","","142","",""
"1183","333818","HierDy223mj93s","sub05","05","7","rl","test","76","img/p_d_dots.png","8","76","pattern,shape,color","143","1",""
"null","334822","HierDy223mj93s","sub05","05","7","feedback","test","null","","","na","","143","",""
"1436","336260","HierDy223mj93s","sub05","05","7","rl","test","72","img/b_c_dots.png","5","72","pattern,shape,color","144","1",""
"null","337264","HierDy223mj93s","sub05","05","7","feedback","test","null","","","na","","144","",""
"1689","338955","HierDy223mj93s","sub05","05","7","rl","test","83","img/p_c_diag.png","2","83","pattern,shape,color","145","1",""
"null","339958","HierDy223mj93s","sub05","05","7","feedback","test","null","","","na","","145","",""
"854","340815","HierDy223mj93s","sub05","05","7","rl","test","83","img/p_c_diag.png","2","83","pattern,shape,color","146","1",""
"null","341818","HierDy223mj93s","sub05","05","7","feedback","test","null","","","na","","146","",""
"1263","343083","HierDy223mj93s","sub05","05","7","rl","test","72","img/b_c_dots.png","5","72","pattern,shape,color","147","1",""
"null","344086","HierDy223mj93s","sub05","05","7","feedback","test","null","","","na","","147","",""
"1043","345131","HierDy223mj93s","sub05","05","7","rl","test","68","img/b_d_diag.png","3","68","pattern,shape,color","148","1",""
"null","346135","HierDy223mj93s","sub05","05","7","feedback","test","null","","","na","","148","",""
"1662.0000000000582","347799","HierDy223mj93s","sub05","05","7","rl","test","75","img/b_d_dots.png","7","75","pattern,shape,color","149","1",""
"null","348803","HierDy223mj93s","sub05","05","7","feedback","test","null","","","na","","149","",""
"1370","350176","HierDy223mj93s","sub05","05","7","rl","test","74","img/p_c_dots.png","6","74","pattern,shape,color","150","1",""
"null","351179","HierDy223mj93s","sub05","05","7","feedback","test","null","","","na","","150","",""
"null","353683","HierDy223mj93s","sub05","05","7","rl","test","null","img/p_d_dots.png","8","76","pattern,shape,color","151","0",""
"null","354686","HierDy223mj93s","sub05","05","7","feedback","test","null","","","na","","151","",""
"2133","356823","HierDy223mj93s","sub05","05","7","rl","test","65","img/b_c_diag.png","1","65","pattern,shape,color","152","1",""
"null","357827","HierDy223mj93s","sub05","05","7","feedback","test","null","","","na","","152","",""
"807","358637","HierDy223mj93s","sub05","05","7","rl","test","70","img/p_d_diag.png","4","70","pattern,shape,color","153","1",""
"null","359640","HierDy223mj93s","sub05","05","7","feedback","test","null","","","na","","153","",""
"872","360515","HierDy223mj93s","sub05","05","7","rl","test","76","img/p_d_dots.png","8","76","pattern,shape,color","154","1",""
"null","361519","HierDy223mj93s","sub05","05","7","feedback","test","null","","","na","","154","",""
"854","362375","HierDy223mj93s","sub05","05","7","rl","test","83","img/p_c_diag.png","2","83","pattern,shape,color","155","1",""
"null","363379","HierDy223mj93s","sub05","05","7","feedback","test","null","","","na","","155","",""
"1224","364605","HierDy223mj93s","sub05","05","7","rl","test","74","img/p_c_dots.png","6","74","pattern,shape,color","156","1",""
"null","365609","HierDy223mj93s","sub05","05","7","feedback","test","null","","","na","","156","",""
"1425","367036","HierDy223mj93s","sub05","05","7","rl","test","72","img/b_c_dots.png","5","72","pattern,shape,color","157","1",""
"null","368040","HierDy223mj93s","sub05","05","7","feedback","test","null","","","na","","157","",""
"1996.9999999999418","370038","HierDy223mj93s","sub05","05","7","rl","test","75","img/b_d_dots.png","7","75","pattern,shape,color","158","1",""
"null","371042","HierDy223mj93s","sub05","05","7","feedback","test","null","","","na","","158","",""
"860.0000000000582","371904","HierDy223mj93s","sub05","05","7","rl","test","68","img/b_d_diag.png","3","68","pattern,shape,color","159","1",""
"null","372908","HierDy223mj93s","sub05","05","7","feedback","test","null","","","na","","159","",""
"796","373705","HierDy223mj93s","sub05","05","7","rl","test","83","img/p_c_diag.png","2","83","pattern,shape,color","160","1",""
"null","374709","HierDy223mj93s","sub05","05","7","feedback","test","null","","","na","","160","",""
"888","375600","HierDy223mj93s","sub05","05","7","rl","test","68","img/b_d_diag.png","3","68","pattern,shape,color","161","1",""
"null","376603","HierDy223mj93s","sub05","05","7","feedback","test","null","","","na","","161","",""
"2170","378776","HierDy223mj93s","sub05","05","7","rl","test","83","img/b_c_diag.png","1","65","pattern,shape,color","162","0",""
"null","379781","HierDy223mj93s","sub05","05","7","feedback","test","null","","","na","","162","",""
"510","380292","HierDy223mj93s","sub05","05","7","rl","test","65","img/b_c_diag.png","1","65","pattern,shape,color","163","1",""
"null","381296","HierDy223mj93s","sub05","05","7","feedback","test","null","","","na","","163","",""
"810","382110","HierDy223mj93s","sub05","05","7","rl","test","72","img/b_c_dots.png","5","72","pattern,shape,color","164","1",""
"null","383114","HierDy223mj93s","sub05","05","7","feedback","test","null","","","na","","164","",""
"782","383898","HierDy223mj93s","sub05","05","7","rl","test","70","img/p_d_diag.png","4","70","pattern,shape,color","165","1",""
"null","384902","HierDy223mj93s","sub05","05","7","feedback","test","null","","","na","","165","",""
"1288","386192","HierDy223mj93s","sub05","05","7","rl","test","75","img/b_d_dots.png","7","75","pattern,shape,color","166","1",""
"null","387196","HierDy223mj93s","sub05","05","7","feedback","test","null","","","na","","166","",""
"1047.9999999999418","388246","HierDy223mj93s","sub05","05","7","rl","test","83","img/b_c_diag.png","1","65","pattern,shape,color","167","0",""
"null","389250","HierDy223mj93s","sub05","05","7","feedback","test","null","","","na","","167","",""
"1665.0000000000582","390917","HierDy223mj93s","sub05","05","7","rl","test","76","img/p_d_dots.png","8","76","pattern,shape,color","168","1",""
"null","391921","HierDy223mj93s","sub05","05","7","feedback","test","null","","","na","","168","",""
"1130","393052","HierDy223mj93s","sub05","05","7","rl","test","74","img/p_c_dots.png","6","74","pattern,shape,color","169","1",""
"null","394056","HierDy223mj93s","sub05","05","7","feedback","test","null","","","na","","169","",""
"1157","395216","HierDy223mj93s","sub05","05","7","rl","test","76","img/p_d_dots.png","8","76","pattern,shape,color","170","1",""
"null","396219","HierDy223mj93s","sub05","05","7","feedback","test","null","","","na","","170","",""
"1297","397519","HierDy223mj93s","sub05","05","7","rl","test","83","img/p_c_diag.png","2","83","pattern,shape,color","171","1",""
"null","398522","HierDy223mj93s","sub05","05","7","feedback","test","null","","","na","","171","",""
"1022.9999999999418","399547","HierDy223mj93s","sub05","05","7","rl","test","74","img/p_c_dots.png","6","74","pattern,shape,color","172","1",""
"null","400551","HierDy223mj93s","sub05","05","7","feedback","test","null","","","na","","172","",""
"665.9999999999418","401220","HierDy223mj93s","sub05","05","7","rl","test","74","img/p_c_dots.png","6","74","pattern,shape,color","173","1",""
"null","402223","HierDy223mj93s","sub05","05","7","feedback","test","null","","","na","","173","",""
"837","403062","HierDy223mj93s","sub05","05","7","rl","test","70","img/p_d_diag.png","4","70","pattern,shape,color","174","1",""
"null","404065","HierDy223mj93s","sub05","05","7","feedback","test","null","","","na","","174","",""
"1420","405488","HierDy223mj93s","sub05","05","7","rl","test","83","img/p_c_diag.png","2","83","pattern,shape,color","175","1",""
"null","406493","HierDy223mj93s","sub05","05","7","feedback","test","null","","","na","","175","",""
"688","407183","HierDy223mj93s","sub05","05","7","rl","test","68","img/b_d_diag.png","3","68","pattern,shape,color","176","1",""
"null","408187","HierDy223mj93s","sub05","05","7","feedback","test","null","","","na","","176","",""
"1615","409805","HierDy223mj93s","sub05","05","7","rl","test","75","img/b_d_dots.png","7","75","pattern,shape,color","177","1",""
"null","410808","HierDy223mj93s","sub05","05","7","feedback","test","null","","","na","","177","",""
"1658.9999999999418","412469","HierDy223mj93s","sub05","05","7","rl","test","72","img/b_c_dots.png","5","72","pattern,shape,color","178","1",""
"null","413473","HierDy223mj93s","sub05","05","7","feedback","test","null","","","na","","178","",""
"657","414133","HierDy223mj93s","sub05","05","7","rl","test","70","img/p_d_diag.png","4","70","pattern,shape,color","179","1",""
"null","415136","HierDy223mj93s","sub05","05","7","feedback","test","null","","","na","","179","",""
"2135","417273","HierDy223mj93s","sub05","05","7","rl","test","72","img/b_c_dots.png","5","72","pattern,shape,color","180","1",""
"null","418277","HierDy223mj93s","sub05","05","7","feedback","test","null","","","na","","180","",""
"2132.999999999942","420412","HierDy223mj93s","sub05","05","7","rl","test","75","img/b_d_dots.png","7","75","pattern,shape,color","181","1",""
"null","421416","HierDy223mj93s","sub05","05","7","feedback","test","null","","","na","","181","",""
"null","423919","HierDy223mj93s","sub05","05","7","rl","test","null","img/b_c_diag.png","1","65","pattern,shape,color","182","0",""
"null","424924","HierDy223mj93s","sub05","05","7","feedback","test","null","","","na","","182","",""
"769","425697","HierDy223mj93s","sub05","05","7","rl","test","68","img/b_d_diag.png","3","68","pattern,shape,color","183","1",""
"null","426700","HierDy223mj93s","sub05","05","7","feedback","test","null","","","na","","183","",""
"940.9999999999418","427643","HierDy223mj93s","sub05","05","7","rl","test","70","img/p_d_diag.png","4","70","pattern,shape,color","184","1",""
"null","428647","HierDy223mj93s","sub05","05","7","feedback","test","null","","","na","","184","",""
"1654","430303","HierDy223mj93s","sub05","05","7","rl","test","76","img/p_d_dots.png","8","76","pattern,shape,color","185","1",""
"null","431306","HierDy223mj93s","sub05","05","7","feedback","test","null","","","na","","185","",""
"1873","433181","HierDy223mj93s","sub05","05","7","rl","test","72","img/b_c_dots.png","5","72","pattern,shape,color","186","1",""
"null","434184","HierDy223mj93s","sub05","05","7","feedback","test","null","","","na","","186","",""
"1599","435785","HierDy223mj93s","sub05","05","7","rl","test","83","img/p_c_diag.png","2","83","pattern,shape,color","187","1",""
"null","436788","HierDy223mj93s","sub05","05","7","feedback","test","null","","","na","","187","",""
"1835.0000000000582","438625","HierDy223mj93s","sub05","05","7","rl","test","72","img/p_c_dots.png","6","74","pattern,shape,color","188","0",""
"null","439628","HierDy223mj93s","sub05","05","7","feedback","test","null","","","na","","188","",""
"null","442132","HierDy223mj93s","sub05","05","7","rl","test","null","img/b_d_diag.png","3","68","pattern,shape,color","189","0",""
"null","443135","HierDy223mj93s","sub05","05","7","feedback","test","null","","","na","","189","",""
"1199.9999999999418","444336","HierDy223mj93s","sub05","05","7","rl","test","65","img/b_c_diag.png","1","65","pattern,shape,color","190","1",""
"null","445339","HierDy223mj93s","sub05","05","7","feedback","test","null","","","na","","190","",""
"1335","446676","HierDy223mj93s","sub05","05","7","rl","test","75","img/b_d_dots.png","7","75","pattern,shape,color","191","1",""
"null","447679","HierDy223mj93s","sub05","05","7","feedback","test","null","","","na","","191","",""
"1657","449338","HierDy223mj93s","sub05","05","7","rl","test","76","img/p_d_dots.png","8","76","pattern,shape,color","192","1",""
"null","450341","HierDy223mj93s","sub05","05","7","feedback","test","null","","","na","","192","",""
"1154","451497","HierDy223mj93s","sub05","05","7","rl","test","76","img/p_d_dots.png","8","76","pattern,shape,color","193","1",""
"null","452500","HierDy223mj93s","sub05","05","7","feedback","test","null","","","na","","193","",""
"709","453212","HierDy223mj93s","sub05","05","7","rl","test","75","img/b_d_dots.png","7","75","pattern,shape,color","194","1",""
"null","454215","HierDy223mj93s","sub05","05","7","feedback","test","null","","","na","","194","",""
"912","455130","HierDy223mj93s","sub05","05","7","rl","test","68","img/b_d_diag.png","3","68","pattern,shape,color","195","1",""
"null","456133","HierDy223mj93s","sub05","05","7","feedback","test","null","","","na","","195","",""
"491","456627","HierDy223mj93s","sub05","05","7","rl","test","74","img/b_c_dots.png","5","72","pattern,shape,color","196","0",""
"null","457631","HierDy223mj93s","sub05","05","7","feedback","test","null","","","na","","196","",""
"721","458355","HierDy223mj93s","sub05","05","7","rl","test","70","img/p_d_diag.png","4","70","pattern,shape,color","197","1",""
"null","459358","HierDy223mj93s","sub05","05","7","feedback","test","null","","","na","","197","",""
"1610.0000000000582","460971","HierDy223mj93s","sub05","05","7","rl","test","83","img/p_c_diag.png","2","83","pattern,shape,color","198","1",""
"null","461975","HierDy223mj93s","sub05","05","7","feedback","test","null","","","na","","198","",""
"1011.0000000000582","462987","HierDy223mj93s","sub05","05","7","rl","test","65","img/b_c_diag.png","1","65","pattern,shape,color","199","1",""
"null","463991","HierDy223mj93s","sub05","05","7","feedback","test","null","","","na","","199","",""
"1454.0000000000582","465447","HierDy223mj93s","sub05","05","7","rl","test","74","img/p_c_dots.png","6","74","pattern,shape,color","200","1",""
"null","466450","HierDy223mj93s","sub05","05","7","feedback","test","null","","","na","","200","",""
"1073","467526","HierDy223mj93s","sub05","05","7","rl","test","72","img/b_c_dots.png","5","72","pattern,shape,color","201","1",""
"null","468529","HierDy223mj93s","sub05","05","7","feedback","test","null","","","na","","201","",""
"674","469205","HierDy223mj93s","sub05","05","7","rl","test","75","img/b_d_dots.png","7","75","pattern,shape,color","202","1",""
"null","470209","HierDy223mj93s","sub05","05","7","feedback","test","null","","","na","","202","",""
"1000","471211","HierDy223mj93s","sub05","05","7","rl","test","74","img/p_c_dots.png","6","74","pattern,shape,color","203","1",""
"null","472214","HierDy223mj93s","sub05","05","7","feedback","test","null","","","na","","203","",""
"1457","473673","HierDy223mj93s","sub05","05","7","rl","test","65","img/b_c_diag.png","1","65","pattern,shape,color","204","1",""
"null","474677","HierDy223mj93s","sub05","05","7","feedback","test","null","","","na","","204","",""
"977","475656","HierDy223mj93s","sub05","05","7","rl","test","83","img/p_c_diag.png","2","83","pattern,shape,color","205","1",""
"null","476659","HierDy223mj93s","sub05","05","7","feedback","test","null","","","na","","205","",""
"1191","477852","HierDy223mj93s","sub05","05","7","rl","test","76","img/p_d_dots.png","8","76","pattern,shape,color","206","1",""
"null","478856","HierDy223mj93s","sub05","05","7","feedback","test","null","","","na","","206","",""
"199","479058","HierDy223mj93s","sub05","05","7","rl","test","74","img/p_c_diag.png","2","83","pattern,shape,color","207","0",""
"null","480061","HierDy223mj93s","sub05","05","7","feedback","test","null","","","na","","207","",""
"948.0000000000582","481011","HierDy223mj93s","sub05","05","7","rl","test","70","img/p_d_diag.png","4","70","pattern,shape,color","208","1",""
"null","482015","HierDy223mj93s","sub05","05","7","feedback","test","null","","","na","","208","",""
"792","482812","HierDy223mj93s","sub05","05","7","rl","test","68","img/b_d_diag.png","3","68","pattern,shape,color","209","1",""
"null","483816","HierDy223mj93s","sub05","05","7","feedback","test","null","","","na","","209","",""
"768","484586","HierDy223mj93s","sub05","05","7","rl","test","68","img/b_d_diag.png","3","68","pattern,shape,color","210","1",""
"null","485590","HierDy223mj93s","sub05","05","7","feedback","test","null","","","na","","210","",""
"849","486441","HierDy223mj93s","sub05","05","7","rl","test","83","img/p_c_diag.png","2","83","pattern,shape,color","211","1",""
"null","487445","HierDy223mj93s","sub05","05","7","feedback","test","null","","","na","","211","",""
"1534","488981","HierDy223mj93s","sub05","05","7","rl","test","76","img/p_d_dots.png","8","76","pattern,shape,color","212","1",""
"null","489985","HierDy223mj93s","sub05","05","7","feedback","test","null","","","na","","212","",""
"899.9999999999418","490887","HierDy223mj93s","sub05","05","7","rl","test","65","img/b_c_diag.png","1","65","pattern,shape,color","213","1",""
"null","491891","HierDy223mj93s","sub05","05","7","feedback","test","null","","","na","","213","",""
"1190.9999999999418","493085","HierDy223mj93s","sub05","05","7","rl","test","75","img/b_d_dots.png","7","75","pattern,shape,color","214","1",""
"null","494088","HierDy223mj93s","sub05","05","7","feedback","test","null","","","na","","214","",""
"1930","496020","HierDy223mj93s","sub05","05","7","rl","test","72","img/b_c_dots.png","5","72","pattern,shape,color","215","1",""
"null","497023","HierDy223mj93s","sub05","05","7","feedback","test","null","","","na","","215","",""
"2300.000000000058","499326","HierDy223mj93s","sub05","05","7","rl","test","76","img/p_d_dots.png","8","76","pattern,shape,color","216","1",""
"null","500332","HierDy223mj93s","sub05","05","7","feedback","test","null","","","na","","216","",""
"687","501021","HierDy223mj93s","sub05","05","7","rl","test","70","img/p_d_diag.png","4","70","pattern,shape,color","217","1",""
"null","502025","HierDy223mj93s","sub05","05","7","feedback","test","null","","","na","","217","",""
"1168","503195","HierDy223mj93s","sub05","05","7","rl","test","74","img/p_c_dots.png","6","74","pattern,shape,color","218","1",""
"null","504199","HierDy223mj93s","sub05","05","7","feedback","test","null","","","na","","218","",""
"710.9999999999418","504913","HierDy223mj93s","sub05","05","7","rl","test","74","img/p_c_dots.png","6","74","pattern,shape,color","219","1",""
"null","505915","HierDy223mj93s","sub05","05","7","feedback","test","null","","","na","","219","",""
"771.0000000000582","506689","HierDy223mj93s","sub05","05","7","rl","test","70","img/p_d_diag.png","4","70","pattern,shape,color","220","1",""
"null","507692","HierDy223mj93s","sub05","05","7","feedback","test","null","","","na","","220","",""
"1165","508860","HierDy223mj93s","sub05","05","7","rl","test","65","img/b_c_diag.png","1","65","pattern,shape,color","221","1",""
"null","509864","HierDy223mj93s","sub05","05","7","feedback","test","null","","","na","","221","",""
"915","510781","HierDy223mj93s","sub05","05","7","rl","test","70","img/p_d_diag.png","4","70","pattern,shape,color","222","1",""
"null","511784","HierDy223mj93s","sub05","05","7","feedback","test","null","","","na","","222","",""
"1349.0000000000582","513136","HierDy223mj93s","sub05","05","7","rl","test","68","img/b_d_diag.png","3","68","pattern,shape,color","223","1",""
"null","514139","HierDy223mj93s","sub05","05","7","feedback","test","null","","","na","","223","",""
"1330.0000000000582","515472","HierDy223mj93s","sub05","05","7","rl","test","75","img/b_d_dots.png","7","75","pattern,shape,color","224","1",""
"null","516476","HierDy223mj93s","sub05","05","7","feedback","test","null","","","na","","224","",""
"1723","518201","HierDy223mj93s","sub05","05","7","rl","test","72","img/b_c_dots.png","5","72","pattern,shape,color","225","1",""
"null","519205","HierDy223mj93s","sub05","05","7","feedback","test","null","","","na","","225","",""
"1058.9999999999418","520267","HierDy223mj93s","sub05","05","7","rl","test","83","img/p_c_diag.png","2","83","pattern,shape,color","226","1",""
"null","521270","HierDy223mj93s","sub05","05","7","feedback","test","null","","","na","","226","",""
"1140.9999999999418","522416","HierDy223mj93s","sub05","05","7","rl","test","68","img/b_d_diag.png","3","68","pattern,shape,color","227","1",""
"null","523420","HierDy223mj93s","sub05","05","7","feedback","test","null","","","na","","227","",""
"2072","525495","HierDy223mj93s","sub05","05","7","rl","test","76","img/p_d_dots.png","8","76","pattern,shape,color","228","1",""
"null","526499","HierDy223mj93s","sub05","05","7","feedback","test","null","","","na","","228","",""
"869","527370","HierDy223mj93s","sub05","05","7","rl","test","75","img/b_d_dots.png","7","75","pattern,shape,color","229","1",""
"null","528374","HierDy223mj93s","sub05","05","7","feedback","test","null","","","na","","229","",""
"2407","530784","HierDy223mj93s","sub05","05","7","rl","test","74","img/p_c_dots.png","6","74","pattern,shape,color","230","1",""
"null","531787","HierDy223mj93s","sub05","05","7","feedback","test","null","","","na","","230","",""
"821","532611","HierDy223mj93s","sub05","05","7","rl","test","72","img/b_c_dots.png","5","72","pattern,shape,color","231","1",""
"null","533615","HierDy223mj93s","sub05","05","7","feedback","test","null","","","na","","231","",""
"2436","536054","HierDy223mj93s","sub05","05","7","rl","test","74","img/p_c_dots.png","6","74","pattern,shape,color","232","1",""
"null","537058","HierDy223mj93s","sub05","05","7","feedback","test","null","","","na","","232","",""
"917","537976","HierDy223mj93s","sub05","05","7","rl","test","83","img/p_c_diag.png","2","83","pattern,shape,color","233","1",""
"null","538980","HierDy223mj93s","sub05","05","7","feedback","test","null","","","na","","233","",""
"836","539818","HierDy223mj93s","sub05","05","7","rl","test","65","img/b_c_diag.png","1","65","pattern,shape,color","234","1",""
"null","540822","HierDy223mj93s","sub05","05","7","feedback","test","null","","","na","","234","",""
"644","541469","HierDy223mj93s","sub05","05","7","rl","test","65","img/b_c_diag.png","1","65","pattern,shape,color","235","1",""
"null","542472","HierDy223mj93s","sub05","05","7","feedback","test","null","","","na","","235","",""
"1319","543794","HierDy223mj93s","sub05","05","7","rl","test","76","img/p_d_dots.png","8","76","pattern,shape,color","236","1",""
"null","544800","HierDy223mj93s","sub05","05","7","feedback","test","null","","","na","","236","",""
"873.9999999998836","545677","HierDy223mj93s","sub05","05","7","rl","test","70","img/p_d_diag.png","4","70","pattern,shape,color","237","1",""
"null","546680","HierDy223mj93s","sub05","05","7","feedback","test","null","","","na","","237","",""
"1524.9999999998836","548207","HierDy223mj93s","sub05","05","7","rl","test","65","img/b_c_diag.png","1","65","pattern,shape,color","238","1",""
"null","549211","HierDy223mj93s","sub05","05","7","feedback","test","null","","","na","","238","",""
"null","551714","HierDy223mj93s","sub05","05","7","rl","test","null","img/b_d_dots.png","7","75","pattern,shape,color","239","0",""
"null","552720","HierDy223mj93s","sub05","05","7","feedback","test","null","","","na","","239","",""
"1035","553758","HierDy223mj93s","sub05","05","7","rl","test","72","img/b_c_dots.png","5","72","pattern,shape,color","240","1",""
"null","554761","HierDy223mj93s","sub05","05","7","feedback","test","null","","","na","","240","",""
"732","555496","HierDy223mj93s","sub05","05","7","rl","test","68","img/b_d_diag.png","3","68","pattern,shape,color","241","1",""
"null","556500","HierDy223mj93s","sub05","05","7","feedback","test","null","","","na","","241","",""
"975","557477","HierDy223mj93s","sub05","05","7","rl","test","76","img/p_d_dots.png","8","76","pattern,shape,color","242","1",""
"null","558480","HierDy223mj93s","sub05","05","7","feedback","test","null","","","na","","242","",""
"1722","560205","HierDy223mj93s","sub05","05","7","rl","test","68","img/b_d_diag.png","3","68","pattern,shape,color","243","1",""
"null","561209","HierDy223mj93s","sub05","05","7","feedback","test","null","","","na","","243","",""
"1399","562611","HierDy223mj93s","sub05","05","7","rl","test","75","img/b_d_dots.png","7","75","pattern,shape,color","244","1",""
"null","563614","HierDy223mj93s","sub05","05","7","feedback","test","null","","","na","","244","",""
"981","564598","HierDy223mj93s","sub05","05","7","rl","test","70","img/p_d_diag.png","4","70","pattern,shape,color","245","1",""
"null","565604","HierDy223mj93s","sub05","05","7","feedback","test","null","","","na","","245","",""
"898","566506","HierDy223mj93s","sub05","05","7","rl","test","83","img/p_c_diag.png","2","83","pattern,shape,color","246","1",""
"null","567509","HierDy223mj93s","sub05","05","7","feedback","test","null","","","na","","246","",""
"1026","568538","HierDy223mj93s","sub05","05","7","rl","test","74","img/p_c_dots.png","6","74","pattern,shape,color","247","1",""
"null","569542","HierDy223mj93s","sub05","05","7","feedback","test","null","","","na","","247","",""
"895","570440","HierDy223mj93s","sub05","05","7","rl","test","75","img/b_d_dots.png","7","75","pattern,shape,color","248","1",""
"null","571444","HierDy223mj93s","sub05","05","7","feedback","test","null","","","na","","248","",""
"9898.000000000116","581373","HierDy223mj93s","sub05","05","7","","","","","","","","","","{""Q0"":""6""}"
"5446","586826","HierDy223mj93s","sub05","05","7","","","","","","","","","","{""Q0"":""same as before""}"
"2171","588997","HierDy223mj93s","sub05","05","7","","","","","","","","","",""
