"rt","time_elapsed","subject","subID","group","day","trialType","phase","key_press","stim","stimNum","corrresp","hierarchy","trialNum","corr","responses"
"5437.300000190735","5439","HierDy7o52nsd6","sub03","03","7","","","","","","","","","",""
"","7747","HierDy7o52nsd6","sub03","03","7","fullscreen","","","","","","","","",""
"3910.699999809265","11658","HierDy7o52nsd6","sub03","03","7","","prac","","","","","","","",""
"2617.0999999046326","14278","HierDy7o52nsd6","sub03","03","7","","","32","","","","","","",""
"1710.4000000953674","15989","HierDy7o52nsd6","sub03","03","7","","prac","","","","","","","",""
"1301.9000000953674","17292","HierDy7o52nsd6","sub03","03","7","rl","test","83","img/r_c_diag.png","2","83","color,pattern,shape","1","1",""
"null","18295","HierDy7o52nsd6","sub03","03","7","feedback","test","null","","","na","","1","",""
"590.1999998092651","18886","HierDy7o52nsd6","sub03","03","7","rl","test","72","img/p_t_diag.png","5","72","color,pattern,shape","2","1",""
"null","19894","HierDy7o52nsd6","sub03","03","7","feedback","test","null","","","na","","2","",""
"719.8000001907349","20615","HierDy7o52nsd6","sub03","03","7","rl","test","68","img/r_t_dots.png","3","68","color,pattern,shape","3","1",""
"null","21625","HierDy7o52nsd6","sub03","03","7","feedback","test","null","","","na","","3","",""
"938.0999999046326","22564","HierDy7o52nsd6","sub03","03","7","rl","test","74","img/p_c_diag.png","6","74","color,pattern,shape","4","1",""
"null","23567","HierDy7o52nsd6","sub03","03","7","feedback","test","null","","","na","","4","",""
"610.1000003814697","24178","HierDy7o52nsd6","sub03","03","7","rl","test","65","img/r_t_diag.png","1","65","color,pattern,shape","5","1",""
"null","25182","HierDy7o52nsd6","sub03","03","7","feedback","test","null","","","na","","5","",""
"675.2000002861023","25858","HierDy7o52nsd6","sub03","03","7","rl","test","76","img/r_c_dots.png","4","70","color,pattern,shape","6","0",""
"null","26865","HierDy7o52nsd6","sub03","03","7","feedback","test","null","","","na","","6","",""
"727.0999999046326","27593","HierDy7o52nsd6","sub03","03","7","rl","test","76","img/p_c_dots.png","8","76","color,pattern,shape","7","1",""
"null","28603","HierDy7o52nsd6","sub03","03","7","feedback","test","null","","","na","","7","",""
"807.0999999046326","29411","HierDy7o52nsd6","sub03","03","7","rl","test","75","img/p_t_dots.png","7","75","color,pattern,shape","8","1",""
"null","30415","HierDy7o52nsd6","sub03","03","7","feedback","test","null","","","na","","8","",""
"1100.1999998092651","31516","HierDy7o52nsd6","sub03","03","7","rl","test","65","img/r_t_diag.png","1","65","color,pattern,shape","9","1",""
"null","32518","HierDy7o52nsd6","sub03","03","7","feedback","test","null","","","na","","9","",""
"1335.1999998092651","33855","HierDy7o52nsd6","sub03","03","7","rl","test","76","img/p_c_dots.png","8","76","color,pattern,shape","10","1",""
"null","34866","HierDy7o52nsd6","sub03","03","7","feedback","test","null","","","na","","10","",""
"595.7999997138977","35463","HierDy7o52nsd6","sub03","03","7","rl","test","72","img/p_t_diag.png","5","72","color,pattern,shape","11","1",""
"null","36471","HierDy7o52nsd6","sub03","03","7","feedback","test","null","","","na","","11","",""
"582.5","37055","HierDy7o52nsd6","sub03","03","7","rl","test","74","img/p_c_diag.png","6","74","color,pattern,shape","12","1",""
"null","38064","HierDy7o52nsd6","sub03","03","7","feedback","test","null","","","na","","12","",""
"1171.5999999046326","39236","HierDy7o52nsd6","sub03","03","7","rl","test","75","img/p_t_dots.png","7","75","color,pattern,shape","13","1",""
"null","40239","HierDy7o52nsd6","sub03","03","7","feedback","test","null","","","na","","13","",""
"971.8000001907349","41212","HierDy7o52nsd6","sub03","03","7","rl","test","83","img/r_c_diag.png","2","83","color,pattern,shape","14","1",""
"null","42216","HierDy7o52nsd6","sub03","03","7","feedback","test","null","","","na","","14","",""
"597","42813","HierDy7o52nsd6","sub03","03","7","rl","test","75","img/p_t_dots.png","7","75","color,pattern,shape","15","1",""
"null","43815","HierDy7o52nsd6","sub03","03","7","feedback","test","null","","","na","","15","",""
"590.5","44406","HierDy7o52nsd6","sub03","03","7","rl","test","70","img/r_c_dots.png","4","70","color,pattern,shape","16","1",""
"null","45416","HierDy7o52nsd6","sub03","03","7","feedback","test","null","","","na","","16","",""
"619.6999998092651","46036","HierDy7o52nsd6","sub03","03","7","rl","test","68","img/r_t_dots.png","3","68","color,pattern,shape","17","1",""
"null","47041","HierDy7o52nsd6","sub03","03","7","feedback","test","null","","","na","","17","",""
"878.0999999046326","47920","HierDy7o52nsd6","sub03","03","7","rl","test","70","img/r_t_dots.png","3","68","color,pattern,shape","18","0",""
"null","48931","HierDy7o52nsd6","sub03","03","7","feedback","test","null","","","na","","18","",""
"686.7999997138977","49619","HierDy7o52nsd6","sub03","03","7","rl","test","70","img/r_c_dots.png","4","70","color,pattern,shape","19","1",""
"null","50626","HierDy7o52nsd6","sub03","03","7","feedback","test","null","","","na","","19","",""
"583.7000002861023","51211","HierDy7o52nsd6","sub03","03","7","rl","test","65","img/r_t_diag.png","1","65","color,pattern,shape","20","1",""
"null","52219","HierDy7o52nsd6","sub03","03","7","feedback","test","null","","","na","","20","",""
"790.8999996185303","53011","HierDy7o52nsd6","sub03","03","7","rl","test","76","img/p_c_dots.png","8","76","color,pattern,shape","21","1",""
"null","54020","HierDy7o52nsd6","sub03","03","7","feedback","test","null","","","na","","21","",""
"846.6000003814697","54867","HierDy7o52nsd6","sub03","03","7","rl","test","65","img/r_t_diag.png","1","65","color,pattern,shape","22","1",""
"null","55873","HierDy7o52nsd6","sub03","03","7","feedback","test","null","","","na","","22","",""
"781.0999999046326","56655","HierDy7o52nsd6","sub03","03","7","rl","test","72","img/p_t_diag.png","5","72","color,pattern,shape","23","1",""
"null","57663","HierDy7o52nsd6","sub03","03","7","feedback","test","null","","","na","","23","",""
"499.30000019073486","58163","HierDy7o52nsd6","sub03","03","7","rl","test","72","img/p_t_diag.png","5","72","color,pattern,shape","24","1",""
"null","59168","HierDy7o52nsd6","sub03","03","7","feedback","test","null","","","na","","24","",""
"462.09999990463257","59631","HierDy7o52nsd6","sub03","03","7","rl","test","74","img/p_c_diag.png","6","74","color,pattern,shape","25","1",""
"null","60644","HierDy7o52nsd6","sub03","03","7","feedback","test","null","","","na","","25","",""
"691.2000002861023","61336","HierDy7o52nsd6","sub03","03","7","rl","test","83","img/r_c_diag.png","2","83","color,pattern,shape","26","1",""
"null","62344","HierDy7o52nsd6","sub03","03","7","feedback","test","null","","","na","","26","",""
"1018.2000002861023","63363","HierDy7o52nsd6","sub03","03","7","rl","test","76","img/p_c_dots.png","8","76","color,pattern,shape","27","1",""
"null","64369","HierDy7o52nsd6","sub03","03","7","feedback","test","null","","","na","","27","",""
"902.1000003814697","65272","HierDy7o52nsd6","sub03","03","7","rl","test","68","img/r_t_dots.png","3","68","color,pattern,shape","28","1",""
"null","66280","HierDy7o52nsd6","sub03","03","7","feedback","test","null","","","na","","28","",""
"841.0999999046326","67122","HierDy7o52nsd6","sub03","03","7","rl","test","74","img/p_c_diag.png","6","74","color,pattern,shape","29","1",""
"null","68128","HierDy7o52nsd6","sub03","03","7","feedback","test","null","","","na","","29","",""
"824.9000000953674","68954","HierDy7o52nsd6","sub03","03","7","rl","test","75","img/p_t_dots.png","7","75","color,pattern,shape","30","1",""
"null","69960","HierDy7o52nsd6","sub03","03","7","feedback","test","null","","","na","","30","",""
"706","70667","HierDy7o52nsd6","sub03","03","7","rl","test","83","img/r_c_diag.png","2","83","color,pattern,shape","31","1",""
"null","71669","HierDy7o52nsd6","sub03","03","7","feedback","test","null","","","na","","31","",""
"711.2000002861023","72381","HierDy7o52nsd6","sub03","03","7","rl","test","70","img/r_c_dots.png","4","70","color,pattern,shape","32","1",""
"null","73386","HierDy7o52nsd6","sub03","03","7","feedback","test","null","","","na","","32","",""
"558.2000002861023","73945","HierDy7o52nsd6","sub03","03","7","rl","test","70","img/r_c_dots.png","4","70","color,pattern,shape","33","1",""
"null","74956","HierDy7o52nsd6","sub03","03","7","feedback","test","null","","","na","","33","",""
"1175.3000001907349","76132","HierDy7o52nsd6","sub03","03","7","rl","test","68","img/r_t_dots.png","3","68","color,pattern,shape","34","1",""
"null","77136","HierDy7o52nsd6","sub03","03","7","feedback","test","null","","","na","","34","",""
"639","77775","HierDy7o52nsd6","sub03","03","7","rl","test","72","img/p_t_diag.png","5","72","color,pattern,shape","35","1",""
"null","78784","HierDy7o52nsd6","sub03","03","7","feedback","test","null","","","na","","35","",""
"632.7000002861023","79418","HierDy7o52nsd6","sub03","03","7","rl","test","65","img/r_t_diag.png","1","65","color,pattern,shape","36","1",""
"null","80424","HierDy7o52nsd6","sub03","03","7","feedback","test","null","","","na","","36","",""
"708.7000002861023","81133","HierDy7o52nsd6","sub03","03","7","rl","test","83","img/p_c_diag.png","6","74","color,pattern,shape","37","0",""
"null","82137","HierDy7o52nsd6","sub03","03","7","feedback","test","null","","","na","","37","",""
"448.7999997138977","82586","HierDy7o52nsd6","sub03","03","7","rl","test","74","img/r_c_diag.png","2","83","color,pattern,shape","38","0",""
"null","83593","HierDy7o52nsd6","sub03","03","7","feedback","test","null","","","na","","38","",""
"830.9000000953674","84425","HierDy7o52nsd6","sub03","03","7","rl","test","75","img/p_t_dots.png","7","75","color,pattern,shape","39","1",""
"null","85434","HierDy7o52nsd6","sub03","03","7","feedback","test","null","","","na","","39","",""
"734.2999997138977","86169","HierDy7o52nsd6","sub03","03","7","rl","test","74","img/p_c_diag.png","6","74","color,pattern,shape","40","1",""
"null","87171","HierDy7o52nsd6","sub03","03","7","feedback","test","null","","","na","","40","",""
"678.2999997138977","87850","HierDy7o52nsd6","sub03","03","7","rl","test","76","img/p_c_dots.png","8","76","color,pattern,shape","41","1",""
"null","88858","HierDy7o52nsd6","sub03","03","7","feedback","test","null","","","na","","41","",""
"706.9000000953674","89566","HierDy7o52nsd6","sub03","03","7","rl","test","83","img/r_c_diag.png","2","83","color,pattern,shape","42","1",""
"null","90572","HierDy7o52nsd6","sub03","03","7","feedback","test","null","","","na","","42","",""
"687.5","91260","HierDy7o52nsd6","sub03","03","7","rl","test","76","img/p_c_dots.png","8","76","color,pattern,shape","43","1",""
"null","92274","HierDy7o52nsd6","sub03","03","7","feedback","test","null","","","na","","43","",""
"940.0999999046326","93215","HierDy7o52nsd6","sub03","03","7","rl","test","70","img/r_c_dots.png","4","70","color,pattern,shape","44","1",""
"null","94225","HierDy7o52nsd6","sub03","03","7","feedback","test","null","","","na","","44","",""
"781.2000002861023","95007","HierDy7o52nsd6","sub03","03","7","rl","test","75","img/p_t_dots.png","7","75","color,pattern,shape","45","1",""
"null","96009","HierDy7o52nsd6","sub03","03","7","feedback","test","null","","","na","","45","",""
"569.7999997138977","96579","HierDy7o52nsd6","sub03","03","7","rl","test","65","img/r_t_diag.png","1","65","color,pattern,shape","46","1",""
"null","97586","HierDy7o52nsd6","sub03","03","7","feedback","test","null","","","na","","46","",""
"665.2999997138977","98252","HierDy7o52nsd6","sub03","03","7","rl","test","72","img/p_t_diag.png","5","72","color,pattern,shape","47","1",""
"null","99257","HierDy7o52nsd6","sub03","03","7","feedback","test","null","","","na","","47","",""
"932.8999996185303","100191","HierDy7o52nsd6","sub03","03","7","rl","test","68","img/r_t_dots.png","3","68","color,pattern,shape","48","1",""
"null","101196","HierDy7o52nsd6","sub03","03","7","feedback","test","null","","","na","","48","",""
"650.0999999046326","101847","HierDy7o52nsd6","sub03","03","7","rl","test","72","img/p_t_diag.png","5","72","color,pattern,shape","49","1",""
"null","102852","HierDy7o52nsd6","sub03","03","7","feedback","test","null","","","na","","49","",""
"831.2000002861023","103684","HierDy7o52nsd6","sub03","03","7","rl","test","65","img/r_t_diag.png","1","65","color,pattern,shape","50","1",""
"null","104689","HierDy7o52nsd6","sub03","03","7","feedback","test","null","","","na","","50","",""
"522","105212","HierDy7o52nsd6","sub03","03","7","rl","test","83","img/r_c_diag.png","2","83","color,pattern,shape","51","1",""
"null","106217","HierDy7o52nsd6","sub03","03","7","feedback","test","null","","","na","","51","",""
"661.4000000953674","106879","HierDy7o52nsd6","sub03","03","7","rl","test","70","img/r_c_dots.png","4","70","color,pattern,shape","52","1",""
"null","107890","HierDy7o52nsd6","sub03","03","7","feedback","test","null","","","na","","52","",""
"793.3000001907349","108684","HierDy7o52nsd6","sub03","03","7","rl","test","68","img/r_t_dots.png","3","68","color,pattern,shape","53","1",""
"null","109689","HierDy7o52nsd6","sub03","03","7","feedback","test","null","","","na","","53","",""
"522.3000001907349","110212","HierDy7o52nsd6","sub03","03","7","rl","test","68","img/r_t_dots.png","3","68","color,pattern,shape","54","1",""
"null","111219","HierDy7o52nsd6","sub03","03","7","feedback","test","null","","","na","","54","",""
"593.7999997138977","111813","HierDy7o52nsd6","sub03","03","7","rl","test","74","img/p_c_diag.png","6","74","color,pattern,shape","55","1",""
"null","112820","HierDy7o52nsd6","sub03","03","7","feedback","test","null","","","na","","55","",""
"653.2000002861023","113474","HierDy7o52nsd6","sub03","03","7","rl","test","75","img/p_c_dots.png","8","76","color,pattern,shape","56","0",""
"null","114486","HierDy7o52nsd6","sub03","03","7","feedback","test","null","","","na","","56","",""
"1100.4000000953674","115587","HierDy7o52nsd6","sub03","03","7","rl","test","65","img/r_t_diag.png","1","65","color,pattern,shape","57","1",""
"null","116598","HierDy7o52nsd6","sub03","03","7","feedback","test","null","","","na","","57","",""
"606.6999998092651","117205","HierDy7o52nsd6","sub03","03","7","rl","test","75","img/p_t_dots.png","7","75","color,pattern,shape","58","1",""
"null","118210","HierDy7o52nsd6","sub03","03","7","feedback","test","null","","","na","","58","",""
"835.7000002861023","119046","HierDy7o52nsd6","sub03","03","7","rl","test","76","img/p_c_dots.png","8","76","color,pattern,shape","59","1",""
"null","120050","HierDy7o52nsd6","sub03","03","7","feedback","test","null","","","na","","59","",""
"683.4000000953674","120734","HierDy7o52nsd6","sub03","03","7","rl","test","83","img/r_c_diag.png","2","83","color,pattern,shape","60","1",""
"null","121740","HierDy7o52nsd6","sub03","03","7","feedback","test","null","","","na","","60","",""
"1174.4000000953674","122915","HierDy7o52nsd6","sub03","03","7","rl","test","75","img/p_t_dots.png","7","75","color,pattern,shape","61","1",""
"null","123925","HierDy7o52nsd6","sub03","03","7","feedback","test","null","","","na","","61","",""
"803.8000001907349","124729","HierDy7o52nsd6","sub03","03","7","rl","test","70","img/r_c_dots.png","4","70","color,pattern,shape","62","1",""
"null","125738","HierDy7o52nsd6","sub03","03","7","feedback","test","null","","","na","","62","",""
"787.3000001907349","126526","HierDy7o52nsd6","sub03","03","7","rl","test","74","img/p_c_diag.png","6","74","color,pattern,shape","63","1",""
"null","127529","HierDy7o52nsd6","sub03","03","7","feedback","test","null","","","na","","63","",""
"721","128251","HierDy7o52nsd6","sub03","03","7","rl","test","72","img/p_t_diag.png","5","72","color,pattern,shape","64","1",""
"null","129257","HierDy7o52nsd6","sub03","03","7","feedback","test","null","","","na","","64","",""
"625.0999999046326","129883","HierDy7o52nsd6","sub03","03","7","rl","test","75","img/p_t_dots.png","7","75","color,pattern,shape","65","1",""
"null","130891","HierDy7o52nsd6","sub03","03","7","feedback","test","null","","","na","","65","",""
"1074.6000003814697","131967","HierDy7o52nsd6","sub03","03","7","rl","test","68","img/r_t_dots.png","3","68","color,pattern,shape","66","1",""
"null","132969","HierDy7o52nsd6","sub03","03","7","feedback","test","null","","","na","","66","",""
"1027.8000001907349","133997","HierDy7o52nsd6","sub03","03","7","rl","test","70","img/r_c_dots.png","4","70","color,pattern,shape","67","1",""
"null","135005","HierDy7o52nsd6","sub03","03","7","feedback","test","null","","","na","","67","",""
"853.7000002861023","135860","HierDy7o52nsd6","sub03","03","7","rl","test","65","img/r_t_diag.png","1","65","color,pattern,shape","68","1",""
"null","136866","HierDy7o52nsd6","sub03","03","7","feedback","test","null","","","na","","68","",""
"860.7999997138977","137728","HierDy7o52nsd6","sub03","03","7","rl","test","74","img/p_c_diag.png","6","74","color,pattern,shape","69","1",""
"null","138730","HierDy7o52nsd6","sub03","03","7","feedback","test","null","","","na","","69","",""
"517.5","139249","HierDy7o52nsd6","sub03","03","7","rl","test","72","img/p_t_diag.png","5","72","color,pattern,shape","70","1",""
"null","140257","HierDy7o52nsd6","sub03","03","7","feedback","test","null","","","na","","70","",""
"518.7999997138977","140777","HierDy7o52nsd6","sub03","03","7","rl","test","74","img/p_c_diag.png","6","74","color,pattern,shape","71","1",""
"null","141785","HierDy7o52nsd6","sub03","03","7","feedback","test","null","","","na","","71","",""
"578","142364","HierDy7o52nsd6","sub03","03","7","rl","test","76","img/p_c_dots.png","8","76","color,pattern,shape","72","1",""
"null","143370","HierDy7o52nsd6","sub03","03","7","feedback","test","null","","","na","","72","",""
"542.8999996185303","143913","HierDy7o52nsd6","sub03","03","7","rl","test","76","img/p_c_dots.png","8","76","color,pattern,shape","73","1",""
"null","144922","HierDy7o52nsd6","sub03","03","7","feedback","test","null","","","na","","73","",""
"686.9000000953674","145610","HierDy7o52nsd6","sub03","03","7","rl","test","83","img/r_c_diag.png","2","83","color,pattern,shape","74","1",""
"null","146617","HierDy7o52nsd6","sub03","03","7","feedback","test","null","","","na","","74","",""
"575.6000003814697","147193","HierDy7o52nsd6","sub03","03","7","rl","test","65","img/r_t_diag.png","1","65","color,pattern,shape","75","1",""
"null","148202","HierDy7o52nsd6","sub03","03","7","feedback","test","null","","","na","","75","",""
"686.9000000953674","148889","HierDy7o52nsd6","sub03","03","7","rl","test","83","img/r_c_diag.png","2","83","color,pattern,shape","76","1",""
"null","149899","HierDy7o52nsd6","sub03","03","7","feedback","test","null","","","na","","76","",""
"716.6999998092651","150616","HierDy7o52nsd6","sub03","03","7","rl","test","72","img/p_t_diag.png","5","72","color,pattern,shape","77","1",""
"null","151618","HierDy7o52nsd6","sub03","03","7","feedback","test","null","","","na","","77","",""
"1363.2000002861023","152982","HierDy7o52nsd6","sub03","03","7","rl","test","68","img/r_t_dots.png","3","68","color,pattern,shape","78","1",""
"null","153987","HierDy7o52nsd6","sub03","03","7","feedback","test","null","","","na","","78","",""
"820.7999997138977","154808","HierDy7o52nsd6","sub03","03","7","rl","test","75","img/p_t_dots.png","7","75","color,pattern,shape","79","1",""
"null","155814","HierDy7o52nsd6","sub03","03","7","feedback","test","null","","","na","","79","",""
"1330.5","157145","HierDy7o52nsd6","sub03","03","7","rl","test","65","img/r_t_diag.png","1","65","color,pattern,shape","80","1",""
"null","158156","HierDy7o52nsd6","sub03","03","7","feedback","test","null","","","na","","80","",""
"850","159007","HierDy7o52nsd6","sub03","03","7","rl","test","68","img/r_t_dots.png","3","68","color,pattern,shape","81","1",""
"null","160011","HierDy7o52nsd6","sub03","03","7","feedback","test","null","","","na","","81","",""
"743.5","160755","HierDy7o52nsd6","sub03","03","7","rl","test","70","img/r_c_dots.png","4","70","color,pattern,shape","82","1",""
"null","161763","HierDy7o52nsd6","sub03","03","7","feedback","test","null","","","na","","82","",""
"921.9000000953674","162685","HierDy7o52nsd6","sub03","03","7","rl","test","76","img/p_c_dots.png","8","76","color,pattern,shape","83","1",""
"null","163690","HierDy7o52nsd6","sub03","03","7","feedback","test","null","","","na","","83","",""
"578.1000003814697","164269","HierDy7o52nsd6","sub03","03","7","rl","test","83","img/r_c_diag.png","2","83","color,pattern,shape","84","1",""
"null","165279","HierDy7o52nsd6","sub03","03","7","feedback","test","null","","","na","","84","",""
"636.1999998092651","165916","HierDy7o52nsd6","sub03","03","7","rl","test","70","img/r_c_dots.png","4","70","color,pattern,shape","85","1",""
"null","166922","HierDy7o52nsd6","sub03","03","7","feedback","test","null","","","na","","85","",""
"730.0999999046326","167654","HierDy7o52nsd6","sub03","03","7","rl","test","74","img/p_c_diag.png","6","74","color,pattern,shape","86","1",""
"null","168658","HierDy7o52nsd6","sub03","03","7","feedback","test","null","","","na","","86","",""
"589.8000001907349","169249","HierDy7o52nsd6","sub03","03","7","rl","test","72","img/p_t_diag.png","5","72","color,pattern,shape","87","1",""
"null","170250","HierDy7o52nsd6","sub03","03","7","feedback","test","null","","","na","","87","",""
"622.5","170873","HierDy7o52nsd6","sub03","03","7","rl","test","75","img/p_t_dots.png","7","75","color,pattern,shape","88","1",""
"null","171882","HierDy7o52nsd6","sub03","03","7","feedback","test","null","","","na","","88","",""
"826.8999996185303","172710","HierDy7o52nsd6","sub03","03","7","rl","test","75","img/p_t_dots.png","7","75","color,pattern,shape","89","1",""
"null","173715","HierDy7o52nsd6","sub03","03","7","feedback","test","null","","","na","","89","",""
"623.6000003814697","174339","HierDy7o52nsd6","sub03","03","7","rl","test","74","img/p_c_diag.png","6","74","color,pattern,shape","90","1",""
"null","175348","HierDy7o52nsd6","sub03","03","7","feedback","test","null","","","na","","90","",""
"1371.5999999046326","176720","HierDy7o52nsd6","sub03","03","7","rl","test","65","img/r_t_diag.png","1","65","color,pattern,shape","91","1",""
"null","177723","HierDy7o52nsd6","sub03","03","7","feedback","test","null","","","na","","91","",""
"1168.7999997138977","178893","HierDy7o52nsd6","sub03","03","7","rl","test","68","img/r_t_dots.png","3","68","color,pattern,shape","92","1",""
"null","179903","HierDy7o52nsd6","sub03","03","7","feedback","test","null","","","na","","92","",""
"606","180510","HierDy7o52nsd6","sub03","03","7","rl","test","72","img/p_t_diag.png","5","72","color,pattern,shape","93","1",""
"null","181515","HierDy7o52nsd6","sub03","03","7","feedback","test","null","","","na","","93","",""
"973.0999999046326","182489","HierDy7o52nsd6","sub03","03","7","rl","test","70","img/r_c_dots.png","4","70","color,pattern,shape","94","1",""
"null","183495","HierDy7o52nsd6","sub03","03","7","feedback","test","null","","","na","","94","",""
"553.9000000953674","184050","HierDy7o52nsd6","sub03","03","7","rl","test","76","img/p_c_dots.png","8","76","color,pattern,shape","95","1",""
"null","185059","HierDy7o52nsd6","sub03","03","7","feedback","test","null","","","na","","95","",""
"634.0999999046326","185694","HierDy7o52nsd6","sub03","03","7","rl","test","75","img/r_t_dots.png","3","68","color,pattern,shape","96","0",""
"null","186700","HierDy7o52nsd6","sub03","03","7","feedback","test","null","","","na","","96","",""
"645.6999998092651","187346","HierDy7o52nsd6","sub03","03","7","rl","test","68","img/r_c_diag.png","2","83","color,pattern,shape","97","0",""
"null","188354","HierDy7o52nsd6","sub03","03","7","feedback","test","null","","","na","","97","",""
"680.0999999046326","189035","HierDy7o52nsd6","sub03","03","7","rl","test","74","img/p_c_diag.png","6","74","color,pattern,shape","98","1",""
"null","190046","HierDy7o52nsd6","sub03","03","7","feedback","test","null","","","na","","98","",""
"662.6000003814697","190709","HierDy7o52nsd6","sub03","03","7","rl","test","70","img/r_c_dots.png","4","70","color,pattern,shape","99","1",""
"null","191716","HierDy7o52nsd6","sub03","03","7","feedback","test","null","","","na","","99","",""
"607.2999997138977","192324","HierDy7o52nsd6","sub03","03","7","rl","test","72","img/p_t_diag.png","5","72","color,pattern,shape","100","1",""
"null","193332","HierDy7o52nsd6","sub03","03","7","feedback","test","null","","","na","","100","",""
"682.4000000953674","194015","HierDy7o52nsd6","sub03","03","7","rl","test","75","img/p_t_dots.png","7","75","color,pattern,shape","101","1",""
"null","195019","HierDy7o52nsd6","sub03","03","7","feedback","test","null","","","na","","101","",""
"654.7000002861023","195675","HierDy7o52nsd6","sub03","03","7","rl","test","83","img/r_c_diag.png","2","83","color,pattern,shape","102","1",""
"null","196685","HierDy7o52nsd6","sub03","03","7","feedback","test","null","","","na","","102","",""
"757.0999999046326","197443","HierDy7o52nsd6","sub03","03","7","rl","test","75","img/p_t_dots.png","7","75","color,pattern,shape","103","1",""
"null","198452","HierDy7o52nsd6","sub03","03","7","feedback","test","null","","","na","","103","",""
"748.2999997138977","199201","HierDy7o52nsd6","sub03","03","7","rl","test","65","img/r_t_diag.png","1","65","color,pattern,shape","104","1",""
"null","200206","HierDy7o52nsd6","sub03","03","7","feedback","test","null","","","na","","104","",""
"1049.4000000953674","201256","HierDy7o52nsd6","sub03","03","7","rl","test","65","img/r_t_diag.png","1","65","color,pattern,shape","105","1",""
"null","202260","HierDy7o52nsd6","sub03","03","7","feedback","test","null","","","na","","105","",""
"1526","203787","HierDy7o52nsd6","sub03","03","7","rl","test","76","img/p_c_dots.png","8","76","color,pattern,shape","106","1",""
"null","204797","HierDy7o52nsd6","sub03","03","7","feedback","test","null","","","na","","106","",""
"723.1999998092651","205522","HierDy7o52nsd6","sub03","03","7","rl","test","74","img/p_c_diag.png","6","74","color,pattern,shape","107","1",""
"null","206526","HierDy7o52nsd6","sub03","03","7","feedback","test","null","","","na","","107","",""
"943.5999999046326","207470","HierDy7o52nsd6","sub03","03","7","rl","test","76","img/p_c_dots.png","8","76","color,pattern,shape","108","1",""
"null","208477","HierDy7o52nsd6","sub03","03","7","feedback","test","null","","","na","","108","",""
"593.0999999046326","209071","HierDy7o52nsd6","sub03","03","7","rl","test","70","img/r_c_dots.png","4","70","color,pattern,shape","109","1",""
"null","210075","HierDy7o52nsd6","sub03","03","7","feedback","test","null","","","na","","109","",""
"769.2000002861023","210846","HierDy7o52nsd6","sub03","03","7","rl","test","68","img/r_t_dots.png","3","68","color,pattern,shape","110","1",""
"null","211852","HierDy7o52nsd6","sub03","03","7","feedback","test","null","","","na","","110","",""
"772","212625","HierDy7o52nsd6","sub03","03","7","rl","test","75","img/p_t_dots.png","7","75","color,pattern,shape","111","1",""
"null","213628","HierDy7o52nsd6","sub03","03","7","feedback","test","null","","","na","","111","",""
"983.0999999046326","214612","HierDy7o52nsd6","sub03","03","7","rl","test","72","img/r_c_dots.png","4","70","color,pattern,shape","112","0",""
"null","215622","HierDy7o52nsd6","sub03","03","7","feedback","test","null","","","na","","112","",""
"966.5","216589","HierDy7o52nsd6","sub03","03","7","rl","test","74","img/p_c_diag.png","6","74","color,pattern,shape","113","1",""
"null","217597","HierDy7o52nsd6","sub03","03","7","feedback","test","null","","","na","","113","",""
"653.1999998092651","218251","HierDy7o52nsd6","sub03","03","7","rl","test","72","img/p_t_diag.png","5","72","color,pattern,shape","114","1",""
"null","219261","HierDy7o52nsd6","sub03","03","7","feedback","test","null","","","na","","114","",""
"826.6999998092651","220088","HierDy7o52nsd6","sub03","03","7","rl","test","76","img/p_c_dots.png","8","76","color,pattern,shape","115","1",""
"null","221093","HierDy7o52nsd6","sub03","03","7","feedback","test","null","","","na","","115","",""
"743.5","221837","HierDy7o52nsd6","sub03","03","7","rl","test","83","img/r_c_diag.png","2","83","color,pattern,shape","116","1",""
"null","222844","HierDy7o52nsd6","sub03","03","7","feedback","test","null","","","na","","116","",""
"887.8000001907349","223733","HierDy7o52nsd6","sub03","03","7","rl","test","83","img/r_c_diag.png","2","83","color,pattern,shape","117","1",""
"null","224741","HierDy7o52nsd6","sub03","03","7","feedback","test","null","","","na","","117","",""
"993.4000000953674","225735","HierDy7o52nsd6","sub03","03","7","rl","test","72","img/p_t_diag.png","5","72","color,pattern,shape","118","1",""
"null","226743","HierDy7o52nsd6","sub03","03","7","feedback","test","null","","","na","","118","",""
"1388.6000003814697","228132","HierDy7o52nsd6","sub03","03","7","rl","test","68","img/r_t_dots.png","3","68","color,pattern,shape","119","1",""
"null","229140","HierDy7o52nsd6","sub03","03","7","feedback","test","null","","","na","","119","",""
"863.3000001907349","230004","HierDy7o52nsd6","sub03","03","7","rl","test","65","img/r_t_diag.png","1","65","color,pattern,shape","120","1",""
"null","231013","HierDy7o52nsd6","sub03","03","7","feedback","test","null","","","na","","120","",""
"698.4000000953674","231712","HierDy7o52nsd6","sub03","03","7","rl","test","75","img/p_t_dots.png","7","75","color,pattern,shape","121","1",""
"null","232717","HierDy7o52nsd6","sub03","03","7","feedback","test","null","","","na","","121","",""
"732.5999999046326","233450","HierDy7o52nsd6","sub03","03","7","rl","test","65","img/r_t_diag.png","1","65","color,pattern,shape","122","1",""
"null","234455","HierDy7o52nsd6","sub03","03","7","feedback","test","null","","","na","","122","",""
"813.1999998092651","235269","HierDy7o52nsd6","sub03","03","7","rl","test","72","img/p_t_diag.png","5","72","color,pattern,shape","123","1",""
"null","236278","HierDy7o52nsd6","sub03","03","7","feedback","test","null","","","na","","123","",""
"744.5999999046326","237023","HierDy7o52nsd6","sub03","03","7","rl","test","70","img/r_c_dots.png","4","70","color,pattern,shape","124","1",""
"null","238025","HierDy7o52nsd6","sub03","03","7","feedback","test","null","","","na","","124","",""
"759.0999999046326","238785","HierDy7o52nsd6","sub03","03","7","rl","test","68","img/r_t_dots.png","3","68","color,pattern,shape","125","1",""
"null","239789","HierDy7o52nsd6","sub03","03","7","feedback","test","null","","","na","","125","",""
"790.2000002861023","240580","HierDy7o52nsd6","sub03","03","7","rl","test","76","img/p_c_dots.png","8","76","color,pattern,shape","126","1",""
"null","241590","HierDy7o52nsd6","sub03","03","7","feedback","test","null","","","na","","126","",""
"1161.9000000953674","242753","HierDy7o52nsd6","sub03","03","7","rl","test","83","img/r_c_diag.png","2","83","color,pattern,shape","127","1",""
"null","243757","HierDy7o52nsd6","sub03","03","7","feedback","test","null","","","na","","127","",""
"585.3000001907349","244343","HierDy7o52nsd6","sub03","03","7","rl","test","74","img/p_c_diag.png","6","74","color,pattern,shape","128","1",""
"null","245349","HierDy7o52nsd6","sub03","03","7","feedback","test","null","","","na","","128","",""
"621.5","245971","HierDy7o52nsd6","sub03","03","7","rl","test","75","img/p_t_dots.png","7","75","color,pattern,shape","129","1",""
"null","246985","HierDy7o52nsd6","sub03","03","7","feedback","test","null","","","na","","129","",""
"610.6999998092651","247597","HierDy7o52nsd6","sub03","03","7","rl","test","72","img/p_t_diag.png","5","72","color,pattern,shape","130","1",""
"null","248607","HierDy7o52nsd6","sub03","03","7","feedback","test","null","","","na","","130","",""
"624","249231","HierDy7o52nsd6","sub03","03","7","rl","test","83","img/r_c_diag.png","2","83","color,pattern,shape","131","1",""
"null","250237","HierDy7o52nsd6","sub03","03","7","feedback","test","null","","","na","","131","",""
"676.8999996185303","250915","HierDy7o52nsd6","sub03","03","7","rl","test","75","img/p_t_dots.png","7","75","color,pattern,shape","132","1",""
"null","251918","HierDy7o52nsd6","sub03","03","7","feedback","test","null","","","na","","132","",""
"846.5999999046326","252765","HierDy7o52nsd6","sub03","03","7","rl","test","65","img/r_t_diag.png","1","65","color,pattern,shape","133","1",""
"null","253774","HierDy7o52nsd6","sub03","03","7","feedback","test","null","","","na","","133","",""
"770.5","254546","HierDy7o52nsd6","sub03","03","7","rl","test","68","img/r_t_dots.png","3","68","color,pattern,shape","134","1",""
"null","255550","HierDy7o52nsd6","sub03","03","7","feedback","test","null","","","na","","134","",""
"618.4000000953674","256169","HierDy7o52nsd6","sub03","03","7","rl","test","68","img/r_t_dots.png","3","68","color,pattern,shape","135","1",""
"null","257173","HierDy7o52nsd6","sub03","03","7","feedback","test","null","","","na","","135","",""
"638.2000002861023","257812","HierDy7o52nsd6","sub03","03","7","rl","test","70","img/r_c_dots.png","4","70","color,pattern,shape","136","1",""
"null","258820","HierDy7o52nsd6","sub03","03","7","feedback","test","null","","","na","","136","",""
"925.9000000953674","259747","HierDy7o52nsd6","sub03","03","7","rl","test","74","img/p_c_diag.png","6","74","color,pattern,shape","137","1",""
"null","260752","HierDy7o52nsd6","sub03","03","7","feedback","test","null","","","na","","137","",""
"1029","261782","HierDy7o52nsd6","sub03","03","7","rl","test","83","img/r_c_diag.png","2","83","color,pattern,shape","138","1",""
"null","262789","HierDy7o52nsd6","sub03","03","7","feedback","test","null","","","na","","138","",""
"1137.2000002861023","263927","HierDy7o52nsd6","sub03","03","7","rl","test","76","img/p_c_dots.png","8","76","color,pattern,shape","139","1",""
"null","264934","HierDy7o52nsd6","sub03","03","7","feedback","test","null","","","na","","139","",""
"613","265548","HierDy7o52nsd6","sub03","03","7","rl","test","74","img/p_c_diag.png","6","74","color,pattern,shape","140","1",""
"null","266557","HierDy7o52nsd6","sub03","03","7","feedback","test","null","","","na","","140","",""
"534.1999998092651","267092","HierDy7o52nsd6","sub03","03","7","rl","test","72","img/p_t_diag.png","5","72","color,pattern,shape","141","1",""
"null","268096","HierDy7o52nsd6","sub03","03","7","feedback","test","null","","","na","","141","",""
"742.5","268839","HierDy7o52nsd6","sub03","03","7","rl","test","70","img/r_c_dots.png","4","70","color,pattern,shape","142","1",""
"null","269847","HierDy7o52nsd6","sub03","03","7","feedback","test","null","","","na","","142","",""
"1270.8999996185303","271119","HierDy7o52nsd6","sub03","03","7","rl","test","76","img/p_c_dots.png","8","76","color,pattern,shape","143","1",""
"null","272126","HierDy7o52nsd6","sub03","03","7","feedback","test","null","","","na","","143","",""
"1791.7000002861023","273918","HierDy7o52nsd6","sub03","03","7","rl","test","70","img/r_c_dots.png","4","70","color,pattern,shape","144","1",""
"null","274930","HierDy7o52nsd6","sub03","03","7","feedback","test","null","","","na","","144","",""
"551.5999999046326","275483","HierDy7o52nsd6","sub03","03","7","rl","test","65","img/r_t_diag.png","1","65","color,pattern,shape","145","1",""
"null","276485","HierDy7o52nsd6","sub03","03","7","feedback","test","null","","","na","","145","",""
"585.1000003814697","277071","HierDy7o52nsd6","sub03","03","7","rl","test","75","img/p_t_dots.png","7","75","color,pattern,shape","146","1",""
"null","278078","HierDy7o52nsd6","sub03","03","7","feedback","test","null","","","na","","146","",""
"933.4000000953674","279012","HierDy7o52nsd6","sub03","03","7","rl","test","65","img/r_t_diag.png","1","65","color,pattern,shape","147","1",""
"null","280021","HierDy7o52nsd6","sub03","03","7","feedback","test","null","","","na","","147","",""
"832.8000001907349","280855","HierDy7o52nsd6","sub03","03","7","rl","test","68","img/r_t_dots.png","3","68","color,pattern,shape","148","1",""
"null","281865","HierDy7o52nsd6","sub03","03","7","feedback","test","null","","","na","","148","",""
"900","282766","HierDy7o52nsd6","sub03","03","7","rl","test","72","img/p_t_diag.png","5","72","color,pattern,shape","149","1",""
"null","283774","HierDy7o52nsd6","sub03","03","7","feedback","test","null","","","na","","149","",""
"799.3000001907349","284574","HierDy7o52nsd6","sub03","03","7","rl","test","70","img/r_c_dots.png","4","70","color,pattern,shape","150","1",""
"null","285582","HierDy7o52nsd6","sub03","03","7","feedback","test","null","","","na","","150","",""
"646","286229","HierDy7o52nsd6","sub03","03","7","rl","test","83","img/r_c_diag.png","2","83","color,pattern,shape","151","1",""
"null","287238","HierDy7o52nsd6","sub03","03","7","feedback","test","null","","","na","","151","",""
"669.7000002861023","287908","HierDy7o52nsd6","sub03","03","7","rl","test","83","img/r_c_diag.png","2","83","color,pattern,shape","152","1",""
"null","288918","HierDy7o52nsd6","sub03","03","7","feedback","test","null","","","na","","152","",""
"779.7000002861023","289698","HierDy7o52nsd6","sub03","03","7","rl","test","68","img/r_t_dots.png","3","68","color,pattern,shape","153","1",""
"null","290701","HierDy7o52nsd6","sub03","03","7","feedback","test","null","","","na","","153","",""
"695.8999996185303","291398","HierDy7o52nsd6","sub03","03","7","rl","test","74","img/p_c_diag.png","6","74","color,pattern,shape","154","1",""
"null","292406","HierDy7o52nsd6","sub03","03","7","feedback","test","null","","","na","","154","",""
"650.0999999046326","293057","HierDy7o52nsd6","sub03","03","7","rl","test","65","img/r_t_diag.png","1","65","color,pattern,shape","155","1",""
"null","294067","HierDy7o52nsd6","sub03","03","7","feedback","test","null","","","na","","155","",""
"854","294921","HierDy7o52nsd6","sub03","03","7","rl","test","76","img/p_c_dots.png","8","76","color,pattern,shape","156","1",""
"null","295930","HierDy7o52nsd6","sub03","03","7","feedback","test","null","","","na","","156","",""
"582.7000002861023","296514","HierDy7o52nsd6","sub03","03","7","rl","test","76","img/p_c_dots.png","8","76","color,pattern,shape","157","1",""
"null","297520","HierDy7o52nsd6","sub03","03","7","feedback","test","null","","","na","","157","",""
"585.2000002861023","298107","HierDy7o52nsd6","sub03","03","7","rl","test","74","img/p_c_diag.png","6","74","color,pattern,shape","158","1",""
"null","299111","HierDy7o52nsd6","sub03","03","7","feedback","test","null","","","na","","158","",""
"579.6999998092651","299691","HierDy7o52nsd6","sub03","03","7","rl","test","72","img/p_t_diag.png","5","72","color,pattern,shape","159","1",""
"null","300694","HierDy7o52nsd6","sub03","03","7","feedback","test","null","","","na","","159","",""
"1002.5","301697","HierDy7o52nsd6","sub03","03","7","rl","test","76","img/p_c_dots.png","8","76","color,pattern,shape","160","1",""
"null","302702","HierDy7o52nsd6","sub03","03","7","feedback","test","null","","","na","","160","",""
"675.3999996185303","303378","HierDy7o52nsd6","sub03","03","7","rl","test","75","img/p_t_dots.png","7","75","color,pattern,shape","161","1",""
"null","304382","HierDy7o52nsd6","sub03","03","7","feedback","test","null","","","na","","161","",""
"690.9000000953674","305074","HierDy7o52nsd6","sub03","03","7","rl","test","65","img/r_t_diag.png","1","65","color,pattern,shape","162","1",""
"null","306078","HierDy7o52nsd6","sub03","03","7","feedback","test","null","","","na","","162","",""
"550.5","306629","HierDy7o52nsd6","sub03","03","7","rl","test","74","img/p_c_diag.png","6","74","color,pattern,shape","163","1",""
"null","307639","HierDy7o52nsd6","sub03","03","7","feedback","test","null","","","na","","163","",""
"747.0999999046326","308387","HierDy7o52nsd6","sub03","03","7","rl","test","72","img/p_t_diag.png","5","72","color,pattern,shape","164","1",""
"null","309392","HierDy7o52nsd6","sub03","03","7","feedback","test","null","","","na","","164","",""
"1659.0999999046326","311052","HierDy7o52nsd6","sub03","03","7","rl","test","70","img/r_c_dots.png","4","70","color,pattern,shape","165","1",""
"null","312056","HierDy7o52nsd6","sub03","03","7","feedback","test","null","","","na","","165","",""
"730.4000000953674","312787","HierDy7o52nsd6","sub03","03","7","rl","test","83","img/r_c_diag.png","2","83","color,pattern,shape","166","1",""
"null","313791","HierDy7o52nsd6","sub03","03","7","feedback","test","null","","","na","","166","",""
"869.0999999046326","314661","HierDy7o52nsd6","sub03","03","7","rl","test","75","img/p_t_dots.png","7","75","color,pattern,shape","167","1",""
"null","315675","HierDy7o52nsd6","sub03","03","7","feedback","test","null","","","na","","167","",""
"931.8000001907349","316607","HierDy7o52nsd6","sub03","03","7","rl","test","68","img/r_t_dots.png","3","68","color,pattern,shape","168","1",""
"null","317615","HierDy7o52nsd6","sub03","03","7","feedback","test","null","","","na","","168","",""
"1044.2000002861023","318660","HierDy7o52nsd6","sub03","03","7","rl","test","65","img/r_t_diag.png","1","65","color,pattern,shape","169","1",""
"null","319665","HierDy7o52nsd6","sub03","03","7","feedback","test","null","","","na","","169","",""
"796.0999999046326","320462","HierDy7o52nsd6","sub03","03","7","rl","test","68","img/r_t_dots.png","3","68","color,pattern,shape","170","1",""
"null","321471","HierDy7o52nsd6","sub03","03","7","feedback","test","null","","","na","","170","",""
"1091.8000001907349","322563","HierDy7o52nsd6","sub03","03","7","rl","test","76","img/p_c_dots.png","8","76","color,pattern,shape","171","1",""
"null","323567","HierDy7o52nsd6","sub03","03","7","feedback","test","null","","","na","","171","",""
"536.4000000953674","324104","HierDy7o52nsd6","sub03","03","7","rl","test","74","img/p_t_diag.png","5","72","color,pattern,shape","172","0",""
"null","325113","HierDy7o52nsd6","sub03","03","7","feedback","test","null","","","na","","172","",""
"598.3000001907349","325712","HierDy7o52nsd6","sub03","03","7","rl","test","74","img/p_c_diag.png","6","74","color,pattern,shape","173","1",""
"null","326719","HierDy7o52nsd6","sub03","03","7","feedback","test","null","","","na","","173","",""
"1407.8999996185303","328128","HierDy7o52nsd6","sub03","03","7","rl","test","70","img/r_c_dots.png","4","70","color,pattern,shape","174","1",""
"null","329135","HierDy7o52nsd6","sub03","03","7","feedback","test","null","","","na","","174","",""
"711.5999999046326","329847","HierDy7o52nsd6","sub03","03","7","rl","test","72","img/p_t_diag.png","5","72","color,pattern,shape","175","1",""
"null","330857","HierDy7o52nsd6","sub03","03","7","feedback","test","null","","","na","","175","",""
"599.7000002861023","331458","HierDy7o52nsd6","sub03","03","7","rl","test","75","img/p_t_dots.png","7","75","color,pattern,shape","176","1",""
"null","332463","HierDy7o52nsd6","sub03","03","7","feedback","test","null","","","na","","176","",""
"728.5","333192","HierDy7o52nsd6","sub03","03","7","rl","test","83","img/r_c_diag.png","2","83","color,pattern,shape","177","1",""
"null","334200","HierDy7o52nsd6","sub03","03","7","feedback","test","null","","","na","","177","",""
"1093.9000000953674","335295","HierDy7o52nsd6","sub03","03","7","rl","test","83","img/r_c_diag.png","2","83","color,pattern,shape","178","1",""
"null","336303","HierDy7o52nsd6","sub03","03","7","feedback","test","null","","","na","","178","",""
"685.4000000953674","336989","HierDy7o52nsd6","sub03","03","7","rl","test","76","img/p_c_dots.png","8","76","color,pattern,shape","179","1",""
"null","337993","HierDy7o52nsd6","sub03","03","7","feedback","test","null","","","na","","179","",""
"599.2999997138977","338593","HierDy7o52nsd6","sub03","03","7","rl","test","75","img/p_t_dots.png","7","75","color,pattern,shape","180","1",""
"null","339600","HierDy7o52nsd6","sub03","03","7","feedback","test","null","","","na","","180","",""
"492.2999997138977","340093","HierDy7o52nsd6","sub03","03","7","rl","test","65","img/r_t_diag.png","1","65","color,pattern,shape","181","1",""
"null","341097","HierDy7o52nsd6","sub03","03","7","feedback","test","null","","","na","","181","",""
"910.5","342009","HierDy7o52nsd6","sub03","03","7","rl","test","68","img/r_t_dots.png","3","68","color,pattern,shape","182","1",""
"null","343015","HierDy7o52nsd6","sub03","03","7","feedback","test","null","","","na","","182","",""
"757.1000003814697","343773","HierDy7o52nsd6","sub03","03","7","rl","test","74","img/p_c_diag.png","6","74","color,pattern,shape","183","1",""
"null","344778","HierDy7o52nsd6","sub03","03","7","feedback","test","null","","","na","","183","",""
"566.4000000953674","345345","HierDy7o52nsd6","sub03","03","7","rl","test","65","img/r_t_diag.png","1","65","color,pattern,shape","184","1",""
"null","346351","HierDy7o52nsd6","sub03","03","7","feedback","test","null","","","na","","184","",""
"782.7000002861023","347134","HierDy7o52nsd6","sub03","03","7","rl","test","70","img/r_c_dots.png","4","70","color,pattern,shape","185","1",""
"null","348144","HierDy7o52nsd6","sub03","03","7","feedback","test","null","","","na","","185","",""
"774.2999997138977","348919","HierDy7o52nsd6","sub03","03","7","rl","test","75","img/p_t_dots.png","7","75","color,pattern,shape","186","1",""
"null","349928","HierDy7o52nsd6","sub03","03","7","feedback","test","null","","","na","","186","",""
"582.2999997138977","350511","HierDy7o52nsd6","sub03","03","7","rl","test","74","img/p_c_diag.png","6","74","color,pattern,shape","187","1",""
"null","351515","HierDy7o52nsd6","sub03","03","7","feedback","test","null","","","na","","187","",""
"640.3999996185303","352156","HierDy7o52nsd6","sub03","03","7","rl","test","74","img/p_c_diag.png","6","74","color,pattern,shape","188","1",""
"null","353161","HierDy7o52nsd6","sub03","03","7","feedback","test","null","","","na","","188","",""
"897.9000000953674","354060","HierDy7o52nsd6","sub03","03","7","rl","test","68","img/r_t_dots.png","3","68","color,pattern,shape","189","1",""
"null","355066","HierDy7o52nsd6","sub03","03","7","feedback","test","null","","","na","","189","",""
"1008.4000000953674","356075","HierDy7o52nsd6","sub03","03","7","rl","test","72","img/p_t_diag.png","5","72","color,pattern,shape","190","1",""
"null","357080","HierDy7o52nsd6","sub03","03","7","feedback","test","null","","","na","","190","",""
"752.5","357834","HierDy7o52nsd6","sub03","03","7","rl","test","83","img/r_c_diag.png","2","83","color,pattern,shape","191","1",""
"null","358843","HierDy7o52nsd6","sub03","03","7","feedback","test","null","","","na","","191","",""
"750.7000002861023","359594","HierDy7o52nsd6","sub03","03","7","rl","test","70","img/r_c_dots.png","4","70","color,pattern,shape","192","1",""
"null","360602","HierDy7o52nsd6","sub03","03","7","feedback","test","null","","","na","","192","",""
"876.4000000953674","361479","HierDy7o52nsd6","sub03","03","7","rl","test","76","img/p_c_dots.png","8","76","color,pattern,shape","193","1",""
"null","362488","HierDy7o52nsd6","sub03","03","7","feedback","test","null","","","na","","193","",""
"944.7999997138977","363434","HierDy7o52nsd6","sub03","03","7","rl","test","68","img/r_t_dots.png","3","68","color,pattern,shape","194","1",""
"null","364440","HierDy7o52nsd6","sub03","03","7","feedback","test","null","","","na","","194","",""
"1257.8999996185303","365699","HierDy7o52nsd6","sub03","03","7","rl","test","76","img/p_c_dots.png","8","76","color,pattern,shape","195","1",""
"null","366705","HierDy7o52nsd6","sub03","03","7","feedback","test","null","","","na","","195","",""
"790.5999999046326","367496","HierDy7o52nsd6","sub03","03","7","rl","test","65","img/r_t_diag.png","1","65","color,pattern,shape","196","1",""
"null","368507","HierDy7o52nsd6","sub03","03","7","feedback","test","null","","","na","","196","",""
"631.5999999046326","369140","HierDy7o52nsd6","sub03","03","7","rl","test","70","img/r_c_dots.png","4","70","color,pattern,shape","197","1",""
"null","370144","HierDy7o52nsd6","sub03","03","7","feedback","test","null","","","na","","197","",""
"554.3999996185303","370699","HierDy7o52nsd6","sub03","03","7","rl","test","72","img/p_t_diag.png","5","72","color,pattern,shape","198","1",""
"null","371707","HierDy7o52nsd6","sub03","03","7","feedback","test","null","","","na","","198","",""
"709","372417","HierDy7o52nsd6","sub03","03","7","rl","test","75","img/p_t_dots.png","7","75","color,pattern,shape","199","1",""
"null","373429","HierDy7o52nsd6","sub03","03","7","feedback","test","null","","","na","","199","",""
"703.6999998092651","374133","HierDy7o52nsd6","sub03","03","7","rl","test","83","img/r_c_diag.png","2","83","color,pattern,shape","200","1",""
"null","375139","HierDy7o52nsd6","sub03","03","7","feedback","test","null","","","na","","200","",""
"674.0999999046326","375814","HierDy7o52nsd6","sub03","03","7","rl","test","70","img/r_c_dots.png","4","70","color,pattern,shape","201","1",""
"null","376816","HierDy7o52nsd6","sub03","03","7","feedback","test","null","","","na","","201","",""
"736.6999998092651","377553","HierDy7o52nsd6","sub03","03","7","rl","test","65","img/r_t_diag.png","1","65","color,pattern,shape","202","1",""
"null","378563","HierDy7o52nsd6","sub03","03","7","feedback","test","null","","","na","","202","",""
"967.6000003814697","379531","HierDy7o52nsd6","sub03","03","7","rl","test","74","img/p_c_diag.png","6","74","color,pattern,shape","203","1",""
"null","380537","HierDy7o52nsd6","sub03","03","7","feedback","test","null","","","na","","203","",""
"920.6000003814697","381458","HierDy7o52nsd6","sub03","03","7","rl","test","68","img/r_t_dots.png","3","68","color,pattern,shape","204","1",""
"null","382468","HierDy7o52nsd6","sub03","03","7","feedback","test","null","","","na","","204","",""
"791.3000001907349","383260","HierDy7o52nsd6","sub03","03","7","rl","test","72","img/p_t_diag.png","5","72","color,pattern,shape","205","1",""
"null","384265","HierDy7o52nsd6","sub03","03","7","feedback","test","null","","","na","","205","",""
"1058.0999999046326","385324","HierDy7o52nsd6","sub03","03","7","rl","test","83","img/r_c_diag.png","2","83","color,pattern,shape","206","1",""
"null","386329","HierDy7o52nsd6","sub03","03","7","feedback","test","null","","","na","","206","",""
"1114.5","387444","HierDy7o52nsd6","sub03","03","7","rl","test","72","img/p_t_diag.png","5","72","color,pattern,shape","207","1",""
"null","388451","HierDy7o52nsd6","sub03","03","7","feedback","test","null","","","na","","207","",""
"908","389360","HierDy7o52nsd6","sub03","03","7","rl","test","76","img/p_c_dots.png","8","76","color,pattern,shape","208","1",""
"null","390369","HierDy7o52nsd6","sub03","03","7","feedback","test","null","","","na","","208","",""
"695.5","391066","HierDy7o52nsd6","sub03","03","7","rl","test","83","img/r_c_diag.png","2","83","color,pattern,shape","209","1",""
"null","392074","HierDy7o52nsd6","sub03","03","7","feedback","test","null","","","na","","209","",""
"594.8000001907349","392669","HierDy7o52nsd6","sub03","03","7","rl","test","75","img/p_t_dots.png","7","75","color,pattern,shape","210","1",""
"null","393673","HierDy7o52nsd6","sub03","03","7","feedback","test","null","","","na","","210","",""
"471.09999990463257","394146","HierDy7o52nsd6","sub03","03","7","rl","test","75","img/p_t_dots.png","7","75","color,pattern,shape","211","1",""
"null","395157","HierDy7o52nsd6","sub03","03","7","feedback","test","null","","","na","","211","",""
"868.5999999046326","396027","HierDy7o52nsd6","sub03","03","7","rl","test","65","img/r_t_diag.png","1","65","color,pattern,shape","212","1",""
"null","397033","HierDy7o52nsd6","sub03","03","7","feedback","test","null","","","na","","212","",""
"654","397688","HierDy7o52nsd6","sub03","03","7","rl","test","76","img/p_c_dots.png","8","76","color,pattern,shape","213","1",""
"null","398697","HierDy7o52nsd6","sub03","03","7","feedback","test","null","","","na","","213","",""
"485.40000009536743","399184","HierDy7o52nsd6","sub03","03","7","rl","test","76","img/p_c_dots.png","8","76","color,pattern,shape","214","1",""
"null","400197","HierDy7o52nsd6","sub03","03","7","feedback","test","null","","","na","","214","",""
"779.5999999046326","400978","HierDy7o52nsd6","sub03","03","7","rl","test","70","img/r_c_dots.png","4","70","color,pattern,shape","215","1",""
"null","401988","HierDy7o52nsd6","sub03","03","7","feedback","test","null","","","na","","215","",""
"648.3000001907349","402638","HierDy7o52nsd6","sub03","03","7","rl","test","68","img/r_t_dots.png","3","68","color,pattern,shape","216","1",""
"null","403642","HierDy7o52nsd6","sub03","03","7","feedback","test","null","","","na","","216","",""
"803.6000003814697","404446","HierDy7o52nsd6","sub03","03","7","rl","test","74","img/p_c_diag.png","6","74","color,pattern,shape","217","1",""
"null","405450","HierDy7o52nsd6","sub03","03","7","feedback","test","null","","","na","","217","",""
"1331.5","406782","HierDy7o52nsd6","sub03","03","7","rl","test","68","img/r_t_dots.png","3","68","color,pattern,shape","218","1",""
"null","407786","HierDy7o52nsd6","sub03","03","7","feedback","test","null","","","na","","218","",""
"891","408678","HierDy7o52nsd6","sub03","03","7","rl","test","70","img/r_c_dots.png","4","70","color,pattern,shape","219","1",""
"null","409681","HierDy7o52nsd6","sub03","03","7","feedback","test","null","","","na","","219","",""
"629.0999999046326","410311","HierDy7o52nsd6","sub03","03","7","rl","test","65","img/r_t_diag.png","1","65","color,pattern,shape","220","1",""
"null","411318","HierDy7o52nsd6","sub03","03","7","feedback","test","null","","","na","","220","",""
"546.3999996185303","411865","HierDy7o52nsd6","sub03","03","7","rl","test","83","img/r_c_diag.png","2","83","color,pattern,shape","221","1",""
"null","412874","HierDy7o52nsd6","sub03","03","7","feedback","test","null","","","na","","221","",""
"674.9000000953674","413550","HierDy7o52nsd6","sub03","03","7","rl","test","72","img/p_t_diag.png","5","72","color,pattern,shape","222","1",""
"null","414553","HierDy7o52nsd6","sub03","03","7","feedback","test","null","","","na","","222","",""
"573","415127","HierDy7o52nsd6","sub03","03","7","rl","test","76","img/p_c_dots.png","8","76","color,pattern,shape","223","1",""
"null","416133","HierDy7o52nsd6","sub03","03","7","feedback","test","null","","","na","","223","",""
"1182.3000001907349","417316","HierDy7o52nsd6","sub03","03","7","rl","test","74","img/p_c_diag.png","6","74","color,pattern,shape","224","1",""
"null","418324","HierDy7o52nsd6","sub03","03","7","feedback","test","null","","","na","","224","",""
"587.0999999046326","418912","HierDy7o52nsd6","sub03","03","7","rl","test","75","img/p_t_dots.png","7","75","color,pattern,shape","225","1",""
"null","419926","HierDy7o52nsd6","sub03","03","7","feedback","test","null","","","na","","225","",""
"871","420798","HierDy7o52nsd6","sub03","03","7","rl","test","65","img/r_t_diag.png","1","65","color,pattern,shape","226","1",""
"null","421803","HierDy7o52nsd6","sub03","03","7","feedback","test","null","","","na","","226","",""
"854.2000002861023","422658","HierDy7o52nsd6","sub03","03","7","rl","test","74","img/p_c_diag.png","6","74","color,pattern,shape","227","1",""
"null","423666","HierDy7o52nsd6","sub03","03","7","feedback","test","null","","","na","","227","",""
"949.4000000953674","424616","HierDy7o52nsd6","sub03","03","7","rl","test","68","img/r_t_dots.png","3","68","color,pattern,shape","228","1",""
"null","425629","HierDy7o52nsd6","sub03","03","7","feedback","test","null","","","na","","228","",""
"753.2000002861023","426383","HierDy7o52nsd6","sub03","03","7","rl","test","75","img/p_t_dots.png","7","75","color,pattern,shape","229","1",""
"null","427387","HierDy7o52nsd6","sub03","03","7","feedback","test","null","","","na","","229","",""
"1156.1999998092651","428544","HierDy7o52nsd6","sub03","03","7","rl","test","83","img/r_c_diag.png","2","83","color,pattern,shape","230","1",""
"null","429557","HierDy7o52nsd6","sub03","03","7","feedback","test","null","","","na","","230","",""
"590.7999997138977","430148","HierDy7o52nsd6","sub03","03","7","rl","test","75","img/p_t_dots.png","7","75","color,pattern,shape","231","1",""
"null","431155","HierDy7o52nsd6","sub03","03","7","feedback","test","null","","","na","","231","",""
"846.4000000953674","432002","HierDy7o52nsd6","sub03","03","7","rl","test","70","img/r_c_dots.png","4","70","color,pattern,shape","232","1",""
"null","433010","HierDy7o52nsd6","sub03","03","7","feedback","test","null","","","na","","232","",""
"787.9000000953674","433799","HierDy7o52nsd6","sub03","03","7","rl","test","72","img/p_t_diag.png","5","72","color,pattern,shape","233","1",""
"null","434804","HierDy7o52nsd6","sub03","03","7","feedback","test","null","","","na","","233","",""
"556.8000001907349","435362","HierDy7o52nsd6","sub03","03","7","rl","test","72","img/p_t_diag.png","5","72","color,pattern,shape","234","1",""
"null","436372","HierDy7o52nsd6","sub03","03","7","feedback","test","null","","","na","","234","",""
"947.0999999046326","437320","HierDy7o52nsd6","sub03","03","7","rl","test","83","img/r_c_diag.png","2","83","color,pattern,shape","235","1",""
"null","438335","HierDy7o52nsd6","sub03","03","7","feedback","test","null","","","na","","235","",""
"1025","439360","HierDy7o52nsd6","sub03","03","7","rl","test","68","img/r_t_dots.png","3","68","color,pattern,shape","236","1",""
"null","440371","HierDy7o52nsd6","sub03","03","7","feedback","test","null","","","na","","236","",""
"445","440816","HierDy7o52nsd6","sub03","03","7","rl","test","70","img/r_c_dots.png","4","70","color,pattern,shape","237","1",""
"null","441826","HierDy7o52nsd6","sub03","03","7","feedback","test","null","","","na","","237","",""
"737.1999998092651","442564","HierDy7o52nsd6","sub03","03","7","rl","test","76","img/p_c_dots.png","8","76","color,pattern,shape","238","1",""
"null","443571","HierDy7o52nsd6","sub03","03","7","feedback","test","null","","","na","","238","",""
"712.9000000953674","444284","HierDy7o52nsd6","sub03","03","7","rl","test","68","img/r_t_dots.png","3","68","color,pattern,shape","239","1",""
"null","445290","HierDy7o52nsd6","sub03","03","7","feedback","test","null","","","na","","239","",""
"724.2000002861023","446015","HierDy7o52nsd6","sub03","03","7","rl","test","65","img/r_t_diag.png","1","65","color,pattern,shape","240","1",""
"null","447020","HierDy7o52nsd6","sub03","03","7","feedback","test","null","","","na","","240","",""
"432.09999990463257","447453","HierDy7o52nsd6","sub03","03","7","rl","test","65","img/r_t_diag.png","1","65","color,pattern,shape","241","1",""
"null","448463","HierDy7o52nsd6","sub03","03","7","feedback","test","null","","","na","","241","",""
"663.6999998092651","449127","HierDy7o52nsd6","sub03","03","7","rl","test","74","img/p_c_diag.png","6","74","color,pattern,shape","242","1",""
"null","450131","HierDy7o52nsd6","sub03","03","7","feedback","test","null","","","na","","242","",""
"980.7999997138977","451112","HierDy7o52nsd6","sub03","03","7","rl","test","83","img/r_c_diag.png","2","83","color,pattern,shape","243","1",""
"null","452114","HierDy7o52nsd6","sub03","03","7","feedback","test","null","","","na","","243","",""
"624.4000000953674","452739","HierDy7o52nsd6","sub03","03","7","rl","test","74","img/p_c_diag.png","6","74","color,pattern,shape","244","1",""
"null","453746","HierDy7o52nsd6","sub03","03","7","feedback","test","null","","","na","","244","",""
"1035.2000002861023","454782","HierDy7o52nsd6","sub03","03","7","rl","test","76","img/p_c_dots.png","8","76","color,pattern,shape","245","1",""
"null","455787","HierDy7o52nsd6","sub03","03","7","feedback","test","null","","","na","","245","",""
"550.0999999046326","456338","HierDy7o52nsd6","sub03","03","7","rl","test","75","img/p_t_dots.png","7","75","color,pattern,shape","246","1",""
"null","457347","HierDy7o52nsd6","sub03","03","7","feedback","test","null","","","na","","246","",""
"561.0999999046326","457909","HierDy7o52nsd6","sub03","03","7","rl","test","72","img/p_t_diag.png","5","72","color,pattern,shape","247","1",""
"null","458914","HierDy7o52nsd6","sub03","03","7","feedback","test","null","","","na","","247","",""
"558.4000000953674","459474","HierDy7o52nsd6","sub03","03","7","rl","test","70","img/r_c_dots.png","4","70","color,pattern,shape","248","1",""
"null","460487","HierDy7o52nsd6","sub03","03","7","feedback","test","null","","","na","","248","",""
"13576.300000190735","474079","HierDy7o52nsd6","sub03","03","7","","","","","","","","","","{""Q0"":""8""}"
"5534.800000190735","479619","HierDy7o52nsd6","sub03","03","7","","","","","","","","","","{""Q0"":""nothing in particular""}"
"913.7999997138977","480534","HierDy7o52nsd6","sub03","03","7","","","","","","","","","",""
