"rt","time_elapsed","subject","subID","group","day","trialType","phase","key_press","stim","stimNum","corrresp","hierarchy","trialNum","corr","responses"
"1401","1403","HierDym4o5w5x2","sub19","07","05","","","","","","","","","",""
"","3294","HierDym4o5w5x2","sub19","07","05","fullscreen","","","","","","","","",""
"2711.099999964237","6008","HierDym4o5w5x2","sub19","07","05","","prac","","","","","","","",""
"815.7000000476837","6828","HierDym4o5w5x2","sub19","07","05","","","32","","","","","","",""
"560.8999999761581","7389","HierDym4o5w5x2","sub19","07","05","","prac","","","","","","","",""
"1092.6000000238419","8483","HierDym4o5w5x2","sub19","07","05","rl","test","83","img/b_s_dots.png","2","83","pattern,color,shape","1","1",""
"null","9490","HierDym4o5w5x2","sub19","07","05","feedback","test","null","","","na","","1","",""
"1082.300000011921","10573","HierDym4o5w5x2","sub19","07","05","rl","test","74","img/b_s_stripes.png","6","74","pattern,color,shape","2","1",""
"null","11578","HierDym4o5w5x2","sub19","07","05","feedback","test","null","","","na","","2","",""
"734.5","12313","HierDym4o5w5x2","sub19","07","05","rl","test","72","img/b_c_stripes.png","5","72","pattern,color,shape","3","1",""
"null","13324","HierDym4o5w5x2","sub19","07","05","feedback","test","null","","","na","","3","",""
"1427.7999999523163","14752","HierDym4o5w5x2","sub19","07","05","rl","test","75","img/o_c_stripes.png","7","75","pattern,color,shape","4","1",""
"null","15762","HierDym4o5w5x2","sub19","07","05","feedback","test","null","","","na","","4","",""
"1266.3999999761581","17029","HierDym4o5w5x2","sub19","07","05","rl","test","70","img/o_s_dots.png","4","70","pattern,color,shape","5","1",""
"null","18033","HierDym4o5w5x2","sub19","07","05","feedback","test","null","","","na","","5","",""
"1791.800000011921","19825","HierDym4o5w5x2","sub19","07","05","rl","test","68","img/o_c_dots.png","3","68","pattern,color,shape","6","1",""
"null","20836","HierDym4o5w5x2","sub19","07","05","feedback","test","null","","","na","","6","",""
"849.4000000357628","21686","HierDym4o5w5x2","sub19","07","05","rl","test","65","img/b_c_dots.png","1","65","pattern,color,shape","7","1",""
"null","22689","HierDym4o5w5x2","sub19","07","05","feedback","test","null","","","na","","7","",""
"1267.1000000238419","23957","HierDym4o5w5x2","sub19","07","05","rl","test","76","img/o_s_stripes.png","8","76","pattern,color,shape","8","1",""
"null","24962","HierDym4o5w5x2","sub19","07","05","feedback","test","null","","","na","","8","",""
"2128.5","27091","HierDym4o5w5x2","sub19","07","05","rl","test","68","img/o_c_dots.png","3","68","pattern,color,shape","9","1",""
"null","28097","HierDym4o5w5x2","sub19","07","05","feedback","test","null","","","na","","9","",""
"879","28977","HierDym4o5w5x2","sub19","07","05","rl","test","76","img/o_s_stripes.png","8","76","pattern,color,shape","10","1",""
"null","29990","HierDym4o5w5x2","sub19","07","05","feedback","test","null","","","na","","10","",""
"1272","31263","HierDym4o5w5x2","sub19","07","05","rl","test","83","img/b_s_dots.png","2","83","pattern,color,shape","11","1",""
"null","32265","HierDym4o5w5x2","sub19","07","05","feedback","test","null","","","na","","11","",""
"1098","33364","HierDym4o5w5x2","sub19","07","05","rl","test","72","img/b_c_stripes.png","5","72","pattern,color,shape","12","1",""
"null","34369","HierDym4o5w5x2","sub19","07","05","feedback","test","null","","","na","","12","",""
"1439","35810","HierDym4o5w5x2","sub19","07","05","rl","test","74","img/b_s_stripes.png","6","74","pattern,color,shape","13","1",""
"null","36817","HierDym4o5w5x2","sub19","07","05","feedback","test","null","","","na","","13","",""
"1184.199999988079","38003","HierDym4o5w5x2","sub19","07","05","rl","test","75","img/o_c_stripes.png","7","75","pattern,color,shape","14","1",""
"null","39010","HierDym4o5w5x2","sub19","07","05","feedback","test","null","","","na","","14","",""
"1962.7999999523163","40974","HierDym4o5w5x2","sub19","07","05","rl","test","65","img/b_c_dots.png","1","65","pattern,color,shape","15","1",""
"null","41978","HierDym4o5w5x2","sub19","07","05","feedback","test","null","","","na","","15","",""
"674.2999999523163","42653","HierDym4o5w5x2","sub19","07","05","rl","test","65","img/b_c_dots.png","1","65","pattern,color,shape","16","1",""
"null","43661","HierDym4o5w5x2","sub19","07","05","feedback","test","null","","","na","","16","",""
"1536.5999999642372","45198","HierDym4o5w5x2","sub19","07","05","rl","test","70","img/o_s_dots.png","4","70","pattern,color,shape","17","1",""
"null","46206","HierDym4o5w5x2","sub19","07","05","feedback","test","null","","","na","","17","",""
"2186.900000035763","48393","HierDym4o5w5x2","sub19","07","05","rl","test","75","img/o_c_stripes.png","7","75","pattern,color,shape","18","1",""
"null","49403","HierDym4o5w5x2","sub19","07","05","feedback","test","null","","","na","","18","",""
"1051.5","50455","HierDym4o5w5x2","sub19","07","05","rl","test","74","img/b_s_stripes.png","6","74","pattern,color,shape","19","1",""
"null","51462","HierDym4o5w5x2","sub19","07","05","feedback","test","null","","","na","","19","",""
"1514.1000000238419","52977","HierDym4o5w5x2","sub19","07","05","rl","test","70","img/o_s_dots.png","4","70","pattern,color,shape","20","1",""
"null","53990","HierDym4o5w5x2","sub19","07","05","feedback","test","null","","","na","","20","",""
"1518.2999999523163","55510","HierDym4o5w5x2","sub19","07","05","rl","test","68","img/o_c_dots.png","3","68","pattern,color,shape","21","1",""
"null","56514","HierDym4o5w5x2","sub19","07","05","feedback","test","null","","","na","","21","",""
"1011.3000000119209","57526","HierDym4o5w5x2","sub19","07","05","rl","test","70","img/o_s_dots.png","4","70","pattern,color,shape","22","1",""
"null","58535","HierDym4o5w5x2","sub19","07","05","feedback","test","null","","","na","","22","",""
"1065.699999988079","59601","HierDym4o5w5x2","sub19","07","05","rl","test","76","img/o_s_stripes.png","8","76","pattern,color,shape","23","1",""
"null","60611","HierDym4o5w5x2","sub19","07","05","feedback","test","null","","","na","","23","",""
"871.2000000476837","61483","HierDym4o5w5x2","sub19","07","05","rl","test","83","img/b_s_dots.png","2","83","pattern,color,shape","24","1",""
"null","62491","HierDym4o5w5x2","sub19","07","05","feedback","test","null","","","na","","24","",""
"894.5","63386","HierDym4o5w5x2","sub19","07","05","rl","test","75","img/o_c_stripes.png","7","75","pattern,color,shape","25","1",""
"null","64399","HierDym4o5w5x2","sub19","07","05","feedback","test","null","","","na","","25","",""
"1907.699999988079","66307","HierDym4o5w5x2","sub19","07","05","rl","test","74","img/b_c_stripes.png","5","72","pattern,color,shape","26","0",""
"null","67315","HierDym4o5w5x2","sub19","07","05","feedback","test","null","","","na","","26","",""
"792","68107","HierDym4o5w5x2","sub19","07","05","rl","test","72","img/b_c_stripes.png","5","72","pattern,color,shape","27","1",""
"null","69117","HierDym4o5w5x2","sub19","07","05","feedback","test","null","","","na","","27","",""
"675","69793","HierDym4o5w5x2","sub19","07","05","rl","test","76","img/o_s_stripes.png","8","76","pattern,color,shape","28","1",""
"null","70803","HierDym4o5w5x2","sub19","07","05","feedback","test","null","","","na","","28","",""
"1180","71984","HierDym4o5w5x2","sub19","07","05","rl","test","68","img/o_c_dots.png","3","68","pattern,color,shape","29","1",""
"null","72988","HierDym4o5w5x2","sub19","07","05","feedback","test","null","","","na","","29","",""
"1216.699999988079","74206","HierDym4o5w5x2","sub19","07","05","rl","test","83","img/b_s_dots.png","2","83","pattern,color,shape","30","1",""
"null","75213","HierDym4o5w5x2","sub19","07","05","feedback","test","null","","","na","","30","",""
"926.6000000238419","76140","HierDym4o5w5x2","sub19","07","05","rl","test","65","img/b_c_dots.png","1","65","pattern,color,shape","31","1",""
"null","77147","HierDym4o5w5x2","sub19","07","05","feedback","test","null","","","na","","31","",""
"1394.800000011921","78542","HierDym4o5w5x2","sub19","07","05","rl","test","75","img/b_s_stripes.png","6","74","pattern,color,shape","32","0",""
"null","79547","HierDym4o5w5x2","sub19","07","05","feedback","test","null","","","na","","32","",""
"369.5999999642372","79917","HierDym4o5w5x2","sub19","07","05","rl","test","74","img/b_s_stripes.png","6","74","pattern,color,shape","33","1",""
"null","80923","HierDym4o5w5x2","sub19","07","05","feedback","test","null","","","na","","33","",""
"1098.199999988079","82022","HierDym4o5w5x2","sub19","07","05","rl","test","70","img/o_s_dots.png","4","70","pattern,color,shape","34","1",""
"null","83027","HierDym4o5w5x2","sub19","07","05","feedback","test","null","","","na","","34","",""
"1322","84350","HierDym4o5w5x2","sub19","07","05","rl","test","76","img/o_s_stripes.png","8","76","pattern,color,shape","35","1",""
"null","85356","HierDym4o5w5x2","sub19","07","05","feedback","test","null","","","na","","35","",""
"697.6999999880791","86055","HierDym4o5w5x2","sub19","07","05","rl","test","72","img/b_c_stripes.png","5","72","pattern,color,shape","36","1",""
"null","87062","HierDym4o5w5x2","sub19","07","05","feedback","test","null","","","na","","36","",""
"1126.5999999642372","88189","HierDym4o5w5x2","sub19","07","05","rl","test","75","img/o_c_stripes.png","7","75","pattern,color,shape","37","1",""
"null","89199","HierDym4o5w5x2","sub19","07","05","feedback","test","null","","","na","","37","",""
"589.1999999880791","89789","HierDym4o5w5x2","sub19","07","05","rl","test","72","img/b_c_stripes.png","5","72","pattern,color,shape","38","1",""
"null","90799","HierDym4o5w5x2","sub19","07","05","feedback","test","null","","","na","","38","",""
"1002.4000000357628","91802","HierDym4o5w5x2","sub19","07","05","rl","test","68","img/o_c_dots.png","3","68","pattern,color,shape","39","1",""
"null","92811","HierDym4o5w5x2","sub19","07","05","feedback","test","null","","","na","","39","",""
"1133.5","93946","HierDym4o5w5x2","sub19","07","05","rl","test","76","img/o_s_stripes.png","8","76","pattern,color,shape","40","1",""
"null","94959","HierDym4o5w5x2","sub19","07","05","feedback","test","null","","","na","","40","",""
"1185.1000000238419","96145","HierDym4o5w5x2","sub19","07","05","rl","test","83","img/b_s_dots.png","2","83","pattern,color,shape","41","1",""
"null","97155","HierDym4o5w5x2","sub19","07","05","feedback","test","null","","","na","","41","",""
"1869","99025","HierDym4o5w5x2","sub19","07","05","rl","test","68","img/o_c_dots.png","3","68","pattern,color,shape","42","1",""
"null","100038","HierDym4o5w5x2","sub19","07","05","feedback","test","null","","","na","","42","",""
"729.7000000476837","100768","HierDym4o5w5x2","sub19","07","05","rl","test","70","img/o_s_dots.png","4","70","pattern,color,shape","43","1",""
"null","101773","HierDym4o5w5x2","sub19","07","05","feedback","test","null","","","na","","43","",""
"1299.9000000357628","103074","HierDym4o5w5x2","sub19","07","05","rl","test","65","img/b_c_dots.png","1","65","pattern,color,shape","44","1",""
"null","104083","HierDym4o5w5x2","sub19","07","05","feedback","test","null","","","na","","44","",""
"1389.699999988079","105474","HierDym4o5w5x2","sub19","07","05","rl","test","83","img/b_s_dots.png","2","83","pattern,color,shape","45","1",""
"null","106484","HierDym4o5w5x2","sub19","07","05","feedback","test","null","","","na","","45","",""
"751.5","107237","HierDym4o5w5x2","sub19","07","05","rl","test","72","img/b_c_stripes.png","5","72","pattern,color,shape","46","1",""
"null","108245","HierDym4o5w5x2","sub19","07","05","feedback","test","null","","","na","","46","",""
"1174.5","109421","HierDym4o5w5x2","sub19","07","05","rl","test","74","img/b_s_stripes.png","6","74","pattern,color,shape","47","1",""
"null","110427","HierDym4o5w5x2","sub19","07","05","feedback","test","null","","","na","","47","",""
"771.5","111200","HierDym4o5w5x2","sub19","07","05","rl","test","72","img/b_c_dots.png","1","65","pattern,color,shape","48","0",""
"null","112207","HierDym4o5w5x2","sub19","07","05","feedback","test","null","","","na","","48","",""
"1000","113208","HierDym4o5w5x2","sub19","07","05","rl","test","74","img/b_s_stripes.png","6","74","pattern,color,shape","49","1",""
"null","114214","HierDym4o5w5x2","sub19","07","05","feedback","test","null","","","na","","49","",""
"688.3999999761581","114903","HierDym4o5w5x2","sub19","07","05","rl","test","76","img/o_s_stripes.png","8","76","pattern,color,shape","50","1",""
"null","115909","HierDym4o5w5x2","sub19","07","05","feedback","test","null","","","na","","50","",""
"2055.599999964237","117965","HierDym4o5w5x2","sub19","07","05","rl","test","75","img/o_c_stripes.png","7","75","pattern,color,shape","51","1",""
"null","118971","HierDym4o5w5x2","sub19","07","05","feedback","test","null","","","na","","51","",""
"899.1999999880791","119871","HierDym4o5w5x2","sub19","07","05","rl","test","83","img/b_s_dots.png","2","83","pattern,color,shape","52","1",""
"null","120876","HierDym4o5w5x2","sub19","07","05","feedback","test","null","","","na","","52","",""
"2025.5","122902","HierDym4o5w5x2","sub19","07","05","rl","test","75","img/o_c_dots.png","3","68","pattern,color,shape","53","0",""
"null","123910","HierDym4o5w5x2","sub19","07","05","feedback","test","null","","","na","","53","",""
"768.3999999761581","124679","HierDym4o5w5x2","sub19","07","05","rl","test","75","img/o_c_stripes.png","7","75","pattern,color,shape","54","1",""
"null","125686","HierDym4o5w5x2","sub19","07","05","feedback","test","null","","","na","","54","",""
"959.8999999761581","126647","HierDym4o5w5x2","sub19","07","05","rl","test","74","img/b_s_stripes.png","6","74","pattern,color,shape","55","1",""
"null","127655","HierDym4o5w5x2","sub19","07","05","feedback","test","null","","","na","","55","",""
"954","128610","HierDym4o5w5x2","sub19","07","05","rl","test","70","img/o_s_dots.png","4","70","pattern,color,shape","56","1",""
"null","129620","HierDym4o5w5x2","sub19","07","05","feedback","test","null","","","na","","56","",""
"1203.699999988079","130825","HierDym4o5w5x2","sub19","07","05","rl","test","70","img/o_s_dots.png","4","70","pattern,color,shape","57","1",""
"null","131828","HierDym4o5w5x2","sub19","07","05","feedback","test","null","","","na","","57","",""
"1863","133692","HierDym4o5w5x2","sub19","07","05","rl","test","83","img/b_c_dots.png","1","65","pattern,color,shape","58","0",""
"null","134699","HierDym4o5w5x2","sub19","07","05","feedback","test","null","","","na","","58","",""
"770","135470","HierDym4o5w5x2","sub19","07","05","rl","test","75","img/o_c_stripes.png","7","75","pattern,color,shape","59","1",""
"null","136476","HierDym4o5w5x2","sub19","07","05","feedback","test","null","","","na","","59","",""
"639.5","137116","HierDym4o5w5x2","sub19","07","05","rl","test","65","img/b_c_dots.png","1","65","pattern,color,shape","60","1",""
"null","138123","HierDym4o5w5x2","sub19","07","05","feedback","test","null","","","na","","60","",""
"1582","139706","HierDym4o5w5x2","sub19","07","05","rl","test","72","img/b_c_stripes.png","5","72","pattern,color,shape","61","1",""
"null","140719","HierDym4o5w5x2","sub19","07","05","feedback","test","null","","","na","","61","",""
"1657.1000000238419","142377","HierDym4o5w5x2","sub19","07","05","rl","test","68","img/o_c_dots.png","3","68","pattern,color,shape","62","1",""
"null","143382","HierDym4o5w5x2","sub19","07","05","feedback","test","null","","","na","","62","",""
"2482.899999976158","145866","HierDym4o5w5x2","sub19","07","05","rl","test","68","img/b_s_dots.png","2","83","pattern,color,shape","63","0",""
"null","146868","HierDym4o5w5x2","sub19","07","05","feedback","test","null","","","na","","63","",""
"902.3999999761581","147771","HierDym4o5w5x2","sub19","07","05","rl","test","76","img/o_s_stripes.png","8","76","pattern,color,shape","64","1",""
"null","148779","HierDym4o5w5x2","sub19","07","05","feedback","test","null","","","na","","64","",""
"729.1000000238419","149509","HierDym4o5w5x2","sub19","07","05","rl","test","76","img/o_s_stripes.png","8","76","pattern,color,shape","65","1",""
"null","150515","HierDym4o5w5x2","sub19","07","05","feedback","test","null","","","na","","65","",""
"728.7999999523163","151246","HierDym4o5w5x2","sub19","07","05","rl","test","72","img/b_c_stripes.png","5","72","pattern,color,shape","66","1",""
"null","152253","HierDym4o5w5x2","sub19","07","05","feedback","test","null","","","na","","66","",""
"2056","154310","HierDym4o5w5x2","sub19","07","05","rl","test","74","img/b_s_stripes.png","6","74","pattern,color,shape","67","1",""
"null","155320","HierDym4o5w5x2","sub19","07","05","feedback","test","null","","","na","","67","",""
"1664.300000011921","156985","HierDym4o5w5x2","sub19","07","05","rl","test","68","img/o_c_dots.png","3","68","pattern,color,shape","68","1",""
"null","157996","HierDym4o5w5x2","sub19","07","05","feedback","test","null","","","na","","68","",""
"1330.1000000238419","159327","HierDym4o5w5x2","sub19","07","05","rl","test","75","img/o_c_stripes.png","7","75","pattern,color,shape","69","1",""
"null","160333","HierDym4o5w5x2","sub19","07","05","feedback","test","null","","","na","","69","",""
"1060.6000000238419","161394","HierDym4o5w5x2","sub19","07","05","rl","test","83","img/b_s_dots.png","2","83","pattern,color,shape","70","1",""
"null","162404","HierDym4o5w5x2","sub19","07","05","feedback","test","null","","","na","","70","",""
"1955.5","164361","HierDym4o5w5x2","sub19","07","05","rl","test","68","img/o_c_dots.png","3","68","pattern,color,shape","71","1",""
"null","165365","HierDym4o5w5x2","sub19","07","05","feedback","test","null","","","na","","71","",""
"869.3000000119209","166235","HierDym4o5w5x2","sub19","07","05","rl","test","70","img/o_s_dots.png","4","70","pattern,color,shape","72","1",""
"null","167243","HierDym4o5w5x2","sub19","07","05","feedback","test","null","","","na","","72","",""
"1281.800000011921","168526","HierDym4o5w5x2","sub19","07","05","rl","test","75","img/o_c_stripes.png","7","75","pattern,color,shape","73","1",""
"null","169534","HierDym4o5w5x2","sub19","07","05","feedback","test","null","","","na","","73","",""
"983.8999999761581","170519","HierDym4o5w5x2","sub19","07","05","rl","test","65","img/b_c_dots.png","1","65","pattern,color,shape","74","1",""
"null","171524","HierDym4o5w5x2","sub19","07","05","feedback","test","null","","","na","","74","",""
"1582.7000000476837","173110","HierDym4o5w5x2","sub19","07","05","rl","test","74","img/b_s_stripes.png","6","74","pattern,color,shape","75","1",""
"null","174117","HierDym4o5w5x2","sub19","07","05","feedback","test","null","","","na","","75","",""
"1184.0999999642372","175302","HierDym4o5w5x2","sub19","07","05","rl","test","83","img/b_s_dots.png","2","83","pattern,color,shape","76","1",""
"null","176308","HierDym4o5w5x2","sub19","07","05","feedback","test","null","","","na","","76","",""
"788.2000000476837","177098","HierDym4o5w5x2","sub19","07","05","rl","test","70","img/o_s_dots.png","4","70","pattern,color,shape","77","1",""
"null","178099","HierDym4o5w5x2","sub19","07","05","feedback","test","null","","","na","","77","",""
"1330.699999988079","179431","HierDym4o5w5x2","sub19","07","05","rl","test","72","img/b_c_stripes.png","5","72","pattern,color,shape","78","1",""
"null","180436","HierDym4o5w5x2","sub19","07","05","feedback","test","null","","","na","","78","",""
"1758.5","182196","HierDym4o5w5x2","sub19","07","05","rl","test","76","img/o_s_stripes.png","8","76","pattern,color,shape","79","1",""
"null","183209","HierDym4o5w5x2","sub19","07","05","feedback","test","null","","","na","","79","",""
"1862.6000000238419","185072","HierDym4o5w5x2","sub19","07","05","rl","test","83","img/b_s_dots.png","2","83","pattern,color,shape","80","1",""
"null","186075","HierDym4o5w5x2","sub19","07","05","feedback","test","null","","","na","","80","",""
"663.6999999880791","186740","HierDym4o5w5x2","sub19","07","05","rl","test","65","img/b_c_dots.png","1","65","pattern,color,shape","81","1",""
"null","187749","HierDym4o5w5x2","sub19","07","05","feedback","test","null","","","na","","81","",""
"1456.9000000357628","189207","HierDym4o5w5x2","sub19","07","05","rl","test","75","img/o_c_stripes.png","7","75","pattern,color,shape","82","1",""
"null","190213","HierDym4o5w5x2","sub19","07","05","feedback","test","null","","","na","","82","",""
"2258.399999976158","192473","HierDym4o5w5x2","sub19","07","05","rl","test","65","img/b_c_dots.png","1","65","pattern,color,shape","83","1",""
"null","193479","HierDym4o5w5x2","sub19","07","05","feedback","test","null","","","na","","83","",""
"1413.199999988079","194893","HierDym4o5w5x2","sub19","07","05","rl","test","68","img/o_c_dots.png","3","68","pattern,color,shape","84","1",""
"null","195903","HierDym4o5w5x2","sub19","07","05","feedback","test","null","","","na","","84","",""
"834.3000000119209","196738","HierDym4o5w5x2","sub19","07","05","rl","test","70","img/o_s_dots.png","4","70","pattern,color,shape","85","1",""
"null","197745","HierDym4o5w5x2","sub19","07","05","feedback","test","null","","","na","","85","",""
"1842","199588","HierDym4o5w5x2","sub19","07","05","rl","test","74","img/b_s_stripes.png","6","74","pattern,color,shape","86","1",""
"null","200597","HierDym4o5w5x2","sub19","07","05","feedback","test","null","","","na","","86","",""
"1622.4000000357628","202220","HierDym4o5w5x2","sub19","07","05","rl","test","68","img/o_c_dots.png","3","68","pattern,color,shape","87","1",""
"null","203229","HierDym4o5w5x2","sub19","07","05","feedback","test","null","","","na","","87","",""
"1677.5","204908","HierDym4o5w5x2","sub19","07","05","rl","test","74","img/b_c_stripes.png","5","72","pattern,color,shape","88","0",""
"null","205919","HierDym4o5w5x2","sub19","07","05","feedback","test","null","","","na","","88","",""
"394.80000001192093","206315","HierDym4o5w5x2","sub19","07","05","rl","test","72","img/b_c_stripes.png","5","72","pattern,color,shape","89","1",""
"null","207329","HierDym4o5w5x2","sub19","07","05","feedback","test","null","","","na","","89","",""
"672.3000000119209","208002","HierDym4o5w5x2","sub19","07","05","rl","test","76","img/o_s_stripes.png","8","76","pattern,color,shape","90","1",""
"null","209005","HierDym4o5w5x2","sub19","07","05","feedback","test","null","","","na","","90","",""
"792.5","209798","HierDym4o5w5x2","sub19","07","05","rl","test","74","img/b_s_stripes.png","6","74","pattern,color,shape","91","1",""
"null","210807","HierDym4o5w5x2","sub19","07","05","feedback","test","null","","","na","","91","",""
"755.5999999642372","211564","HierDym4o5w5x2","sub19","07","05","rl","test","76","img/o_s_stripes.png","8","76","pattern,color,shape","92","1",""
"null","212572","HierDym4o5w5x2","sub19","07","05","feedback","test","null","","","na","","92","",""
"null","215081","HierDym4o5w5x2","sub19","07","05","rl","test","null","img/b_s_dots.png","2","83","pattern,color,shape","93","0",""
"null","216088","HierDym4o5w5x2","sub19","07","05","feedback","test","null","","","na","","93","",""
"1116.0999999642372","217205","HierDym4o5w5x2","sub19","07","05","rl","test","75","img/o_c_stripes.png","7","75","pattern,color,shape","94","1",""
"null","218217","HierDym4o5w5x2","sub19","07","05","feedback","test","null","","","na","","94","",""
"2412.599999964237","220630","HierDym4o5w5x2","sub19","07","05","rl","test","72","img/b_c_stripes.png","5","72","pattern,color,shape","95","1",""
"null","221639","HierDym4o5w5x2","sub19","07","05","feedback","test","null","","","na","","95","",""
"890.4000000357628","222530","HierDym4o5w5x2","sub19","07","05","rl","test","76","img/o_s_stripes.png","8","76","pattern,color,shape","96","1",""
"null","223533","HierDym4o5w5x2","sub19","07","05","feedback","test","null","","","na","","96","",""
"1060.699999988079","224595","HierDym4o5w5x2","sub19","07","05","rl","test","70","img/o_s_dots.png","4","70","pattern,color,shape","97","1",""
"null","225605","HierDym4o5w5x2","sub19","07","05","feedback","test","null","","","na","","97","",""
"969.1000000238419","226575","HierDym4o5w5x2","sub19","07","05","rl","test","65","img/b_c_dots.png","1","65","pattern,color,shape","98","1",""
"null","227581","HierDym4o5w5x2","sub19","07","05","feedback","test","null","","","na","","98","",""
"514","228096","HierDym4o5w5x2","sub19","07","05","rl","test","65","img/b_c_dots.png","1","65","pattern,color,shape","99","1",""
"null","229104","HierDym4o5w5x2","sub19","07","05","feedback","test","null","","","na","","99","",""
"566.8000000119209","229672","HierDym4o5w5x2","sub19","07","05","rl","test","70","img/o_s_dots.png","4","70","pattern,color,shape","100","1",""
"null","230679","HierDym4o5w5x2","sub19","07","05","feedback","test","null","","","na","","100","",""
"1254.8999999761581","231935","HierDym4o5w5x2","sub19","07","05","rl","test","83","img/b_s_dots.png","2","83","pattern,color,shape","101","1",""
"null","232941","HierDym4o5w5x2","sub19","07","05","feedback","test","null","","","na","","101","",""
"948","233890","HierDym4o5w5x2","sub19","07","05","rl","test","68","img/o_c_dots.png","3","68","pattern,color,shape","102","1",""
"null","234896","HierDym4o5w5x2","sub19","07","05","feedback","test","null","","","na","","102","",""
"1618.699999988079","236515","HierDym4o5w5x2","sub19","07","05","rl","test","75","img/o_c_stripes.png","7","75","pattern,color,shape","103","1",""
"null","237526","HierDym4o5w5x2","sub19","07","05","feedback","test","null","","","na","","103","",""
"2268.899999976158","239796","HierDym4o5w5x2","sub19","07","05","rl","test","83","img/b_s_stripes.png","6","74","pattern,color,shape","104","0",""
"null","240805","HierDym4o5w5x2","sub19","07","05","feedback","test","null","","","na","","104","",""
"939.5","241746","HierDym4o5w5x2","sub19","07","05","rl","test","83","img/b_s_dots.png","2","83","pattern,color,shape","105","1",""
"null","242753","HierDym4o5w5x2","sub19","07","05","feedback","test","null","","","na","","105","",""
"820.9000000357628","243575","HierDym4o5w5x2","sub19","07","05","rl","test","65","img/b_c_dots.png","1","65","pattern,color,shape","106","1",""
"null","244585","HierDym4o5w5x2","sub19","07","05","feedback","test","null","","","na","","106","",""
"482.10000002384186","245068","HierDym4o5w5x2","sub19","07","05","rl","test","74","img/b_s_stripes.png","6","74","pattern,color,shape","107","1",""
"null","246078","HierDym4o5w5x2","sub19","07","05","feedback","test","null","","","na","","107","",""
"1026.9000000357628","247106","HierDym4o5w5x2","sub19","07","05","rl","test","75","img/o_c_stripes.png","7","75","pattern,color,shape","108","1",""
"null","248113","HierDym4o5w5x2","sub19","07","05","feedback","test","null","","","na","","108","",""
"745.8000000119209","248860","HierDym4o5w5x2","sub19","07","05","rl","test","72","img/b_c_stripes.png","5","72","pattern,color,shape","109","1",""
"null","249872","HierDym4o5w5x2","sub19","07","05","feedback","test","null","","","na","","109","",""
"1028.7000000476837","250902","HierDym4o5w5x2","sub19","07","05","rl","test","68","img/o_c_dots.png","3","68","pattern,color,shape","110","1",""
"null","251910","HierDym4o5w5x2","sub19","07","05","feedback","test","null","","","na","","110","",""
"1284.3999999761581","253197","HierDym4o5w5x2","sub19","07","05","rl","test","76","img/o_s_stripes.png","8","76","pattern,color,shape","111","1",""
"null","254207","HierDym4o5w5x2","sub19","07","05","feedback","test","null","","","na","","111","",""
"1793.5","256002","HierDym4o5w5x2","sub19","07","05","rl","test","83","img/b_s_dots.png","2","83","pattern,color,shape","112","1",""
"null","257009","HierDym4o5w5x2","sub19","07","05","feedback","test","null","","","na","","112","",""
"710.5","257720","HierDym4o5w5x2","sub19","07","05","rl","test","76","img/o_s_stripes.png","8","76","pattern,color,shape","113","1",""
"null","258724","HierDym4o5w5x2","sub19","07","05","feedback","test","null","","","na","","113","",""
"1157.699999988079","259883","HierDym4o5w5x2","sub19","07","05","rl","test","70","img/o_s_dots.png","4","70","pattern,color,shape","114","1",""
"null","260888","HierDym4o5w5x2","sub19","07","05","feedback","test","null","","","na","","114","",""
"526","261415","HierDym4o5w5x2","sub19","07","05","rl","test","70","img/o_s_dots.png","4","70","pattern,color,shape","115","1",""
"null","262425","HierDym4o5w5x2","sub19","07","05","feedback","test","null","","","na","","115","",""
"1648","264074","HierDym4o5w5x2","sub19","07","05","rl","test","65","img/b_c_dots.png","1","65","pattern,color,shape","116","1",""
"null","265081","HierDym4o5w5x2","sub19","07","05","feedback","test","null","","","na","","116","",""
"797.1000000238419","265879","HierDym4o5w5x2","sub19","07","05","rl","test","75","img/o_c_stripes.png","7","75","pattern,color,shape","117","1",""
"null","266886","HierDym4o5w5x2","sub19","07","05","feedback","test","null","","","na","","117","",""
"1984.199999988079","268871","HierDym4o5w5x2","sub19","07","05","rl","test","74","img/b_s_stripes.png","6","74","pattern,color,shape","118","1",""
"null","269878","HierDym4o5w5x2","sub19","07","05","feedback","test","null","","","na","","118","",""
"1081.6000000238419","270960","HierDym4o5w5x2","sub19","07","05","rl","test","76","img/o_s_stripes.png","8","76","pattern,color,shape","119","1",""
"null","271968","HierDym4o5w5x2","sub19","07","05","feedback","test","null","","","na","","119","",""
"1503.199999988079","273472","HierDym4o5w5x2","sub19","07","05","rl","test","72","img/b_c_stripes.png","5","72","pattern,color,shape","120","1",""
"null","274477","HierDym4o5w5x2","sub19","07","05","feedback","test","null","","","na","","120","",""
"2236.899999976158","276715","HierDym4o5w5x2","sub19","07","05","rl","test","68","img/o_c_stripes.png","7","75","pattern,color,shape","121","0",""
"null","277722","HierDym4o5w5x2","sub19","07","05","feedback","test","null","","","na","","121","",""
"1575.9000000357628","279298","HierDym4o5w5x2","sub19","07","05","rl","test","68","img/o_c_dots.png","3","68","pattern,color,shape","122","1",""
"null","280303","HierDym4o5w5x2","sub19","07","05","feedback","test","null","","","na","","122","",""
"591.6000000238419","280896","HierDym4o5w5x2","sub19","07","05","rl","test","68","img/o_c_dots.png","3","68","pattern,color,shape","123","1",""
"null","281905","HierDym4o5w5x2","sub19","07","05","feedback","test","null","","","na","","123","",""
"926.0999999642372","282832","HierDym4o5w5x2","sub19","07","05","rl","test","65","img/b_c_dots.png","1","65","pattern,color,shape","124","1",""
"null","283840","HierDym4o5w5x2","sub19","07","05","feedback","test","null","","","na","","124","",""
"1992.0999999642372","285833","HierDym4o5w5x2","sub19","07","05","rl","test","70","img/o_s_dots.png","4","70","pattern,color,shape","125","1",""
"null","286838","HierDym4o5w5x2","sub19","07","05","feedback","test","null","","","na","","125","",""
"1150.6000000238419","287990","HierDym4o5w5x2","sub19","07","05","rl","test","74","img/b_s_stripes.png","6","74","pattern,color,shape","126","1",""
"null","288997","HierDym4o5w5x2","sub19","07","05","feedback","test","null","","","na","","126","",""
"1715.2000000476837","290713","HierDym4o5w5x2","sub19","07","05","rl","test","83","img/b_s_dots.png","2","83","pattern,color,shape","127","1",""
"null","291721","HierDym4o5w5x2","sub19","07","05","feedback","test","null","","","na","","127","",""
"1281.800000011921","293004","HierDym4o5w5x2","sub19","07","05","rl","test","74","img/b_s_stripes.png","6","74","pattern,color,shape","128","1",""
"null","294013","HierDym4o5w5x2","sub19","07","05","feedback","test","null","","","na","","128","",""
"1066.5","295080","HierDym4o5w5x2","sub19","07","05","rl","test","72","img/b_c_stripes.png","5","72","pattern,color,shape","129","1",""
"null","296087","HierDym4o5w5x2","sub19","07","05","feedback","test","null","","","na","","129","",""
"2298","298388","HierDym4o5w5x2","sub19","07","05","rl","test","68","img/o_s_dots.png","4","70","pattern,color,shape","130","0",""
"null","299394","HierDym4o5w5x2","sub19","07","05","feedback","test","null","","","na","","130","",""
"814.6999999880791","300210","HierDym4o5w5x2","sub19","07","05","rl","test","65","img/b_c_dots.png","1","65","pattern,color,shape","131","1",""
"null","301216","HierDym4o5w5x2","sub19","07","05","feedback","test","null","","","na","","131","",""
"447.39999997615814","301664","HierDym4o5w5x2","sub19","07","05","rl","test","70","img/o_s_stripes.png","8","76","pattern,color,shape","132","0",""
"null","302672","HierDym4o5w5x2","sub19","07","05","feedback","test","null","","","na","","132","",""
"952.1000000238419","303625","HierDym4o5w5x2","sub19","07","05","rl","test","83","img/b_s_dots.png","2","83","pattern,color,shape","133","1",""
"null","304630","HierDym4o5w5x2","sub19","07","05","feedback","test","null","","","na","","133","",""
"701.1000000238419","305332","HierDym4o5w5x2","sub19","07","05","rl","test","72","img/b_c_stripes.png","5","72","pattern,color,shape","134","1",""
"null","306342","HierDym4o5w5x2","sub19","07","05","feedback","test","null","","","na","","134","",""
"830.4000000357628","307173","HierDym4o5w5x2","sub19","07","05","rl","test","76","img/o_s_stripes.png","8","76","pattern,color,shape","135","1",""
"null","308183","HierDym4o5w5x2","sub19","07","05","feedback","test","null","","","na","","135","",""
"1172.300000011921","309357","HierDym4o5w5x2","sub19","07","05","rl","test","75","img/o_c_stripes.png","7","75","pattern,color,shape","136","1",""
"null","310370","HierDym4o5w5x2","sub19","07","05","feedback","test","null","","","na","","136","",""
"1188.300000011921","311560","HierDym4o5w5x2","sub19","07","05","rl","test","68","img/o_c_dots.png","3","68","pattern,color,shape","137","1",""
"null","312566","HierDym4o5w5x2","sub19","07","05","feedback","test","null","","","na","","137","",""
"1613.300000011921","314180","HierDym4o5w5x2","sub19","07","05","rl","test","65","img/b_c_dots.png","1","65","pattern,color,shape","138","1",""
"null","315190","HierDym4o5w5x2","sub19","07","05","feedback","test","null","","","na","","138","",""
"1258.5999999642372","316450","HierDym4o5w5x2","sub19","07","05","rl","test","70","img/o_s_dots.png","4","70","pattern,color,shape","139","1",""
"null","317454","HierDym4o5w5x2","sub19","07","05","feedback","test","null","","","na","","139","",""
"1774.6000000238419","319230","HierDym4o5w5x2","sub19","07","05","rl","test","74","img/b_s_stripes.png","6","74","pattern,color,shape","140","1",""
"null","320239","HierDym4o5w5x2","sub19","07","05","feedback","test","null","","","na","","140","",""
"1353.800000011921","321593","HierDym4o5w5x2","sub19","07","05","rl","test","68","img/o_c_dots.png","3","68","pattern,color,shape","141","1",""
"null","322600","HierDym4o5w5x2","sub19","07","05","feedback","test","null","","","na","","141","",""
"822.5","323424","HierDym4o5w5x2","sub19","07","05","rl","test","75","img/o_c_stripes.png","7","75","pattern,color,shape","142","1",""
"null","324431","HierDym4o5w5x2","sub19","07","05","feedback","test","null","","","na","","142","",""
"1450.199999988079","325882","HierDym4o5w5x2","sub19","07","05","rl","test","83","img/b_s_dots.png","2","83","pattern,color,shape","143","1",""
"null","326890","HierDym4o5w5x2","sub19","07","05","feedback","test","null","","","na","","143","",""
"1662.5999999642372","328554","HierDym4o5w5x2","sub19","07","05","rl","test","75","img/o_c_stripes.png","7","75","pattern,color,shape","144","1",""
"null","329558","HierDym4o5w5x2","sub19","07","05","feedback","test","null","","","na","","144","",""
"609.5999999642372","330169","HierDym4o5w5x2","sub19","07","05","rl","test","72","img/b_c_stripes.png","5","72","pattern,color,shape","145","1",""
"null","331174","HierDym4o5w5x2","sub19","07","05","feedback","test","null","","","na","","145","",""
"698.5","331873","HierDym4o5w5x2","sub19","07","05","rl","test","72","img/b_c_stripes.png","5","72","pattern,color,shape","146","1",""
"null","332880","HierDym4o5w5x2","sub19","07","05","feedback","test","null","","","na","","146","",""
"813.3000000119209","333694","HierDym4o5w5x2","sub19","07","05","rl","test","65","img/b_c_dots.png","1","65","pattern,color,shape","147","1",""
"null","334704","HierDym4o5w5x2","sub19","07","05","feedback","test","null","","","na","","147","",""
"768.2999999523163","335473","HierDym4o5w5x2","sub19","07","05","rl","test","76","img/o_s_stripes.png","8","76","pattern,color,shape","148","1",""
"null","336481","HierDym4o5w5x2","sub19","07","05","feedback","test","null","","","na","","148","",""
"1525.9000000357628","338008","HierDym4o5w5x2","sub19","07","05","rl","test","68","img/o_c_dots.png","3","68","pattern,color,shape","149","1",""
"null","339016","HierDym4o5w5x2","sub19","07","05","feedback","test","null","","","na","","149","",""
"1728","340744","HierDym4o5w5x2","sub19","07","05","rl","test","83","img/b_s_dots.png","2","83","pattern,color,shape","150","1",""
"null","341755","HierDym4o5w5x2","sub19","07","05","feedback","test","null","","","na","","150","",""
"1370.8999999761581","343126","HierDym4o5w5x2","sub19","07","05","rl","test","76","img/o_s_stripes.png","8","76","pattern,color,shape","151","1",""
"null","344134","HierDym4o5w5x2","sub19","07","05","feedback","test","null","","","na","","151","",""
"1558.199999988079","345693","HierDym4o5w5x2","sub19","07","05","rl","test","70","img/o_s_dots.png","4","70","pattern,color,shape","152","1",""
"null","346706","HierDym4o5w5x2","sub19","07","05","feedback","test","null","","","na","","152","",""
"521.5","347228","HierDym4o5w5x2","sub19","07","05","rl","test","70","img/o_s_dots.png","4","70","pattern,color,shape","153","1",""
"null","348231","HierDym4o5w5x2","sub19","07","05","feedback","test","null","","","na","","153","",""
"921.1999999880791","349153","HierDym4o5w5x2","sub19","07","05","rl","test","74","img/b_s_stripes.png","6","74","pattern,color,shape","154","1",""
"null","350159","HierDym4o5w5x2","sub19","07","05","feedback","test","null","","","na","","154","",""
"1689.6000000238419","351850","HierDym4o5w5x2","sub19","07","05","rl","test","75","img/o_c_stripes.png","7","75","pattern,color,shape","155","1",""
"null","352859","HierDym4o5w5x2","sub19","07","05","feedback","test","null","","","na","","155","",""
"1346.300000011921","354206","HierDym4o5w5x2","sub19","07","05","rl","test","83","img/b_s_dots.png","2","83","pattern,color,shape","156","1",""
"null","355215","HierDym4o5w5x2","sub19","07","05","feedback","test","null","","","na","","156","",""
"703.5999999642372","355919","HierDym4o5w5x2","sub19","07","05","rl","test","65","img/b_c_dots.png","1","65","pattern,color,shape","157","1",""
"null","356930","HierDym4o5w5x2","sub19","07","05","feedback","test","null","","","na","","157","",""
"null","359439","HierDym4o5w5x2","sub19","07","05","rl","test","null","img/b_s_stripes.png","6","74","pattern,color,shape","158","0",""
"null","360449","HierDym4o5w5x2","sub19","07","05","feedback","test","null","","","na","","158","",""
"1257","361707","HierDym4o5w5x2","sub19","07","05","rl","test","65","img/b_c_dots.png","1","65","pattern,color,shape","159","1",""
"null","362712","HierDym4o5w5x2","sub19","07","05","feedback","test","null","","","na","","159","",""
"null","365215","HierDym4o5w5x2","sub19","07","05","rl","test","null","img/o_c_dots.png","3","68","pattern,color,shape","160","0",""
"null","366225","HierDym4o5w5x2","sub19","07","05","feedback","test","null","","","na","","160","",""
"1152.5","367378","HierDym4o5w5x2","sub19","07","05","rl","test","72","img/b_c_stripes.png","5","72","pattern,color,shape","161","1",""
"null","368383","HierDym4o5w5x2","sub19","07","05","feedback","test","null","","","na","","161","",""
"1524.1000000238419","369908","HierDym4o5w5x2","sub19","07","05","rl","test","83","img/b_s_dots.png","2","83","pattern,color,shape","162","1",""
"null","370912","HierDym4o5w5x2","sub19","07","05","feedback","test","null","","","na","","162","",""
"1277","372190","HierDym4o5w5x2","sub19","07","05","rl","test","68","img/o_c_dots.png","3","68","pattern,color,shape","163","1",""
"null","373200","HierDym4o5w5x2","sub19","07","05","feedback","test","null","","","na","","163","",""
"1419.1000000238419","374620","HierDym4o5w5x2","sub19","07","05","rl","test","72","img/b_c_stripes.png","5","72","pattern,color,shape","164","1",""
"null","375623","HierDym4o5w5x2","sub19","07","05","feedback","test","null","","","na","","164","",""
"1008.1999999880791","376632","HierDym4o5w5x2","sub19","07","05","rl","test","70","img/o_s_dots.png","4","70","pattern,color,shape","165","1",""
"null","377638","HierDym4o5w5x2","sub19","07","05","feedback","test","null","","","na","","165","",""
"909.8999999761581","378549","HierDym4o5w5x2","sub19","07","05","rl","test","76","img/o_s_stripes.png","8","76","pattern,color,shape","166","1",""
"null","379563","HierDym4o5w5x2","sub19","07","05","feedback","test","null","","","na","","166","",""
"964","380527","HierDym4o5w5x2","sub19","07","05","rl","test","75","img/o_c_stripes.png","7","75","pattern,color,shape","167","1",""
"null","381537","HierDym4o5w5x2","sub19","07","05","feedback","test","null","","","na","","167","",""
"1444.5","382982","HierDym4o5w5x2","sub19","07","05","rl","test","74","img/b_s_stripes.png","6","74","pattern,color,shape","168","1",""
"null","383995","HierDym4o5w5x2","sub19","07","05","feedback","test","null","","","na","","168","",""
"636.8000000119209","384633","HierDym4o5w5x2","sub19","07","05","rl","test","72","img/b_c_stripes.png","5","72","pattern,color,shape","169","1",""
"null","385641","HierDym4o5w5x2","sub19","07","05","feedback","test","null","","","na","","169","",""
"1619.1000000238419","387261","HierDym4o5w5x2","sub19","07","05","rl","test","70","img/o_s_dots.png","4","70","pattern,color,shape","170","1",""
"null","388275","HierDym4o5w5x2","sub19","07","05","feedback","test","null","","","na","","170","",""
"1169.6000000238419","389445","HierDym4o5w5x2","sub19","07","05","rl","test","75","img/o_c_stripes.png","7","75","pattern,color,shape","171","1",""
"null","390451","HierDym4o5w5x2","sub19","07","05","feedback","test","null","","","na","","171","",""
"912.0999999642372","391364","HierDym4o5w5x2","sub19","07","05","rl","test","75","img/o_c_dots.png","3","68","pattern,color,shape","172","0",""
"null","392372","HierDym4o5w5x2","sub19","07","05","feedback","test","null","","","na","","172","",""
"1144.4000000357628","393517","HierDym4o5w5x2","sub19","07","05","rl","test","75","img/o_c_stripes.png","7","75","pattern,color,shape","173","1",""
"null","394519","HierDym4o5w5x2","sub19","07","05","feedback","test","null","","","na","","173","",""
"719.5999999642372","395239","HierDym4o5w5x2","sub19","07","05","rl","test","65","img/b_c_dots.png","1","65","pattern,color,shape","174","1",""
"null","396248","HierDym4o5w5x2","sub19","07","05","feedback","test","null","","","na","","174","",""
"939","397188","HierDym4o5w5x2","sub19","07","05","rl","test","83","img/b_s_dots.png","2","83","pattern,color,shape","175","1",""
"null","398195","HierDym4o5w5x2","sub19","07","05","feedback","test","null","","","na","","175","",""
"587.0999999642372","398783","HierDym4o5w5x2","sub19","07","05","rl","test","83","img/b_s_stripes.png","6","74","pattern,color,shape","176","0",""
"null","399793","HierDym4o5w5x2","sub19","07","05","feedback","test","null","","","na","","176","",""
"980","400773","HierDym4o5w5x2","sub19","07","05","rl","test","70","img/o_s_dots.png","4","70","pattern,color,shape","177","1",""
"null","401774","HierDym4o5w5x2","sub19","07","05","feedback","test","null","","","na","","177","",""
"615.8000000119209","402391","HierDym4o5w5x2","sub19","07","05","rl","test","70","img/o_s_stripes.png","8","76","pattern,color,shape","178","0",""
"null","403396","HierDym4o5w5x2","sub19","07","05","feedback","test","null","","","na","","178","",""
"664.3000000119209","404061","HierDym4o5w5x2","sub19","07","05","rl","test","70","img/o_s_stripes.png","8","76","pattern,color,shape","179","0",""
"null","405063","HierDym4o5w5x2","sub19","07","05","feedback","test","null","","","na","","179","",""
"775","405839","HierDym4o5w5x2","sub19","07","05","rl","test","72","img/b_c_stripes.png","5","72","pattern,color,shape","180","1",""
"null","406847","HierDym4o5w5x2","sub19","07","05","feedback","test","null","","","na","","180","",""
"1355.6000000238419","408203","HierDym4o5w5x2","sub19","07","05","rl","test","68","img/o_c_dots.png","3","68","pattern,color,shape","181","1",""
"null","409211","HierDym4o5w5x2","sub19","07","05","feedback","test","null","","","na","","181","",""
"1288.699999988079","410501","HierDym4o5w5x2","sub19","07","05","rl","test","65","img/b_c_dots.png","1","65","pattern,color,shape","182","1",""
"null","411506","HierDym4o5w5x2","sub19","07","05","feedback","test","null","","","na","","182","",""
"1710.5","413217","HierDym4o5w5x2","sub19","07","05","rl","test","75","img/b_s_stripes.png","6","74","pattern,color,shape","183","0",""
"null","414226","HierDym4o5w5x2","sub19","07","05","feedback","test","null","","","na","","183","",""
"1943.3999999761581","416170","HierDym4o5w5x2","sub19","07","05","rl","test","83","img/b_s_dots.png","2","83","pattern,color,shape","184","1",""
"null","417175","HierDym4o5w5x2","sub19","07","05","feedback","test","null","","","na","","184","",""
"1023","418199","HierDym4o5w5x2","sub19","07","05","rl","test","74","img/b_s_stripes.png","6","74","pattern,color,shape","185","1",""
"null","419210","HierDym4o5w5x2","sub19","07","05","feedback","test","null","","","na","","185","",""
"1458","420668","HierDym4o5w5x2","sub19","07","05","rl","test","68","img/o_c_dots.png","3","68","pattern,color,shape","186","1",""
"null","421674","HierDym4o5w5x2","sub19","07","05","feedback","test","null","","","na","","186","",""
"1068.199999988079","422743","HierDym4o5w5x2","sub19","07","05","rl","test","75","img/o_c_stripes.png","7","75","pattern,color,shape","187","1",""
"null","423756","HierDym4o5w5x2","sub19","07","05","feedback","test","null","","","na","","187","",""
"1090.800000011921","424848","HierDym4o5w5x2","sub19","07","05","rl","test","83","img/b_s_dots.png","2","83","pattern,color,shape","188","1",""
"null","425857","HierDym4o5w5x2","sub19","07","05","feedback","test","null","","","na","","188","",""
"818.5","426677","HierDym4o5w5x2","sub19","07","05","rl","test","76","img/o_s_stripes.png","8","76","pattern,color,shape","189","1",""
"null","427683","HierDym4o5w5x2","sub19","07","05","feedback","test","null","","","na","","189","",""
"759.8000000119209","428444","HierDym4o5w5x2","sub19","07","05","rl","test","70","img/o_s_dots.png","4","70","pattern,color,shape","190","1",""
"null","429451","HierDym4o5w5x2","sub19","07","05","feedback","test","null","","","na","","190","",""
"715.5","430167","HierDym4o5w5x2","sub19","07","05","rl","test","72","img/b_c_stripes.png","5","72","pattern,color,shape","191","1",""
"null","431175","HierDym4o5w5x2","sub19","07","05","feedback","test","null","","","na","","191","",""
"553.7000000476837","431730","HierDym4o5w5x2","sub19","07","05","rl","test","72","img/b_c_stripes.png","5","72","pattern,color,shape","192","1",""
"null","432735","HierDym4o5w5x2","sub19","07","05","feedback","test","null","","","na","","192","",""
"942.5999999642372","433679","HierDym4o5w5x2","sub19","07","05","rl","test","70","img/o_s_dots.png","4","70","pattern,color,shape","193","1",""
"null","434688","HierDym4o5w5x2","sub19","07","05","feedback","test","null","","","na","","193","",""
"1042.7999999523163","435732","HierDym4o5w5x2","sub19","07","05","rl","test","65","img/b_c_dots.png","1","65","pattern,color,shape","194","1",""
"null","436740","HierDym4o5w5x2","sub19","07","05","feedback","test","null","","","na","","194","",""
"794.1000000238419","437535","HierDym4o5w5x2","sub19","07","05","rl","test","76","img/o_s_stripes.png","8","76","pattern,color,shape","195","1",""
"null","438547","HierDym4o5w5x2","sub19","07","05","feedback","test","null","","","na","","195","",""
"1699","440247","HierDym4o5w5x2","sub19","07","05","rl","test","68","img/o_c_dots.png","3","68","pattern,color,shape","196","1",""
"null","441258","HierDym4o5w5x2","sub19","07","05","feedback","test","null","","","na","","196","",""
"812.6999999880791","442072","HierDym4o5w5x2","sub19","07","05","rl","test","72","img/b_c_dots.png","1","65","pattern,color,shape","197","0",""
"null","443080","HierDym4o5w5x2","sub19","07","05","feedback","test","null","","","na","","197","",""
"1092.4000000357628","444173","HierDym4o5w5x2","sub19","07","05","rl","test","74","img/b_s_stripes.png","6","74","pattern,color,shape","198","1",""
"null","445178","HierDym4o5w5x2","sub19","07","05","feedback","test","null","","","na","","198","",""
"1261.699999988079","446441","HierDym4o5w5x2","sub19","07","05","rl","test","83","img/b_s_dots.png","2","83","pattern,color,shape","199","1",""
"null","447450","HierDym4o5w5x2","sub19","07","05","feedback","test","null","","","na","","199","",""
"814.6999999880791","448266","HierDym4o5w5x2","sub19","07","05","rl","test","83","img/b_s_dots.png","2","83","pattern,color,shape","200","1",""
"null","449273","HierDym4o5w5x2","sub19","07","05","feedback","test","null","","","na","","200","",""
"1373.7999999523163","450648","HierDym4o5w5x2","sub19","07","05","rl","test","75","img/o_c_stripes.png","7","75","pattern,color,shape","201","1",""
"null","451655","HierDym4o5w5x2","sub19","07","05","feedback","test","null","","","na","","201","",""
"763.6999999880791","452420","HierDym4o5w5x2","sub19","07","05","rl","test","76","img/o_s_stripes.png","8","76","pattern,color,shape","202","1",""
"null","453427","HierDym4o5w5x2","sub19","07","05","feedback","test","null","","","na","","202","",""
"860.1000000238419","454288","HierDym4o5w5x2","sub19","07","05","rl","test","74","img/o_c_stripes.png","7","75","pattern,color,shape","203","0",""
"null","455297","HierDym4o5w5x2","sub19","07","05","feedback","test","null","","","na","","203","",""
"987.8999999761581","456286","HierDym4o5w5x2","sub19","07","05","rl","test","83","img/o_c_dots.png","3","68","pattern,color,shape","204","0",""
"null","457291","HierDym4o5w5x2","sub19","07","05","feedback","test","null","","","na","","204","",""
"null","459803","HierDym4o5w5x2","sub19","07","05","rl","test","null","img/b_s_stripes.png","6","74","pattern,color,shape","205","0",""
"null","460809","HierDym4o5w5x2","sub19","07","05","feedback","test","null","","","na","","205","",""
"1141.2999999523163","461952","HierDym4o5w5x2","sub19","07","05","rl","test","72","img/b_c_stripes.png","5","72","pattern,color,shape","206","1",""
"null","462965","HierDym4o5w5x2","sub19","07","05","feedback","test","null","","","na","","206","",""
"1479.5","464445","HierDym4o5w5x2","sub19","07","05","rl","test","75","img/o_c_stripes.png","7","75","pattern,color,shape","207","1",""
"null","465451","HierDym4o5w5x2","sub19","07","05","feedback","test","null","","","na","","207","",""
"1848.699999988079","467301","HierDym4o5w5x2","sub19","07","05","rl","test","70","img/o_s_dots.png","4","70","pattern,color,shape","208","1",""
"null","468307","HierDym4o5w5x2","sub19","07","05","feedback","test","null","","","na","","208","",""
"674.8000000119209","468983","HierDym4o5w5x2","sub19","07","05","rl","test","70","img/o_s_dots.png","4","70","pattern,color,shape","209","1",""
"null","469992","HierDym4o5w5x2","sub19","07","05","feedback","test","null","","","na","","209","",""
"729.5999999642372","470723","HierDym4o5w5x2","sub19","07","05","rl","test","72","img/b_c_dots.png","1","65","pattern,color,shape","210","0",""
"null","471731","HierDym4o5w5x2","sub19","07","05","feedback","test","null","","","na","","210","",""
"655.8999999761581","472388","HierDym4o5w5x2","sub19","07","05","rl","test","72","img/b_c_stripes.png","5","72","pattern,color,shape","211","1",""
"null","473394","HierDym4o5w5x2","sub19","07","05","feedback","test","null","","","na","","211","",""
"860.5","474255","HierDym4o5w5x2","sub19","07","05","rl","test","83","img/b_s_dots.png","2","83","pattern,color,shape","212","1",""
"null","475265","HierDym4o5w5x2","sub19","07","05","feedback","test","null","","","na","","212","",""
"803.8999999761581","476070","HierDym4o5w5x2","sub19","07","05","rl","test","83","img/b_s_stripes.png","6","74","pattern,color,shape","213","0",""
"null","477072","HierDym4o5w5x2","sub19","07","05","feedback","test","null","","","na","","213","",""
"1385.5","478459","HierDym4o5w5x2","sub19","07","05","rl","test","65","img/b_c_dots.png","1","65","pattern,color,shape","214","1",""
"null","479465","HierDym4o5w5x2","sub19","07","05","feedback","test","null","","","na","","214","",""
"1874.6000000238419","481341","HierDym4o5w5x2","sub19","07","05","rl","test","70","img/o_s_dots.png","4","70","pattern,color,shape","215","1",""
"null","482346","HierDym4o5w5x2","sub19","07","05","feedback","test","null","","","na","","215","",""
"915.3000000119209","483262","HierDym4o5w5x2","sub19","07","05","rl","test","76","img/o_s_stripes.png","8","76","pattern,color,shape","216","1",""
"null","484265","HierDym4o5w5x2","sub19","07","05","feedback","test","null","","","na","","216","",""
"1531.9000000357628","485798","HierDym4o5w5x2","sub19","07","05","rl","test","68","img/o_c_dots.png","3","68","pattern,color,shape","217","1",""
"null","486800","HierDym4o5w5x2","sub19","07","05","feedback","test","null","","","na","","217","",""
"809.3000000119209","487610","HierDym4o5w5x2","sub19","07","05","rl","test","76","img/o_s_stripes.png","8","76","pattern,color,shape","218","1",""
"null","488616","HierDym4o5w5x2","sub19","07","05","feedback","test","null","","","na","","218","",""
"1912.8999999761581","490530","HierDym4o5w5x2","sub19","07","05","rl","test","65","img/b_c_dots.png","1","65","pattern,color,shape","219","1",""
"null","491538","HierDym4o5w5x2","sub19","07","05","feedback","test","null","","","na","","219","",""
"1028.5999999642372","492567","HierDym4o5w5x2","sub19","07","05","rl","test","72","img/b_c_stripes.png","5","72","pattern,color,shape","220","1",""
"null","493576","HierDym4o5w5x2","sub19","07","05","feedback","test","null","","","na","","220","",""
"2125.600000023842","495702","HierDym4o5w5x2","sub19","07","05","rl","test","68","img/o_c_dots.png","3","68","pattern,color,shape","221","1",""
"null","496706","HierDym4o5w5x2","sub19","07","05","feedback","test","null","","","na","","221","",""
"774.5999999642372","497481","HierDym4o5w5x2","sub19","07","05","rl","test","75","img/o_c_stripes.png","7","75","pattern,color,shape","222","1",""
"null","498492","HierDym4o5w5x2","sub19","07","05","feedback","test","null","","","na","","222","",""
"1436.8999999761581","499929","HierDym4o5w5x2","sub19","07","05","rl","test","74","img/b_s_stripes.png","6","74","pattern,color,shape","223","1",""
"null","500938","HierDym4o5w5x2","sub19","07","05","feedback","test","null","","","na","","223","",""
"908.5","501848","HierDym4o5w5x2","sub19","07","05","rl","test","68","img/o_c_dots.png","3","68","pattern,color,shape","224","1",""
"null","502856","HierDym4o5w5x2","sub19","07","05","feedback","test","null","","","na","","224","",""
"776","503633","HierDym4o5w5x2","sub19","07","05","rl","test","65","img/b_c_dots.png","1","65","pattern,color,shape","225","1",""
"null","504641","HierDym4o5w5x2","sub19","07","05","feedback","test","null","","","na","","225","",""
"725.3999999761581","505367","HierDym4o5w5x2","sub19","07","05","rl","test","83","img/b_s_dots.png","2","83","pattern,color,shape","226","1",""
"null","506376","HierDym4o5w5x2","sub19","07","05","feedback","test","null","","","na","","226","",""
"2496.7999999523163","508874","HierDym4o5w5x2","sub19","07","05","rl","test","74","img/o_s_dots.png","4","70","pattern,color,shape","227","0",""
"null","509881","HierDym4o5w5x2","sub19","07","05","feedback","test","null","","","na","","227","",""
"899.5","510782","HierDym4o5w5x2","sub19","07","05","rl","test","72","img/b_c_stripes.png","5","72","pattern,color,shape","228","1",""
"null","511788","HierDym4o5w5x2","sub19","07","05","feedback","test","null","","","na","","228","",""
"2033.699999988079","513823","HierDym4o5w5x2","sub19","07","05","rl","test","75","img/o_c_stripes.png","7","75","pattern,color,shape","229","1",""
"null","514825","HierDym4o5w5x2","sub19","07","05","feedback","test","null","","","na","","229","",""
"786.0999999642372","515612","HierDym4o5w5x2","sub19","07","05","rl","test","72","img/b_c_stripes.png","5","72","pattern,color,shape","230","1",""
"null","516618","HierDym4o5w5x2","sub19","07","05","feedback","test","null","","","na","","230","",""
"1755.5","518374","HierDym4o5w5x2","sub19","07","05","rl","test","68","img/b_s_dots.png","2","83","pattern,color,shape","231","0",""
"null","519376","HierDym4o5w5x2","sub19","07","05","feedback","test","null","","","na","","231","",""
"652.3999999761581","520030","HierDym4o5w5x2","sub19","07","05","rl","test","83","img/b_s_stripes.png","6","74","pattern,color,shape","232","0",""
"null","521034","HierDym4o5w5x2","sub19","07","05","feedback","test","null","","","na","","232","",""
"870.5999999642372","521906","HierDym4o5w5x2","sub19","07","05","rl","test","76","img/o_s_stripes.png","8","76","pattern,color,shape","233","1",""
"null","522914","HierDym4o5w5x2","sub19","07","05","feedback","test","null","","","na","","233","",""
"643.4000000357628","523559","HierDym4o5w5x2","sub19","07","05","rl","test","76","img/o_s_stripes.png","8","76","pattern,color,shape","234","1",""
"null","524562","HierDym4o5w5x2","sub19","07","05","feedback","test","null","","","na","","234","",""
"1657.300000011921","526221","HierDym4o5w5x2","sub19","07","05","rl","test","75","img/o_c_stripes.png","7","75","pattern,color,shape","235","1",""
"null","527228","HierDym4o5w5x2","sub19","07","05","feedback","test","null","","","na","","235","",""
"947","528176","HierDym4o5w5x2","sub19","07","05","rl","test","72","img/b_c_dots.png","1","65","pattern,color,shape","236","0",""
"null","529187","HierDym4o5w5x2","sub19","07","05","feedback","test","null","","","na","","236","",""
"1130.0999999642372","530318","HierDym4o5w5x2","sub19","07","05","rl","test","70","img/o_s_dots.png","4","70","pattern,color,shape","237","1",""
"null","531324","HierDym4o5w5x2","sub19","07","05","feedback","test","null","","","na","","237","",""
"1347.5999999642372","532672","HierDym4o5w5x2","sub19","07","05","rl","test","75","img/o_c_stripes.png","7","75","pattern,color,shape","238","1",""
"null","533682","HierDym4o5w5x2","sub19","07","05","feedback","test","null","","","na","","238","",""
"992.3000000119209","534676","HierDym4o5w5x2","sub19","07","05","rl","test","68","img/o_c_dots.png","3","68","pattern,color,shape","239","1",""
"null","535684","HierDym4o5w5x2","sub19","07","05","feedback","test","null","","","na","","239","",""
"2380.399999976158","538066","HierDym4o5w5x2","sub19","07","05","rl","test","72","img/b_s_stripes.png","6","74","pattern,color,shape","240","0",""
"null","539074","HierDym4o5w5x2","sub19","07","05","feedback","test","null","","","na","","240","",""
"1789.1000000238419","540864","HierDym4o5w5x2","sub19","07","05","rl","test","75","img/b_s_dots.png","2","83","pattern,color,shape","241","0",""
"null","541873","HierDym4o5w5x2","sub19","07","05","feedback","test","null","","","na","","241","",""
"1769.300000011921","543643","HierDym4o5w5x2","sub19","07","05","rl","test","68","img/o_c_dots.png","3","68","pattern,color,shape","242","1",""
"null","544652","HierDym4o5w5x2","sub19","07","05","feedback","test","null","","","na","","242","",""
"1980","546632","HierDym4o5w5x2","sub19","07","05","rl","test","65","img/b_c_dots.png","1","65","pattern,color,shape","243","1",""
"null","547634","HierDym4o5w5x2","sub19","07","05","feedback","test","null","","","na","","243","",""
"1625","549260","HierDym4o5w5x2","sub19","07","05","rl","test","68","img/b_s_stripes.png","6","74","pattern,color,shape","244","0",""
"null","550267","HierDym4o5w5x2","sub19","07","05","feedback","test","null","","","na","","244","",""
"1868.5","552137","HierDym4o5w5x2","sub19","07","05","rl","test","72","img/b_c_stripes.png","5","72","pattern,color,shape","245","1",""
"null","553145","HierDym4o5w5x2","sub19","07","05","feedback","test","null","","","na","","245","",""
"1268.699999988079","554415","HierDym4o5w5x2","sub19","07","05","rl","test","83","img/b_s_dots.png","2","83","pattern,color,shape","246","1",""
"null","555421","HierDym4o5w5x2","sub19","07","05","feedback","test","null","","","na","","246","",""
"1275.699999988079","556698","HierDym4o5w5x2","sub19","07","05","rl","test","76","img/o_s_stripes.png","8","76","pattern,color,shape","247","1",""
"null","557710","HierDym4o5w5x2","sub19","07","05","feedback","test","null","","","na","","247","",""
"2067.699999988079","559779","HierDym4o5w5x2","sub19","07","05","rl","test","70","img/o_s_dots.png","4","70","pattern,color,shape","248","1",""
"null","560788","HierDym4o5w5x2","sub19","07","05","feedback","test","null","","","na","","248","",""
"3925.7000000476837","564731","HierDym4o5w5x2","sub19","07","05","","","","","","","","","","{""Q0"":""6.5""}"
"3289","568023","HierDym4o5w5x2","sub19","07","05","","","","","","","","","","{""Q0"":""grouping stripes to my right hand and dots to my left hand""}"
"5500.899999976158","573524","HierDym4o5w5x2","sub19","07","05","","","","","","","","","",""
