"rt","time_elapsed","subject","subID","group","day","trialType","phase","key_press","stim","stimNum","corrresp","hierarchy","trialNum","corr","responses"
"36142.19999998808","36135","HierDynoepe3xo","sub11","11","03","","","","","","","","","",""
"","40356","HierDynoepe3xo","sub11","11","03","fullscreen","","","","","","","","",""
"28033.70000001788","68390","HierDynoepe3xo","sub11","11","03","","prac","","","","","","","",""
"15721.600000023842","84113","HierDynoepe3xo","sub11","11","03","","","32","","","","","","",""
"3348.4000000059605","87462","HierDynoepe3xo","sub11","11","03","","prac","","","","","","","",""
"1435.2999999821186","88899","HierDynoepe3xo","sub11","11","03","rl","test","83","img/o_c_diag.png","2","83","shape,color,pattern","1","1",""
"null","89905","HierDynoepe3xo","sub11","11","03","feedback","test","null","","","na","","1","",""
"713.3000000119209","90619","HierDynoepe3xo","sub11","11","03","rl","test","75","img/p_s_dots.png","7","75","shape,color,pattern","2","1",""
"null","91619","HierDynoepe3xo","sub11","11","03","feedback","test","null","","","na","","2","",""
"1120.300000011921","92740","HierDynoepe3xo","sub11","11","03","rl","test","74","img/o_s_diag.png","6","74","shape,color,pattern","3","1",""
"null","93745","HierDynoepe3xo","sub11","11","03","feedback","test","null","","","na","","3","",""
"761.9000000059605","94508","HierDynoepe3xo","sub11","11","03","rl","test","68","img/p_c_dots.png","3","68","shape,color,pattern","4","1",""
"null","95511","HierDynoepe3xo","sub11","11","03","feedback","test","null","","","na","","4","",""
"920.5999999940395","96432","HierDynoepe3xo","sub11","11","03","rl","test","65","img/o_c_dots.png","1","65","shape,color,pattern","5","1",""
"null","97438","HierDynoepe3xo","sub11","11","03","feedback","test","null","","","na","","5","",""
"800.0999999940395","98238","HierDynoepe3xo","sub11","11","03","rl","test","70","img/p_c_diag.png","4","70","shape,color,pattern","6","1",""
"null","99244","HierDynoepe3xo","sub11","11","03","feedback","test","null","","","na","","6","",""
"1469.199999988079","100714","HierDynoepe3xo","sub11","11","03","rl","test","74","img/o_s_diag.png","6","74","shape,color,pattern","7","1",""
"null","101719","HierDynoepe3xo","sub11","11","03","feedback","test","null","","","na","","7","",""
"989.7999999821186","102710","HierDynoepe3xo","sub11","11","03","rl","test","76","img/p_s_diag.png","8","76","shape,color,pattern","8","1",""
"null","103712","HierDynoepe3xo","sub11","11","03","feedback","test","null","","","na","","8","",""
"2019.9000000059605","105732","HierDynoepe3xo","sub11","11","03","rl","test","74","img/o_s_dots.png","5","72","shape,color,pattern","9","0",""
"null","106738","HierDynoepe3xo","sub11","11","03","feedback","test","null","","","na","","9","",""
"1098.699999988079","107837","HierDynoepe3xo","sub11","11","03","rl","test","68","img/p_c_dots.png","3","68","shape,color,pattern","10","1",""
"null","108840","HierDynoepe3xo","sub11","11","03","feedback","test","null","","","na","","10","",""
"1614","110455","HierDynoepe3xo","sub11","11","03","rl","test","72","img/o_s_dots.png","5","72","shape,color,pattern","11","1",""
"null","111460","HierDynoepe3xo","sub11","11","03","feedback","test","null","","","na","","11","",""
"1625.800000011921","113086","HierDynoepe3xo","sub11","11","03","rl","test","83","img/o_c_diag.png","2","83","shape,color,pattern","12","1",""
"null","114092","HierDynoepe3xo","sub11","11","03","feedback","test","null","","","na","","12","",""
"843.5","114936","HierDynoepe3xo","sub11","11","03","rl","test","68","img/p_c_dots.png","3","68","shape,color,pattern","13","1",""
"null","115941","HierDynoepe3xo","sub11","11","03","feedback","test","null","","","na","","13","",""
"561.9000000059605","116504","HierDynoepe3xo","sub11","11","03","rl","test","65","img/o_c_dots.png","1","65","shape,color,pattern","14","1",""
"null","117510","HierDynoepe3xo","sub11","11","03","feedback","test","null","","","na","","14","",""
"1810.5","119321","HierDynoepe3xo","sub11","11","03","rl","test","75","img/p_s_dots.png","7","75","shape,color,pattern","15","1",""
"null","120323","HierDynoepe3xo","sub11","11","03","feedback","test","null","","","na","","15","",""
"597.5999999940395","120921","HierDynoepe3xo","sub11","11","03","rl","test","76","img/p_s_diag.png","8","76","shape,color,pattern","16","1",""
"null","121923","HierDynoepe3xo","sub11","11","03","feedback","test","null","","","na","","16","",""
"1311.5","123235","HierDynoepe3xo","sub11","11","03","rl","test","70","img/p_c_diag.png","4","70","shape,color,pattern","17","1",""
"null","124236","HierDynoepe3xo","sub11","11","03","feedback","test","null","","","na","","17","",""
"640.0999999940395","124876","HierDynoepe3xo","sub11","11","03","rl","test","70","img/p_c_diag.png","4","70","shape,color,pattern","18","1",""
"null","125878","HierDynoepe3xo","sub11","11","03","feedback","test","null","","","na","","18","",""
"1025.5999999940395","126905","HierDynoepe3xo","sub11","11","03","rl","test","83","img/o_c_diag.png","2","83","shape,color,pattern","19","1",""
"null","127910","HierDynoepe3xo","sub11","11","03","feedback","test","null","","","na","","19","",""
"837.7999999821186","128749","HierDynoepe3xo","sub11","11","03","rl","test","76","img/p_s_diag.png","8","76","shape,color,pattern","20","1",""
"null","129751","HierDynoepe3xo","sub11","11","03","feedback","test","null","","","na","","20","",""
"1349.0999999940395","131100","HierDynoepe3xo","sub11","11","03","rl","test","74","img/o_s_diag.png","6","74","shape,color,pattern","21","1",""
"null","132103","HierDynoepe3xo","sub11","11","03","feedback","test","null","","","na","","21","",""
"1162.9000000059605","133266","HierDynoepe3xo","sub11","11","03","rl","test","65","img/o_c_dots.png","1","65","shape,color,pattern","22","1",""
"null","134272","HierDynoepe3xo","sub11","11","03","feedback","test","null","","","na","","22","",""
"1178.800000011921","135451","HierDynoepe3xo","sub11","11","03","rl","test","72","img/o_s_dots.png","5","72","shape,color,pattern","23","1",""
"null","136457","HierDynoepe3xo","sub11","11","03","feedback","test","null","","","na","","23","",""
"794.1999999880791","137251","HierDynoepe3xo","sub11","11","03","rl","test","75","img/p_s_dots.png","7","75","shape,color,pattern","24","1",""
"null","138257","HierDynoepe3xo","sub11","11","03","feedback","test","null","","","na","","24","",""
"1658","139916","HierDynoepe3xo","sub11","11","03","rl","test","72","img/o_s_dots.png","5","72","shape,color,pattern","25","1",""
"null","140921","HierDynoepe3xo","sub11","11","03","feedback","test","null","","","na","","25","",""
"1132.699999988079","142054","HierDynoepe3xo","sub11","11","03","rl","test","74","img/o_s_diag.png","6","74","shape,color,pattern","26","1",""
"null","143058","HierDynoepe3xo","sub11","11","03","feedback","test","null","","","na","","26","",""
"962.6000000238419","144021","HierDynoepe3xo","sub11","11","03","rl","test","68","img/p_c_dots.png","3","68","shape,color,pattern","27","1",""
"null","145027","HierDynoepe3xo","sub11","11","03","feedback","test","null","","","na","","27","",""
"1770.5","146798","HierDynoepe3xo","sub11","11","03","rl","test","65","img/o_c_dots.png","1","65","shape,color,pattern","28","1",""
"null","147799","HierDynoepe3xo","sub11","11","03","feedback","test","null","","","na","","28","",""
"737.7999999821186","148537","HierDynoepe3xo","sub11","11","03","rl","test","83","img/o_c_diag.png","2","83","shape,color,pattern","29","1",""
"null","149543","HierDynoepe3xo","sub11","11","03","feedback","test","null","","","na","","29","",""
"806.5","150350","HierDynoepe3xo","sub11","11","03","rl","test","65","img/o_c_diag.png","2","83","shape,color,pattern","30","0",""
"null","151356","HierDynoepe3xo","sub11","11","03","feedback","test","null","","","na","","30","",""
"1196.5","152553","HierDynoepe3xo","sub11","11","03","rl","test","70","img/p_c_diag.png","4","70","shape,color,pattern","31","1",""
"null","153554","HierDynoepe3xo","sub11","11","03","feedback","test","null","","","na","","31","",""
"666.6999999880791","154221","HierDynoepe3xo","sub11","11","03","rl","test","70","img/p_c_diag.png","4","70","shape,color,pattern","32","1",""
"null","155222","HierDynoepe3xo","sub11","11","03","feedback","test","null","","","na","","32","",""
"750.4000000059605","155973","HierDynoepe3xo","sub11","11","03","rl","test","76","img/p_s_diag.png","8","76","shape,color,pattern","33","1",""
"null","156974","HierDynoepe3xo","sub11","11","03","feedback","test","null","","","na","","33","",""
"446.2999999821186","157421","HierDynoepe3xo","sub11","11","03","rl","test","75","img/p_s_dots.png","7","75","shape,color,pattern","34","1",""
"null","158427","HierDynoepe3xo","sub11","11","03","feedback","test","null","","","na","","34","",""
"948.6000000238419","159376","HierDynoepe3xo","sub11","11","03","rl","test","65","img/o_c_dots.png","1","65","shape,color,pattern","35","1",""
"null","160377","HierDynoepe3xo","sub11","11","03","feedback","test","null","","","na","","35","",""
"822.3000000119209","161200","HierDynoepe3xo","sub11","11","03","rl","test","75","img/p_s_dots.png","7","75","shape,color,pattern","36","1",""
"null","162205","HierDynoepe3xo","sub11","11","03","feedback","test","null","","","na","","36","",""
"577.2000000178814","162783","HierDynoepe3xo","sub11","11","03","rl","test","76","img/p_s_diag.png","8","76","shape,color,pattern","37","1",""
"null","163785","HierDynoepe3xo","sub11","11","03","feedback","test","null","","","na","","37","",""
"917.9000000059605","164704","HierDynoepe3xo","sub11","11","03","rl","test","68","img/p_c_dots.png","3","68","shape,color,pattern","38","1",""
"null","165708","HierDynoepe3xo","sub11","11","03","feedback","test","null","","","na","","38","",""
"1069.2000000178814","166778","HierDynoepe3xo","sub11","11","03","rl","test","72","img/o_s_dots.png","5","72","shape,color,pattern","39","1",""
"null","167781","HierDynoepe3xo","sub11","11","03","feedback","test","null","","","na","","39","",""
"468","168250","HierDynoepe3xo","sub11","11","03","rl","test","74","img/o_s_diag.png","6","74","shape,color,pattern","40","1",""
"null","169256","HierDynoepe3xo","sub11","11","03","feedback","test","null","","","na","","40","",""
"650.5999999940395","169907","HierDynoepe3xo","sub11","11","03","rl","test","75","img/p_s_dots.png","7","75","shape,color,pattern","41","1",""
"null","170912","HierDynoepe3xo","sub11","11","03","feedback","test","null","","","na","","41","",""
"1101.699999988079","172014","HierDynoepe3xo","sub11","11","03","rl","test","72","img/o_s_dots.png","5","72","shape,color,pattern","42","1",""
"null","173020","HierDynoepe3xo","sub11","11","03","feedback","test","null","","","na","","42","",""
"815.5","173836","HierDynoepe3xo","sub11","11","03","rl","test","76","img/p_s_diag.png","8","76","shape,color,pattern","43","1",""
"null","174842","HierDynoepe3xo","sub11","11","03","feedback","test","null","","","na","","43","",""
"1184.800000011921","176027","HierDynoepe3xo","sub11","11","03","rl","test","74","img/o_s_diag.png","6","74","shape,color,pattern","44","1",""
"null","177029","HierDynoepe3xo","sub11","11","03","feedback","test","null","","","na","","44","",""
"2074.5","179104","HierDynoepe3xo","sub11","11","03","rl","test","83","img/o_c_diag.png","2","83","shape,color,pattern","45","1",""
"null","180110","HierDynoepe3xo","sub11","11","03","feedback","test","null","","","na","","45","",""
"1501.2999999821186","181611","HierDynoepe3xo","sub11","11","03","rl","test","68","img/p_c_dots.png","3","68","shape,color,pattern","46","1",""
"null","182612","HierDynoepe3xo","sub11","11","03","feedback","test","null","","","na","","46","",""
"670.7999999821186","183283","HierDynoepe3xo","sub11","11","03","rl","test","70","img/p_c_diag.png","4","70","shape,color,pattern","47","1",""
"null","184287","HierDynoepe3xo","sub11","11","03","feedback","test","null","","","na","","47","",""
"1664.2999999821186","185951","HierDynoepe3xo","sub11","11","03","rl","test","65","img/o_c_dots.png","1","65","shape,color,pattern","48","1",""
"null","186955","HierDynoepe3xo","sub11","11","03","feedback","test","null","","","na","","48","",""
"611.1999999880791","187567","HierDynoepe3xo","sub11","11","03","rl","test","65","img/o_c_dots.png","1","65","shape,color,pattern","49","1",""
"null","188571","HierDynoepe3xo","sub11","11","03","feedback","test","null","","","na","","49","",""
"800.5","189372","HierDynoepe3xo","sub11","11","03","rl","test","76","img/p_s_diag.png","8","76","shape,color,pattern","50","1",""
"null","190377","HierDynoepe3xo","sub11","11","03","feedback","test","null","","","na","","50","",""
"1714.8999999761581","192093","HierDynoepe3xo","sub11","11","03","rl","test","68","img/p_c_dots.png","3","68","shape,color,pattern","51","1",""
"null","193096","HierDynoepe3xo","sub11","11","03","feedback","test","null","","","na","","51","",""
"1121.2999999821186","194217","HierDynoepe3xo","sub11","11","03","rl","test","72","img/o_s_dots.png","5","72","shape,color,pattern","52","1",""
"null","195223","HierDynoepe3xo","sub11","11","03","feedback","test","null","","","na","","52","",""
"998.1999999880791","196222","HierDynoepe3xo","sub11","11","03","rl","test","70","img/p_c_diag.png","4","70","shape,color,pattern","53","1",""
"null","197226","HierDynoepe3xo","sub11","11","03","feedback","test","null","","","na","","53","",""
"1647.6000000238419","198875","HierDynoepe3xo","sub11","11","03","rl","test","65","img/o_c_diag.png","2","83","shape,color,pattern","54","0",""
"null","199879","HierDynoepe3xo","sub11","11","03","feedback","test","null","","","na","","54","",""
"1620.5999999940395","201500","HierDynoepe3xo","sub11","11","03","rl","test","74","img/o_s_diag.png","6","74","shape,color,pattern","55","1",""
"null","202503","HierDynoepe3xo","sub11","11","03","feedback","test","null","","","na","","55","",""
"1167","203671","HierDynoepe3xo","sub11","11","03","rl","test","75","img/p_s_dots.png","7","75","shape,color,pattern","56","1",""
"null","204672","HierDynoepe3xo","sub11","11","03","feedback","test","null","","","na","","56","",""
"1730.199999988079","206403","HierDynoepe3xo","sub11","11","03","rl","test","72","img/o_s_diag.png","6","74","shape,color,pattern","57","0",""
"null","207407","HierDynoepe3xo","sub11","11","03","feedback","test","null","","","na","","57","",""
"1080.4000000059605","208488","HierDynoepe3xo","sub11","11","03","rl","test","68","img/o_c_diag.png","2","83","shape,color,pattern","58","0",""
"null","209493","HierDynoepe3xo","sub11","11","03","feedback","test","null","","","na","","58","",""
"1346.199999988079","210840","HierDynoepe3xo","sub11","11","03","rl","test","75","img/p_s_dots.png","7","75","shape,color,pattern","59","1",""
"null","211845","HierDynoepe3xo","sub11","11","03","feedback","test","null","","","na","","59","",""
"1189.2000000178814","213035","HierDynoepe3xo","sub11","11","03","rl","test","70","img/p_c_diag.png","4","70","shape,color,pattern","60","1",""
"null","214041","HierDynoepe3xo","sub11","11","03","feedback","test","null","","","na","","60","",""
"1451.2999999821186","215493","HierDynoepe3xo","sub11","11","03","rl","test","65","img/o_c_dots.png","1","65","shape,color,pattern","61","1",""
"null","216496","HierDynoepe3xo","sub11","11","03","feedback","test","null","","","na","","61","",""
"691.5999999940395","217188","HierDynoepe3xo","sub11","11","03","rl","test","76","img/p_s_diag.png","8","76","shape,color,pattern","62","1",""
"null","218194","HierDynoepe3xo","sub11","11","03","feedback","test","null","","","na","","62","",""
"1791.4000000059605","219986","HierDynoepe3xo","sub11","11","03","rl","test","72","img/o_s_dots.png","5","72","shape,color,pattern","63","1",""
"null","220992","HierDynoepe3xo","sub11","11","03","feedback","test","null","","","na","","63","",""
"762","221754","HierDynoepe3xo","sub11","11","03","rl","test","68","img/p_c_dots.png","3","68","shape,color,pattern","64","1",""
"null","222760","HierDynoepe3xo","sub11","11","03","feedback","test","null","","","na","","64","",""
"946","223707","HierDynoepe3xo","sub11","11","03","rl","test","68","img/p_c_dots.png","3","68","shape,color,pattern","65","1",""
"null","224712","HierDynoepe3xo","sub11","11","03","feedback","test","null","","","na","","65","",""
"1073.199999988079","225786","HierDynoepe3xo","sub11","11","03","rl","test","74","img/o_s_diag.png","6","74","shape,color,pattern","66","1",""
"null","226791","HierDynoepe3xo","sub11","11","03","feedback","test","null","","","na","","66","",""
"1277.300000011921","228069","HierDynoepe3xo","sub11","11","03","rl","test","75","img/p_s_dots.png","7","75","shape,color,pattern","67","1",""
"null","229072","HierDynoepe3xo","sub11","11","03","feedback","test","null","","","na","","67","",""
"1437.0999999940395","230510","HierDynoepe3xo","sub11","11","03","rl","test","83","img/o_c_diag.png","2","83","shape,color,pattern","68","1",""
"null","231513","HierDynoepe3xo","sub11","11","03","feedback","test","null","","","na","","68","",""
"1689.5999999940395","233203","HierDynoepe3xo","sub11","11","03","rl","test","74","img/o_s_dots.png","5","72","shape,color,pattern","69","0",""
"null","234207","HierDynoepe3xo","sub11","11","03","feedback","test","null","","","na","","69","",""
"1696.699999988079","235904","HierDynoepe3xo","sub11","11","03","rl","test","68","img/p_c_dots.png","3","68","shape,color,pattern","70","1",""
"null","236910","HierDynoepe3xo","sub11","11","03","feedback","test","null","","","na","","70","",""
"811.9000000059605","237722","HierDynoepe3xo","sub11","11","03","rl","test","70","img/p_c_diag.png","4","70","shape,color,pattern","71","1",""
"null","238724","HierDynoepe3xo","sub11","11","03","feedback","test","null","","","na","","71","",""
"1115.4000000059605","239840","HierDynoepe3xo","sub11","11","03","rl","test","76","img/p_s_diag.png","8","76","shape,color,pattern","72","1",""
"null","240846","HierDynoepe3xo","sub11","11","03","feedback","test","null","","","na","","72","",""
"1160.5","242007","HierDynoepe3xo","sub11","11","03","rl","test","65","img/o_c_dots.png","1","65","shape,color,pattern","73","1",""
"null","243012","HierDynoepe3xo","sub11","11","03","feedback","test","null","","","na","","73","",""
"704","243716","HierDynoepe3xo","sub11","11","03","rl","test","76","img/p_s_diag.png","8","76","shape,color,pattern","74","1",""
"null","244722","HierDynoepe3xo","sub11","11","03","feedback","test","null","","","na","","74","",""
"879.0999999940395","245602","HierDynoepe3xo","sub11","11","03","rl","test","83","img/o_c_diag.png","2","83","shape,color,pattern","75","1",""
"null","246608","HierDynoepe3xo","sub11","11","03","feedback","test","null","","","na","","75","",""
"834.5999999940395","247443","HierDynoepe3xo","sub11","11","03","rl","test","65","img/o_c_dots.png","1","65","shape,color,pattern","76","1",""
"null","248446","HierDynoepe3xo","sub11","11","03","feedback","test","null","","","na","","76","",""
"1295.300000011921","249742","HierDynoepe3xo","sub11","11","03","rl","test","72","img/o_s_dots.png","5","72","shape,color,pattern","77","1",""
"null","250746","HierDynoepe3xo","sub11","11","03","feedback","test","null","","","na","","77","",""
"538.2999999821186","251285","HierDynoepe3xo","sub11","11","03","rl","test","74","img/o_s_diag.png","6","74","shape,color,pattern","78","1",""
"null","252288","HierDynoepe3xo","sub11","11","03","feedback","test","null","","","na","","78","",""
"561","252849","HierDynoepe3xo","sub11","11","03","rl","test","76","img/p_s_diag.png","8","76","shape,color,pattern","79","1",""
"null","253855","HierDynoepe3xo","sub11","11","03","feedback","test","null","","","na","","79","",""
"719.0999999940395","254575","HierDynoepe3xo","sub11","11","03","rl","test","70","img/p_c_diag.png","4","70","shape,color,pattern","80","1",""
"null","255576","HierDynoepe3xo","sub11","11","03","feedback","test","null","","","na","","80","",""
"788.4000000059605","256365","HierDynoepe3xo","sub11","11","03","rl","test","75","img/p_s_dots.png","7","75","shape,color,pattern","81","1",""
"null","257370","HierDynoepe3xo","sub11","11","03","feedback","test","null","","","na","","81","",""
"855.0999999940395","258226","HierDynoepe3xo","sub11","11","03","rl","test","65","img/o_c_dots.png","1","65","shape,color,pattern","82","1",""
"null","259230","HierDynoepe3xo","sub11","11","03","feedback","test","null","","","na","","82","",""
"1378.699999988079","260609","HierDynoepe3xo","sub11","11","03","rl","test","68","img/p_c_dots.png","3","68","shape,color,pattern","83","1",""
"null","261613","HierDynoepe3xo","sub11","11","03","feedback","test","null","","","na","","83","",""
"665.8999999761581","262279","HierDynoepe3xo","sub11","11","03","rl","test","70","img/p_c_diag.png","4","70","shape,color,pattern","84","1",""
"null","263285","HierDynoepe3xo","sub11","11","03","feedback","test","null","","","na","","84","",""
"981","264267","HierDynoepe3xo","sub11","11","03","rl","test","65","img/o_c_dots.png","1","65","shape,color,pattern","85","1",""
"null","265271","HierDynoepe3xo","sub11","11","03","feedback","test","null","","","na","","85","",""
"669.1999999880791","265941","HierDynoepe3xo","sub11","11","03","rl","test","83","img/o_c_diag.png","2","83","shape,color,pattern","86","1",""
"null","266946","HierDynoepe3xo","sub11","11","03","feedback","test","null","","","na","","86","",""
"769.6999999880791","267717","HierDynoepe3xo","sub11","11","03","rl","test","83","img/o_c_diag.png","2","83","shape,color,pattern","87","1",""
"null","268721","HierDynoepe3xo","sub11","11","03","feedback","test","null","","","na","","87","",""
"685.7999999821186","269408","HierDynoepe3xo","sub11","11","03","rl","test","75","img/p_s_dots.png","7","75","shape,color,pattern","88","1",""
"null","270409","HierDynoepe3xo","sub11","11","03","feedback","test","null","","","na","","88","",""
"878.1999999880791","271288","HierDynoepe3xo","sub11","11","03","rl","test","75","img/p_s_dots.png","7","75","shape,color,pattern","89","1",""
"null","272288","HierDynoepe3xo","sub11","11","03","feedback","test","null","","","na","","89","",""
"1006.8000000119209","273296","HierDynoepe3xo","sub11","11","03","rl","test","74","img/o_s_dots.png","5","72","shape,color,pattern","90","0",""
"null","274302","HierDynoepe3xo","sub11","11","03","feedback","test","null","","","na","","90","",""
"1186.5","275489","HierDynoepe3xo","sub11","11","03","rl","test","75","img/p_s_dots.png","7","75","shape,color,pattern","91","1",""
"null","276494","HierDynoepe3xo","sub11","11","03","feedback","test","null","","","na","","91","",""
"660.8000000119209","277156","HierDynoepe3xo","sub11","11","03","rl","test","74","img/o_s_diag.png","6","74","shape,color,pattern","92","1",""
"null","278161","HierDynoepe3xo","sub11","11","03","feedback","test","null","","","na","","92","",""
"654.7000000178814","278817","HierDynoepe3xo","sub11","11","03","rl","test","76","img/p_s_diag.png","8","76","shape,color,pattern","93","1",""
"null","279823","HierDynoepe3xo","sub11","11","03","feedback","test","null","","","na","","93","",""
"630.4000000059605","280454","HierDynoepe3xo","sub11","11","03","rl","test","72","img/o_s_dots.png","5","72","shape,color,pattern","94","1",""
"null","281458","HierDynoepe3xo","sub11","11","03","feedback","test","null","","","na","","94","",""
"604.4000000059605","282063","HierDynoepe3xo","sub11","11","03","rl","test","74","img/o_s_diag.png","6","74","shape,color,pattern","95","1",""
"null","283066","HierDynoepe3xo","sub11","11","03","feedback","test","null","","","na","","95","",""
"546.2000000178814","283613","HierDynoepe3xo","sub11","11","03","rl","test","72","img/o_s_dots.png","5","72","shape,color,pattern","96","1",""
"null","284619","HierDynoepe3xo","sub11","11","03","feedback","test","null","","","na","","96","",""
"731.4000000059605","285351","HierDynoepe3xo","sub11","11","03","rl","test","70","img/p_c_diag.png","4","70","shape,color,pattern","97","1",""
"null","286357","HierDynoepe3xo","sub11","11","03","feedback","test","null","","","na","","97","",""
"694.7999999821186","287053","HierDynoepe3xo","sub11","11","03","rl","test","68","img/p_c_dots.png","3","68","shape,color,pattern","98","1",""
"null","288058","HierDynoepe3xo","sub11","11","03","feedback","test","null","","","na","","98","",""
"1495","289554","HierDynoepe3xo","sub11","11","03","rl","test","76","img/p_s_diag.png","8","76","shape,color,pattern","99","1",""
"null","290560","HierDynoepe3xo","sub11","11","03","feedback","test","null","","","na","","99","",""
"1353.5","291914","HierDynoepe3xo","sub11","11","03","rl","test","72","img/o_c_dots.png","1","65","shape,color,pattern","100","0",""
"null","292918","HierDynoepe3xo","sub11","11","03","feedback","test","null","","","na","","100","",""
"1264.699999988079","294184","HierDynoepe3xo","sub11","11","03","rl","test","74","img/o_s_diag.png","6","74","shape,color,pattern","101","1",""
"null","295185","HierDynoepe3xo","sub11","11","03","feedback","test","null","","","na","","101","",""
"1055.0999999940395","296241","HierDynoepe3xo","sub11","11","03","rl","test","83","img/o_c_diag.png","2","83","shape,color,pattern","102","1",""
"null","297247","HierDynoepe3xo","sub11","11","03","feedback","test","null","","","na","","102","",""
"985.4000000059605","298233","HierDynoepe3xo","sub11","11","03","rl","test","68","img/p_c_dots.png","3","68","shape,color,pattern","103","1",""
"null","299238","HierDynoepe3xo","sub11","11","03","feedback","test","null","","","na","","103","",""
"777.1000000238419","300016","HierDynoepe3xo","sub11","11","03","rl","test","70","img/p_c_diag.png","4","70","shape,color,pattern","104","1",""
"null","301017","HierDynoepe3xo","sub11","11","03","feedback","test","null","","","na","","104","",""
"1564.800000011921","302582","HierDynoepe3xo","sub11","11","03","rl","test","72","img/o_s_dots.png","5","72","shape,color,pattern","105","1",""
"null","303585","HierDynoepe3xo","sub11","11","03","feedback","test","null","","","na","","105","",""
"1623.0999999940395","305209","HierDynoepe3xo","sub11","11","03","rl","test","75","img/p_s_dots.png","7","75","shape,color,pattern","106","1",""
"null","306213","HierDynoepe3xo","sub11","11","03","feedback","test","null","","","na","","106","",""
"633","306847","HierDynoepe3xo","sub11","11","03","rl","test","76","img/p_s_diag.png","8","76","shape,color,pattern","107","1",""
"null","307852","HierDynoepe3xo","sub11","11","03","feedback","test","null","","","na","","107","",""
"1783.7999999821186","309637","HierDynoepe3xo","sub11","11","03","rl","test","70","img/p_c_diag.png","4","70","shape,color,pattern","108","1",""
"null","310642","HierDynoepe3xo","sub11","11","03","feedback","test","null","","","na","","108","",""
"1263.5999999940395","311906","HierDynoepe3xo","sub11","11","03","rl","test","74","img/o_s_diag.png","6","74","shape,color,pattern","109","1",""
"null","312912","HierDynoepe3xo","sub11","11","03","feedback","test","null","","","na","","109","",""
"2285","315197","HierDynoepe3xo","sub11","11","03","rl","test","65","img/o_c_dots.png","1","65","shape,color,pattern","110","1",""
"null","316203","HierDynoepe3xo","sub11","11","03","feedback","test","null","","","na","","110","",""
"587.7000000178814","316791","HierDynoepe3xo","sub11","11","03","rl","test","83","img/o_c_diag.png","2","83","shape,color,pattern","111","1",""
"null","317797","HierDynoepe3xo","sub11","11","03","feedback","test","null","","","na","","111","",""
"858.5","318656","HierDynoepe3xo","sub11","11","03","rl","test","65","img/o_c_dots.png","1","65","shape,color,pattern","112","1",""
"null","319658","HierDynoepe3xo","sub11","11","03","feedback","test","null","","","na","","112","",""
"1076.5999999940395","320736","HierDynoepe3xo","sub11","11","03","rl","test","68","img/p_c_dots.png","3","68","shape,color,pattern","113","1",""
"null","321741","HierDynoepe3xo","sub11","11","03","feedback","test","null","","","na","","113","",""
"1190.5999999940395","322933","HierDynoepe3xo","sub11","11","03","rl","test","83","img/o_c_diag.png","2","83","shape,color,pattern","114","1",""
"null","323938","HierDynoepe3xo","sub11","11","03","feedback","test","null","","","na","","114","",""
"1116.5","325055","HierDynoepe3xo","sub11","11","03","rl","test","76","img/p_s_diag.png","8","76","shape,color,pattern","115","1",""
"null","326061","HierDynoepe3xo","sub11","11","03","feedback","test","null","","","na","","115","",""
"1281.199999988079","327343","HierDynoepe3xo","sub11","11","03","rl","test","72","img/o_s_dots.png","5","72","shape,color,pattern","116","1",""
"null","328347","HierDynoepe3xo","sub11","11","03","feedback","test","null","","","na","","116","",""
"768.3000000119209","329116","HierDynoepe3xo","sub11","11","03","rl","test","70","img/p_c_diag.png","4","70","shape,color,pattern","117","1",""
"null","330118","HierDynoepe3xo","sub11","11","03","feedback","test","null","","","na","","117","",""
"1048","331167","HierDynoepe3xo","sub11","11","03","rl","test","75","img/p_s_dots.png","7","75","shape,color,pattern","118","1",""
"null","332169","HierDynoepe3xo","sub11","11","03","feedback","test","null","","","na","","118","",""
"615.7000000178814","332785","HierDynoepe3xo","sub11","11","03","rl","test","75","img/p_s_dots.png","7","75","shape,color,pattern","119","1",""
"null","333791","HierDynoepe3xo","sub11","11","03","feedback","test","null","","","na","","119","",""
"647.3000000119209","334439","HierDynoepe3xo","sub11","11","03","rl","test","76","img/p_s_diag.png","8","76","shape,color,pattern","120","1",""
"null","335444","HierDynoepe3xo","sub11","11","03","feedback","test","null","","","na","","120","",""
"1340.9000000059605","336785","HierDynoepe3xo","sub11","11","03","rl","test","74","img/o_s_diag.png","6","74","shape,color,pattern","121","1",""
"null","337791","HierDynoepe3xo","sub11","11","03","feedback","test","null","","","na","","121","",""
"1015.6999999880791","338807","HierDynoepe3xo","sub11","11","03","rl","test","68","img/p_c_dots.png","3","68","shape,color,pattern","122","1",""
"null","339813","HierDynoepe3xo","sub11","11","03","feedback","test","null","","","na","","122","",""
"1537.800000011921","341351","HierDynoepe3xo","sub11","11","03","rl","test","65","img/o_c_dots.png","1","65","shape,color,pattern","123","1",""
"null","342353","HierDynoepe3xo","sub11","11","03","feedback","test","null","","","na","","123","",""
"1819.9000000059605","344174","HierDynoepe3xo","sub11","11","03","rl","test","74","img/p_c_dots.png","3","68","shape,color,pattern","124","0",""
"null","345176","HierDynoepe3xo","sub11","11","03","feedback","test","null","","","na","","124","",""
"1185.199999988079","346362","HierDynoepe3xo","sub11","11","03","rl","test","74","img/o_s_diag.png","6","74","shape,color,pattern","125","1",""
"null","347364","HierDynoepe3xo","sub11","11","03","feedback","test","null","","","na","","125","",""
"756.3000000119209","348120","HierDynoepe3xo","sub11","11","03","rl","test","72","img/o_s_dots.png","5","72","shape,color,pattern","126","1",""
"null","349126","HierDynoepe3xo","sub11","11","03","feedback","test","null","","","na","","126","",""
"1207.800000011921","350335","HierDynoepe3xo","sub11","11","03","rl","test","83","img/o_c_diag.png","2","83","shape,color,pattern","127","1",""
"null","351340","HierDynoepe3xo","sub11","11","03","feedback","test","null","","","na","","127","",""
"1043.0999999940395","352384","HierDynoepe3xo","sub11","11","03","rl","test","65","img/o_c_dots.png","1","65","shape,color,pattern","128","1",""
"null","353390","HierDynoepe3xo","sub11","11","03","feedback","test","null","","","na","","128","",""
"822.5999999940395","354213","HierDynoepe3xo","sub11","11","03","rl","test","70","img/p_c_diag.png","4","70","shape,color,pattern","129","1",""
"null","355214","HierDynoepe3xo","sub11","11","03","feedback","test","null","","","na","","129","",""
"557.1999999880791","355771","HierDynoepe3xo","sub11","11","03","rl","test","70","img/p_c_diag.png","4","70","shape,color,pattern","130","1",""
"null","356777","HierDynoepe3xo","sub11","11","03","feedback","test","null","","","na","","130","",""
"683.8000000119209","357461","HierDynoepe3xo","sub11","11","03","rl","test","68","img/p_c_dots.png","3","68","shape,color,pattern","131","1",""
"null","358466","HierDynoepe3xo","sub11","11","03","feedback","test","null","","","na","","131","",""
"1537.0999999940395","360004","HierDynoepe3xo","sub11","11","03","rl","test","72","img/o_s_dots.png","5","72","shape,color,pattern","132","1",""
"null","361010","HierDynoepe3xo","sub11","11","03","feedback","test","null","","","na","","132","",""
"1230.2999999821186","362240","HierDynoepe3xo","sub11","11","03","rl","test","75","img/p_s_dots.png","7","75","shape,color,pattern","133","1",""
"null","363246","HierDynoepe3xo","sub11","11","03","feedback","test","null","","","na","","133","",""
"660.5","363907","HierDynoepe3xo","sub11","11","03","rl","test","76","img/p_s_diag.png","8","76","shape,color,pattern","134","1",""
"null","364910","HierDynoepe3xo","sub11","11","03","feedback","test","null","","","na","","134","",""
"1046.300000011921","365957","HierDynoepe3xo","sub11","11","03","rl","test","74","img/o_s_diag.png","6","74","shape,color,pattern","135","1",""
"null","366959","HierDynoepe3xo","sub11","11","03","feedback","test","null","","","na","","135","",""
"null","369464","HierDynoepe3xo","sub11","11","03","rl","test","null","img/p_s_dots.png","7","75","shape,color,pattern","136","0",""
"null","370465","HierDynoepe3xo","sub11","11","03","feedback","test","null","","","na","","136","",""
"1217.300000011921","371683","HierDynoepe3xo","sub11","11","03","rl","test","70","img/p_c_diag.png","4","70","shape,color,pattern","137","1",""
"null","372689","HierDynoepe3xo","sub11","11","03","feedback","test","null","","","na","","137","",""
"898.5999999940395","373588","HierDynoepe3xo","sub11","11","03","rl","test","83","img/o_c_diag.png","2","83","shape,color,pattern","138","1",""
"null","374591","HierDynoepe3xo","sub11","11","03","feedback","test","null","","","na","","138","",""
"700.3999999761581","375292","HierDynoepe3xo","sub11","11","03","rl","test","83","img/o_c_diag.png","2","83","shape,color,pattern","139","1",""
"null","376297","HierDynoepe3xo","sub11","11","03","feedback","test","null","","","na","","139","",""
"1059.6000000238419","377357","HierDynoepe3xo","sub11","11","03","rl","test","76","img/p_s_diag.png","8","76","shape,color,pattern","140","1",""
"null","378359","HierDynoepe3xo","sub11","11","03","feedback","test","null","","","na","","140","",""
"847.5","379207","HierDynoepe3xo","sub11","11","03","rl","test","65","img/o_c_dots.png","1","65","shape,color,pattern","141","1",""
"null","380213","HierDynoepe3xo","sub11","11","03","feedback","test","null","","","na","","141","",""
"872.5999999940395","381086","HierDynoepe3xo","sub11","11","03","rl","test","72","img/o_s_dots.png","5","72","shape,color,pattern","142","1",""
"null","382088","HierDynoepe3xo","sub11","11","03","feedback","test","null","","","na","","142","",""
"1188.800000011921","383277","HierDynoepe3xo","sub11","11","03","rl","test","83","img/o_c_diag.png","2","83","shape,color,pattern","143","1",""
"null","384281","HierDynoepe3xo","sub11","11","03","feedback","test","null","","","na","","143","",""
"746.6999999880791","385028","HierDynoepe3xo","sub11","11","03","rl","test","75","img/p_s_dots.png","7","75","shape,color,pattern","144","1",""
"null","386032","HierDynoepe3xo","sub11","11","03","feedback","test","null","","","na","","144","",""
"1507.300000011921","387540","HierDynoepe3xo","sub11","11","03","rl","test","68","img/p_c_dots.png","3","68","shape,color,pattern","145","1",""
"null","388542","HierDynoepe3xo","sub11","11","03","feedback","test","null","","","na","","145","",""
"993.9000000059605","389536","HierDynoepe3xo","sub11","11","03","rl","test","74","img/o_s_diag.png","6","74","shape,color,pattern","146","1",""
"null","390542","HierDynoepe3xo","sub11","11","03","feedback","test","null","","","na","","146","",""
"1532.300000011921","392075","HierDynoepe3xo","sub11","11","03","rl","test","83","img/p_c_dots.png","3","68","shape,color,pattern","147","0",""
"null","393079","HierDynoepe3xo","sub11","11","03","feedback","test","null","","","na","","147","",""
"1415.7000000178814","394495","HierDynoepe3xo","sub11","11","03","rl","test","76","img/p_s_diag.png","8","76","shape,color,pattern","148","1",""
"null","395497","HierDynoepe3xo","sub11","11","03","feedback","test","null","","","na","","148","",""
"857.5999999940395","396355","HierDynoepe3xo","sub11","11","03","rl","test","74","img/o_s_diag.png","6","74","shape,color,pattern","149","1",""
"null","397361","HierDynoepe3xo","sub11","11","03","feedback","test","null","","","na","","149","",""
"2196.600000023842","399558","HierDynoepe3xo","sub11","11","03","rl","test","68","img/p_c_diag.png","4","70","shape,color,pattern","150","0",""
"null","400564","HierDynoepe3xo","sub11","11","03","feedback","test","null","","","na","","150","",""
"1183.0999999940395","401748","HierDynoepe3xo","sub11","11","03","rl","test","65","img/o_s_dots.png","5","72","shape,color,pattern","151","0",""
"null","402749","HierDynoepe3xo","sub11","11","03","feedback","test","null","","","na","","151","",""
"961.6999999880791","403712","HierDynoepe3xo","sub11","11","03","rl","test","68","img/p_c_dots.png","3","68","shape,color,pattern","152","1",""
"null","404714","HierDynoepe3xo","sub11","11","03","feedback","test","null","","","na","","152","",""
"1290.5","406005","HierDynoepe3xo","sub11","11","03","rl","test","76","img/p_s_diag.png","8","76","shape,color,pattern","153","1",""
"null","407008","HierDynoepe3xo","sub11","11","03","feedback","test","null","","","na","","153","",""
"2483.199999988079","409492","HierDynoepe3xo","sub11","11","03","rl","test","70","img/p_c_diag.png","4","70","shape,color,pattern","154","1",""
"null","410498","HierDynoepe3xo","sub11","11","03","feedback","test","null","","","na","","154","",""
"840.1000000238419","411338","HierDynoepe3xo","sub11","11","03","rl","test","65","img/o_c_dots.png","1","65","shape,color,pattern","155","1",""
"null","412343","HierDynoepe3xo","sub11","11","03","feedback","test","null","","","na","","155","",""
"1578.699999988079","413923","HierDynoepe3xo","sub11","11","03","rl","test","75","img/p_s_dots.png","7","75","shape,color,pattern","156","1",""
"null","414926","HierDynoepe3xo","sub11","11","03","feedback","test","null","","","na","","156","",""
"1827","416753","HierDynoepe3xo","sub11","11","03","rl","test","72","img/o_s_dots.png","5","72","shape,color,pattern","157","1",""
"null","417755","HierDynoepe3xo","sub11","11","03","feedback","test","null","","","na","","157","",""
"1452.4000000059605","419208","HierDynoepe3xo","sub11","11","03","rl","test","83","img/o_c_diag.png","2","83","shape,color,pattern","158","1",""
"null","420211","HierDynoepe3xo","sub11","11","03","feedback","test","null","","","na","","158","",""
"1801.5","422013","HierDynoepe3xo","sub11","11","03","rl","test","68","img/p_c_dots.png","3","68","shape,color,pattern","159","1",""
"null","423018","HierDynoepe3xo","sub11","11","03","feedback","test","null","","","na","","159","",""
"1482.2000000178814","424501","HierDynoepe3xo","sub11","11","03","rl","test","65","img/o_c_dots.png","1","65","shape,color,pattern","160","1",""
"null","425507","HierDynoepe3xo","sub11","11","03","feedback","test","null","","","na","","160","",""
"1221.8999999761581","426729","HierDynoepe3xo","sub11","11","03","rl","test","74","img/o_s_diag.png","6","74","shape,color,pattern","161","1",""
"null","427731","HierDynoepe3xo","sub11","11","03","feedback","test","null","","","na","","161","",""
"706.9000000059605","428438","HierDynoepe3xo","sub11","11","03","rl","test","74","img/o_s_diag.png","6","74","shape,color,pattern","162","1",""
"null","429439","HierDynoepe3xo","sub11","11","03","feedback","test","null","","","na","","162","",""
"2266.9000000059605","431706","HierDynoepe3xo","sub11","11","03","rl","test","65","img/o_c_dots.png","1","65","shape,color,pattern","163","1",""
"null","432709","HierDynoepe3xo","sub11","11","03","feedback","test","null","","","na","","163","",""
"1110.1000000238419","433820","HierDynoepe3xo","sub11","11","03","rl","test","75","img/p_s_dots.png","7","75","shape,color,pattern","164","1",""
"null","434822","HierDynoepe3xo","sub11","11","03","feedback","test","null","","","na","","164","",""
"1240.5999999940395","436063","HierDynoepe3xo","sub11","11","03","rl","test","65","img/o_c_dots.png","1","65","shape,color,pattern","165","1",""
"null","437064","HierDynoepe3xo","sub11","11","03","feedback","test","null","","","na","","165","",""
"2220.9000000059605","439286","HierDynoepe3xo","sub11","11","03","rl","test","68","img/o_s_dots.png","5","72","shape,color,pattern","166","0",""
"null","440289","HierDynoepe3xo","sub11","11","03","feedback","test","null","","","na","","166","",""
"2034.199999988079","442324","HierDynoepe3xo","sub11","11","03","rl","test","75","img/p_c_diag.png","4","70","shape,color,pattern","167","0",""
"null","443329","HierDynoepe3xo","sub11","11","03","feedback","test","null","","","na","","167","",""
"851.4000000059605","444181","HierDynoepe3xo","sub11","11","03","rl","test","76","img/p_s_diag.png","8","76","shape,color,pattern","168","1",""
"null","445183","HierDynoepe3xo","sub11","11","03","feedback","test","null","","","na","","168","",""
"1554.0999999940395","446738","HierDynoepe3xo","sub11","11","03","rl","test","83","img/o_c_diag.png","2","83","shape,color,pattern","169","1",""
"null","447743","HierDynoepe3xo","sub11","11","03","feedback","test","null","","","na","","169","",""
"785.3000000119209","448529","HierDynoepe3xo","sub11","11","03","rl","test","75","img/p_s_dots.png","7","75","shape,color,pattern","170","1",""
"null","449531","HierDynoepe3xo","sub11","11","03","feedback","test","null","","","na","","170","",""
"1870.1000000238419","451402","HierDynoepe3xo","sub11","11","03","rl","test","70","img/p_c_diag.png","4","70","shape,color,pattern","171","1",""
"null","452408","HierDynoepe3xo","sub11","11","03","feedback","test","null","","","na","","171","",""
"2351.199999988079","454759","HierDynoepe3xo","sub11","11","03","rl","test","83","img/o_c_diag.png","2","83","shape,color,pattern","172","1",""
"null","455765","HierDynoepe3xo","sub11","11","03","feedback","test","null","","","na","","172","",""
"1420.800000011921","457186","HierDynoepe3xo","sub11","11","03","rl","test","72","img/o_s_dots.png","5","72","shape,color,pattern","173","1",""
"null","458190","HierDynoepe3xo","sub11","11","03","feedback","test","null","","","na","","173","",""
"1122.0999999940395","459313","HierDynoepe3xo","sub11","11","03","rl","test","68","img/p_c_dots.png","3","68","shape,color,pattern","174","1",""
"null","460315","HierDynoepe3xo","sub11","11","03","feedback","test","null","","","na","","174","",""
"692.1000000238419","461007","HierDynoepe3xo","sub11","11","03","rl","test","68","img/p_c_dots.png","3","68","shape,color,pattern","175","1",""
"null","462011","HierDynoepe3xo","sub11","11","03","feedback","test","null","","","na","","175","",""
"1110.800000011921","463122","HierDynoepe3xo","sub11","11","03","rl","test","74","img/o_s_diag.png","6","74","shape,color,pattern","176","1",""
"null","464125","HierDynoepe3xo","sub11","11","03","feedback","test","null","","","na","","176","",""
"1147.300000011921","465272","HierDynoepe3xo","sub11","11","03","rl","test","75","img/p_s_diag.png","8","76","shape,color,pattern","177","0",""
"null","466275","HierDynoepe3xo","sub11","11","03","feedback","test","null","","","na","","177","",""
"1392.7000000178814","467669","HierDynoepe3xo","sub11","11","03","rl","test","74","img/o_s_diag.png","6","74","shape,color,pattern","178","1",""
"null","468674","HierDynoepe3xo","sub11","11","03","feedback","test","null","","","na","","178","",""
"664.8000000119209","469340","HierDynoepe3xo","sub11","11","03","rl","test","76","img/p_s_diag.png","8","76","shape,color,pattern","179","1",""
"null","470345","HierDynoepe3xo","sub11","11","03","feedback","test","null","","","na","","179","",""
"2048.100000023842","472394","HierDynoepe3xo","sub11","11","03","rl","test","83","img/o_c_dots.png","1","65","shape,color,pattern","180","0",""
"null","473398","HierDynoepe3xo","sub11","11","03","feedback","test","null","","","na","","180","",""
"1293.6000000238419","474692","HierDynoepe3xo","sub11","11","03","rl","test","72","img/o_s_dots.png","5","72","shape,color,pattern","181","1",""
"null","475697","HierDynoepe3xo","sub11","11","03","feedback","test","null","","","na","","181","",""
"777","476475","HierDynoepe3xo","sub11","11","03","rl","test","83","img/o_c_diag.png","2","83","shape,color,pattern","182","1",""
"null","477480","HierDynoepe3xo","sub11","11","03","feedback","test","null","","","na","","182","",""
"2102.699999988079","479584","HierDynoepe3xo","sub11","11","03","rl","test","75","img/p_s_dots.png","7","75","shape,color,pattern","183","1",""
"null","480590","HierDynoepe3xo","sub11","11","03","feedback","test","null","","","na","","183","",""
"1039","481629","HierDynoepe3xo","sub11","11","03","rl","test","74","img/o_s_diag.png","6","74","shape,color,pattern","184","1",""
"null","482631","HierDynoepe3xo","sub11","11","03","feedback","test","null","","","na","","184","",""
"1254.300000011921","483887","HierDynoepe3xo","sub11","11","03","rl","test","70","img/p_c_diag.png","4","70","shape,color,pattern","185","1",""
"null","484890","HierDynoepe3xo","sub11","11","03","feedback","test","null","","","na","","185","",""
"null","487395","HierDynoepe3xo","sub11","11","03","rl","test","null","img/o_s_dots.png","5","72","shape,color,pattern","186","0",""
"null","488398","HierDynoepe3xo","sub11","11","03","feedback","test","null","","","na","","186","",""
"1152.7999999821186","489552","HierDynoepe3xo","sub11","11","03","rl","test","68","img/p_c_dots.png","3","68","shape,color,pattern","187","1",""
"null","490558","HierDynoepe3xo","sub11","11","03","feedback","test","null","","","na","","187","",""
"737.9000000059605","491296","HierDynoepe3xo","sub11","11","03","rl","test","70","img/p_c_diag.png","4","70","shape,color,pattern","188","1",""
"null","492298","HierDynoepe3xo","sub11","11","03","feedback","test","null","","","na","","188","",""
"772.9000000059605","493072","HierDynoepe3xo","sub11","11","03","rl","test","76","img/p_s_diag.png","8","76","shape,color,pattern","189","1",""
"null","494077","HierDynoepe3xo","sub11","11","03","feedback","test","null","","","na","","189","",""
"1780.5999999940395","495859","HierDynoepe3xo","sub11","11","03","rl","test","65","img/o_c_dots.png","1","65","shape,color,pattern","190","1",""
"null","496864","HierDynoepe3xo","sub11","11","03","feedback","test","null","","","na","","190","",""
"1681.5","498546","HierDynoepe3xo","sub11","11","03","rl","test","68","img/p_c_dots.png","3","68","shape,color,pattern","191","1",""
"null","499549","HierDynoepe3xo","sub11","11","03","feedback","test","null","","","na","","191","",""
"1366.300000011921","500916","HierDynoepe3xo","sub11","11","03","rl","test","75","img/p_s_dots.png","7","75","shape,color,pattern","192","1",""
"null","501922","HierDynoepe3xo","sub11","11","03","feedback","test","null","","","na","","192","",""
"1158.2999999821186","503081","HierDynoepe3xo","sub11","11","03","rl","test","83","img/o_c_diag.png","2","83","shape,color,pattern","193","1",""
"null","504086","HierDynoepe3xo","sub11","11","03","feedback","test","null","","","na","","193","",""
"527.8000000119209","504615","HierDynoepe3xo","sub11","11","03","rl","test","83","img/o_c_diag.png","2","83","shape,color,pattern","194","1",""
"null","505617","HierDynoepe3xo","sub11","11","03","feedback","test","null","","","na","","194","",""
"2132.800000011921","507751","HierDynoepe3xo","sub11","11","03","rl","test","70","img/p_c_diag.png","4","70","shape,color,pattern","195","1",""
"null","508756","HierDynoepe3xo","sub11","11","03","feedback","test","null","","","na","","195","",""
"1070.5999999940395","509828","HierDynoepe3xo","sub11","11","03","rl","test","74","img/o_s_diag.png","6","74","shape,color,pattern","196","1",""
"null","510831","HierDynoepe3xo","sub11","11","03","feedback","test","null","","","na","","196","",""
"1371.300000011921","512202","HierDynoepe3xo","sub11","11","03","rl","test","75","img/p_s_dots.png","7","75","shape,color,pattern","197","1",""
"null","513208","HierDynoepe3xo","sub11","11","03","feedback","test","null","","","na","","197","",""
"1845.0999999940395","515054","HierDynoepe3xo","sub11","11","03","rl","test","65","img/o_c_dots.png","1","65","shape,color,pattern","198","1",""
"null","516055","HierDynoepe3xo","sub11","11","03","feedback","test","null","","","na","","198","",""
"1681.6000000238419","517737","HierDynoepe3xo","sub11","11","03","rl","test","72","img/o_s_dots.png","5","72","shape,color,pattern","199","1",""
"null","518743","HierDynoepe3xo","sub11","11","03","feedback","test","null","","","na","","199","",""
"678.5999999940395","519422","HierDynoepe3xo","sub11","11","03","rl","test","76","img/p_s_diag.png","8","76","shape,color,pattern","200","1",""
"null","520424","HierDynoepe3xo","sub11","11","03","feedback","test","null","","","na","","200","",""
"662.9000000059605","521088","HierDynoepe3xo","sub11","11","03","rl","test","76","img/p_s_diag.png","8","76","shape,color,pattern","201","1",""
"null","522092","HierDynoepe3xo","sub11","11","03","feedback","test","null","","","na","","201","",""
"2043.199999988079","524136","HierDynoepe3xo","sub11","11","03","rl","test","65","img/o_c_dots.png","1","65","shape,color,pattern","202","1",""
"null","525141","HierDynoepe3xo","sub11","11","03","feedback","test","null","","","na","","202","",""
"1323.300000011921","526465","HierDynoepe3xo","sub11","11","03","rl","test","75","img/p_s_dots.png","7","75","shape,color,pattern","203","1",""
"null","527468","HierDynoepe3xo","sub11","11","03","feedback","test","null","","","na","","203","",""
"1167.7999999821186","528637","HierDynoepe3xo","sub11","11","03","rl","test","68","img/p_c_dots.png","3","68","shape,color,pattern","204","1",""
"null","529643","HierDynoepe3xo","sub11","11","03","feedback","test","null","","","na","","204","",""
"1408.4000000059605","531052","HierDynoepe3xo","sub11","11","03","rl","test","72","img/o_s_dots.png","5","72","shape,color,pattern","205","1",""
"null","532057","HierDynoepe3xo","sub11","11","03","feedback","test","null","","","na","","205","",""
"2416.4000000059605","534474","HierDynoepe3xo","sub11","11","03","rl","test","74","img/p_s_dots.png","7","75","shape,color,pattern","206","0",""
"null","535477","HierDynoepe3xo","sub11","11","03","feedback","test","null","","","na","","206","",""
"2049.2999999821186","537527","HierDynoepe3xo","sub11","11","03","rl","test","72","img/o_s_dots.png","5","72","shape,color,pattern","207","1",""
"null","538532","HierDynoepe3xo","sub11","11","03","feedback","test","null","","","na","","207","",""
"1695","540227","HierDynoepe3xo","sub11","11","03","rl","test","65","img/o_c_diag.png","2","83","shape,color,pattern","208","0",""
"null","541232","HierDynoepe3xo","sub11","11","03","feedback","test","null","","","na","","208","",""
"706.4000000059605","541939","HierDynoepe3xo","sub11","11","03","rl","test","76","img/p_s_diag.png","8","76","shape,color,pattern","209","1",""
"null","542945","HierDynoepe3xo","sub11","11","03","feedback","test","null","","","na","","209","",""
"1822.4000000059605","544768","HierDynoepe3xo","sub11","11","03","rl","test","68","img/p_c_diag.png","4","70","shape,color,pattern","210","0",""
"null","545771","HierDynoepe3xo","sub11","11","03","feedback","test","null","","","na","","210","",""
"1663.7999999821186","547435","HierDynoepe3xo","sub11","11","03","rl","test","74","img/o_s_diag.png","6","74","shape,color,pattern","211","1",""
"null","548438","HierDynoepe3xo","sub11","11","03","feedback","test","null","","","na","","211","",""
"576.5999999940395","549015","HierDynoepe3xo","sub11","11","03","rl","test","74","img/o_s_diag.png","6","74","shape,color,pattern","212","1",""
"null","550021","HierDynoepe3xo","sub11","11","03","feedback","test","null","","","na","","212","",""
"1054.2000000178814","551076","HierDynoepe3xo","sub11","11","03","rl","test","70","img/p_c_diag.png","4","70","shape,color,pattern","213","1",""
"null","552077","HierDynoepe3xo","sub11","11","03","feedback","test","null","","","na","","213","",""
"690.8999999761581","552769","HierDynoepe3xo","sub11","11","03","rl","test","68","img/p_c_dots.png","3","68","shape,color,pattern","214","1",""
"null","553771","HierDynoepe3xo","sub11","11","03","feedback","test","null","","","na","","214","",""
"1352.5","555124","HierDynoepe3xo","sub11","11","03","rl","test","83","img/o_c_diag.png","2","83","shape,color,pattern","215","1",""
"null","556130","HierDynoepe3xo","sub11","11","03","feedback","test","null","","","na","","215","",""
"674.8999999761581","556805","HierDynoepe3xo","sub11","11","03","rl","test","65","img/o_c_dots.png","1","65","shape,color,pattern","216","1",""
"null","557808","HierDynoepe3xo","sub11","11","03","feedback","test","null","","","na","","216","",""
"1385.5999999940395","559194","HierDynoepe3xo","sub11","11","03","rl","test","74","img/o_s_diag.png","6","74","shape,color,pattern","217","1",""
"null","560199","HierDynoepe3xo","sub11","11","03","feedback","test","null","","","na","","217","",""
"720.4000000059605","560920","HierDynoepe3xo","sub11","11","03","rl","test","76","img/p_s_diag.png","8","76","shape,color,pattern","218","1",""
"null","561924","HierDynoepe3xo","sub11","11","03","feedback","test","null","","","na","","218","",""
"1364","563288","HierDynoepe3xo","sub11","11","03","rl","test","72","img/o_s_dots.png","5","72","shape,color,pattern","219","1",""
"null","564294","HierDynoepe3xo","sub11","11","03","feedback","test","null","","","na","","219","",""
"1616","565910","HierDynoepe3xo","sub11","11","03","rl","test","70","img/p_c_diag.png","4","70","shape,color,pattern","220","1",""
"null","566916","HierDynoepe3xo","sub11","11","03","feedback","test","null","","","na","","220","",""
"1532.0999999940395","568448","HierDynoepe3xo","sub11","11","03","rl","test","75","img/p_s_dots.png","7","75","shape,color,pattern","221","1",""
"null","569454","HierDynoepe3xo","sub11","11","03","feedback","test","null","","","na","","221","",""
"1417.0999999940395","570872","HierDynoepe3xo","sub11","11","03","rl","test","76","img/p_s_diag.png","8","76","shape,color,pattern","222","1",""
"null","571877","HierDynoepe3xo","sub11","11","03","feedback","test","null","","","na","","222","",""
"730.0999999940395","572608","HierDynoepe3xo","sub11","11","03","rl","test","75","img/p_s_dots.png","7","75","shape,color,pattern","223","1",""
"null","573613","HierDynoepe3xo","sub11","11","03","feedback","test","null","","","na","","223","",""
"1891.199999988079","575505","HierDynoepe3xo","sub11","11","03","rl","test","70","img/o_c_diag.png","2","83","shape,color,pattern","224","0",""
"null","576507","HierDynoepe3xo","sub11","11","03","feedback","test","null","","","na","","224","",""
"1372.0999999940395","577879","HierDynoepe3xo","sub11","11","03","rl","test","68","img/p_c_dots.png","3","68","shape,color,pattern","225","1",""
"null","578882","HierDynoepe3xo","sub11","11","03","feedback","test","null","","","na","","225","",""
"1468.4000000059605","580351","HierDynoepe3xo","sub11","11","03","rl","test","65","img/o_c_dots.png","1","65","shape,color,pattern","226","1",""
"null","581352","HierDynoepe3xo","sub11","11","03","feedback","test","null","","","na","","226","",""
"1602.300000011921","582955","HierDynoepe3xo","sub11","11","03","rl","test","68","img/p_c_dots.png","3","68","shape,color,pattern","227","1",""
"null","583956","HierDynoepe3xo","sub11","11","03","feedback","test","null","","","na","","227","",""
"719.3000000119209","584676","HierDynoepe3xo","sub11","11","03","rl","test","70","img/p_c_diag.png","4","70","shape,color,pattern","228","1",""
"null","585677","HierDynoepe3xo","sub11","11","03","feedback","test","null","","","na","","228","",""
"1628.800000011921","587307","HierDynoepe3xo","sub11","11","03","rl","test","83","img/o_c_diag.png","2","83","shape,color,pattern","229","1",""
"null","588308","HierDynoepe3xo","sub11","11","03","feedback","test","null","","","na","","229","",""
"1288.800000011921","589597","HierDynoepe3xo","sub11","11","03","rl","test","72","img/o_s_diag.png","6","74","shape,color,pattern","230","0",""
"null","590599","HierDynoepe3xo","sub11","11","03","feedback","test","null","","","na","","230","",""
"536.2999999821186","591136","HierDynoepe3xo","sub11","11","03","rl","test","74","img/o_c_dots.png","1","65","shape,color,pattern","231","0",""
"null","592142","HierDynoepe3xo","sub11","11","03","feedback","test","null","","","na","","231","",""
"1249.300000011921","593391","HierDynoepe3xo","sub11","11","03","rl","test","65","img/o_c_dots.png","1","65","shape,color,pattern","232","1",""
"null","594397","HierDynoepe3xo","sub11","11","03","feedback","test","null","","","na","","232","",""
"1124.5","595522","HierDynoepe3xo","sub11","11","03","rl","test","72","img/o_s_dots.png","5","72","shape,color,pattern","233","1",""
"null","596527","HierDynoepe3xo","sub11","11","03","feedback","test","null","","","na","","233","",""
"698","597225","HierDynoepe3xo","sub11","11","03","rl","test","74","img/o_s_diag.png","6","74","shape,color,pattern","234","1",""
"null","598226","HierDynoepe3xo","sub11","11","03","feedback","test","null","","","na","","234","",""
"1367.7000000178814","599594","HierDynoepe3xo","sub11","11","03","rl","test","70","img/p_c_diag.png","4","70","shape,color,pattern","235","1",""
"null","600599","HierDynoepe3xo","sub11","11","03","feedback","test","null","","","na","","235","",""
"2396.4000000059605","602996","HierDynoepe3xo","sub11","11","03","rl","test","74","img/o_s_dots.png","5","72","shape,color,pattern","236","0",""
"null","603999","HierDynoepe3xo","sub11","11","03","feedback","test","null","","","na","","236","",""
"1006.4000000059605","605006","HierDynoepe3xo","sub11","11","03","rl","test","76","img/p_s_diag.png","8","76","shape,color,pattern","237","1",""
"null","606007","HierDynoepe3xo","sub11","11","03","feedback","test","null","","","na","","237","",""
"749.5999999940395","606757","HierDynoepe3xo","sub11","11","03","rl","test","75","img/p_s_dots.png","7","75","shape,color,pattern","238","1",""
"null","607760","HierDynoepe3xo","sub11","11","03","feedback","test","null","","","na","","238","",""
"884.4000000059605","608645","HierDynoepe3xo","sub11","11","03","rl","test","68","img/p_c_dots.png","3","68","shape,color,pattern","239","1",""
"null","609651","HierDynoepe3xo","sub11","11","03","feedback","test","null","","","na","","239","",""
"1021.6999999880791","610673","HierDynoepe3xo","sub11","11","03","rl","test","83","img/o_c_diag.png","2","83","shape,color,pattern","240","1",""
"null","611677","HierDynoepe3xo","sub11","11","03","feedback","test","null","","","na","","240","",""
"780.7000000178814","612459","HierDynoepe3xo","sub11","11","03","rl","test","70","img/p_c_diag.png","4","70","shape,color,pattern","241","1",""
"null","613461","HierDynoepe3xo","sub11","11","03","feedback","test","null","","","na","","241","",""
"1561.300000011921","615023","HierDynoepe3xo","sub11","11","03","rl","test","72","img/o_s_dots.png","5","72","shape,color,pattern","242","1",""
"null","616028","HierDynoepe3xo","sub11","11","03","feedback","test","null","","","na","","242","",""
"1879","617908","HierDynoepe3xo","sub11","11","03","rl","test","65","img/o_c_diag.png","2","83","shape,color,pattern","243","0",""
"null","618914","HierDynoepe3xo","sub11","11","03","feedback","test","null","","","na","","243","",""
"667.1999999880791","619581","HierDynoepe3xo","sub11","11","03","rl","test","65","img/o_c_dots.png","1","65","shape,color,pattern","244","1",""
"null","620585","HierDynoepe3xo","sub11","11","03","feedback","test","null","","","na","","244","",""
"918.5","621504","HierDynoepe3xo","sub11","11","03","rl","test","76","img/p_s_diag.png","8","76","shape,color,pattern","245","1",""
"null","622510","HierDynoepe3xo","sub11","11","03","feedback","test","null","","","na","","245","",""
"1875.2000000178814","624386","HierDynoepe3xo","sub11","11","03","rl","test","68","img/p_c_dots.png","3","68","shape,color,pattern","246","1",""
"null","625391","HierDynoepe3xo","sub11","11","03","feedback","test","null","","","na","","246","",""
"1551.5999999940395","626943","HierDynoepe3xo","sub11","11","03","rl","test","74","img/o_s_diag.png","6","74","shape,color,pattern","247","1",""
"null","627945","HierDynoepe3xo","sub11","11","03","feedback","test","null","","","na","","247","",""
"1481.5999999940395","629427","HierDynoepe3xo","sub11","11","03","rl","test","75","img/p_s_dots.png","7","75","shape,color,pattern","248","1",""
"null","630433","HierDynoepe3xo","sub11","11","03","feedback","test","null","","","na","","248","",""
"27370.79999998212","657806","HierDynoepe3xo","sub11","11","03","","","","","","","","","","{""Q0"":""5.50""}"
"92682.89999997616","750490","HierDynoepe3xo","sub11","11","03","","","","","","","","","","{""Q0"":""Remembering to stay attentive and the pattern of circles on the left hand of the keyboard and squares on the right""}"
"5275.899999976158","755766","HierDynoepe3xo","sub11","11","03","","","","","","","","","",""
