"rt","time_elapsed","subject","subID","group","day","trialType","key_press","stim","corrresp","phase","stimNum","trialNum","corr","repeatTrial","motorSwitch","hierarchy","responses"
"3565","3586","HierDy7ebnejc1","sub11","11","8","","","","","","","","","","","",""
"","42765","HierDy7ebnejc1","sub11","11","8","fullscreen","","","","","","","","","","",""
"177186","219964","HierDy7ebnejc1","sub11","11","8","","","","","","","","","","","",""
"797","220777","HierDy7ebnejc1","sub11","11","8","motor","70","img/motor_4.png","70","motor","4","1","1","0","0","",""
"null","220892","HierDy7ebnejc1","sub11","11","8","iti","null","img/motor_4.png","70","motor","","","","","","",""
"480","221384","HierDy7ebnejc1","sub11","11","8","motor","65","img/motor_1.png","65","motor","1","2","1","0","0","",""
"null","221499","HierDy7ebnejc1","sub11","11","8","iti","null","img/motor_1.png","65","motor","","","","","","",""
"396","221907","HierDy7ebnejc1","sub11","11","8","motor","65","img/motor_1.png","65","motor","1","3","1","0","0","",""
"null","222021","HierDy7ebnejc1","sub11","11","8","iti","null","img/motor_1.png","65","motor","","","","","","",""
"617","222649","HierDy7ebnejc1","sub11","11","8","motor","72","img/motor_5.png","72","motor","5","4","1","0","0","",""
"null","222760","HierDy7ebnejc1","sub11","11","8","iti","null","img/motor_5.png","72","motor","","","","","","",""
"446","223217","HierDy7ebnejc1","sub11","11","8","motor","75","img/motor_8.png","76","motor","8","5","0","1","0","",""
"323","223553","HierDy7ebnejc1","sub11","11","8","motorRepeat","76","img/motor_8.png","76","motor","8","5","1","0","0","",""
"null","223665","HierDy7ebnejc1","sub11","11","8","iti","null","img/motor_8.png","76","motor","","","","","","",""
"433","224109","HierDy7ebnejc1","sub11","11","8","motor","72","img/motor_5.png","72","motor","5","6","1","0","0","",""
"null","224219","HierDy7ebnejc1","sub11","11","8","iti","null","img/motor_5.png","72","motor","","","","","","",""
"402","224630","HierDy7ebnejc1","sub11","11","8","motor","65","img/motor_1.png","65","motor","1","7","1","0","0","",""
"null","224741","HierDy7ebnejc1","sub11","11","8","iti","null","img/motor_1.png","65","motor","","","","","","",""
"404","225155","HierDy7ebnejc1","sub11","11","8","motor","72","img/motor_5.png","72","motor","5","8","1","0","0","",""
"null","225265","HierDy7ebnejc1","sub11","11","8","iti","null","img/motor_5.png","72","motor","","","","","","",""
"509","225785","HierDy7ebnejc1","sub11","11","8","motor","74","img/motor_6.png","74","motor","6","9","1","0","0","",""
"null","225895","HierDy7ebnejc1","sub11","11","8","iti","null","img/motor_6.png","74","motor","","","","","","",""
"585","226490","HierDy7ebnejc1","sub11","11","8","motor","76","img/motor_8.png","76","motor","8","10","1","0","0","",""
"null","226598","HierDy7ebnejc1","sub11","11","8","iti","null","img/motor_8.png","76","motor","","","","","","",""
"757","227365","HierDy7ebnejc1","sub11","11","8","motor","75","img/motor_7.png","75","motor","7","11","1","0","0","",""
"null","227475","HierDy7ebnejc1","sub11","11","8","iti","null","img/motor_7.png","75","motor","","","","","","",""
"573","228059","HierDy7ebnejc1","sub11","11","8","motor","83","img/motor_2.png","83","motor","2","12","1","0","0","",""
"null","228170","HierDy7ebnejc1","sub11","11","8","iti","null","img/motor_2.png","83","motor","","","","","","",""
"611","228791","HierDy7ebnejc1","sub11","11","8","motor","72","img/motor_5.png","72","motor","5","13","1","0","0","",""
"null","228902","HierDy7ebnejc1","sub11","11","8","iti","null","img/motor_5.png","72","motor","","","","","","",""
"627","229539","HierDy7ebnejc1","sub11","11","8","motor","70","img/motor_4.png","70","motor","4","14","1","0","0","",""
"null","229650","HierDy7ebnejc1","sub11","11","8","iti","null","img/motor_4.png","70","motor","","","","","","",""
"516","230176","HierDy7ebnejc1","sub11","11","8","motor","65","img/motor_1.png","65","motor","1","15","1","0","0","",""
"null","230286","HierDy7ebnejc1","sub11","11","8","iti","null","img/motor_1.png","65","motor","","","","","","",""
"773","231069","HierDy7ebnejc1","sub11","11","8","motor","68","img/motor_3.png","68","motor","3","16","1","0","0","",""
"null","231179","HierDy7ebnejc1","sub11","11","8","iti","null","img/motor_3.png","68","motor","","","","","","",""
"558","231746","HierDy7ebnejc1","sub11","11","8","motor","75","img/motor_7.png","75","motor","7","17","1","0","0","",""
"null","231856","HierDy7ebnejc1","sub11","11","8","iti","null","img/motor_7.png","75","motor","","","","","","",""
"856","232722","HierDy7ebnejc1","sub11","11","8","motor","83","img/motor_2.png","83","motor","2","18","1","0","0","",""
"null","232830","HierDy7ebnejc1","sub11","11","8","iti","null","img/motor_2.png","83","motor","","","","","","",""
"384","233224","HierDy7ebnejc1","sub11","11","8","motor","83","img/motor_2.png","83","motor","2","19","1","0","0","",""
"null","233335","HierDy7ebnejc1","sub11","11","8","iti","null","img/motor_2.png","83","motor","","","","","","",""
"511","233855","HierDy7ebnejc1","sub11","11","8","motor","68","img/motor_3.png","68","motor","3","20","1","0","0","",""
"null","233966","HierDy7ebnejc1","sub11","11","8","iti","null","img/motor_3.png","68","motor","","","","","","",""
"679","234654","HierDy7ebnejc1","sub11","11","8","motor","72","img/motor_5.png","72","motor","5","21","1","0","0","",""
"null","234765","HierDy7ebnejc1","sub11","11","8","iti","null","img/motor_5.png","72","motor","","","","","","",""
"843","235616","HierDy7ebnejc1","sub11","11","8","motor","76","img/motor_8.png","76","motor","8","22","1","0","0","",""
"null","235728","HierDy7ebnejc1","sub11","11","8","iti","null","img/motor_8.png","76","motor","","","","","","",""
"508","236245","HierDy7ebnejc1","sub11","11","8","motor","70","img/motor_4.png","70","motor","4","23","1","0","0","",""
"null","236353","HierDy7ebnejc1","sub11","11","8","iti","null","img/motor_4.png","70","motor","","","","","","",""
"350","236713","HierDy7ebnejc1","sub11","11","8","motor","70","img/motor_4.png","70","motor","4","24","1","0","0","",""
"null","236824","HierDy7ebnejc1","sub11","11","8","iti","null","img/motor_4.png","70","motor","","","","","","",""
"459","237291","HierDy7ebnejc1","sub11","11","8","motor","68","img/motor_3.png","68","motor","3","25","1","0","0","",""
"null","237403","HierDy7ebnejc1","sub11","11","8","iti","null","img/motor_3.png","68","motor","","","","","","",""
"725","238138","HierDy7ebnejc1","sub11","11","8","motor","76","img/motor_8.png","76","motor","8","26","1","0","0","",""
"null","238249","HierDy7ebnejc1","sub11","11","8","iti","null","img/motor_8.png","76","motor","","","","","","",""
"762","239020","HierDy7ebnejc1","sub11","11","8","motor","72","img/motor_5.png","72","motor","5","27","1","0","0","",""
"null","239131","HierDy7ebnejc1","sub11","11","8","iti","null","img/motor_5.png","72","motor","","","","","","",""
"332","239472","HierDy7ebnejc1","sub11","11","8","motor","72","img/motor_5.png","72","motor","5","28","1","0","0","",""
"null","239583","HierDy7ebnejc1","sub11","11","8","iti","null","img/motor_5.png","72","motor","","","","","","",""
"460","240053","HierDy7ebnejc1","sub11","11","8","motor","74","img/motor_6.png","74","motor","6","29","1","0","0","",""
"null","240165","HierDy7ebnejc1","sub11","11","8","iti","null","img/motor_6.png","74","motor","","","","","","",""
"600","240775","HierDy7ebnejc1","sub11","11","8","motor","72","img/motor_5.png","72","motor","5","30","1","0","0","",""
"null","240885","HierDy7ebnejc1","sub11","11","8","iti","null","img/motor_5.png","72","motor","","","","","","",""
"583","241477","HierDy7ebnejc1","sub11","11","8","motor","68","img/motor_3.png","68","motor","3","31","1","0","0","",""
"null","241586","HierDy7ebnejc1","sub11","11","8","iti","null","img/motor_3.png","68","motor","","","","","","",""
"522","242118","HierDy7ebnejc1","sub11","11","8","motor","72","img/motor_5.png","72","motor","5","32","1","0","0","",""
"null","242230","HierDy7ebnejc1","sub11","11","8","iti","null","img/motor_5.png","72","motor","","","","","","",""
"571","242810","HierDy7ebnejc1","sub11","11","8","motor","68","img/motor_3.png","68","motor","3","33","1","0","0","",""
"null","242922","HierDy7ebnejc1","sub11","11","8","iti","null","img/motor_3.png","68","motor","","","","","","",""
"557","243488","HierDy7ebnejc1","sub11","11","8","motor","65","img/motor_1.png","65","motor","1","34","1","0","0","",""
"null","243597","HierDy7ebnejc1","sub11","11","8","iti","null","img/motor_1.png","65","motor","","","","","","",""
"535","244141","HierDy7ebnejc1","sub11","11","8","motor","83","img/motor_2.png","83","motor","2","35","1","0","0","",""
"null","244249","HierDy7ebnejc1","sub11","11","8","iti","null","img/motor_2.png","83","motor","","","","","","",""
"363","244620","HierDy7ebnejc1","sub11","11","8","motor","83","img/motor_2.png","83","motor","2","36","1","0","0","",""
"null","244732","HierDy7ebnejc1","sub11","11","8","iti","null","img/motor_2.png","83","motor","","","","","","",""
"442","245181","HierDy7ebnejc1","sub11","11","8","motor","76","img/motor_8.png","76","motor","8","37","1","0","0","",""
"null","245289","HierDy7ebnejc1","sub11","11","8","iti","null","img/motor_8.png","76","motor","","","","","","",""
"557","245854","HierDy7ebnejc1","sub11","11","8","motor","68","img/motor_3.png","68","motor","3","38","1","0","0","",""
"null","245965","HierDy7ebnejc1","sub11","11","8","iti","null","img/motor_3.png","68","motor","","","","","","",""
"591","246565","HierDy7ebnejc1","sub11","11","8","motor","74","img/motor_6.png","74","motor","6","39","1","0","0","",""
"null","246677","HierDy7ebnejc1","sub11","11","8","iti","null","img/motor_6.png","74","motor","","","","","","",""
"563","247249","HierDy7ebnejc1","sub11","11","8","motor","68","img/motor_3.png","68","motor","3","40","1","0","0","",""
"null","247361","HierDy7ebnejc1","sub11","11","8","iti","null","img/motor_3.png","68","motor","","","","","","",""
"515","247886","HierDy7ebnejc1","sub11","11","8","motor","83","img/motor_2.png","83","motor","2","41","1","0","0","",""
"null","247994","HierDy7ebnejc1","sub11","11","8","iti","null","img/motor_2.png","83","motor","","","","","","",""
"570","248574","HierDy7ebnejc1","sub11","11","8","motor","68","img/motor_3.png","68","motor","3","42","1","0","0","",""
"null","248682","HierDy7ebnejc1","sub11","11","8","iti","null","img/motor_3.png","68","motor","","","","","","",""
"493","249185","HierDy7ebnejc1","sub11","11","8","motor","65","img/motor_1.png","65","motor","1","43","1","0","0","",""
"null","249295","HierDy7ebnejc1","sub11","11","8","iti","null","img/motor_1.png","65","motor","","","","","","",""
"648","249953","HierDy7ebnejc1","sub11","11","8","motor","83","img/motor_2.png","83","motor","2","44","1","0","0","",""
"null","250063","HierDy7ebnejc1","sub11","11","8","iti","null","img/motor_2.png","83","motor","","","","","","",""
"532","250603","HierDy7ebnejc1","sub11","11","8","motor","65","img/motor_1.png","65","motor","1","45","1","0","0","",""
"null","250714","HierDy7ebnejc1","sub11","11","8","iti","null","img/motor_1.png","65","motor","","","","","","",""
"921","251645","HierDy7ebnejc1","sub11","11","8","motor","70","img/motor_5.png","72","motor","5","46","0","1","0","",""
"933","252590","HierDy7ebnejc1","sub11","11","8","motorRepeat","72","img/motor_5.png","72","motor","5","46","1","0","0","",""
"null","252699","HierDy7ebnejc1","sub11","11","8","iti","null","img/motor_5.png","72","motor","","","","","","",""
"1389","254099","HierDy7ebnejc1","sub11","11","8","motor","65","img/motor_1.png","65","motor","1","47","1","0","0","",""
"null","254207","HierDy7ebnejc1","sub11","11","8","iti","null","img/motor_1.png","65","motor","","","","","","",""
"619","254835","HierDy7ebnejc1","sub11","11","8","motor","76","img/motor_8.png","76","motor","8","48","1","0","0","",""
"null","254946","HierDy7ebnejc1","sub11","11","8","iti","null","img/motor_8.png","76","motor","","","","","","",""
"838","255794","HierDy7ebnejc1","sub11","11","8","motor","74","img/motor_6.png","74","motor","6","49","1","0","0","",""
"null","255906","HierDy7ebnejc1","sub11","11","8","iti","null","img/motor_6.png","74","motor","","","","","","",""
"512","256427","HierDy7ebnejc1","sub11","11","8","motor","65","img/motor_1.png","65","motor","1","50","1","0","0","",""
"null","256538","HierDy7ebnejc1","sub11","11","8","iti","null","img/motor_1.png","65","motor","","","","","","",""
"491","257041","HierDy7ebnejc1","sub11","11","8","motor","76","img/motor_8.png","76","motor","8","51","1","0","0","",""
"null","257153","HierDy7ebnejc1","sub11","11","8","iti","null","img/motor_8.png","76","motor","","","","","","",""
"516","257680","HierDy7ebnejc1","sub11","11","8","motor","70","img/motor_4.png","70","motor","4","52","1","0","0","",""
"null","257792","HierDy7ebnejc1","sub11","11","8","iti","null","img/motor_4.png","70","motor","","","","","","",""
"594","258394","HierDy7ebnejc1","sub11","11","8","motor","72","img/motor_5.png","72","motor","5","53","1","0","0","",""
"null","258507","HierDy7ebnejc1","sub11","11","8","iti","null","img/motor_5.png","72","motor","","","","","","",""
"356","258873","HierDy7ebnejc1","sub11","11","8","motor","72","img/motor_5.png","72","motor","5","54","1","0","0","",""
"null","258985","HierDy7ebnejc1","sub11","11","8","iti","null","img/motor_5.png","72","motor","","","","","","",""
"542","259536","HierDy7ebnejc1","sub11","11","8","motor","75","img/motor_7.png","75","motor","7","55","1","0","0","",""
"null","259647","HierDy7ebnejc1","sub11","11","8","iti","null","img/motor_7.png","75","motor","","","","","","",""
"511","260167","HierDy7ebnejc1","sub11","11","8","motor","65","img/motor_1.png","65","motor","1","56","1","0","0","",""
"null","260279","HierDy7ebnejc1","sub11","11","8","iti","null","img/motor_1.png","65","motor","","","","","","",""
"582","260871","HierDy7ebnejc1","sub11","11","8","motor","74","img/motor_6.png","74","motor","6","57","1","0","0","",""
"null","260982","HierDy7ebnejc1","sub11","11","8","iti","null","img/motor_6.png","74","motor","","","","","","",""
"537","261529","HierDy7ebnejc1","sub11","11","8","motor","76","img/motor_8.png","76","motor","8","58","1","0","0","",""
"null","261638","HierDy7ebnejc1","sub11","11","8","iti","null","img/motor_8.png","76","motor","","","","","","",""
"517","262165","HierDy7ebnejc1","sub11","11","8","motor","83","img/motor_2.png","83","motor","2","59","1","0","0","",""
"null","262275","HierDy7ebnejc1","sub11","11","8","iti","null","img/motor_2.png","83","motor","","","","","","",""
"392","262676","HierDy7ebnejc1","sub11","11","8","motor","65","img/motor_1.png","65","motor","1","60","1","0","0","",""
"null","262787","HierDy7ebnejc1","sub11","11","8","iti","null","img/motor_1.png","65","motor","","","","","","",""
"698","263495","HierDy7ebnejc1","sub11","11","8","motor","70","img/motor_4.png","70","motor","4","61","1","0","0","",""
"null","263606","HierDy7ebnejc1","sub11","11","8","iti","null","img/motor_4.png","70","motor","","","","","","",""
"770","264386","HierDy7ebnejc1","sub11","11","8","motor","83","img/motor_2.png","83","motor","2","62","1","0","0","",""
"null","264496","HierDy7ebnejc1","sub11","11","8","iti","null","img/motor_2.png","83","motor","","","","","","",""
"711","265217","HierDy7ebnejc1","sub11","11","8","motor","68","img/motor_3.png","68","motor","3","63","1","0","0","",""
"null","265328","HierDy7ebnejc1","sub11","11","8","iti","null","img/motor_3.png","68","motor","","","","","","",""
"466","265801","HierDy7ebnejc1","sub11","11","8","motor","70","img/motor_4.png","70","motor","4","64","1","0","0","",""
"null","265912","HierDy7ebnejc1","sub11","11","8","iti","null","img/motor_4.png","70","motor","","","","","","",""
"584","266504","HierDy7ebnejc1","sub11","11","8","motor","74","img/motor_6.png","74","motor","6","65","1","0","0","",""
"null","266613","HierDy7ebnejc1","sub11","11","8","iti","null","img/motor_6.png","74","motor","","","","","","",""
"556","267177","HierDy7ebnejc1","sub11","11","8","motor","83","img/motor_2.png","83","motor","2","66","1","0","0","",""
"null","267287","HierDy7ebnejc1","sub11","11","8","iti","null","img/motor_2.png","83","motor","","","","","","",""
"691","267986","HierDy7ebnejc1","sub11","11","8","motor","74","img/motor_6.png","74","motor","6","67","1","0","0","",""
"null","268094","HierDy7ebnejc1","sub11","11","8","iti","null","img/motor_6.png","74","motor","","","","","","",""
"445","268548","HierDy7ebnejc1","sub11","11","8","motor","76","img/motor_8.png","76","motor","8","68","1","0","0","",""
"null","268657","HierDy7ebnejc1","sub11","11","8","iti","null","img/motor_8.png","76","motor","","","","","","",""
"545","269209","HierDy7ebnejc1","sub11","11","8","motor","75","img/motor_7.png","75","motor","7","69","1","0","0","",""
"null","269319","HierDy7ebnejc1","sub11","11","8","iti","null","img/motor_7.png","75","motor","","","","","","",""
"290","269616","HierDy7ebnejc1","sub11","11","8","motor","75","img/motor_7.png","75","motor","7","70","1","0","0","",""
"null","269726","HierDy7ebnejc1","sub11","11","8","iti","null","img/motor_7.png","75","motor","","","","","","",""
"510","270245","HierDy7ebnejc1","sub11","11","8","motor","83","img/motor_2.png","83","motor","2","71","1","0","0","",""
"null","270353","HierDy7ebnejc1","sub11","11","8","iti","null","img/motor_2.png","83","motor","","","","","","",""
"555","270916","HierDy7ebnejc1","sub11","11","8","motor","75","img/motor_7.png","75","motor","7","72","1","0","0","",""
"null","271026","HierDy7ebnejc1","sub11","11","8","iti","null","img/motor_7.png","75","motor","","","","","","",""
"640","271675","HierDy7ebnejc1","sub11","11","8","motor","70","img/motor_4.png","70","motor","4","73","1","0","0","",""
"null","271785","HierDy7ebnejc1","sub11","11","8","iti","null","img/motor_4.png","70","motor","","","","","","",""
"492","272286","HierDy7ebnejc1","sub11","11","8","motor","72","img/motor_5.png","72","motor","5","74","1","0","0","",""
"null","272393","HierDy7ebnejc1","sub11","11","8","iti","null","img/motor_5.png","72","motor","","","","","","",""
"695","273096","HierDy7ebnejc1","sub11","11","8","motor","83","img/motor_2.png","83","motor","2","75","1","0","0","",""
"null","273207","HierDy7ebnejc1","sub11","11","8","iti","null","img/motor_2.png","83","motor","","","","","","",""
"643","273859","HierDy7ebnejc1","sub11","11","8","motor","75","img/motor_7.png","75","motor","7","76","1","0","0","",""
"null","273967","HierDy7ebnejc1","sub11","11","8","iti","null","img/motor_7.png","75","motor","","","","","","",""
"425","274401","HierDy7ebnejc1","sub11","11","8","motor","76","img/motor_8.png","76","motor","8","77","1","0","0","",""
"null","274509","HierDy7ebnejc1","sub11","11","8","iti","null","img/motor_8.png","76","motor","","","","","","",""
"712","275231","HierDy7ebnejc1","sub11","11","8","motor","65","img/motor_1.png","65","motor","1","78","1","0","0","",""
"null","275340","HierDy7ebnejc1","sub11","11","8","iti","null","img/motor_1.png","65","motor","","","","","","",""
"639","275988","HierDy7ebnejc1","sub11","11","8","motor","74","img/motor_6.png","74","motor","6","79","1","0","0","",""
"null","276096","HierDy7ebnejc1","sub11","11","8","iti","null","img/motor_6.png","74","motor","","","","","","",""
"546","276651","HierDy7ebnejc1","sub11","11","8","motor","68","img/motor_3.png","68","motor","3","80","1","0","0","",""
"null","276761","HierDy7ebnejc1","sub11","11","8","iti","null","img/motor_3.png","68","motor","","","","","","",""
"431","277201","HierDy7ebnejc1","sub11","11","8","motor","76","img/motor_8.png","76","motor","8","81","1","0","0","",""
"null","277310","HierDy7ebnejc1","sub11","11","8","iti","null","img/motor_8.png","76","motor","","","","","","",""
"431","277749","HierDy7ebnejc1","sub11","11","8","motor","65","img/motor_1.png","65","motor","1","82","1","0","0","",""
"null","277860","HierDy7ebnejc1","sub11","11","8","iti","null","img/motor_1.png","65","motor","","","","","","",""
"490","278357","HierDy7ebnejc1","sub11","11","8","motor","83","img/motor_2.png","83","motor","2","83","1","0","0","",""
"null","278469","HierDy7ebnejc1","sub11","11","8","iti","null","img/motor_2.png","83","motor","","","","","","",""
"414","278891","HierDy7ebnejc1","sub11","11","8","motor","76","img/motor_8.png","76","motor","8","84","1","0","0","",""
"null","278998","HierDy7ebnejc1","sub11","11","8","iti","null","img/motor_8.png","76","motor","","","","","","",""
"403","279411","HierDy7ebnejc1","sub11","11","8","motor","83","img/motor_2.png","83","motor","2","85","1","0","0","",""
"null","279520","HierDy7ebnejc1","sub11","11","8","iti","null","img/motor_2.png","83","motor","","","","","","",""
"748","280277","HierDy7ebnejc1","sub11","11","8","motor","74","img/motor_6.png","74","motor","6","86","1","0","0","",""
"null","280385","HierDy7ebnejc1","sub11","11","8","iti","null","img/motor_6.png","74","motor","","","","","","",""
"613","281006","HierDy7ebnejc1","sub11","11","8","motor","72","img/motor_5.png","72","motor","5","87","1","0","0","",""
"null","281114","HierDy7ebnejc1","sub11","11","8","iti","null","img/motor_5.png","72","motor","","","","","","",""
"426","281546","HierDy7ebnejc1","sub11","11","8","motor","74","img/motor_6.png","74","motor","6","88","1","0","0","",""
"null","281655","HierDy7ebnejc1","sub11","11","8","iti","null","img/motor_6.png","74","motor","","","","","","",""
"729","282394","HierDy7ebnejc1","sub11","11","8","motor","70","img/motor_4.png","70","motor","4","89","1","0","0","",""
"null","282506","HierDy7ebnejc1","sub11","11","8","iti","null","img/motor_4.png","70","motor","","","","","","",""
"373","282887","HierDy7ebnejc1","sub11","11","8","motor","70","img/motor_4.png","70","motor","4","90","1","0","0","",""
"null","282995","HierDy7ebnejc1","sub11","11","8","iti","null","img/motor_4.png","70","motor","","","","","","",""
"501","283503","HierDy7ebnejc1","sub11","11","8","motor","75","img/motor_7.png","75","motor","7","91","1","0","0","",""
"null","283611","HierDy7ebnejc1","sub11","11","8","iti","null","img/motor_7.png","75","motor","","","","","","",""
"463","284083","HierDy7ebnejc1","sub11","11","8","motor","70","img/motor_4.png","70","motor","4","92","1","0","0","",""
"null","284193","HierDy7ebnejc1","sub11","11","8","iti","null","img/motor_4.png","70","motor","","","","","","",""
"613","284816","HierDy7ebnejc1","sub11","11","8","motor","68","img/motor_3.png","68","motor","3","93","1","0","0","",""
"null","284927","HierDy7ebnejc1","sub11","11","8","iti","null","img/motor_3.png","68","motor","","","","","","",""
"314","285250","HierDy7ebnejc1","sub11","11","8","motor","68","img/motor_3.png","68","motor","3","94","1","0","0","",""
"null","285360","HierDy7ebnejc1","sub11","11","8","iti","null","img/motor_3.png","68","motor","","","","","","",""
"630","285998","HierDy7ebnejc1","sub11","11","8","motor","83","img/motor_2.png","83","motor","2","95","1","0","0","",""
"null","286107","HierDy7ebnejc1","sub11","11","8","iti","null","img/motor_2.png","83","motor","","","","","","",""
"386","286501","HierDy7ebnejc1","sub11","11","8","motor","65","img/motor_1.png","65","motor","1","96","1","0","0","",""
"null","286612","HierDy7ebnejc1","sub11","11","8","iti","null","img/motor_1.png","65","motor","","","","","","",""
"416","287038","HierDy7ebnejc1","sub11","11","8","motor","76","img/motor_8.png","76","motor","8","97","1","0","0","",""
"null","287145","HierDy7ebnejc1","sub11","11","8","iti","null","img/motor_8.png","76","motor","","","","","","",""
"492","287649","HierDy7ebnejc1","sub11","11","8","motor","83","img/motor_2.png","83","motor","2","98","1","0","0","",""
"null","287760","HierDy7ebnejc1","sub11","11","8","iti","null","img/motor_2.png","83","motor","","","","","","",""
"450","288222","HierDy7ebnejc1","sub11","11","8","motor","83","img/motor_2.png","83","motor","2","99","1","0","0","",""
"null","288334","HierDy7ebnejc1","sub11","11","8","iti","null","img/motor_2.png","83","motor","","","","","","",""
"693","289035","HierDy7ebnejc1","sub11","11","8","motor","75","img/motor_7.png","75","motor","7","100","1","0","0","",""
"null","289143","HierDy7ebnejc1","sub11","11","8","iti","null","img/motor_7.png","75","motor","","","","","","",""
"492","289641","HierDy7ebnejc1","sub11","11","8","motor","76","img/motor_8.png","76","motor","8","101","1","0","0","",""
"null","289749","HierDy7ebnejc1","sub11","11","8","iti","null","img/motor_8.png","76","motor","","","","","","",""
"729","290486","HierDy7ebnejc1","sub11","11","8","motor","72","img/motor_6.png","74","motor","6","102","0","1","0","",""
"272","290767","HierDy7ebnejc1","sub11","11","8","motorRepeat","74","img/motor_6.png","74","motor","6","102","1","0","0","",""
"null","290875","HierDy7ebnejc1","sub11","11","8","iti","null","img/motor_6.png","74","motor","","","","","","",""
"522","291406","HierDy7ebnejc1","sub11","11","8","motor","70","img/motor_4.png","70","motor","4","103","1","0","0","",""
"null","291519","HierDy7ebnejc1","sub11","11","8","iti","null","img/motor_4.png","70","motor","","","","","","",""
"450","291977","HierDy7ebnejc1","sub11","11","8","motor","74","img/motor_6.png","74","motor","6","104","1","0","0","",""
"null","292085","HierDy7ebnejc1","sub11","11","8","iti","null","img/motor_6.png","74","motor","","","","","","",""
"737","292829","HierDy7ebnejc1","sub11","11","8","motor","72","img/motor_5.png","72","motor","5","105","1","0","0","",""
"null","292937","HierDy7ebnejc1","sub11","11","8","iti","null","img/motor_5.png","72","motor","","","","","","",""
"799","293744","HierDy7ebnejc1","sub11","11","8","motor","70","img/motor_4.png","70","motor","4","106","1","0","0","",""
"null","293854","HierDy7ebnejc1","sub11","11","8","iti","null","img/motor_4.png","70","motor","","","","","","",""
"573","294437","HierDy7ebnejc1","sub11","11","8","motor","68","img/motor_3.png","68","motor","3","107","1","0","0","",""
"null","294547","HierDy7ebnejc1","sub11","11","8","iti","null","img/motor_3.png","68","motor","","","","","","",""
"576","295132","HierDy7ebnejc1","sub11","11","8","motor","65","img/motor_1.png","65","motor","1","108","1","0","0","",""
"null","295240","HierDy7ebnejc1","sub11","11","8","iti","null","img/motor_1.png","65","motor","","","","","","",""
"904","296152","HierDy7ebnejc1","sub11","11","8","motor","74","img/motor_6.png","74","motor","6","109","1","0","0","",""
"null","296260","HierDy7ebnejc1","sub11","11","8","iti","null","img/motor_6.png","74","motor","","","","","","",""
"692","296962","HierDy7ebnejc1","sub11","11","8","motor","70","img/motor_4.png","70","motor","4","110","1","0","0","",""
"null","297074","HierDy7ebnejc1","sub11","11","8","iti","null","img/motor_4.png","70","motor","","","","","","",""
"420","297502","HierDy7ebnejc1","sub11","11","8","motor","76","img/motor_8.png","76","motor","8","111","1","0","0","",""
"null","297610","HierDy7ebnejc1","sub11","11","8","iti","null","img/motor_8.png","76","motor","","","","","","",""
"732","298350","HierDy7ebnejc1","sub11","11","8","motor","74","img/motor_6.png","74","motor","6","112","1","0","0","",""
"null","298459","HierDy7ebnejc1","sub11","11","8","iti","null","img/motor_6.png","74","motor","","","","","","",""
"708","299176","HierDy7ebnejc1","sub11","11","8","motor","76","img/motor_8.png","76","motor","8","113","1","0","0","",""
"null","299284","HierDy7ebnejc1","sub11","11","8","iti","null","img/motor_8.png","76","motor","","","","","","",""
"617","299909","HierDy7ebnejc1","sub11","11","8","motor","68","img/motor_3.png","68","motor","3","114","1","0","0","",""
"null","300020","HierDy7ebnejc1","sub11","11","8","iti","null","img/motor_3.png","68","motor","","","","","","",""
"446","300474","HierDy7ebnejc1","sub11","11","8","motor","76","img/motor_8.png","76","motor","8","115","1","0","0","",""
"null","300583","HierDy7ebnejc1","sub11","11","8","iti","null","img/motor_8.png","76","motor","","","","","","",""
"575","301167","HierDy7ebnejc1","sub11","11","8","motor","75","img/motor_7.png","75","motor","7","116","1","0","0","",""
"null","301276","HierDy7ebnejc1","sub11","11","8","iti","null","img/motor_7.png","75","motor","","","","","","",""
"507","301791","HierDy7ebnejc1","sub11","11","8","motor","72","img/motor_5.png","72","motor","5","117","1","0","0","",""
"null","301898","HierDy7ebnejc1","sub11","11","8","iti","null","img/motor_5.png","72","motor","","","","","","",""
"621","302530","HierDy7ebnejc1","sub11","11","8","motor","68","img/motor_3.png","68","motor","3","118","1","0","0","",""
"null","302638","HierDy7ebnejc1","sub11","11","8","iti","null","img/motor_3.png","68","motor","","","","","","",""
"527","303173","HierDy7ebnejc1","sub11","11","8","motor","72","img/motor_5.png","72","motor","5","119","1","0","0","",""
"null","303283","HierDy7ebnejc1","sub11","11","8","iti","null","img/motor_5.png","72","motor","","","","","","",""
"713","304004","HierDy7ebnejc1","sub11","11","8","motor","75","img/motor_7.png","75","motor","7","120","1","0","0","",""
"null","304112","HierDy7ebnejc1","sub11","11","8","iti","null","img/motor_7.png","75","motor","","","","","","",""
"595","304714","HierDy7ebnejc1","sub11","11","8","motor","65","img/motor_1.png","65","motor","1","121","1","0","0","",""
"null","304824","HierDy7ebnejc1","sub11","11","8","iti","null","img/motor_1.png","65","motor","","","","","","",""
"310","305143","HierDy7ebnejc1","sub11","11","8","motor","65","img/motor_1.png","65","motor","1","122","1","0","0","",""
"null","305250","HierDy7ebnejc1","sub11","11","8","iti","null","img/motor_1.png","65","motor","","","","","","",""
"585","305844","HierDy7ebnejc1","sub11","11","8","motor","83","img/motor_2.png","83","motor","2","123","1","0","0","",""
"null","305953","HierDy7ebnejc1","sub11","11","8","iti","null","img/motor_2.png","83","motor","","","","","","",""
"616","306577","HierDy7ebnejc1","sub11","11","8","motor","70","img/motor_4.png","70","motor","4","124","1","0","0","",""
"null","306687","HierDy7ebnejc1","sub11","11","8","iti","null","img/motor_4.png","70","motor","","","","","","",""
"539","307236","HierDy7ebnejc1","sub11","11","8","motor","75","img/motor_7.png","75","motor","7","125","1","0","0","",""
"null","307344","HierDy7ebnejc1","sub11","11","8","iti","null","img/motor_7.png","75","motor","","","","","","",""
"510","307863","HierDy7ebnejc1","sub11","11","8","motor","74","img/motor_6.png","74","motor","6","126","1","0","0","",""
"null","307972","HierDy7ebnejc1","sub11","11","8","iti","null","img/motor_6.png","74","motor","","","","","","",""
"336","308316","HierDy7ebnejc1","sub11","11","8","motor","72","img/motor_5.png","72","motor","5","127","1","0","0","",""
"null","308424","HierDy7ebnejc1","sub11","11","8","iti","null","img/motor_5.png","72","motor","","","","","","",""
"459","308888","HierDy7ebnejc1","sub11","11","8","motor","74","img/motor_6.png","74","motor","6","128","1","0","0","",""
"null","308996","HierDy7ebnejc1","sub11","11","8","iti","null","img/motor_6.png","74","motor","","","","","","",""
"684","309689","HierDy7ebnejc1","sub11","11","8","motor","83","img/motor_2.png","83","motor","2","129","1","0","0","",""
"null","309802","HierDy7ebnejc1","sub11","11","8","iti","null","img/motor_2.png","83","motor","","","","","","",""
"466","310275","HierDy7ebnejc1","sub11","11","8","motor","76","img/motor_8.png","76","motor","8","130","1","0","0","",""
"null","310385","HierDy7ebnejc1","sub11","11","8","iti","null","img/motor_8.png","76","motor","","","","","","",""
"299","310691","HierDy7ebnejc1","sub11","11","8","motor","76","img/motor_8.png","76","motor","8","131","1","0","0","",""
"null","310799","HierDy7ebnejc1","sub11","11","8","iti","null","img/motor_8.png","76","motor","","","","","","",""
"518","311325","HierDy7ebnejc1","sub11","11","8","motor","75","img/motor_7.png","75","motor","7","132","1","0","0","",""
"null","311433","HierDy7ebnejc1","sub11","11","8","iti","null","img/motor_7.png","75","motor","","","","","","",""
"442","311883","HierDy7ebnejc1","sub11","11","8","motor","65","img/motor_1.png","65","motor","1","133","1","0","0","",""
"null","311993","HierDy7ebnejc1","sub11","11","8","iti","null","img/motor_1.png","65","motor","","","","","","",""
"485","312486","HierDy7ebnejc1","sub11","11","8","motor","72","img/motor_5.png","72","motor","5","134","1","0","0","",""
"null","312594","HierDy7ebnejc1","sub11","11","8","iti","null","img/motor_5.png","72","motor","","","","","","",""
"501","313102","HierDy7ebnejc1","sub11","11","8","motor","76","img/motor_8.png","76","motor","8","135","1","0","0","",""
"null","313211","HierDy7ebnejc1","sub11","11","8","iti","null","img/motor_8.png","76","motor","","","","","","",""
"570","313789","HierDy7ebnejc1","sub11","11","8","motor","70","img/motor_4.png","70","motor","4","136","1","0","0","",""
"null","313900","HierDy7ebnejc1","sub11","11","8","iti","null","img/motor_4.png","70","motor","","","","","","",""
"554","314463","HierDy7ebnejc1","sub11","11","8","motor","75","img/motor_7.png","75","motor","7","137","1","0","0","",""
"null","314571","HierDy7ebnejc1","sub11","11","8","iti","null","img/motor_7.png","75","motor","","","","","","",""
"644","315224","HierDy7ebnejc1","sub11","11","8","motor","83","img/motor_2.png","83","motor","2","138","1","0","0","",""
"null","315336","HierDy7ebnejc1","sub11","11","8","iti","null","img/motor_2.png","83","motor","","","","","","",""
"450","315793","HierDy7ebnejc1","sub11","11","8","motor","75","img/motor_7.png","75","motor","7","139","1","0","0","",""
"null","315901","HierDy7ebnejc1","sub11","11","8","iti","null","img/motor_7.png","75","motor","","","","","","",""
"672","316580","HierDy7ebnejc1","sub11","11","8","motor","76","img/motor_8.png","76","motor","8","140","1","0","0","",""
"null","316689","HierDy7ebnejc1","sub11","11","8","iti","null","img/motor_8.png","76","motor","","","","","","",""
"631","317332","HierDy7ebnejc1","sub11","11","8","motor","70","img/motor_4.png","70","motor","4","141","1","0","0","",""
"null","317444","HierDy7ebnejc1","sub11","11","8","iti","null","img/motor_4.png","70","motor","","","","","","",""
"542","317996","HierDy7ebnejc1","sub11","11","8","motor","74","img/motor_6.png","74","motor","6","142","1","0","0","",""
"null","318105","HierDy7ebnejc1","sub11","11","8","iti","null","img/motor_6.png","74","motor","","","","","","",""
"359","318471","HierDy7ebnejc1","sub11","11","8","motor","74","img/motor_6.png","74","motor","6","143","1","0","0","",""
"null","318582","HierDy7ebnejc1","sub11","11","8","iti","null","img/motor_6.png","74","motor","","","","","","",""
"474","319067","HierDy7ebnejc1","sub11","11","8","motor","68","img/motor_3.png","68","motor","3","144","1","0","0","",""
"null","319177","HierDy7ebnejc1","sub11","11","8","iti","null","img/motor_3.png","68","motor","","","","","","",""
"487","319674","HierDy7ebnejc1","sub11","11","8","motor","75","img/motor_7.png","75","motor","7","145","1","0","0","",""
"null","319783","HierDy7ebnejc1","sub11","11","8","iti","null","img/motor_7.png","75","motor","","","","","","",""
"498","320292","HierDy7ebnejc1","sub11","11","8","motor","68","img/motor_3.png","68","motor","3","146","1","0","0","",""
"90","320400","HierDy7ebnejc1","sub11","11","8","iti","68","img/motor_3.png","68","motor","","","","","","",""
"288","320697","HierDy7ebnejc1","sub11","11","8","motor","68","img/motor_3.png","68","motor","3","147","1","0","0","",""
"null","320809","HierDy7ebnejc1","sub11","11","8","iti","null","img/motor_3.png","68","motor","","","","","","",""
"585","321405","HierDy7ebnejc1","sub11","11","8","motor","75","img/motor_7.png","75","motor","7","148","1","0","0","",""
"null","321514","HierDy7ebnejc1","sub11","11","8","iti","null","img/motor_7.png","75","motor","","","","","","",""
"628","322155","HierDy7ebnejc1","sub11","11","8","motor","83","img/motor_2.png","83","motor","2","149","1","0","0","",""
"null","322267","HierDy7ebnejc1","sub11","11","8","iti","null","img/motor_2.png","83","motor","","","","","","",""
"254","322531","HierDy7ebnejc1","sub11","11","8","motor","83","img/motor_2.png","83","motor","2","150","1","0","0","",""
"null","322643","HierDy7ebnejc1","sub11","11","8","iti","null","img/motor_2.png","83","motor","","","","","","",""
"547","323199","HierDy7ebnejc1","sub11","11","8","motor","74","img/motor_6.png","74","motor","6","151","1","0","0","",""
"null","323308","HierDy7ebnejc1","sub11","11","8","iti","null","img/motor_6.png","74","motor","","","","","","",""
"540","323858","HierDy7ebnejc1","sub11","11","8","motor","74","img/motor_6.png","74","motor","6","152","1","0","0","",""
"null","323967","HierDy7ebnejc1","sub11","11","8","iti","null","img/motor_6.png","74","motor","","","","","","",""
"419","324394","HierDy7ebnejc1","sub11","11","8","motor","75","img/motor_7.png","75","motor","7","153","1","0","0","",""
"null","324504","HierDy7ebnejc1","sub11","11","8","iti","null","img/motor_7.png","75","motor","","","","","","",""
"414","324926","HierDy7ebnejc1","sub11","11","8","motor","76","img/motor_8.png","76","motor","8","154","1","0","0","",""
"null","325034","HierDy7ebnejc1","sub11","11","8","iti","null","img/motor_8.png","76","motor","","","","","","",""
"396","325438","HierDy7ebnejc1","sub11","11","8","motor","72","img/motor_5.png","72","motor","5","155","1","0","0","",""
"null","325546","HierDy7ebnejc1","sub11","11","8","iti","null","img/motor_5.png","72","motor","","","","","","",""
"85","325639","HierDy7ebnejc1","sub11","11","8","motor","72","img/motor_7.png","75","motor","7","156","0","1","0","",""
"388","326035","HierDy7ebnejc1","sub11","11","8","motorRepeat","75","img/motor_7.png","75","motor","7","156","1","0","0","",""
"null","326142","HierDy7ebnejc1","sub11","11","8","iti","null","img/motor_7.png","75","motor","","","","","","",""
"308","326458","HierDy7ebnejc1","sub11","11","8","motor","75","img/motor_7.png","75","motor","7","157","1","0","0","",""
"null","326567","HierDy7ebnejc1","sub11","11","8","iti","null","img/motor_7.png","75","motor","","","","","","",""
"627","327201","HierDy7ebnejc1","sub11","11","8","motor","72","img/motor_5.png","72","motor","5","158","1","0","0","",""
"null","327309","HierDy7ebnejc1","sub11","11","8","iti","null","img/motor_5.png","72","motor","","","","","","",""
"406","327722","HierDy7ebnejc1","sub11","11","8","motor","72","img/motor_5.png","72","motor","5","159","1","0","0","",""
"null","327829","HierDy7ebnejc1","sub11","11","8","iti","null","img/motor_5.png","72","motor","","","","","","",""
"365","328206","HierDy7ebnejc1","sub11","11","8","motor","75","img/motor_7.png","75","motor","7","160","1","0","0","",""
"null","328317","HierDy7ebnejc1","sub11","11","8","iti","null","img/motor_7.png","75","motor","","","","","","",""
"341","328669","HierDy7ebnejc1","sub11","11","8","motor","72","img/motor_5.png","72","motor","5","161","1","0","0","",""
"null","328780","HierDy7ebnejc1","sub11","11","8","iti","null","img/motor_5.png","72","motor","","","","","","",""
"566","329355","HierDy7ebnejc1","sub11","11","8","motor","83","img/motor_2.png","83","motor","2","162","1","0","0","",""
"null","329466","HierDy7ebnejc1","sub11","11","8","iti","null","img/motor_2.png","83","motor","","","","","","",""
"383","329856","HierDy7ebnejc1","sub11","11","8","motor","65","img/motor_1.png","65","motor","1","163","1","0","0","",""
"null","329966","HierDy7ebnejc1","sub11","11","8","iti","null","img/motor_1.png","65","motor","","","","","","",""
"502","330476","HierDy7ebnejc1","sub11","11","8","motor","83","img/motor_2.png","83","motor","2","164","1","0","0","",""
"null","330585","HierDy7ebnejc1","sub11","11","8","iti","null","img/motor_2.png","83","motor","","","","","","",""
"483","331078","HierDy7ebnejc1","sub11","11","8","motor","68","img/motor_3.png","68","motor","3","165","1","0","0","",""
"null","331189","HierDy7ebnejc1","sub11","11","8","iti","null","img/motor_3.png","68","motor","","","","","","",""
"452","331651","HierDy7ebnejc1","sub11","11","8","motor","83","img/motor_2.png","83","motor","2","166","1","0","0","",""
"null","331762","HierDy7ebnejc1","sub11","11","8","iti","null","img/motor_2.png","83","motor","","","","","","",""
"526","332296","HierDy7ebnejc1","sub11","11","8","motor","68","img/motor_3.png","68","motor","3","167","1","0","0","",""
"null","332408","HierDy7ebnejc1","sub11","11","8","iti","null","img/motor_3.png","68","motor","","","","","","",""
"508","332927","HierDy7ebnejc1","sub11","11","8","motor","65","img/motor_1.png","65","motor","1","168","1","0","0","",""
"null","333038","HierDy7ebnejc1","sub11","11","8","iti","null","img/motor_1.png","65","motor","","","","","","",""
"643","333689","HierDy7ebnejc1","sub11","11","8","motor","76","img/motor_8.png","76","motor","8","169","1","0","0","",""
"null","333796","HierDy7ebnejc1","sub11","11","8","iti","null","img/motor_8.png","76","motor","","","","","","",""
"635","334443","HierDy7ebnejc1","sub11","11","8","motor","83","img/motor_2.png","83","motor","2","170","1","0","0","",""
"null","334554","HierDy7ebnejc1","sub11","11","8","iti","null","img/motor_2.png","83","motor","","","","","","",""
"1090","335652","HierDy7ebnejc1","sub11","11","8","motor","72","img/motor_5.png","72","motor","5","171","1","0","0","",""
"null","335761","HierDy7ebnejc1","sub11","11","8","iti","null","img/motor_5.png","72","motor","","","","","","",""
"482","336250","HierDy7ebnejc1","sub11","11","8","motor","75","img/motor_7.png","75","motor","7","172","1","0","0","",""
"null","336359","HierDy7ebnejc1","sub11","11","8","iti","null","img/motor_7.png","75","motor","","","","","","",""
"826","337194","HierDy7ebnejc1","sub11","11","8","motor","70","img/motor_4.png","70","motor","4","173","1","0","0","",""
"null","337305","HierDy7ebnejc1","sub11","11","8","iti","null","img/motor_4.png","70","motor","","","","","","",""
"573","337886","HierDy7ebnejc1","sub11","11","8","motor","76","img/motor_8.png","76","motor","8","174","1","0","0","",""
"null","337994","HierDy7ebnejc1","sub11","11","8","iti","null","img/motor_8.png","76","motor","","","","","","",""
"431","338434","HierDy7ebnejc1","sub11","11","8","motor","65","img/motor_1.png","65","motor","1","175","1","0","0","",""
"null","338544","HierDy7ebnejc1","sub11","11","8","iti","null","img/motor_1.png","65","motor","","","","","","",""
"639","339191","HierDy7ebnejc1","sub11","11","8","motor","75","img/motor_7.png","75","motor","7","176","1","0","0","",""
"null","339300","HierDy7ebnejc1","sub11","11","8","iti","null","img/motor_7.png","75","motor","","","","","","",""
"1218","340527","HierDy7ebnejc1","sub11","11","8","motor","70","img/motor_3.png","68","motor","3","177","0","1","0","",""
"470","341004","HierDy7ebnejc1","sub11","11","8","motorRepeat","68","img/motor_3.png","68","motor","3","177","1","0","0","",""
"null","341115","HierDy7ebnejc1","sub11","11","8","iti","null","img/motor_3.png","68","motor","","","","","","",""
"925","342050","HierDy7ebnejc1","sub11","11","8","motor","74","img/motor_6.png","74","motor","6","178","1","0","0","",""
"null","342158","HierDy7ebnejc1","sub11","11","8","iti","null","img/motor_6.png","74","motor","","","","","","",""
"324","342489","HierDy7ebnejc1","sub11","11","8","motor","75","img/motor_7.png","75","motor","7","179","1","0","0","",""
"null","342598","HierDy7ebnejc1","sub11","11","8","iti","null","img/motor_7.png","75","motor","","","","","","",""
"462","343068","HierDy7ebnejc1","sub11","11","8","motor","74","img/motor_6.png","74","motor","6","180","1","0","0","",""
"null","343177","HierDy7ebnejc1","sub11","11","8","iti","null","img/motor_6.png","74","motor","","","","","","",""
"486","343673","HierDy7ebnejc1","sub11","11","8","motor","83","img/motor_2.png","83","motor","2","181","1","0","0","",""
"null","343785","HierDy7ebnejc1","sub11","11","8","iti","null","img/motor_2.png","83","motor","","","","","","",""
"670","344463","HierDy7ebnejc1","sub11","11","8","motor","75","img/motor_7.png","75","motor","7","182","1","0","0","",""
"null","344571","HierDy7ebnejc1","sub11","11","8","iti","null","img/motor_7.png","75","motor","","","","","","",""
"424","345003","HierDy7ebnejc1","sub11","11","8","motor","76","img/motor_8.png","76","motor","8","183","1","0","0","",""
"null","345112","HierDy7ebnejc1","sub11","11","8","iti","null","img/motor_8.png","76","motor","","","","","","",""
"530","345651","HierDy7ebnejc1","sub11","11","8","motor","74","img/motor_6.png","74","motor","6","184","1","0","0","",""
"null","345759","HierDy7ebnejc1","sub11","11","8","iti","null","img/motor_6.png","74","motor","","","","","","",""
"473","346239","HierDy7ebnejc1","sub11","11","8","motor","75","img/motor_7.png","75","motor","7","185","1","0","0","",""
"null","346349","HierDy7ebnejc1","sub11","11","8","iti","null","img/motor_7.png","75","motor","","","","","","",""
"847","347206","HierDy7ebnejc1","sub11","11","8","motor","65","img/motor_1.png","65","motor","1","186","1","0","0","",""
"null","347318","HierDy7ebnejc1","sub11","11","8","iti","null","img/motor_1.png","65","motor","","","","","","",""
"553","347880","HierDy7ebnejc1","sub11","11","8","motor","75","img/motor_7.png","75","motor","7","187","1","0","0","",""
"null","347989","HierDy7ebnejc1","sub11","11","8","iti","null","img/motor_7.png","75","motor","","","","","","",""
"515","348512","HierDy7ebnejc1","sub11","11","8","motor","83","img/motor_3.png","68","motor","3","188","0","1","0","",""
"298","348818","HierDy7ebnejc1","sub11","11","8","motorRepeat","68","img/motor_3.png","68","motor","3","188","1","0","0","",""
"null","348929","HierDy7ebnejc1","sub11","11","8","iti","null","img/motor_3.png","68","motor","","","","","","",""
"473","349410","HierDy7ebnejc1","sub11","11","8","motor","72","img/motor_5.png","72","motor","5","189","1","0","0","",""
"null","349518","HierDy7ebnejc1","sub11","11","8","iti","null","img/motor_5.png","72","motor","","","","","","",""
"513","350041","HierDy7ebnejc1","sub11","11","8","motor","68","img/motor_4.png","70","motor","4","190","0","1","0","",""
"286","350334","HierDy7ebnejc1","sub11","11","8","motorRepeat","70","img/motor_4.png","70","motor","4","190","1","0","0","",""
"null","350447","HierDy7ebnejc1","sub11","11","8","iti","null","img/motor_4.png","70","motor","","","","","","",""
"437","350892","HierDy7ebnejc1","sub11","11","8","motor","76","img/motor_8.png","76","motor","8","191","1","0","0","",""
"null","351000","HierDy7ebnejc1","sub11","11","8","iti","null","img/motor_8.png","76","motor","","","","","","",""
"486","351493","HierDy7ebnejc1","sub11","11","8","motor","75","img/motor_7.png","75","motor","7","192","1","0","0","",""
"null","351602","HierDy7ebnejc1","sub11","11","8","iti","null","img/motor_7.png","75","motor","","","","","","",""
"537","352146","HierDy7ebnejc1","sub11","11","8","motor","70","img/motor_4.png","70","motor","4","193","1","0","0","",""
"null","352255","HierDy7ebnejc1","sub11","11","8","iti","null","img/motor_4.png","70","motor","","","","","","",""
"430","352693","HierDy7ebnejc1","sub11","11","8","motor","76","img/motor_8.png","76","motor","8","194","1","0","0","",""
"null","352802","HierDy7ebnejc1","sub11","11","8","iti","null","img/motor_8.png","76","motor","","","","","","",""
"341","353150","HierDy7ebnejc1","sub11","11","8","motor","76","img/motor_8.png","76","motor","8","195","1","0","0","",""
"null","353259","HierDy7ebnejc1","sub11","11","8","iti","null","img/motor_8.png","76","motor","","","","","","",""
"690","353957","HierDy7ebnejc1","sub11","11","8","motor","72","img/motor_5.png","72","motor","5","196","1","0","0","",""
"null","354066","HierDy7ebnejc1","sub11","11","8","iti","null","img/motor_5.png","72","motor","","","","","","",""
"396","354471","HierDy7ebnejc1","sub11","11","8","motor","76","img/motor_8.png","76","motor","8","197","1","0","0","",""
"null","354580","HierDy7ebnejc1","sub11","11","8","iti","null","img/motor_8.png","76","motor","","","","","","",""
"473","355062","HierDy7ebnejc1","sub11","11","8","motor","75","img/motor_7.png","75","motor","7","198","1","0","0","",""
"null","355171","HierDy7ebnejc1","sub11","11","8","iti","null","img/motor_7.png","75","motor","","","","","","",""
"576","355755","HierDy7ebnejc1","sub11","11","8","motor","83","img/motor_2.png","83","motor","2","199","1","0","0","",""
"null","355866","HierDy7ebnejc1","sub11","11","8","iti","null","img/motor_2.png","83","motor","","","","","","",""
"621","356495","HierDy7ebnejc1","sub11","11","8","motor","68","img/motor_4.png","70","motor","4","200","0","1","0","",""
"250","356754","HierDy7ebnejc1","sub11","11","8","motorRepeat","70","img/motor_4.png","70","motor","4","200","1","0","0","",""
"null","356862","HierDy7ebnejc1","sub11","11","8","iti","null","img/motor_4.png","70","motor","","","","","","",""
"540","357411","HierDy7ebnejc1","sub11","11","8","motor","68","img/motor_3.png","68","motor","3","201","1","0","0","",""
"null","357521","HierDy7ebnejc1","sub11","11","8","iti","null","img/motor_3.png","68","motor","","","","","","",""
"595","358125","HierDy7ebnejc1","sub11","11","8","motor","75","img/motor_7.png","75","motor","7","202","1","0","0","",""
"null","358233","HierDy7ebnejc1","sub11","11","8","iti","null","img/motor_7.png","75","motor","","","","","","",""
"775","359018","HierDy7ebnejc1","sub11","11","8","motor","83","img/motor_2.png","83","motor","2","203","1","0","0","",""
"null","359128","HierDy7ebnejc1","sub11","11","8","iti","null","img/motor_2.png","83","motor","","","","","","",""
"590","359724","HierDy7ebnejc1","sub11","11","8","motor","68","img/motor_3.png","68","motor","3","204","1","0","0","",""
"null","359833","HierDy7ebnejc1","sub11","11","8","iti","null","img/motor_3.png","68","motor","","","","","","",""
"753","360594","HierDy7ebnejc1","sub11","11","8","motor","74","img/motor_6.png","74","motor","6","205","1","0","0","",""
"null","360702","HierDy7ebnejc1","sub11","11","8","iti","null","img/motor_6.png","74","motor","","","","","","",""
"547","361257","HierDy7ebnejc1","sub11","11","8","motor","70","img/motor_4.png","70","motor","4","206","1","0","0","",""
"null","361368","HierDy7ebnejc1","sub11","11","8","iti","null","img/motor_4.png","70","motor","","","","","","",""
"559","361935","HierDy7ebnejc1","sub11","11","8","motor","76","img/motor_8.png","76","motor","8","207","1","0","0","",""
"null","362045","HierDy7ebnejc1","sub11","11","8","iti","null","img/motor_8.png","76","motor","","","","","","",""
"629","362682","HierDy7ebnejc1","sub11","11","8","motor","83","img/motor_2.png","83","motor","2","208","1","0","0","",""
"null","362790","HierDy7ebnejc1","sub11","11","8","iti","null","img/motor_2.png","83","motor","","","","","","",""
"522","363321","HierDy7ebnejc1","sub11","11","8","motor","72","img/motor_5.png","72","motor","5","209","1","0","0","",""
"null","363431","HierDy7ebnejc1","sub11","11","8","iti","null","img/motor_5.png","72","motor","","","","","","",""
"579","364017","HierDy7ebnejc1","sub11","11","8","motor","83","img/motor_2.png","83","motor","2","210","1","0","0","",""
"null","364126","HierDy7ebnejc1","sub11","11","8","iti","null","img/motor_2.png","83","motor","","","","","","",""
"401","364534","HierDy7ebnejc1","sub11","11","8","motor","72","img/motor_5.png","72","motor","5","211","1","0","0","",""
"null","364643","HierDy7ebnejc1","sub11","11","8","iti","null","img/motor_5.png","72","motor","","","","","","",""
"1002","365653","HierDy7ebnejc1","sub11","11","8","motor","74","img/motor_6.png","74","motor","6","212","1","0","0","",""
"null","365761","HierDy7ebnejc1","sub11","11","8","iti","null","img/motor_6.png","74","motor","","","","","","",""
"406","366175","HierDy7ebnejc1","sub11","11","8","motor","72","img/motor_5.png","72","motor","5","213","1","0","0","",""
"null","366284","HierDy7ebnejc1","sub11","11","8","iti","null","img/motor_5.png","72","motor","","","","","","",""
"883","367174","HierDy7ebnejc1","sub11","11","8","motor","68","img/motor_3.png","68","motor","3","214","1","0","0","",""
"null","367286","HierDy7ebnejc1","sub11","11","8","iti","null","img/motor_3.png","68","motor","","","","","","",""
"643","367938","HierDy7ebnejc1","sub11","11","8","motor","70","img/motor_4.png","70","motor","4","215","1","0","0","",""
"null","368050","HierDy7ebnejc1","sub11","11","8","iti","null","img/motor_4.png","70","motor","","","","","","",""
"572","368630","HierDy7ebnejc1","sub11","11","8","motor","72","img/motor_5.png","72","motor","5","216","1","0","0","",""
"null","368738","HierDy7ebnejc1","sub11","11","8","iti","null","img/motor_5.png","72","motor","","","","","","",""
"486","369232","HierDy7ebnejc1","sub11","11","8","motor","75","img/motor_7.png","75","motor","7","217","1","0","0","",""
"null","369340","HierDy7ebnejc1","sub11","11","8","iti","null","img/motor_7.png","75","motor","","","","","","",""
"668","370017","HierDy7ebnejc1","sub11","11","8","motor","68","img/motor_3.png","68","motor","3","218","1","0","0","",""
"null","370128","HierDy7ebnejc1","sub11","11","8","iti","null","img/motor_3.png","68","motor","","","","","","",""
"513","370648","HierDy7ebnejc1","sub11","11","8","motor","68","img/motor_3.png","68","motor","3","219","1","0","0","",""
"null","370759","HierDy7ebnejc1","sub11","11","8","iti","null","img/motor_3.png","68","motor","","","","","","",""
"617","371383","HierDy7ebnejc1","sub11","11","8","motor","72","img/motor_5.png","72","motor","5","220","1","0","0","",""
"null","371490","HierDy7ebnejc1","sub11","11","8","iti","null","img/motor_5.png","72","motor","","","","","","",""
"580","372078","HierDy7ebnejc1","sub11","11","8","motor","83","img/motor_2.png","83","motor","2","221","1","0","0","",""
"null","372186","HierDy7ebnejc1","sub11","11","8","iti","null","img/motor_2.png","83","motor","","","","","","",""
"412","372606","HierDy7ebnejc1","sub11","11","8","motor","65","img/motor_1.png","65","motor","1","222","1","0","0","",""
"null","372718","HierDy7ebnejc1","sub11","11","8","iti","null","img/motor_1.png","65","motor","","","","","","",""
"577","373302","HierDy7ebnejc1","sub11","11","8","motor","70","img/motor_4.png","70","motor","4","223","1","0","0","",""
"null","373412","HierDy7ebnejc1","sub11","11","8","iti","null","img/motor_4.png","70","motor","","","","","","",""
"504","373925","HierDy7ebnejc1","sub11","11","8","motor","76","img/motor_8.png","76","motor","8","224","1","0","0","",""
"null","374035","HierDy7ebnejc1","sub11","11","8","iti","null","img/motor_8.png","76","motor","","","","","","",""
"783","374826","HierDy7ebnejc1","sub11","11","8","motor","68","img/motor_3.png","68","motor","3","225","1","0","0","",""
"null","374935","HierDy7ebnejc1","sub11","11","8","iti","null","img/motor_3.png","68","motor","","","","","","",""
"581","375523","HierDy7ebnejc1","sub11","11","8","motor","75","img/motor_7.png","75","motor","7","226","1","0","0","",""
"null","375631","HierDy7ebnejc1","sub11","11","8","iti","null","img/motor_7.png","75","motor","","","","","","",""
"670","376310","HierDy7ebnejc1","sub11","11","8","motor","70","img/motor_4.png","70","motor","4","227","1","0","0","",""
"null","376418","HierDy7ebnejc1","sub11","11","8","iti","null","img/motor_4.png","70","motor","","","","","","",""
"342","376767","HierDy7ebnejc1","sub11","11","8","motor","72","img/motor_5.png","72","motor","5","228","1","0","0","",""
"null","376876","HierDy7ebnejc1","sub11","11","8","iti","null","img/motor_5.png","72","motor","","","","","","",""
"595","377479","HierDy7ebnejc1","sub11","11","8","motor","68","img/motor_3.png","68","motor","3","229","1","0","0","",""
"null","377588","HierDy7ebnejc1","sub11","11","8","iti","null","img/motor_3.png","68","motor","","","","","","",""
"502","378097","HierDy7ebnejc1","sub11","11","8","motor","72","img/motor_5.png","72","motor","5","230","1","0","0","",""
"null","378206","HierDy7ebnejc1","sub11","11","8","iti","null","img/motor_5.png","72","motor","","","","","","",""
"537","378753","HierDy7ebnejc1","sub11","11","8","motor","83","img/motor_2.png","83","motor","2","231","1","0","0","",""
"null","378863","HierDy7ebnejc1","sub11","11","8","iti","null","img/motor_2.png","83","motor","","","","","","",""
"475","379346","HierDy7ebnejc1","sub11","11","8","motor","70","img/motor_4.png","70","motor","4","232","1","0","0","",""
"null","379453","HierDy7ebnejc1","sub11","11","8","iti","null","img/motor_4.png","70","motor","","","","","","",""
"424","379885","HierDy7ebnejc1","sub11","11","8","motor","76","img/motor_8.png","76","motor","8","233","1","0","0","",""
"null","379994","HierDy7ebnejc1","sub11","11","8","iti","null","img/motor_8.png","76","motor","","","","","","",""
"605","380608","HierDy7ebnejc1","sub11","11","8","motor","83","img/motor_2.png","83","motor","2","234","1","0","0","",""
"null","380716","HierDy7ebnejc1","sub11","11","8","iti","null","img/motor_2.png","83","motor","","","","","","",""
"926","381654","HierDy7ebnejc1","sub11","11","8","motor","72","img/motor_5.png","72","motor","5","235","1","0","0","",""
"null","381765","HierDy7ebnejc1","sub11","11","8","iti","null","img/motor_5.png","72","motor","","","","","","",""
"502","382277","HierDy7ebnejc1","sub11","11","8","motor","70","img/motor_4.png","70","motor","4","236","1","0","0","",""
"null","382389","HierDy7ebnejc1","sub11","11","8","iti","null","img/motor_4.png","70","motor","","","","","","",""
"424","382823","HierDy7ebnejc1","sub11","11","8","motor","65","img/motor_1.png","65","motor","1","237","1","0","0","",""
"null","382936","HierDy7ebnejc1","sub11","11","8","iti","null","img/motor_1.png","65","motor","","","","","","",""
"614","383558","HierDy7ebnejc1","sub11","11","8","motor","68","img/motor_3.png","68","motor","3","238","1","0","0","",""
"null","383667","HierDy7ebnejc1","sub11","11","8","iti","null","img/motor_3.png","68","motor","","","","","","",""
"415","384091","HierDy7ebnejc1","sub11","11","8","motor","76","img/motor_8.png","76","motor","8","239","1","0","0","",""
"null","384200","HierDy7ebnejc1","sub11","11","8","iti","null","img/motor_8.png","76","motor","","","","","","",""
"493","384703","HierDy7ebnejc1","sub11","11","8","motor","65","img/motor_1.png","65","motor","1","240","1","0","0","",""
"null","384812","HierDy7ebnejc1","sub11","11","8","iti","null","img/motor_1.png","65","motor","","","","","","",""
"535","385358","HierDy7ebnejc1","sub11","11","8","motor","70","img/motor_4.png","70","motor","4","241","1","0","0","",""
"null","385471","HierDy7ebnejc1","sub11","11","8","iti","null","img/motor_4.png","70","motor","","","","","","",""
"532","386014","HierDy7ebnejc1","sub11","11","8","motor","75","img/motor_7.png","75","motor","7","242","1","0","0","",""
"null","386124","HierDy7ebnejc1","sub11","11","8","iti","null","img/motor_7.png","75","motor","","","","","","",""
"608","386742","HierDy7ebnejc1","sub11","11","8","motor","74","img/motor_6.png","74","motor","6","243","1","0","0","",""
"null","386851","HierDy7ebnejc1","sub11","11","8","iti","null","img/motor_6.png","74","motor","","","","","","",""
"543","387405","HierDy7ebnejc1","sub11","11","8","motor","65","img/motor_1.png","65","motor","1","244","1","0","0","",""
"null","387516","HierDy7ebnejc1","sub11","11","8","iti","null","img/motor_1.png","65","motor","","","","","","",""
"582","388104","HierDy7ebnejc1","sub11","11","8","motor","68","img/motor_3.png","68","motor","3","245","1","0","0","",""
"null","388212","HierDy7ebnejc1","sub11","11","8","iti","null","img/motor_3.png","68","motor","","","","","","",""
"432","388653","HierDy7ebnejc1","sub11","11","8","motor","70","img/motor_4.png","70","motor","4","246","1","0","0","",""
"null","388765","HierDy7ebnejc1","sub11","11","8","iti","null","img/motor_4.png","70","motor","","","","","","",""
"347","389120","HierDy7ebnejc1","sub11","11","8","motor","70","img/motor_4.png","70","motor","4","247","1","0","0","",""
"null","389231","HierDy7ebnejc1","sub11","11","8","iti","null","img/motor_4.png","70","motor","","","","","","",""
"477","389716","HierDy7ebnejc1","sub11","11","8","motor","75","img/motor_7.png","75","motor","7","248","1","0","0","",""
"null","389826","HierDy7ebnejc1","sub11","11","8","iti","null","img/motor_7.png","75","motor","","","","","","",""
"802","390637","HierDy7ebnejc1","sub11","11","8","motor","65","img/motor_1.png","65","motor","1","249","1","0","0","",""
"null","390747","HierDy7ebnejc1","sub11","11","8","iti","null","img/motor_1.png","65","motor","","","","","","",""
"391","391147","HierDy7ebnejc1","sub11","11","8","motor","70","img/motor_4.png","70","motor","4","250","1","0","0","",""
"null","391258","HierDy7ebnejc1","sub11","11","8","iti","null","img/motor_4.png","70","motor","","","","","","",""
"595","391862","HierDy7ebnejc1","sub11","11","8","motor","72","img/motor_5.png","72","motor","5","251","1","0","0","",""
"null","391970","HierDy7ebnejc1","sub11","11","8","iti","null","img/motor_5.png","72","motor","","","","","","",""
"379","392357","HierDy7ebnejc1","sub11","11","8","motor","76","img/motor_8.png","76","motor","8","252","1","0","0","",""
"null","392467","HierDy7ebnejc1","sub11","11","8","iti","null","img/motor_8.png","76","motor","","","","","","",""
"620","393094","HierDy7ebnejc1","sub11","11","8","motor","70","img/motor_3.png","68","motor","3","253","0","1","0","",""
"387","393490","HierDy7ebnejc1","sub11","11","8","motorRepeat","68","img/motor_3.png","68","motor","3","253","1","0","0","",""
"null","393601","HierDy7ebnejc1","sub11","11","8","iti","null","img/motor_3.png","68","motor","","","","","","",""
"423","394035","HierDy7ebnejc1","sub11","11","8","motor","70","img/motor_4.png","70","motor","4","254","1","0","0","",""
"null","394145","HierDy7ebnejc1","sub11","11","8","iti","null","img/motor_4.png","70","motor","","","","","","",""
"428","394585","HierDy7ebnejc1","sub11","11","8","motor","68","img/motor_3.png","68","motor","3","255","1","0","0","",""
"null","394697","HierDy7ebnejc1","sub11","11","8","iti","null","img/motor_3.png","68","motor","","","","","","",""
"478","395183","HierDy7ebnejc1","sub11","11","8","motor","74","img/motor_6.png","74","motor","6","256","1","0","0","",""
"null","395292","HierDy7ebnejc1","sub11","11","8","iti","null","img/motor_6.png","74","motor","","","","","","",""
"476","395778","HierDy7ebnejc1","sub11","11","8","motor","68","img/motor_3.png","68","motor","3","257","1","0","0","",""
"null","395888","HierDy7ebnejc1","sub11","11","8","iti","null","img/motor_3.png","68","motor","","","","","","",""
"242","396138","HierDy7ebnejc1","sub11","11","8","motor","74","img/motor_3.png","68","motor","3","258","0","1","0","",""
"6","396152","HierDy7ebnejc1","sub11","11","8","motorRepeat","75","img/motor_3.png","68","motor","3","258","0","1","0","",""
"79","396238","HierDy7ebnejc1","sub11","11","8","motorRepeat","68","img/motor_3.png","68","motor","3","258","1","0","0","",""
"null","396346","HierDy7ebnejc1","sub11","11","8","iti","null","img/motor_3.png","68","motor","","","","","","",""
"471","396825","HierDy7ebnejc1","sub11","11","8","motor","76","img/motor_8.png","76","motor","8","259","1","0","0","",""
"null","396934","HierDy7ebnejc1","sub11","11","8","iti","null","img/motor_8.png","76","motor","","","","","","",""
"375","397317","HierDy7ebnejc1","sub11","11","8","motor","65","img/motor_1.png","65","motor","1","260","1","0","0","",""
"null","397430","HierDy7ebnejc1","sub11","11","8","iti","null","img/motor_1.png","65","motor","","","","","","",""
"619","398060","HierDy7ebnejc1","sub11","11","8","motor","68","img/motor_3.png","68","motor","3","261","1","0","0","",""
"null","398171","HierDy7ebnejc1","sub11","11","8","iti","null","img/motor_3.png","68","motor","","","","","","",""
"954","399134","HierDy7ebnejc1","sub11","11","8","motor","72","img/motor_4.png","70","motor","4","262","0","1","0","",""
"340","399483","HierDy7ebnejc1","sub11","11","8","motorRepeat","70","img/motor_4.png","70","motor","4","262","1","0","0","",""
"null","399593","HierDy7ebnejc1","sub11","11","8","iti","null","img/motor_4.png","70","motor","","","","","","",""
"417","400019","HierDy7ebnejc1","sub11","11","8","motor","65","img/motor_1.png","65","motor","1","263","1","0","0","",""
"null","400127","HierDy7ebnejc1","sub11","11","8","iti","null","img/motor_1.png","65","motor","","","","","","",""
"551","400686","HierDy7ebnejc1","sub11","11","8","motor","76","img/motor_8.png","76","motor","8","264","1","0","0","",""
"null","400795","HierDy7ebnejc1","sub11","11","8","iti","null","img/motor_8.png","76","motor","","","","","","",""
"464","401268","HierDy7ebnejc1","sub11","11","8","motor","70","img/motor_4.png","70","motor","4","265","1","0","0","",""
"null","401380","HierDy7ebnejc1","sub11","11","8","iti","null","img/motor_4.png","70","motor","","","","","","",""
"351","401740","HierDy7ebnejc1","sub11","11","8","motor","65","img/motor_1.png","65","motor","1","266","1","0","0","",""
"null","401849","HierDy7ebnejc1","sub11","11","8","iti","null","img/motor_1.png","65","motor","","","","","","",""
"637","402495","HierDy7ebnejc1","sub11","11","8","motor","74","img/motor_6.png","74","motor","6","267","1","0","0","",""
"null","402605","HierDy7ebnejc1","sub11","11","8","iti","null","img/motor_6.png","74","motor","","","","","","",""
"728","403342","HierDy7ebnejc1","sub11","11","8","motor","83","img/motor_2.png","83","motor","2","268","1","0","0","",""
"null","403454","HierDy7ebnejc1","sub11","11","8","iti","null","img/motor_2.png","83","motor","","","","","","",""
"518","403979","HierDy7ebnejc1","sub11","11","8","motor","76","img/motor_8.png","76","motor","8","269","1","0","0","",""
"null","404089","HierDy7ebnejc1","sub11","11","8","iti","null","img/motor_8.png","76","motor","","","","","","",""
"338","404435","HierDy7ebnejc1","sub11","11","8","motor","76","img/motor_8.png","76","motor","8","270","1","0","0","",""
"null","404543","HierDy7ebnejc1","sub11","11","8","iti","null","img/motor_8.png","76","motor","","","","","","",""
"401","404951","HierDy7ebnejc1","sub11","11","8","motor","65","img/motor_1.png","65","motor","1","271","1","0","0","",""
"null","405061","HierDy7ebnejc1","sub11","11","8","iti","null","img/motor_1.png","65","motor","","","","","","",""
"595","405664","HierDy7ebnejc1","sub11","11","8","motor","83","img/motor_2.png","83","motor","2","272","1","0","0","",""
"null","405775","HierDy7ebnejc1","sub11","11","8","iti","null","img/motor_2.png","83","motor","","","","","","",""
"498","406281","HierDy7ebnejc1","sub11","11","8","motor","68","img/motor_3.png","68","motor","3","273","1","0","0","",""
"null","406392","HierDy7ebnejc1","sub11","11","8","iti","null","img/motor_3.png","68","motor","","","","","","",""
"373","406773","HierDy7ebnejc1","sub11","11","8","motor","70","img/motor_4.png","70","motor","4","274","1","0","0","",""
"null","406885","HierDy7ebnejc1","sub11","11","8","iti","null","img/motor_4.png","70","motor","","","","","","",""
"378","407271","HierDy7ebnejc1","sub11","11","8","motor","70","img/motor_4.png","70","motor","4","275","1","0","0","",""
"null","407382","HierDy7ebnejc1","sub11","11","8","iti","null","img/motor_4.png","70","motor","","","","","","",""
"523","407914","HierDy7ebnejc1","sub11","11","8","motor","83","img/motor_2.png","83","motor","2","276","1","0","0","",""
"null","408022","HierDy7ebnejc1","sub11","11","8","iti","null","img/motor_2.png","83","motor","","","","","","",""
"611","408641","HierDy7ebnejc1","sub11","11","8","motor","74","img/motor_6.png","74","motor","6","277","1","0","0","",""
"null","408749","HierDy7ebnejc1","sub11","11","8","iti","null","img/motor_6.png","74","motor","","","","","","",""
"601","409356","HierDy7ebnejc1","sub11","11","8","motor","83","img/motor_2.png","83","motor","2","278","1","0","0","",""
"null","409464","HierDy7ebnejc1","sub11","11","8","iti","null","img/motor_2.png","83","motor","","","","","","",""
"646","410118","HierDy7ebnejc1","sub11","11","8","motor","68","img/motor_3.png","68","motor","3","279","1","0","0","",""
"null","410226","HierDy7ebnejc1","sub11","11","8","iti","null","img/motor_3.png","68","motor","","","","","","",""
"633","410868","HierDy7ebnejc1","sub11","11","8","motor","74","img/motor_6.png","74","motor","6","280","1","0","0","",""
"null","410977","HierDy7ebnejc1","sub11","11","8","iti","null","img/motor_6.png","74","motor","","","","","","",""
"464","411450","HierDy7ebnejc1","sub11","11","8","motor","76","img/motor_8.png","76","motor","8","281","1","0","0","",""
"null","411557","HierDy7ebnejc1","sub11","11","8","iti","null","img/motor_8.png","76","motor","","","","","","",""
"881","412447","HierDy7ebnejc1","sub11","11","8","motor","72","img/motor_5.png","72","motor","5","282","1","0","0","",""
"null","412557","HierDy7ebnejc1","sub11","11","8","iti","null","img/motor_5.png","72","motor","","","","","","",""
"481","413045","HierDy7ebnejc1","sub11","11","8","motor","74","img/motor_6.png","74","motor","6","283","1","0","0","",""
"null","413153","HierDy7ebnejc1","sub11","11","8","iti","null","img/motor_6.png","74","motor","","","","","","",""
"294","413456","HierDy7ebnejc1","sub11","11","8","motor","75","img/motor_7.png","75","motor","7","284","1","0","0","",""
"null","413565","HierDy7ebnejc1","sub11","11","8","iti","null","img/motor_7.png","75","motor","","","","","","",""
"431","414005","HierDy7ebnejc1","sub11","11","8","motor","72","img/motor_5.png","72","motor","5","285","1","0","0","",""
"null","414113","HierDy7ebnejc1","sub11","11","8","iti","null","img/motor_5.png","72","motor","","","","","","",""
"531","414651","HierDy7ebnejc1","sub11","11","8","motor","83","img/motor_2.png","83","motor","2","286","1","0","0","",""
"null","414760","HierDy7ebnejc1","sub11","11","8","iti","null","img/motor_2.png","83","motor","","","","","","",""
"449","415219","HierDy7ebnejc1","sub11","11","8","motor","76","img/motor_8.png","76","motor","8","287","1","0","0","",""
"null","415328","HierDy7ebnejc1","sub11","11","8","iti","null","img/motor_8.png","76","motor","","","","","","",""
"557","415892","HierDy7ebnejc1","sub11","11","8","motor","68","img/motor_3.png","68","motor","3","288","1","0","0","",""
"null","416001","HierDy7ebnejc1","sub11","11","8","iti","null","img/motor_3.png","68","motor","","","","","","",""
"378","416388","HierDy7ebnejc1","sub11","11","8","motor","68","img/motor_3.png","68","motor","3","289","1","0","0","",""
"null","416495","HierDy7ebnejc1","sub11","11","8","iti","null","img/motor_3.png","68","motor","","","","","","",""
"391","416893","HierDy7ebnejc1","sub11","11","8","motor","65","img/motor_1.png","65","motor","1","290","1","0","0","",""
"null","417000","HierDy7ebnejc1","sub11","11","8","iti","null","img/motor_1.png","65","motor","","","","","","",""
"583","417593","HierDy7ebnejc1","sub11","11","8","motor","68","img/motor_3.png","68","motor","3","291","1","0","0","",""
"null","417702","HierDy7ebnejc1","sub11","11","8","iti","null","img/motor_3.png","68","motor","","","","","","",""
"477","418185","HierDy7ebnejc1","sub11","11","8","motor","76","img/motor_8.png","76","motor","8","292","1","0","0","",""
"null","418291","HierDy7ebnejc1","sub11","11","8","iti","null","img/motor_8.png","76","motor","","","","","","",""
"610","418907","HierDy7ebnejc1","sub11","11","8","motor","74","img/motor_6.png","74","motor","6","293","1","0","0","",""
"null","419015","HierDy7ebnejc1","sub11","11","8","iti","null","img/motor_6.png","74","motor","","","","","","",""
"551","419576","HierDy7ebnejc1","sub11","11","8","motor","70","img/motor_4.png","70","motor","4","294","1","0","0","",""
"null","419685","HierDy7ebnejc1","sub11","11","8","iti","null","img/motor_4.png","70","motor","","","","","","",""
"560","420255","HierDy7ebnejc1","sub11","11","8","motor","68","img/motor_3.png","68","motor","3","295","1","0","0","",""
"null","420364","HierDy7ebnejc1","sub11","11","8","iti","null","img/motor_3.png","68","motor","","","","","","",""
"433","420805","HierDy7ebnejc1","sub11","11","8","motor","75","img/motor_7.png","75","motor","7","296","1","0","0","",""
"null","420912","HierDy7ebnejc1","sub11","11","8","iti","null","img/motor_7.png","75","motor","","","","","","",""
"608","421526","HierDy7ebnejc1","sub11","11","8","motor","74","img/motor_6.png","74","motor","6","297","1","0","0","",""
"null","421635","HierDy7ebnejc1","sub11","11","8","iti","null","img/motor_6.png","74","motor","","","","","","",""
"322","421965","HierDy7ebnejc1","sub11","11","8","motor","75","img/motor_7.png","75","motor","7","298","1","0","0","",""
"null","422074","HierDy7ebnejc1","sub11","11","8","iti","null","img/motor_7.png","75","motor","","","","","","",""
"494","422577","HierDy7ebnejc1","sub11","11","8","motor","70","img/motor_4.png","70","motor","4","299","1","0","0","",""
"null","422687","HierDy7ebnejc1","sub11","11","8","iti","null","img/motor_4.png","70","motor","","","","","","",""
"429","423124","HierDy7ebnejc1","sub11","11","8","motor","83","img/motor_3.png","68","motor","3","300","0","1","0","",""
"257","423390","HierDy7ebnejc1","sub11","11","8","motorRepeat","68","img/motor_3.png","68","motor","3","300","1","0","0","",""
"null","423499","HierDy7ebnejc1","sub11","11","8","iti","null","img/motor_3.png","68","motor","","","","","","",""
"410","423918","HierDy7ebnejc1","sub11","11","8","motor","70","img/motor_4.png","70","motor","4","301","1","0","0","",""
"null","424031","HierDy7ebnejc1","sub11","11","8","iti","null","img/motor_4.png","70","motor","","","","","","",""
"461","424501","HierDy7ebnejc1","sub11","11","8","motor","83","img/motor_2.png","83","motor","2","302","1","0","0","",""
"null","424613","HierDy7ebnejc1","sub11","11","8","iti","null","img/motor_2.png","83","motor","","","","","","",""
"371","424993","HierDy7ebnejc1","sub11","11","8","motor","65","img/motor_1.png","65","motor","1","303","1","0","0","",""
"null","425102","HierDy7ebnejc1","sub11","11","8","iti","null","img/motor_1.png","65","motor","","","","","","",""
"388","425498","HierDy7ebnejc1","sub11","11","8","motor","76","img/motor_7.png","75","motor","7","304","0","1","0","",""
"309","425814","HierDy7ebnejc1","sub11","11","8","motorRepeat","74","img/motor_7.png","75","motor","7","304","0","1","0","",""
"177","425999","HierDy7ebnejc1","sub11","11","8","motorRepeat","75","img/motor_7.png","75","motor","7","304","1","0","0","",""
"null","426108","HierDy7ebnejc1","sub11","11","8","iti","null","img/motor_7.png","75","motor","","","","","","",""
"707","426823","HierDy7ebnejc1","sub11","11","8","motor","74","img/motor_6.png","74","motor","6","305","1","0","0","",""
"null","426931","HierDy7ebnejc1","sub11","11","8","iti","null","img/motor_6.png","74","motor","","","","","","",""
"521","427460","HierDy7ebnejc1","sub11","11","8","motor","65","img/motor_1.png","65","motor","1","306","1","0","0","",""
"null","427571","HierDy7ebnejc1","sub11","11","8","iti","null","img/motor_1.png","65","motor","","","","","","",""
"784","428364","HierDy7ebnejc1","sub11","11","8","motor","74","img/motor_6.png","74","motor","6","307","1","0","0","",""
"null","428473","HierDy7ebnejc1","sub11","11","8","iti","null","img/motor_6.png","74","motor","","","","","","",""
"471","428952","HierDy7ebnejc1","sub11","11","8","motor","70","img/motor_5.png","72","motor","5","308","0","1","0","",""
"294","429255","HierDy7ebnejc1","sub11","11","8","motorRepeat","72","img/motor_5.png","72","motor","5","308","1","0","0","",""
"null","429366","HierDy7ebnejc1","sub11","11","8","iti","null","img/motor_5.png","72","motor","","","","","","",""
"536","429910","HierDy7ebnejc1","sub11","11","8","motor","75","img/motor_7.png","75","motor","7","309","1","0","0","",""
"null","430019","HierDy7ebnejc1","sub11","11","8","iti","null","img/motor_7.png","75","motor","","","","","","",""
"1554","431581","HierDy7ebnejc1","sub11","11","8","motor","70","img/motor_3.png","68","motor","3","310","0","1","0","",""
"454","432046","HierDy7ebnejc1","sub11","11","8","motorRepeat","68","img/motor_3.png","68","motor","3","310","1","0","0","",""
"null","432158","HierDy7ebnejc1","sub11","11","8","iti","null","img/motor_3.png","68","motor","","","","","","",""
"461","432629","HierDy7ebnejc1","sub11","11","8","motor","70","img/motor_4.png","70","motor","4","311","1","0","0","",""
"null","432741","HierDy7ebnejc1","sub11","11","8","iti","null","img/motor_4.png","70","motor","","","","","","",""
"821","433573","HierDy7ebnejc1","sub11","11","8","motor","74","img/motor_6.png","74","motor","6","312","1","0","0","",""
"null","433685","HierDy7ebnejc1","sub11","11","8","iti","null","img/motor_6.png","74","motor","","","","","","",""
"695","434391","HierDy7ebnejc1","sub11","11","8","motor","70","img/motor_4.png","70","motor","4","313","1","0","0","",""
"null","434503","HierDy7ebnejc1","sub11","11","8","iti","null","img/motor_4.png","70","motor","","","","","","",""
"555","435067","HierDy7ebnejc1","sub11","11","8","motor","74","img/motor_6.png","74","motor","6","314","1","0","0","",""
"null","435176","HierDy7ebnejc1","sub11","11","8","iti","null","img/motor_6.png","74","motor","","","","","","",""
"689","435873","HierDy7ebnejc1","sub11","11","8","motor","72","img/motor_5.png","72","motor","5","315","1","0","0","",""
"null","435982","HierDy7ebnejc1","sub11","11","8","iti","null","img/motor_5.png","72","motor","","","","","","",""
"662","436654","HierDy7ebnejc1","sub11","11","8","motor","65","img/motor_1.png","65","motor","1","316","1","0","0","",""
"null","436765","HierDy7ebnejc1","sub11","11","8","iti","null","img/motor_1.png","65","motor","","","","","","",""
"787","437564","HierDy7ebnejc1","sub11","11","8","motor","72","img/motor_5.png","72","motor","5","317","1","0","0","",""
"null","437676","HierDy7ebnejc1","sub11","11","8","iti","null","img/motor_5.png","72","motor","","","","","","",""
"442","438129","HierDy7ebnejc1","sub11","11","8","motor","74","img/motor_6.png","74","motor","6","318","1","0","0","",""
"null","438241","HierDy7ebnejc1","sub11","11","8","iti","null","img/motor_6.png","74","motor","","","","","","",""
"500","438752","HierDy7ebnejc1","sub11","11","8","motor","65","img/motor_1.png","65","motor","1","319","1","0","0","",""
"null","438861","HierDy7ebnejc1","sub11","11","8","iti","null","img/motor_1.png","65","motor","","","","","","",""
"721","439591","HierDy7ebnejc1","sub11","11","8","motor","75","img/motor_7.png","75","motor","7","320","1","0","0","",""
"null","439703","HierDy7ebnejc1","sub11","11","8","iti","null","img/motor_7.png","75","motor","","","","","","",""
"541","440253","HierDy7ebnejc1","sub11","11","8","motor","68","img/motor_3.png","68","motor","3","321","1","0","0","",""
"null","440363","HierDy7ebnejc1","sub11","11","8","iti","null","img/motor_3.png","68","motor","","","","","","",""
"524","440897","HierDy7ebnejc1","sub11","11","8","motor","76","img/motor_8.png","76","motor","8","322","1","0","0","",""
"null","441005","HierDy7ebnejc1","sub11","11","8","iti","null","img/motor_8.png","76","motor","","","","","","",""
"837","441851","HierDy7ebnejc1","sub11","11","8","motor","70","img/motor_4.png","70","motor","4","323","1","0","0","",""
"null","441961","HierDy7ebnejc1","sub11","11","8","iti","null","img/motor_4.png","70","motor","","","","","","",""
"467","442436","HierDy7ebnejc1","sub11","11","8","motor","76","img/motor_8.png","76","motor","8","324","1","0","0","",""
"null","442545","HierDy7ebnejc1","sub11","11","8","iti","null","img/motor_8.png","76","motor","","","","","","",""
"584","443140","HierDy7ebnejc1","sub11","11","8","motor","68","img/motor_3.png","68","motor","3","325","1","0","0","",""
"null","443251","HierDy7ebnejc1","sub11","11","8","iti","null","img/motor_3.png","68","motor","","","","","","",""
"486","443748","HierDy7ebnejc1","sub11","11","8","motor","83","img/motor_2.png","83","motor","2","326","1","0","0","",""
"null","443857","HierDy7ebnejc1","sub11","11","8","iti","null","img/motor_2.png","83","motor","","","","","","",""
"395","444262","HierDy7ebnejc1","sub11","11","8","motor","83","img/motor_2.png","83","motor","2","327","1","0","0","",""
"null","444374","HierDy7ebnejc1","sub11","11","8","iti","null","img/motor_2.png","83","motor","","","","","","",""
"526","444908","HierDy7ebnejc1","sub11","11","8","motor","75","img/motor_8.png","76","motor","8","328","0","1","0","",""
"273","445193","HierDy7ebnejc1","sub11","11","8","motorRepeat","76","img/motor_8.png","76","motor","8","328","1","0","0","",""
"null","445301","HierDy7ebnejc1","sub11","11","8","iti","null","img/motor_8.png","76","motor","","","","","","",""
"591","445903","HierDy7ebnejc1","sub11","11","8","motor","70","img/motor_4.png","70","motor","4","329","1","0","0","",""
"null","446015","HierDy7ebnejc1","sub11","11","8","iti","null","img/motor_4.png","70","motor","","","","","","",""
"473","446502","HierDy7ebnejc1","sub11","11","8","motor","65","img/motor_1.png","65","motor","1","330","1","0","0","",""
"null","446611","HierDy7ebnejc1","sub11","11","8","iti","null","img/motor_1.png","65","motor","","","","","","",""
"572","447192","HierDy7ebnejc1","sub11","11","8","motor","74","img/motor_6.png","74","motor","6","331","1","0","0","",""
"null","447303","HierDy7ebnejc1","sub11","11","8","iti","null","img/motor_6.png","74","motor","","","","","","",""
"328","447640","HierDy7ebnejc1","sub11","11","8","motor","75","img/motor_8.png","76","motor","8","332","0","1","0","",""
"258","447908","HierDy7ebnejc1","sub11","11","8","motorRepeat","76","img/motor_8.png","76","motor","8","332","1","0","0","",""
"null","448018","HierDy7ebnejc1","sub11","11","8","iti","null","img/motor_8.png","76","motor","","","","","","",""
"469","448496","HierDy7ebnejc1","sub11","11","8","motor","72","img/motor_5.png","72","motor","5","333","1","0","0","",""
"null","448606","HierDy7ebnejc1","sub11","11","8","iti","null","img/motor_5.png","72","motor","","","","","","",""
"557","449172","HierDy7ebnejc1","sub11","11","8","motor","65","img/motor_1.png","65","motor","1","334","1","0","0","",""
"null","449285","HierDy7ebnejc1","sub11","11","8","iti","null","img/motor_1.png","65","motor","","","","","","",""
"569","449865","HierDy7ebnejc1","sub11","11","8","motor","75","img/motor_7.png","75","motor","7","335","1","0","0","",""
"null","449976","HierDy7ebnejc1","sub11","11","8","iti","null","img/motor_7.png","75","motor","","","","","","",""
"511","450500","HierDy7ebnejc1","sub11","11","8","motor","65","img/motor_1.png","65","motor","1","336","1","0","0","",""
"null","450609","HierDy7ebnejc1","sub11","11","8","iti","null","img/motor_1.png","65","motor","","","","","","",""
"640","451259","HierDy7ebnejc1","sub11","11","8","motor","75","img/motor_7.png","75","motor","7","337","1","0","0","",""
"null","451369","HierDy7ebnejc1","sub11","11","8","iti","null","img/motor_7.png","75","motor","","","","","","",""
"408","451786","HierDy7ebnejc1","sub11","11","8","motor","76","img/motor_8.png","76","motor","8","338","1","0","0","",""
"null","451895","HierDy7ebnejc1","sub11","11","8","iti","null","img/motor_8.png","76","motor","","","","","","",""
"429","452333","HierDy7ebnejc1","sub11","11","8","motor","72","img/motor_5.png","72","motor","5","339","1","0","0","",""
"null","452442","HierDy7ebnejc1","sub11","11","8","iti","null","img/motor_5.png","72","motor","","","","","","",""
"612","453067","HierDy7ebnejc1","sub11","11","8","motor","68","img/motor_3.png","68","motor","3","340","1","0","0","",""
"null","453180","HierDy7ebnejc1","sub11","11","8","iti","null","img/motor_3.png","68","motor","","","","","","",""
"636","453824","HierDy7ebnejc1","sub11","11","8","motor","74","img/motor_6.png","74","motor","6","341","1","0","0","",""
"null","453933","HierDy7ebnejc1","sub11","11","8","iti","null","img/motor_6.png","74","motor","","","","","","",""
"410","454352","HierDy7ebnejc1","sub11","11","8","motor","75","img/motor_7.png","75","motor","7","342","1","0","0","",""
"null","454461","HierDy7ebnejc1","sub11","11","8","iti","null","img/motor_7.png","75","motor","","","","","","",""
"394","454863","HierDy7ebnejc1","sub11","11","8","motor","76","img/motor_8.png","76","motor","8","343","1","0","0","",""
"null","454973","HierDy7ebnejc1","sub11","11","8","iti","null","img/motor_8.png","76","motor","","","","","","",""
"348","455331","HierDy7ebnejc1","sub11","11","8","motor","76","img/motor_8.png","76","motor","8","344","1","0","0","",""
"null","455440","HierDy7ebnejc1","sub11","11","8","iti","null","img/motor_8.png","76","motor","","","","","","",""
"564","456012","HierDy7ebnejc1","sub11","11","8","motor","74","img/motor_6.png","74","motor","6","345","1","0","0","",""
"null","456121","HierDy7ebnejc1","sub11","11","8","iti","null","img/motor_6.png","74","motor","","","","","","",""
"330","456458","HierDy7ebnejc1","sub11","11","8","motor","74","img/motor_6.png","74","motor","6","346","1","0","0","",""
"null","456567","HierDy7ebnejc1","sub11","11","8","iti","null","img/motor_6.png","74","motor","","","","","","",""
"335","456911","HierDy7ebnejc1","sub11","11","8","motor","75","img/motor_7.png","75","motor","7","347","1","0","0","",""
"null","457020","HierDy7ebnejc1","sub11","11","8","iti","null","img/motor_7.png","75","motor","","","","","","",""
"574","457603","HierDy7ebnejc1","sub11","11","8","motor","70","img/motor_4.png","70","motor","4","348","1","0","0","",""
"null","457714","HierDy7ebnejc1","sub11","11","8","iti","null","img/motor_4.png","70","motor","","","","","","",""
"485","458208","HierDy7ebnejc1","sub11","11","8","motor","74","img/motor_6.png","74","motor","6","349","1","0","0","",""
"null","458317","HierDy7ebnejc1","sub11","11","8","iti","null","img/motor_6.png","74","motor","","","","","","",""
"472","458800","HierDy7ebnejc1","sub11","11","8","motor","70","img/motor_4.png","70","motor","4","350","1","0","0","",""
"null","458911","HierDy7ebnejc1","sub11","11","8","iti","null","img/motor_4.png","70","motor","","","","","","",""
"602","459523","HierDy7ebnejc1","sub11","11","8","motor","72","img/motor_5.png","72","motor","5","351","1","0","0","",""
"null","459633","HierDy7ebnejc1","sub11","11","8","iti","null","img/motor_5.png","72","motor","","","","","","",""
"622","460263","HierDy7ebnejc1","sub11","11","8","motor","70","img/motor_4.png","70","motor","4","352","1","0","0","",""
"null","460374","HierDy7ebnejc1","sub11","11","8","iti","null","img/motor_4.png","70","motor","","","","","","",""
"545","460931","HierDy7ebnejc1","sub11","11","8","motor","83","img/motor_2.png","83","motor","2","353","1","0","0","",""
"null","461043","HierDy7ebnejc1","sub11","11","8","iti","null","img/motor_2.png","83","motor","","","","","","",""
"812","461862","HierDy7ebnejc1","sub11","11","8","motor","75","img/motor_7.png","75","motor","7","354","1","0","0","",""
"null","461973","HierDy7ebnejc1","sub11","11","8","iti","null","img/motor_7.png","75","motor","","","","","","",""
"602","462585","HierDy7ebnejc1","sub11","11","8","motor","83","img/motor_2.png","83","motor","2","355","1","0","0","",""
"null","462695","HierDy7ebnejc1","sub11","11","8","iti","null","img/motor_2.png","83","motor","","","","","","",""
"627","463332","HierDy7ebnejc1","sub11","11","8","motor","70","img/motor_4.png","70","motor","4","356","1","0","0","",""
"null","463443","HierDy7ebnejc1","sub11","11","8","iti","null","img/motor_4.png","70","motor","","","","","","",""
"533","463983","HierDy7ebnejc1","sub11","11","8","motor","75","img/motor_7.png","75","motor","7","357","1","0","0","",""
"null","464092","HierDy7ebnejc1","sub11","11","8","iti","null","img/motor_7.png","75","motor","","","","","","",""
"1311","465410","HierDy7ebnejc1","sub11","11","8","motor","70","img/motor_4.png","70","motor","4","358","1","0","0","",""
"null","465521","HierDy7ebnejc1","sub11","11","8","iti","null","img/motor_4.png","70","motor","","","","","","",""
"448","465977","HierDy7ebnejc1","sub11","11","8","motor","65","img/motor_1.png","65","motor","1","359","1","0","0","",""
"null","466087","HierDy7ebnejc1","sub11","11","8","iti","null","img/motor_1.png","65","motor","","","","","","",""
"575","466673","HierDy7ebnejc1","sub11","11","8","motor","83","img/motor_2.png","83","motor","2","360","1","0","0","",""
"null","466785","HierDy7ebnejc1","sub11","11","8","iti","null","img/motor_2.png","83","motor","","","","","","",""
"418","467212","HierDy7ebnejc1","sub11","11","8","motor","70","img/motor_4.png","70","motor","4","361","1","0","0","",""
"null","467324","HierDy7ebnejc1","sub11","11","8","iti","null","img/motor_4.png","70","motor","","","","","","",""
"502","467837","HierDy7ebnejc1","sub11","11","8","motor","83","img/motor_2.png","83","motor","2","362","1","0","0","",""
"null","467948","HierDy7ebnejc1","sub11","11","8","iti","null","img/motor_2.png","83","motor","","","","","","",""
"362","468318","HierDy7ebnejc1","sub11","11","8","motor","70","img/motor_4.png","70","motor","4","363","1","0","0","",""
"null","468430","HierDy7ebnejc1","sub11","11","8","iti","null","img/motor_4.png","70","motor","","","","","","",""
"331","468771","HierDy7ebnejc1","sub11","11","8","motor","83","img/motor_2.png","83","motor","2","364","1","0","0","",""
"null","468882","HierDy7ebnejc1","sub11","11","8","iti","null","img/motor_2.png","83","motor","","","","","","",""
"1023","469912","HierDy7ebnejc1","sub11","11","8","motor","72","img/motor_5.png","72","motor","5","365","1","0","0","",""
"null","470022","HierDy7ebnejc1","sub11","11","8","iti","null","img/motor_5.png","72","motor","","","","","","",""
"454","470485","HierDy7ebnejc1","sub11","11","8","motor","65","img/motor_1.png","65","motor","1","366","1","0","0","",""
"null","470594","HierDy7ebnejc1","sub11","11","8","iti","null","img/motor_1.png","65","motor","","","","","","",""
"575","471178","HierDy7ebnejc1","sub11","11","8","motor","74","img/motor_6.png","74","motor","6","367","1","0","0","",""
"null","471287","HierDy7ebnejc1","sub11","11","8","iti","null","img/motor_6.png","74","motor","","","","","","",""
"625","471925","HierDy7ebnejc1","sub11","11","8","motor","68","img/motor_3.png","68","motor","3","368","1","0","0","",""
"null","472037","HierDy7ebnejc1","sub11","11","8","iti","null","img/motor_3.png","68","motor","","","","","","",""
"530","472577","HierDy7ebnejc1","sub11","11","8","motor","65","img/motor_1.png","65","motor","1","369","1","0","0","",""
"null","472689","HierDy7ebnejc1","sub11","11","8","iti","null","img/motor_1.png","65","motor","","","","","","",""
"583","473283","HierDy7ebnejc1","sub11","11","8","motor","68","img/motor_3.png","68","motor","3","370","1","0","0","",""
"null","473395","HierDy7ebnejc1","sub11","11","8","iti","null","img/motor_3.png","68","motor","","","","","","",""
"524","473928","HierDy7ebnejc1","sub11","11","8","motor","74","img/motor_6.png","74","motor","6","371","1","0","0","",""
"null","474037","HierDy7ebnejc1","sub11","11","8","iti","null","img/motor_6.png","74","motor","","","","","","",""
"244","474292","HierDy7ebnejc1","sub11","11","8","motor","74","img/motor_6.png","74","motor","6","372","1","0","0","",""
"null","474406","HierDy7ebnejc1","sub11","11","8","iti","null","img/motor_6.png","74","motor","","","","","","",""
"609","475025","HierDy7ebnejc1","sub11","11","8","motor","68","img/motor_3.png","68","motor","3","373","1","0","0","",""
"null","475136","HierDy7ebnejc1","sub11","11","8","iti","null","img/motor_3.png","68","motor","","","","","","",""
"531","475678","HierDy7ebnejc1","sub11","11","8","motor","65","img/motor_1.png","65","motor","1","374","1","0","0","",""
"null","475790","HierDy7ebnejc1","sub11","11","8","iti","null","img/motor_1.png","65","motor","","","","","","",""
"544","476345","HierDy7ebnejc1","sub11","11","8","motor","83","img/motor_2.png","83","motor","2","375","1","0","0","",""
"null","476456","HierDy7ebnejc1","sub11","11","8","iti","null","img/motor_2.png","83","motor","","","","","","",""
"581","477049","HierDy7ebnejc1","sub11","11","8","motor","75","img/motor_7.png","75","motor","7","376","1","0","0","",""
"null","477158","HierDy7ebnejc1","sub11","11","8","iti","null","img/motor_7.png","75","motor","","","","","","",""
"457","477626","HierDy7ebnejc1","sub11","11","8","motor","74","img/motor_6.png","74","motor","6","377","1","0","0","",""
"null","477737","HierDy7ebnejc1","sub11","11","8","iti","null","img/motor_6.png","74","motor","","","","","","",""
"299","478048","HierDy7ebnejc1","sub11","11","8","motor","74","img/motor_6.png","74","motor","6","378","1","0","0","",""
"null","478160","HierDy7ebnejc1","sub11","11","8","iti","null","img/motor_6.png","74","motor","","","","","","",""
"471","478641","HierDy7ebnejc1","sub11","11","8","motor","70","img/motor_5.png","72","motor","5","379","0","1","0","",""
"238","478889","HierDy7ebnejc1","sub11","11","8","motorRepeat","72","img/motor_5.png","72","motor","5","379","1","0","0","",""
"null","479000","HierDy7ebnejc1","sub11","11","8","iti","null","img/motor_5.png","72","motor","","","","","","",""
"413","479422","HierDy7ebnejc1","sub11","11","8","motor","76","img/motor_8.png","76","motor","8","380","1","0","0","",""
"null","479530","HierDy7ebnejc1","sub11","11","8","iti","null","img/motor_8.png","76","motor","","","","","","",""
"520","480061","HierDy7ebnejc1","sub11","11","8","motor","70","img/motor_4.png","70","motor","4","381","1","0","0","",""
"null","480170","HierDy7ebnejc1","sub11","11","8","iti","null","img/motor_4.png","70","motor","","","","","","",""
"310","480490","HierDy7ebnejc1","sub11","11","8","motor","70","img/motor_4.png","70","motor","4","382","1","0","0","",""
"null","480601","HierDy7ebnejc1","sub11","11","8","iti","null","img/motor_4.png","70","motor","","","","","","",""
"487","481097","HierDy7ebnejc1","sub11","11","8","motor","68","img/motor_3.png","68","motor","3","383","1","0","0","",""
"null","481208","HierDy7ebnejc1","sub11","11","8","iti","null","img/motor_3.png","68","motor","","","","","","",""
"397","481615","HierDy7ebnejc1","sub11","11","8","motor","83","img/motor_2.png","83","motor","2","384","1","0","0","",""
"null","481725","HierDy7ebnejc1","sub11","11","8","iti","null","img/motor_2.png","83","motor","","","","","","",""
"484","482221","HierDy7ebnejc1","sub11","11","8","motor","72","img/motor_5.png","72","motor","5","385","1","0","0","",""
"null","482331","HierDy7ebnejc1","sub11","11","8","iti","null","img/motor_5.png","72","motor","","","","","","",""
"710","483051","HierDy7ebnejc1","sub11","11","8","motor","70","img/motor_4.png","70","motor","4","386","1","0","0","",""
"null","483162","HierDy7ebnejc1","sub11","11","8","iti","null","img/motor_4.png","70","motor","","","","","","",""
"500","483671","HierDy7ebnejc1","sub11","11","8","motor","74","img/motor_6.png","74","motor","6","387","1","0","0","",""
"null","483780","HierDy7ebnejc1","sub11","11","8","iti","null","img/motor_6.png","74","motor","","","","","","",""
"716","484507","HierDy7ebnejc1","sub11","11","8","motor","83","img/motor_2.png","83","motor","2","388","1","0","0","",""
"null","484619","HierDy7ebnejc1","sub11","11","8","iti","null","img/motor_2.png","83","motor","","","","","","",""
"436","485067","HierDy7ebnejc1","sub11","11","8","motor","76","img/motor_8.png","76","motor","8","389","1","0","0","",""
"null","485178","HierDy7ebnejc1","sub11","11","8","iti","null","img/motor_8.png","76","motor","","","","","","",""
"583","485773","HierDy7ebnejc1","sub11","11","8","motor","75","img/motor_7.png","75","motor","7","390","1","0","0","",""
"null","485884","HierDy7ebnejc1","sub11","11","8","iti","null","img/motor_7.png","75","motor","","","","","","",""
"375","486271","HierDy7ebnejc1","sub11","11","8","motor","74","img/motor_6.png","74","motor","6","391","1","0","0","",""
"null","486383","HierDy7ebnejc1","sub11","11","8","iti","null","img/motor_6.png","74","motor","","","","","","",""
"564","486958","HierDy7ebnejc1","sub11","11","8","motor","83","img/motor_2.png","83","motor","2","392","1","0","0","",""
"null","487070","HierDy7ebnejc1","sub11","11","8","iti","null","img/motor_2.png","83","motor","","","","","","",""
"398","487478","HierDy7ebnejc1","sub11","11","8","motor","65","img/motor_1.png","65","motor","1","393","1","0","0","",""
"null","487589","HierDy7ebnejc1","sub11","11","8","iti","null","img/motor_1.png","65","motor","","","","","","",""
"306","487904","HierDy7ebnejc1","sub11","11","8","motor","83","img/motor_1.png","65","motor","1","394","0","1","0","",""
"368","488281","HierDy7ebnejc1","sub11","11","8","motorRepeat","65","img/motor_1.png","65","motor","1","394","1","0","0","",""
"null","488391","HierDy7ebnejc1","sub11","11","8","iti","null","img/motor_1.png","65","motor","","","","","","",""
"573","488974","HierDy7ebnejc1","sub11","11","8","motor","74","img/motor_6.png","74","motor","6","395","1","0","0","",""
"null","489083","HierDy7ebnejc1","sub11","11","8","iti","null","img/motor_6.png","74","motor","","","","","","",""
"489","489582","HierDy7ebnejc1","sub11","11","8","motor","83","img/motor_2.png","83","motor","2","396","1","0","0","",""
"null","489694","HierDy7ebnejc1","sub11","11","8","iti","null","img/motor_2.png","83","motor","","","","","","",""
"503","490207","HierDy7ebnejc1","sub11","11","8","motor","76","img/motor_8.png","76","motor","8","397","1","0","0","",""
"null","490317","HierDy7ebnejc1","sub11","11","8","iti","null","img/motor_8.png","76","motor","","","","","","",""
"446","490774","HierDy7ebnejc1","sub11","11","8","motor","75","img/motor_7.png","75","motor","7","398","1","0","0","",""
"null","490886","HierDy7ebnejc1","sub11","11","8","iti","null","img/motor_7.png","75","motor","","","","","","",""
"465","491361","HierDy7ebnejc1","sub11","11","8","motor","65","img/motor_1.png","65","motor","1","399","1","0","0","",""
"null","491470","HierDy7ebnejc1","sub11","11","8","iti","null","img/motor_1.png","65","motor","","","","","","",""
"330","491809","HierDy7ebnejc1","sub11","11","8","motor","65","img/motor_1.png","65","motor","1","400","1","0","0","",""
"null","491918","HierDy7ebnejc1","sub11","11","8","iti","null","img/motor_1.png","65","motor","","","","","","",""
"1285","493213","HierDy7ebnejc1","sub11","11","8","motor","83","img/motor_3.png","68","motor","3","401","0","1","0","",""
"247","493473","HierDy7ebnejc1","sub11","11","8","motorRepeat","68","img/motor_3.png","68","motor","3","401","1","0","0","",""
"null","493583","HierDy7ebnejc1","sub11","11","8","iti","null","img/motor_3.png","68","motor","","","","","","",""
"650","494243","HierDy7ebnejc1","sub11","11","8","motor","76","img/motor_8.png","76","motor","8","402","1","0","0","",""
"null","494352","HierDy7ebnejc1","sub11","11","8","iti","null","img/motor_8.png","76","motor","","","","","","",""
"584","494947","HierDy7ebnejc1","sub11","11","8","motor","68","img/motor_3.png","68","motor","3","403","1","0","0","",""
"null","495059","HierDy7ebnejc1","sub11","11","8","iti","null","img/motor_3.png","68","motor","","","","","","",""
"476","495545","HierDy7ebnejc1","sub11","11","8","motor","65","img/motor_1.png","65","motor","1","404","1","0","0","",""
"null","495655","HierDy7ebnejc1","sub11","11","8","iti","null","img/motor_1.png","65","motor","","","","","","",""
"508","496172","HierDy7ebnejc1","sub11","11","8","motor","70","img/motor_4.png","70","motor","4","405","1","0","0","",""
"null","496282","HierDy7ebnejc1","sub11","11","8","iti","null","img/motor_4.png","70","motor","","","","","","",""
"618","496909","HierDy7ebnejc1","sub11","11","8","motor","72","img/motor_6.png","74","motor","6","406","0","1","0","",""
"291","497208","HierDy7ebnejc1","sub11","11","8","motorRepeat","74","img/motor_6.png","74","motor","6","406","1","0","0","",""
"null","497318","HierDy7ebnejc1","sub11","11","8","iti","null","img/motor_6.png","74","motor","","","","","","",""
