"rt","time_elapsed","subject","subID","group","day","trialType","phase","key_press","stim","stimNum","corrresp","hierarchy","trialNum","corr","responses"
"2952.699999809265","2955","HierDy8h3q7v3z","sub03","03","6","","","","","","","","","",""
"","4676","HierDy8h3q7v3z","sub03","03","6","fullscreen","","","","","","","","",""
"5380.299999713898","10057","HierDy8h3q7v3z","sub03","03","6","","prac","","","","","","","",""
"785","10844","HierDy8h3q7v3z","sub03","03","6","","","32","","","","","","",""
"742.5999999046326","11587","HierDy8h3q7v3z","sub03","03","6","","prac","","","","","","","",""
"1442.8999996185303","13031","HierDy8h3q7v3z","sub03","03","6","rl","test","83","img/r_c_diag.png","2","83","color,pattern,shape","1","1",""
"null","14041","HierDy8h3q7v3z","sub03","03","6","feedback","test","null","","","na","","1","",""
"662.9000000953674","14705","HierDy8h3q7v3z","sub03","03","6","rl","test","75","img/p_t_dots.png","7","75","color,pattern,shape","2","1",""
"null","15710","HierDy8h3q7v3z","sub03","03","6","feedback","test","null","","","na","","2","",""
"638","16348","HierDy8h3q7v3z","sub03","03","6","rl","test","74","img/p_c_diag.png","6","74","color,pattern,shape","3","1",""
"null","17360","HierDy8h3q7v3z","sub03","03","6","feedback","test","null","","","na","","3","",""
"826.0999999046326","18187","HierDy8h3q7v3z","sub03","03","6","rl","test","68","img/r_t_dots.png","3","68","color,pattern,shape","4","1",""
"null","19192","HierDy8h3q7v3z","sub03","03","6","feedback","test","null","","","na","","4","",""
"600.5999999046326","19794","HierDy8h3q7v3z","sub03","03","6","rl","test","65","img/r_t_diag.png","1","65","color,pattern,shape","5","1",""
"null","20801","HierDy8h3q7v3z","sub03","03","6","feedback","test","null","","","na","","5","",""
"680.3000001907349","21482","HierDy8h3q7v3z","sub03","03","6","rl","test","70","img/r_c_dots.png","4","70","color,pattern,shape","6","1",""
"null","22486","HierDy8h3q7v3z","sub03","03","6","feedback","test","null","","","na","","6","",""
"531.7999997138977","23018","HierDy8h3q7v3z","sub03","03","6","rl","test","74","img/p_c_diag.png","6","74","color,pattern,shape","7","1",""
"null","24022","HierDy8h3q7v3z","sub03","03","6","feedback","test","null","","","na","","7","",""
"785","24808","HierDy8h3q7v3z","sub03","03","6","rl","test","76","img/p_c_dots.png","8","76","color,pattern,shape","8","1",""
"null","25815","HierDy8h3q7v3z","sub03","03","6","feedback","test","null","","","na","","8","",""
"627.5","26443","HierDy8h3q7v3z","sub03","03","6","rl","test","72","img/p_t_diag.png","5","72","color,pattern,shape","9","1",""
"null","27445","HierDy8h3q7v3z","sub03","03","6","feedback","test","null","","","na","","9","",""
"709","28154","HierDy8h3q7v3z","sub03","03","6","rl","test","68","img/r_t_dots.png","3","68","color,pattern,shape","10","1",""
"null","29157","HierDy8h3q7v3z","sub03","03","6","feedback","test","null","","","na","","10","",""
"902.5999999046326","30061","HierDy8h3q7v3z","sub03","03","6","rl","test","72","img/p_t_diag.png","5","72","color,pattern,shape","11","1",""
"null","31073","HierDy8h3q7v3z","sub03","03","6","feedback","test","null","","","na","","11","",""
"651.5","31725","HierDy8h3q7v3z","sub03","03","6","rl","test","83","img/r_c_diag.png","2","83","color,pattern,shape","12","1",""
"null","32726","HierDy8h3q7v3z","sub03","03","6","feedback","test","null","","","na","","12","",""
"1238.5999999046326","33966","HierDy8h3q7v3z","sub03","03","6","rl","test","68","img/r_t_dots.png","3","68","color,pattern,shape","13","1",""
"null","34976","HierDy8h3q7v3z","sub03","03","6","feedback","test","null","","","na","","13","",""
"640.5999999046326","35618","HierDy8h3q7v3z","sub03","03","6","rl","test","65","img/r_t_diag.png","1","65","color,pattern,shape","14","1",""
"null","36624","HierDy8h3q7v3z","sub03","03","6","feedback","test","null","","","na","","14","",""
"674.6999998092651","37300","HierDy8h3q7v3z","sub03","03","6","rl","test","75","img/p_t_dots.png","7","75","color,pattern,shape","15","1",""
"null","38303","HierDy8h3q7v3z","sub03","03","6","feedback","test","null","","","na","","15","",""
"660.6999998092651","38964","HierDy8h3q7v3z","sub03","03","6","rl","test","76","img/p_c_dots.png","8","76","color,pattern,shape","16","1",""
"null","39975","HierDy8h3q7v3z","sub03","03","6","feedback","test","null","","","na","","16","",""
"586","40562","HierDy8h3q7v3z","sub03","03","6","rl","test","70","img/r_c_dots.png","4","70","color,pattern,shape","17","1",""
"null","41566","HierDy8h3q7v3z","sub03","03","6","feedback","test","null","","","na","","17","",""
"487","42054","HierDy8h3q7v3z","sub03","03","6","rl","test","70","img/r_c_dots.png","4","70","color,pattern,shape","18","1",""
"null","43063","HierDy8h3q7v3z","sub03","03","6","feedback","test","null","","","na","","18","",""
"583.4000000953674","43647","HierDy8h3q7v3z","sub03","03","6","rl","test","83","img/r_c_diag.png","2","83","color,pattern,shape","19","1",""
"null","44657","HierDy8h3q7v3z","sub03","03","6","feedback","test","null","","","na","","19","",""
"761.4000000953674","45420","HierDy8h3q7v3z","sub03","03","6","rl","test","76","img/p_c_dots.png","8","76","color,pattern,shape","20","1",""
"null","46424","HierDy8h3q7v3z","sub03","03","6","feedback","test","null","","","na","","20","",""
"657.9000000953674","47083","HierDy8h3q7v3z","sub03","03","6","rl","test","74","img/p_c_diag.png","6","74","color,pattern,shape","21","1",""
"null","48086","HierDy8h3q7v3z","sub03","03","6","feedback","test","null","","","na","","21","",""
"596.4000000953674","48684","HierDy8h3q7v3z","sub03","03","6","rl","test","65","img/r_t_diag.png","1","65","color,pattern,shape","22","1",""
"null","49688","HierDy8h3q7v3z","sub03","03","6","feedback","test","null","","","na","","22","",""
"637.1999998092651","50327","HierDy8h3q7v3z","sub03","03","6","rl","test","72","img/p_t_diag.png","5","72","color,pattern,shape","23","1",""
"null","51337","HierDy8h3q7v3z","sub03","03","6","feedback","test","null","","","na","","23","",""
"678.5999999046326","52016","HierDy8h3q7v3z","sub03","03","6","rl","test","75","img/p_t_dots.png","7","75","color,pattern,shape","24","1",""
"null","53023","HierDy8h3q7v3z","sub03","03","6","feedback","test","null","","","na","","24","",""
"524.4000000953674","53548","HierDy8h3q7v3z","sub03","03","6","rl","test","72","img/p_t_diag.png","5","72","color,pattern,shape","25","1",""
"null","54554","HierDy8h3q7v3z","sub03","03","6","feedback","test","null","","","na","","25","",""
"617.9000000953674","55173","HierDy8h3q7v3z","sub03","03","6","rl","test","74","img/p_c_diag.png","6","74","color,pattern,shape","26","1",""
"null","56183","HierDy8h3q7v3z","sub03","03","6","feedback","test","null","","","na","","26","",""
"803.9000000953674","56988","HierDy8h3q7v3z","sub03","03","6","rl","test","68","img/r_t_dots.png","3","68","color,pattern,shape","27","1",""
"null","57991","HierDy8h3q7v3z","sub03","03","6","feedback","test","null","","","na","","27","",""
"608.5999999046326","58601","HierDy8h3q7v3z","sub03","03","6","rl","test","65","img/r_t_diag.png","1","65","color,pattern,shape","28","1",""
"null","59611","HierDy8h3q7v3z","sub03","03","6","feedback","test","null","","","na","","28","",""
"603.4000000953674","60215","HierDy8h3q7v3z","sub03","03","6","rl","test","83","img/r_c_diag.png","2","83","color,pattern,shape","29","1",""
"null","61222","HierDy8h3q7v3z","sub03","03","6","feedback","test","null","","","na","","29","",""
"600.9000000953674","61824","HierDy8h3q7v3z","sub03","03","6","rl","test","68","img/r_c_diag.png","2","83","color,pattern,shape","30","0",""
"null","62830","HierDy8h3q7v3z","sub03","03","6","feedback","test","null","","","na","","30","",""
"696.5","63527","HierDy8h3q7v3z","sub03","03","6","rl","test","70","img/r_c_dots.png","4","70","color,pattern,shape","31","1",""
"null","64534","HierDy8h3q7v3z","sub03","03","6","feedback","test","null","","","na","","31","",""
"725","65260","HierDy8h3q7v3z","sub03","03","6","rl","test","70","img/r_c_dots.png","4","70","color,pattern,shape","32","1",""
"null","66263","HierDy8h3q7v3z","sub03","03","6","feedback","test","null","","","na","","32","",""
"787.4000000953674","67051","HierDy8h3q7v3z","sub03","03","6","rl","test","76","img/p_c_dots.png","8","76","color,pattern,shape","33","1",""
"null","68055","HierDy8h3q7v3z","sub03","03","6","feedback","test","null","","","na","","33","",""
"626.2999997138977","68682","HierDy8h3q7v3z","sub03","03","6","rl","test","75","img/p_t_dots.png","7","75","color,pattern,shape","34","1",""
"null","69689","HierDy8h3q7v3z","sub03","03","6","feedback","test","null","","","na","","34","",""
"857.5","70548","HierDy8h3q7v3z","sub03","03","6","rl","test","65","img/r_t_diag.png","1","65","color,pattern,shape","35","1",""
"null","71551","HierDy8h3q7v3z","sub03","03","6","feedback","test","null","","","na","","35","",""
"646.5999999046326","72199","HierDy8h3q7v3z","sub03","03","6","rl","test","75","img/p_t_dots.png","7","75","color,pattern,shape","36","1",""
"null","73207","HierDy8h3q7v3z","sub03","03","6","feedback","test","null","","","na","","36","",""
"651.5","73859","HierDy8h3q7v3z","sub03","03","6","rl","test","76","img/p_c_dots.png","8","76","color,pattern,shape","37","1",""
"null","74862","HierDy8h3q7v3z","sub03","03","6","feedback","test","null","","","na","","37","",""
"796.5","75661","HierDy8h3q7v3z","sub03","03","6","rl","test","68","img/r_t_dots.png","3","68","color,pattern,shape","38","1",""
"null","76675","HierDy8h3q7v3z","sub03","03","6","feedback","test","null","","","na","","38","",""
"552.4000000953674","77228","HierDy8h3q7v3z","sub03","03","6","rl","test","72","img/p_t_diag.png","5","72","color,pattern,shape","39","1",""
"null","78233","HierDy8h3q7v3z","sub03","03","6","feedback","test","null","","","na","","39","",""
"533.6999998092651","78768","HierDy8h3q7v3z","sub03","03","6","rl","test","74","img/p_c_diag.png","6","74","color,pattern,shape","40","1",""
"null","79775","HierDy8h3q7v3z","sub03","03","6","feedback","test","null","","","na","","40","",""
"580.0999999046326","80355","HierDy8h3q7v3z","sub03","03","6","rl","test","75","img/p_t_dots.png","7","75","color,pattern,shape","41","1",""
"null","81359","HierDy8h3q7v3z","sub03","03","6","feedback","test","null","","","na","","41","",""
"605.9000000953674","81966","HierDy8h3q7v3z","sub03","03","6","rl","test","72","img/p_t_diag.png","5","72","color,pattern,shape","42","1",""
"null","82974","HierDy8h3q7v3z","sub03","03","6","feedback","test","null","","","na","","42","",""
"676.6000003814697","83652","HierDy8h3q7v3z","sub03","03","6","rl","test","76","img/p_c_dots.png","8","76","color,pattern,shape","43","1",""
"null","84655","HierDy8h3q7v3z","sub03","03","6","feedback","test","null","","","na","","43","",""
"499.19999980926514","85155","HierDy8h3q7v3z","sub03","03","6","rl","test","74","img/p_c_diag.png","6","74","color,pattern,shape","44","1",""
"null","86162","HierDy8h3q7v3z","sub03","03","6","feedback","test","null","","","na","","44","",""
"717.6999998092651","86881","HierDy8h3q7v3z","sub03","03","6","rl","test","83","img/r_c_diag.png","2","83","color,pattern,shape","45","1",""
"null","87888","HierDy8h3q7v3z","sub03","03","6","feedback","test","null","","","na","","45","",""
"682.5","88571","HierDy8h3q7v3z","sub03","03","6","rl","test","68","img/r_t_dots.png","3","68","color,pattern,shape","46","1",""
"null","89574","HierDy8h3q7v3z","sub03","03","6","feedback","test","null","","","na","","46","",""
"571.0999999046326","90146","HierDy8h3q7v3z","sub03","03","6","rl","test","70","img/r_c_dots.png","4","70","color,pattern,shape","47","1",""
"null","91152","HierDy8h3q7v3z","sub03","03","6","feedback","test","null","","","na","","47","",""
"668","91821","HierDy8h3q7v3z","sub03","03","6","rl","test","65","img/r_t_diag.png","1","65","color,pattern,shape","48","1",""
"null","92826","HierDy8h3q7v3z","sub03","03","6","feedback","test","null","","","na","","48","",""
"485.7000002861023","93312","HierDy8h3q7v3z","sub03","03","6","rl","test","65","img/r_t_diag.png","1","65","color,pattern,shape","49","1",""
"null","94319","HierDy8h3q7v3z","sub03","03","6","feedback","test","null","","","na","","49","",""
"912.5999999046326","95233","HierDy8h3q7v3z","sub03","03","6","rl","test","76","img/p_c_dots.png","8","76","color,pattern,shape","50","1",""
"null","96240","HierDy8h3q7v3z","sub03","03","6","feedback","test","null","","","na","","50","",""
"672.5999999046326","96913","HierDy8h3q7v3z","sub03","03","6","rl","test","68","img/r_t_dots.png","3","68","color,pattern,shape","51","1",""
"null","97919","HierDy8h3q7v3z","sub03","03","6","feedback","test","null","","","na","","51","",""
"713.0999999046326","98633","HierDy8h3q7v3z","sub03","03","6","rl","test","72","img/p_t_diag.png","5","72","color,pattern,shape","52","1",""
"null","99639","HierDy8h3q7v3z","sub03","03","6","feedback","test","null","","","na","","52","",""
"845.2999997138977","100486","HierDy8h3q7v3z","sub03","03","6","rl","test","70","img/r_c_dots.png","4","70","color,pattern,shape","53","1",""
"null","101495","HierDy8h3q7v3z","sub03","03","6","feedback","test","null","","","na","","53","",""
"628.6999998092651","102125","HierDy8h3q7v3z","sub03","03","6","rl","test","83","img/r_c_diag.png","2","83","color,pattern,shape","54","1",""
"null","103129","HierDy8h3q7v3z","sub03","03","6","feedback","test","null","","","na","","54","",""
"917.6000003814697","104047","HierDy8h3q7v3z","sub03","03","6","rl","test","74","img/p_c_diag.png","6","74","color,pattern,shape","55","1",""
"null","105055","HierDy8h3q7v3z","sub03","03","6","feedback","test","null","","","na","","55","",""
"583.2999997138977","105639","HierDy8h3q7v3z","sub03","03","6","rl","test","75","img/p_t_dots.png","7","75","color,pattern,shape","56","1",""
"null","106651","HierDy8h3q7v3z","sub03","03","6","feedback","test","null","","","na","","56","",""
"610.2000002861023","107263","HierDy8h3q7v3z","sub03","03","6","rl","test","74","img/p_c_diag.png","6","74","color,pattern,shape","57","1",""
"null","108271","HierDy8h3q7v3z","sub03","03","6","feedback","test","null","","","na","","57","",""
"766.2000002861023","109038","HierDy8h3q7v3z","sub03","03","6","rl","test","83","img/r_c_diag.png","2","83","color,pattern,shape","58","1",""
"null","110048","HierDy8h3q7v3z","sub03","03","6","feedback","test","null","","","na","","58","",""
"703.3000001907349","110752","HierDy8h3q7v3z","sub03","03","6","rl","test","75","img/p_t_dots.png","7","75","color,pattern,shape","59","1",""
"null","111759","HierDy8h3q7v3z","sub03","03","6","feedback","test","null","","","na","","59","",""
"876.6999998092651","112636","HierDy8h3q7v3z","sub03","03","6","rl","test","70","img/r_c_dots.png","4","70","color,pattern,shape","60","1",""
"null","113643","HierDy8h3q7v3z","sub03","03","6","feedback","test","null","","","na","","60","",""
"610.6999998092651","114254","HierDy8h3q7v3z","sub03","03","6","rl","test","65","img/r_t_diag.png","1","65","color,pattern,shape","61","1",""
"null","115256","HierDy8h3q7v3z","sub03","03","6","feedback","test","null","","","na","","61","",""
"750.5","116007","HierDy8h3q7v3z","sub03","03","6","rl","test","76","img/p_c_dots.png","8","76","color,pattern,shape","62","1",""
"null","117010","HierDy8h3q7v3z","sub03","03","6","feedback","test","null","","","na","","62","",""
"609.5999999046326","117620","HierDy8h3q7v3z","sub03","03","6","rl","test","65","img/p_t_diag.png","5","72","color,pattern,shape","63","0",""
"null","118623","HierDy8h3q7v3z","sub03","03","6","feedback","test","null","","","na","","63","",""
"815.5999999046326","119440","HierDy8h3q7v3z","sub03","03","6","rl","test","68","img/r_t_dots.png","3","68","color,pattern,shape","64","1",""
"null","120448","HierDy8h3q7v3z","sub03","03","6","feedback","test","null","","","na","","64","",""
"609","121057","HierDy8h3q7v3z","sub03","03","6","rl","test","68","img/r_t_dots.png","3","68","color,pattern,shape","65","1",""
"null","122064","HierDy8h3q7v3z","sub03","03","6","feedback","test","null","","","na","","65","",""
"1032.6999998092651","123097","HierDy8h3q7v3z","sub03","03","6","rl","test","74","img/p_c_diag.png","6","74","color,pattern,shape","66","1",""
"null","124107","HierDy8h3q7v3z","sub03","03","6","feedback","test","null","","","na","","66","",""
"610.3000001907349","124719","HierDy8h3q7v3z","sub03","03","6","rl","test","75","img/p_t_dots.png","7","75","color,pattern,shape","67","1",""
"null","125732","HierDy8h3q7v3z","sub03","03","6","feedback","test","null","","","na","","67","",""
"666.6999998092651","126400","HierDy8h3q7v3z","sub03","03","6","rl","test","83","img/r_c_diag.png","2","83","color,pattern,shape","68","1",""
"null","127408","HierDy8h3q7v3z","sub03","03","6","feedback","test","null","","","na","","68","",""
"942.4000000953674","128351","HierDy8h3q7v3z","sub03","03","6","rl","test","72","img/p_t_diag.png","5","72","color,pattern,shape","69","1",""
"null","129365","HierDy8h3q7v3z","sub03","03","6","feedback","test","null","","","na","","69","",""
"1322.8000001907349","130688","HierDy8h3q7v3z","sub03","03","6","rl","test","68","img/r_t_dots.png","3","68","color,pattern,shape","70","1",""
"null","131696","HierDy8h3q7v3z","sub03","03","6","feedback","test","null","","","na","","70","",""
"803.7000002861023","132501","HierDy8h3q7v3z","sub03","03","6","rl","test","70","img/r_c_dots.png","4","70","color,pattern,shape","71","1",""
"null","133504","HierDy8h3q7v3z","sub03","03","6","feedback","test","null","","","na","","71","",""
"1057.0999999046326","134562","HierDy8h3q7v3z","sub03","03","6","rl","test","76","img/p_c_dots.png","8","76","color,pattern,shape","72","1",""
"null","135569","HierDy8h3q7v3z","sub03","03","6","feedback","test","null","","","na","","72","",""
"856.9000000953674","136427","HierDy8h3q7v3z","sub03","03","6","rl","test","65","img/r_t_diag.png","1","65","color,pattern,shape","73","1",""
"null","137432","HierDy8h3q7v3z","sub03","03","6","feedback","test","null","","","na","","73","",""
"1109.0999999046326","138542","HierDy8h3q7v3z","sub03","03","6","rl","test","70","img/p_c_dots.png","8","76","color,pattern,shape","74","0",""
"null","139545","HierDy8h3q7v3z","sub03","03","6","feedback","test","null","","","na","","74","",""
"708.8000001907349","140255","HierDy8h3q7v3z","sub03","03","6","rl","test","83","img/r_c_diag.png","2","83","color,pattern,shape","75","1",""
"null","141256","HierDy8h3q7v3z","sub03","03","6","feedback","test","null","","","na","","75","",""
"683.1000003814697","141940","HierDy8h3q7v3z","sub03","03","6","rl","test","72","img/r_t_diag.png","1","65","color,pattern,shape","76","0",""
"null","142944","HierDy8h3q7v3z","sub03","03","6","feedback","test","null","","","na","","76","",""
"501.09999990463257","143446","HierDy8h3q7v3z","sub03","03","6","rl","test","72","img/p_t_diag.png","5","72","color,pattern,shape","77","1",""
"null","144451","HierDy8h3q7v3z","sub03","03","6","feedback","test","null","","","na","","77","",""
"875.2000002861023","145327","HierDy8h3q7v3z","sub03","03","6","rl","test","74","img/p_c_diag.png","6","74","color,pattern,shape","78","1",""
"null","146329","HierDy8h3q7v3z","sub03","03","6","feedback","test","null","","","na","","78","",""
"894.8999996185303","147225","HierDy8h3q7v3z","sub03","03","6","rl","test","76","img/p_c_dots.png","8","76","color,pattern,shape","79","1",""
"null","148235","HierDy8h3q7v3z","sub03","03","6","feedback","test","null","","","na","","79","",""
"608.1000003814697","148843","HierDy8h3q7v3z","sub03","03","6","rl","test","70","img/r_c_dots.png","4","70","color,pattern,shape","80","1",""
"null","149848","HierDy8h3q7v3z","sub03","03","6","feedback","test","null","","","na","","80","",""
"722.7999997138977","150573","HierDy8h3q7v3z","sub03","03","6","rl","test","75","img/p_t_dots.png","7","75","color,pattern,shape","81","1",""
"null","151580","HierDy8h3q7v3z","sub03","03","6","feedback","test","null","","","na","","81","",""
"603.5","152185","HierDy8h3q7v3z","sub03","03","6","rl","test","65","img/r_t_diag.png","1","65","color,pattern,shape","82","1",""
"null","153192","HierDy8h3q7v3z","sub03","03","6","feedback","test","null","","","na","","82","",""
"905.4000000953674","154099","HierDy8h3q7v3z","sub03","03","6","rl","test","68","img/r_t_dots.png","3","68","color,pattern,shape","83","1",""
"null","155105","HierDy8h3q7v3z","sub03","03","6","feedback","test","null","","","na","","83","",""
"720.5","155827","HierDy8h3q7v3z","sub03","03","6","rl","test","70","img/r_c_dots.png","4","70","color,pattern,shape","84","1",""
"null","156828","HierDy8h3q7v3z","sub03","03","6","feedback","test","null","","","na","","84","",""
"646.0999999046326","157475","HierDy8h3q7v3z","sub03","03","6","rl","test","65","img/r_t_diag.png","1","65","color,pattern,shape","85","1",""
"null","158480","HierDy8h3q7v3z","sub03","03","6","feedback","test","null","","","na","","85","",""
"716.5","159198","HierDy8h3q7v3z","sub03","03","6","rl","test","83","img/r_c_diag.png","2","83","color,pattern,shape","86","1",""
"null","160201","HierDy8h3q7v3z","sub03","03","6","feedback","test","null","","","na","","86","",""
"523.9000000953674","160726","HierDy8h3q7v3z","sub03","03","6","rl","test","83","img/r_c_diag.png","2","83","color,pattern,shape","87","1",""
"null","161728","HierDy8h3q7v3z","sub03","03","6","feedback","test","null","","","na","","87","",""
"996.6999998092651","162726","HierDy8h3q7v3z","sub03","03","6","rl","test","75","img/p_t_dots.png","7","75","color,pattern,shape","88","1",""
"null","163731","HierDy8h3q7v3z","sub03","03","6","feedback","test","null","","","na","","88","",""
"548.5999999046326","164281","HierDy8h3q7v3z","sub03","03","6","rl","test","75","img/p_t_dots.png","7","75","color,pattern,shape","89","1",""
"null","165291","HierDy8h3q7v3z","sub03","03","6","feedback","test","null","","","na","","89","",""
"551.3999996185303","165843","HierDy8h3q7v3z","sub03","03","6","rl","test","72","img/p_t_diag.png","5","72","color,pattern,shape","90","1",""
"null","166851","HierDy8h3q7v3z","sub03","03","6","feedback","test","null","","","na","","90","",""
"621","167474","HierDy8h3q7v3z","sub03","03","6","rl","test","75","img/p_t_dots.png","7","75","color,pattern,shape","91","1",""
"null","168484","HierDy8h3q7v3z","sub03","03","6","feedback","test","null","","","na","","91","",""
"730.6999998092651","169216","HierDy8h3q7v3z","sub03","03","6","rl","test","74","img/p_c_diag.png","6","74","color,pattern,shape","92","1",""
"null","170225","HierDy8h3q7v3z","sub03","03","6","feedback","test","null","","","na","","92","",""
"714.6000003814697","170940","HierDy8h3q7v3z","sub03","03","6","rl","test","76","img/p_c_dots.png","8","76","color,pattern,shape","93","1",""
"null","171950","HierDy8h3q7v3z","sub03","03","6","feedback","test","null","","","na","","93","",""
"675.7000002861023","172626","HierDy8h3q7v3z","sub03","03","6","rl","test","72","img/p_t_diag.png","5","72","color,pattern,shape","94","1",""
"null","173635","HierDy8h3q7v3z","sub03","03","6","feedback","test","null","","","na","","94","",""
"559.8000001907349","174195","HierDy8h3q7v3z","sub03","03","6","rl","test","74","img/p_c_diag.png","6","74","color,pattern,shape","95","1",""
"null","175201","HierDy8h3q7v3z","sub03","03","6","feedback","test","null","","","na","","95","",""
"507.2000002861023","175709","HierDy8h3q7v3z","sub03","03","6","rl","test","72","img/p_t_diag.png","5","72","color,pattern,shape","96","1",""
"null","176716","HierDy8h3q7v3z","sub03","03","6","feedback","test","null","","","na","","96","",""
"594.8000001907349","177312","HierDy8h3q7v3z","sub03","03","6","rl","test","70","img/r_c_dots.png","4","70","color,pattern,shape","97","1",""
"null","178313","HierDy8h3q7v3z","sub03","03","6","feedback","test","null","","","na","","97","",""
"757.4000000953674","179071","HierDy8h3q7v3z","sub03","03","6","rl","test","68","img/r_t_dots.png","3","68","color,pattern,shape","98","1",""
"null","180076","HierDy8h3q7v3z","sub03","03","6","feedback","test","null","","","na","","98","",""
"694.1000003814697","180770","HierDy8h3q7v3z","sub03","03","6","rl","test","76","img/p_c_dots.png","8","76","color,pattern,shape","99","1",""
"null","181780","HierDy8h3q7v3z","sub03","03","6","feedback","test","null","","","na","","99","",""
"974.5","182755","HierDy8h3q7v3z","sub03","03","6","rl","test","65","img/r_t_diag.png","1","65","color,pattern,shape","100","1",""
"null","183765","HierDy8h3q7v3z","sub03","03","6","feedback","test","null","","","na","","100","",""
"597.4000000953674","184363","HierDy8h3q7v3z","sub03","03","6","rl","test","74","img/p_c_diag.png","6","74","color,pattern,shape","101","1",""
"null","185370","HierDy8h3q7v3z","sub03","03","6","feedback","test","null","","","na","","101","",""
"606.7999997138977","185978","HierDy8h3q7v3z","sub03","03","6","rl","test","83","img/r_c_diag.png","2","83","color,pattern,shape","102","1",""
"null","186985","HierDy8h3q7v3z","sub03","03","6","feedback","test","null","","","na","","102","",""
"825.5","187812","HierDy8h3q7v3z","sub03","03","6","rl","test","68","img/r_t_dots.png","3","68","color,pattern,shape","103","1",""
"null","188818","HierDy8h3q7v3z","sub03","03","6","feedback","test","null","","","na","","103","",""
"672.6000003814697","189491","HierDy8h3q7v3z","sub03","03","6","rl","test","70","img/r_c_dots.png","4","70","color,pattern,shape","104","1",""
"null","190498","HierDy8h3q7v3z","sub03","03","6","feedback","test","null","","","na","","104","",""
"705.9000000953674","191205","HierDy8h3q7v3z","sub03","03","6","rl","test","72","img/p_t_diag.png","5","72","color,pattern,shape","105","1",""
"null","192209","HierDy8h3q7v3z","sub03","03","6","feedback","test","null","","","na","","105","",""
"748.0999999046326","192959","HierDy8h3q7v3z","sub03","03","6","rl","test","75","img/p_t_dots.png","7","75","color,pattern,shape","106","1",""
"null","193962","HierDy8h3q7v3z","sub03","03","6","feedback","test","null","","","na","","106","",""
"694.7000002861023","194657","HierDy8h3q7v3z","sub03","03","6","rl","test","76","img/p_c_dots.png","8","76","color,pattern,shape","107","1",""
"null","195666","HierDy8h3q7v3z","sub03","03","6","feedback","test","null","","","na","","107","",""
"707.7999997138977","196374","HierDy8h3q7v3z","sub03","03","6","rl","test","70","img/r_c_dots.png","4","70","color,pattern,shape","108","1",""
"null","197378","HierDy8h3q7v3z","sub03","03","6","feedback","test","null","","","na","","108","",""
"916.5","198295","HierDy8h3q7v3z","sub03","03","6","rl","test","74","img/p_c_diag.png","6","74","color,pattern,shape","109","1",""
"null","199299","HierDy8h3q7v3z","sub03","03","6","feedback","test","null","","","na","","109","",""
"620.6999998092651","199921","HierDy8h3q7v3z","sub03","03","6","rl","test","65","img/r_t_diag.png","1","65","color,pattern,shape","110","1",""
"null","200933","HierDy8h3q7v3z","sub03","03","6","feedback","test","null","","","na","","110","",""
"650","201584","HierDy8h3q7v3z","sub03","03","6","rl","test","83","img/r_c_diag.png","2","83","color,pattern,shape","111","1",""
"null","202585","HierDy8h3q7v3z","sub03","03","6","feedback","test","null","","","na","","111","",""
"692.3000001907349","203279","HierDy8h3q7v3z","sub03","03","6","rl","test","65","img/r_t_diag.png","1","65","color,pattern,shape","112","1",""
"null","204282","HierDy8h3q7v3z","sub03","03","6","feedback","test","null","","","na","","112","",""
"616.0999999046326","204898","HierDy8h3q7v3z","sub03","03","6","rl","test","68","img/r_t_dots.png","3","68","color,pattern,shape","113","1",""
"null","205910","HierDy8h3q7v3z","sub03","03","6","feedback","test","null","","","na","","113","",""
"1021","206932","HierDy8h3q7v3z","sub03","03","6","rl","test","83","img/r_c_diag.png","2","83","color,pattern,shape","114","1",""
"null","207938","HierDy8h3q7v3z","sub03","03","6","feedback","test","null","","","na","","114","",""
"661.8000001907349","208600","HierDy8h3q7v3z","sub03","03","6","rl","test","76","img/p_c_dots.png","8","76","color,pattern,shape","115","1",""
"null","209604","HierDy8h3q7v3z","sub03","03","6","feedback","test","null","","","na","","115","",""
"619.5999999046326","210225","HierDy8h3q7v3z","sub03","03","6","rl","test","72","img/p_t_diag.png","5","72","color,pattern,shape","116","1",""
"null","211226","HierDy8h3q7v3z","sub03","03","6","feedback","test","null","","","na","","116","",""
"1380.5","212608","HierDy8h3q7v3z","sub03","03","6","rl","test","70","img/r_c_dots.png","4","70","color,pattern,shape","117","1",""
"null","213610","HierDy8h3q7v3z","sub03","03","6","feedback","test","null","","","na","","117","",""
"886.2000002861023","214497","HierDy8h3q7v3z","sub03","03","6","rl","test","75","img/p_t_dots.png","7","75","color,pattern,shape","118","1",""
"null","215498","HierDy8h3q7v3z","sub03","03","6","feedback","test","null","","","na","","118","",""
"524.5","216024","HierDy8h3q7v3z","sub03","03","6","rl","test","75","img/p_t_dots.png","7","75","color,pattern,shape","119","1",""
"null","217028","HierDy8h3q7v3z","sub03","03","6","feedback","test","null","","","na","","119","",""
"648.5999999046326","217677","HierDy8h3q7v3z","sub03","03","6","rl","test","76","img/p_c_dots.png","8","76","color,pattern,shape","120","1",""
"null","218684","HierDy8h3q7v3z","sub03","03","6","feedback","test","null","","","na","","120","",""
"565.3000001907349","219250","HierDy8h3q7v3z","sub03","03","6","rl","test","74","img/p_c_diag.png","6","74","color,pattern,shape","121","1",""
"null","220261","HierDy8h3q7v3z","sub03","03","6","feedback","test","null","","","na","","121","",""
"663","220926","HierDy8h3q7v3z","sub03","03","6","rl","test","75","img/r_t_dots.png","3","68","color,pattern,shape","122","0",""
"null","221930","HierDy8h3q7v3z","sub03","03","6","feedback","test","null","","","na","","122","",""
"689.8000001907349","222621","HierDy8h3q7v3z","sub03","03","6","rl","test","65","img/r_t_diag.png","1","65","color,pattern,shape","123","1",""
"null","223626","HierDy8h3q7v3z","sub03","03","6","feedback","test","null","","","na","","123","",""
"610.5","224237","HierDy8h3q7v3z","sub03","03","6","rl","test","68","img/r_t_dots.png","3","68","color,pattern,shape","124","1",""
"null","225242","HierDy8h3q7v3z","sub03","03","6","feedback","test","null","","","na","","124","",""
"585.6000003814697","225829","HierDy8h3q7v3z","sub03","03","6","rl","test","74","img/p_c_diag.png","6","74","color,pattern,shape","125","1",""
"null","226831","HierDy8h3q7v3z","sub03","03","6","feedback","test","null","","","na","","125","",""
"797.2000002861023","227630","HierDy8h3q7v3z","sub03","03","6","rl","test","72","img/p_t_diag.png","5","72","color,pattern,shape","126","1",""
"null","228638","HierDy8h3q7v3z","sub03","03","6","feedback","test","null","","","na","","126","",""
"1376.1000003814697","230015","HierDy8h3q7v3z","sub03","03","6","rl","test","83","img/r_c_diag.png","2","83","color,pattern,shape","127","1",""
"null","231019","HierDy8h3q7v3z","sub03","03","6","feedback","test","null","","","na","","127","",""
"500.69999980926514","231520","HierDy8h3q7v3z","sub03","03","6","rl","test","65","img/r_t_diag.png","1","65","color,pattern,shape","128","1",""
"null","232523","HierDy8h3q7v3z","sub03","03","6","feedback","test","null","","","na","","128","",""
"602.5","233127","HierDy8h3q7v3z","sub03","03","6","rl","test","70","img/r_c_dots.png","4","70","color,pattern,shape","129","1",""
"null","234134","HierDy8h3q7v3z","sub03","03","6","feedback","test","null","","","na","","129","",""
"911.6000003814697","235047","HierDy8h3q7v3z","sub03","03","6","rl","test","70","img/r_c_dots.png","4","70","color,pattern,shape","130","1",""
"null","236051","HierDy8h3q7v3z","sub03","03","6","feedback","test","null","","","na","","130","",""
"590.5999999046326","236643","HierDy8h3q7v3z","sub03","03","6","rl","test","68","img/r_t_dots.png","3","68","color,pattern,shape","131","1",""
"null","237650","HierDy8h3q7v3z","sub03","03","6","feedback","test","null","","","na","","131","",""
"657.8000001907349","238310","HierDy8h3q7v3z","sub03","03","6","rl","test","72","img/p_t_diag.png","5","72","color,pattern,shape","132","1",""
"null","239315","HierDy8h3q7v3z","sub03","03","6","feedback","test","null","","","na","","132","",""
"747","240063","HierDy8h3q7v3z","sub03","03","6","rl","test","75","img/p_t_dots.png","7","75","color,pattern,shape","133","1",""
"null","241067","HierDy8h3q7v3z","sub03","03","6","feedback","test","null","","","na","","133","",""
"789.1999998092651","241857","HierDy8h3q7v3z","sub03","03","6","rl","test","76","img/p_c_dots.png","8","76","color,pattern,shape","134","1",""
"null","242859","HierDy8h3q7v3z","sub03","03","6","feedback","test","null","","","na","","134","",""
"584.8000001907349","243445","HierDy8h3q7v3z","sub03","03","6","rl","test","74","img/p_c_diag.png","6","74","color,pattern,shape","135","1",""
"null","244454","HierDy8h3q7v3z","sub03","03","6","feedback","test","null","","","na","","135","",""
"554.0999999046326","245009","HierDy8h3q7v3z","sub03","03","6","rl","test","75","img/p_t_dots.png","7","75","color,pattern,shape","136","1",""
"null","246019","HierDy8h3q7v3z","sub03","03","6","feedback","test","null","","","na","","136","",""
"942.5","246962","HierDy8h3q7v3z","sub03","03","6","rl","test","70","img/r_c_dots.png","4","70","color,pattern,shape","137","1",""
"null","247971","HierDy8h3q7v3z","sub03","03","6","feedback","test","null","","","na","","137","",""
"669","248641","HierDy8h3q7v3z","sub03","03","6","rl","test","83","img/r_c_diag.png","2","83","color,pattern,shape","138","1",""
"null","249646","HierDy8h3q7v3z","sub03","03","6","feedback","test","null","","","na","","138","",""
"566.8999996185303","250214","HierDy8h3q7v3z","sub03","03","6","rl","test","83","img/r_c_diag.png","2","83","color,pattern,shape","139","1",""
"null","251224","HierDy8h3q7v3z","sub03","03","6","feedback","test","null","","","na","","139","",""
"729.8000001907349","251955","HierDy8h3q7v3z","sub03","03","6","rl","test","76","img/p_c_dots.png","8","76","color,pattern,shape","140","1",""
"null","252963","HierDy8h3q7v3z","sub03","03","6","feedback","test","null","","","na","","140","",""
"741.9000000953674","253706","HierDy8h3q7v3z","sub03","03","6","rl","test","65","img/r_t_diag.png","1","65","color,pattern,shape","141","1",""
"null","254709","HierDy8h3q7v3z","sub03","03","6","feedback","test","null","","","na","","141","",""
"926","255635","HierDy8h3q7v3z","sub03","03","6","rl","test","72","img/p_t_diag.png","5","72","color,pattern,shape","142","1",""
"null","256647","HierDy8h3q7v3z","sub03","03","6","feedback","test","null","","","na","","142","",""
"831.2999997138977","257480","HierDy8h3q7v3z","sub03","03","6","rl","test","68","img/r_c_diag.png","2","83","color,pattern,shape","143","0",""
"null","258487","HierDy8h3q7v3z","sub03","03","6","feedback","test","null","","","na","","143","",""
"801.4000000953674","259290","HierDy8h3q7v3z","sub03","03","6","rl","test","75","img/p_t_dots.png","7","75","color,pattern,shape","144","1",""
"null","260296","HierDy8h3q7v3z","sub03","03","6","feedback","test","null","","","na","","144","",""
"1369.8000001907349","261667","HierDy8h3q7v3z","sub03","03","6","rl","test","68","img/r_t_dots.png","3","68","color,pattern,shape","145","1",""
"null","262676","HierDy8h3q7v3z","sub03","03","6","feedback","test","null","","","na","","145","",""
"859.0999999046326","263536","HierDy8h3q7v3z","sub03","03","6","rl","test","74","img/p_c_diag.png","6","74","color,pattern,shape","146","1",""
"null","264542","HierDy8h3q7v3z","sub03","03","6","feedback","test","null","","","na","","146","",""
"1365","265908","HierDy8h3q7v3z","sub03","03","6","rl","test","83","img/r_t_dots.png","3","68","color,pattern,shape","147","0",""
"null","266916","HierDy8h3q7v3z","sub03","03","6","feedback","test","null","","","na","","147","",""
"975","267891","HierDy8h3q7v3z","sub03","03","6","rl","test","76","img/p_c_dots.png","8","76","color,pattern,shape","148","1",""
"null","268900","HierDy8h3q7v3z","sub03","03","6","feedback","test","null","","","na","","148","",""
"747.8000001907349","269650","HierDy8h3q7v3z","sub03","03","6","rl","test","74","img/p_c_diag.png","6","74","color,pattern,shape","149","1",""
"null","270653","HierDy8h3q7v3z","sub03","03","6","feedback","test","null","","","na","","149","",""
"975.2000002861023","271629","HierDy8h3q7v3z","sub03","03","6","rl","test","70","img/r_c_dots.png","4","70","color,pattern,shape","150","1",""
"null","272636","HierDy8h3q7v3z","sub03","03","6","feedback","test","null","","","na","","150","",""
"755.2999997138977","273392","HierDy8h3q7v3z","sub03","03","6","rl","test","72","img/p_t_diag.png","5","72","color,pattern,shape","151","1",""
"null","274399","HierDy8h3q7v3z","sub03","03","6","feedback","test","null","","","na","","151","",""
"901.7999997138977","275302","HierDy8h3q7v3z","sub03","03","6","rl","test","68","img/r_t_dots.png","3","68","color,pattern,shape","152","1",""
"null","276308","HierDy8h3q7v3z","sub03","03","6","feedback","test","null","","","na","","152","",""
"716.6999998092651","277025","HierDy8h3q7v3z","sub03","03","6","rl","test","76","img/p_c_dots.png","8","76","color,pattern,shape","153","1",""
"null","278028","HierDy8h3q7v3z","sub03","03","6","feedback","test","null","","","na","","153","",""
"1015.3999996185303","279045","HierDy8h3q7v3z","sub03","03","6","rl","test","70","img/r_c_dots.png","4","70","color,pattern,shape","154","1",""
"null","280054","HierDy8h3q7v3z","sub03","03","6","feedback","test","null","","","na","","154","",""
"632.8000001907349","280687","HierDy8h3q7v3z","sub03","03","6","rl","test","65","img/r_t_diag.png","1","65","color,pattern,shape","155","1",""
"null","281692","HierDy8h3q7v3z","sub03","03","6","feedback","test","null","","","na","","155","",""
"855.5999999046326","282549","HierDy8h3q7v3z","sub03","03","6","rl","test","75","img/p_t_dots.png","7","75","color,pattern,shape","156","1",""
"null","283556","HierDy8h3q7v3z","sub03","03","6","feedback","test","null","","","na","","156","",""
"556.3000001907349","284113","HierDy8h3q7v3z","sub03","03","6","rl","test","72","img/p_t_diag.png","5","72","color,pattern,shape","157","1",""
"null","285119","HierDy8h3q7v3z","sub03","03","6","feedback","test","null","","","na","","157","",""
"976.6999998092651","286097","HierDy8h3q7v3z","sub03","03","6","rl","test","83","img/r_c_diag.png","2","83","color,pattern,shape","158","1",""
"null","287100","HierDy8h3q7v3z","sub03","03","6","feedback","test","null","","","na","","158","",""
"635.3999996185303","287737","HierDy8h3q7v3z","sub03","03","6","rl","test","68","img/r_t_dots.png","3","68","color,pattern,shape","159","1",""
"null","288741","HierDy8h3q7v3z","sub03","03","6","feedback","test","null","","","na","","159","",""
"804.7999997138977","289546","HierDy8h3q7v3z","sub03","03","6","rl","test","65","img/r_t_diag.png","1","65","color,pattern,shape","160","1",""
"null","290551","HierDy8h3q7v3z","sub03","03","6","feedback","test","null","","","na","","160","",""
"650.3999996185303","291202","HierDy8h3q7v3z","sub03","03","6","rl","test","74","img/p_c_diag.png","6","74","color,pattern,shape","161","1",""
"null","292205","HierDy8h3q7v3z","sub03","03","6","feedback","test","null","","","na","","161","",""
"839.3999996185303","293046","HierDy8h3q7v3z","sub03","03","6","rl","test","74","img/p_c_diag.png","6","74","color,pattern,shape","162","1",""
"null","294052","HierDy8h3q7v3z","sub03","03","6","feedback","test","null","","","na","","162","",""
"1203.0999999046326","295256","HierDy8h3q7v3z","sub03","03","6","rl","test","65","img/r_t_diag.png","1","65","color,pattern,shape","163","1",""
"null","296264","HierDy8h3q7v3z","sub03","03","6","feedback","test","null","","","na","","163","",""
"630.1999998092651","296895","HierDy8h3q7v3z","sub03","03","6","rl","test","75","img/p_t_dots.png","7","75","color,pattern,shape","164","1",""
"null","297901","HierDy8h3q7v3z","sub03","03","6","feedback","test","null","","","na","","164","",""
"967.9000000953674","298869","HierDy8h3q7v3z","sub03","03","6","rl","test","65","img/r_t_diag.png","1","65","color,pattern,shape","165","1",""
"null","299876","HierDy8h3q7v3z","sub03","03","6","feedback","test","null","","","na","","165","",""
"771.8999996185303","300649","HierDy8h3q7v3z","sub03","03","6","rl","test","72","img/p_t_diag.png","5","72","color,pattern,shape","166","1",""
"null","301654","HierDy8h3q7v3z","sub03","03","6","feedback","test","null","","","na","","166","",""
"654.3999996185303","302309","HierDy8h3q7v3z","sub03","03","6","rl","test","75","img/r_c_dots.png","4","70","color,pattern,shape","167","0",""
"null","303317","HierDy8h3q7v3z","sub03","03","6","feedback","test","null","","","na","","167","",""
"753.5999999046326","304071","HierDy8h3q7v3z","sub03","03","6","rl","test","76","img/p_c_dots.png","8","76","color,pattern,shape","168","1",""
"null","305076","HierDy8h3q7v3z","sub03","03","6","feedback","test","null","","","na","","168","",""
"647.0999999046326","305724","HierDy8h3q7v3z","sub03","03","6","rl","test","83","img/r_c_diag.png","2","83","color,pattern,shape","169","1",""
"null","306732","HierDy8h3q7v3z","sub03","03","6","feedback","test","null","","","na","","169","",""
"1133.6999998092651","307867","HierDy8h3q7v3z","sub03","03","6","rl","test","75","img/p_t_dots.png","7","75","color,pattern,shape","170","1",""
"null","308869","HierDy8h3q7v3z","sub03","03","6","feedback","test","null","","","na","","170","",""
"952.4000000953674","309822","HierDy8h3q7v3z","sub03","03","6","rl","test","70","img/r_c_dots.png","4","70","color,pattern,shape","171","1",""
"null","310832","HierDy8h3q7v3z","sub03","03","6","feedback","test","null","","","na","","171","",""
"1092.4000000953674","311925","HierDy8h3q7v3z","sub03","03","6","rl","test","83","img/r_c_diag.png","2","83","color,pattern,shape","172","1",""
"null","312933","HierDy8h3q7v3z","sub03","03","6","feedback","test","null","","","na","","172","",""
"582.5999999046326","313517","HierDy8h3q7v3z","sub03","03","6","rl","test","72","img/p_t_diag.png","5","72","color,pattern,shape","173","1",""
"null","314525","HierDy8h3q7v3z","sub03","03","6","feedback","test","null","","","na","","173","",""
"635.5","315162","HierDy8h3q7v3z","sub03","03","6","rl","test","68","img/r_t_dots.png","3","68","color,pattern,shape","174","1",""
"null","316164","HierDy8h3q7v3z","sub03","03","6","feedback","test","null","","","na","","174","",""
"503.7000002861023","316669","HierDy8h3q7v3z","sub03","03","6","rl","test","68","img/r_t_dots.png","3","68","color,pattern,shape","175","1",""
"null","317677","HierDy8h3q7v3z","sub03","03","6","feedback","test","null","","","na","","175","",""
"568.4000000953674","318247","HierDy8h3q7v3z","sub03","03","6","rl","test","74","img/p_c_diag.png","6","74","color,pattern,shape","176","1",""
"null","319253","HierDy8h3q7v3z","sub03","03","6","feedback","test","null","","","na","","176","",""
"601","319856","HierDy8h3q7v3z","sub03","03","6","rl","test","75","img/p_c_dots.png","8","76","color,pattern,shape","177","0",""
"null","320866","HierDy8h3q7v3z","sub03","03","6","feedback","test","null","","","na","","177","",""
"738.9000000953674","321605","HierDy8h3q7v3z","sub03","03","6","rl","test","74","img/p_c_diag.png","6","74","color,pattern,shape","178","1",""
"null","322613","HierDy8h3q7v3z","sub03","03","6","feedback","test","null","","","na","","178","",""
"670.0999999046326","323285","HierDy8h3q7v3z","sub03","03","6","rl","test","76","img/p_c_dots.png","8","76","color,pattern,shape","179","1",""
"null","324293","HierDy8h3q7v3z","sub03","03","6","feedback","test","null","","","na","","179","",""
"863.7999997138977","325158","HierDy8h3q7v3z","sub03","03","6","rl","test","65","img/r_t_diag.png","1","65","color,pattern,shape","180","1",""
"null","326165","HierDy8h3q7v3z","sub03","03","6","feedback","test","null","","","na","","180","",""
"920.8000001907349","327087","HierDy8h3q7v3z","sub03","03","6","rl","test","72","img/p_t_diag.png","5","72","color,pattern,shape","181","1",""
"null","328096","HierDy8h3q7v3z","sub03","03","6","feedback","test","null","","","na","","181","",""
"1331.6999998092651","329429","HierDy8h3q7v3z","sub03","03","6","rl","test","83","img/r_c_diag.png","2","83","color,pattern,shape","182","1",""
"null","330437","HierDy8h3q7v3z","sub03","03","6","feedback","test","null","","","na","","182","",""
"716.6999998092651","331155","HierDy8h3q7v3z","sub03","03","6","rl","test","75","img/p_t_dots.png","7","75","color,pattern,shape","183","1",""
"null","332157","HierDy8h3q7v3z","sub03","03","6","feedback","test","null","","","na","","183","",""
"667.8000001907349","332826","HierDy8h3q7v3z","sub03","03","6","rl","test","74","img/p_c_diag.png","6","74","color,pattern,shape","184","1",""
"null","333830","HierDy8h3q7v3z","sub03","03","6","feedback","test","null","","","na","","184","",""
"801.5999999046326","334632","HierDy8h3q7v3z","sub03","03","6","rl","test","70","img/r_c_dots.png","4","70","color,pattern,shape","185","1",""
"null","335641","HierDy8h3q7v3z","sub03","03","6","feedback","test","null","","","na","","185","",""
"621.5999999046326","336263","HierDy8h3q7v3z","sub03","03","6","rl","test","65","img/p_t_diag.png","5","72","color,pattern,shape","186","0",""
"null","337270","HierDy8h3q7v3z","sub03","03","6","feedback","test","null","","","na","","186","",""
"1329.2000002861023","338600","HierDy8h3q7v3z","sub03","03","6","rl","test","68","img/r_t_dots.png","3","68","color,pattern,shape","187","1",""
"null","339608","HierDy8h3q7v3z","sub03","03","6","feedback","test","null","","","na","","187","",""
"699.9000000953674","340309","HierDy8h3q7v3z","sub03","03","6","rl","test","70","img/r_c_dots.png","4","70","color,pattern,shape","188","1",""
"null","341322","HierDy8h3q7v3z","sub03","03","6","feedback","test","null","","","na","","188","",""
"671.9000000953674","341995","HierDy8h3q7v3z","sub03","03","6","rl","test","75","img/p_c_dots.png","8","76","color,pattern,shape","189","0",""
"null","342999","HierDy8h3q7v3z","sub03","03","6","feedback","test","null","","","na","","189","",""
"1178.7000002861023","344179","HierDy8h3q7v3z","sub03","03","6","rl","test","65","img/r_t_diag.png","1","65","color,pattern,shape","190","1",""
"null","345181","HierDy8h3q7v3z","sub03","03","6","feedback","test","null","","","na","","190","",""
"677.7999997138977","345860","HierDy8h3q7v3z","sub03","03","6","rl","test","68","img/r_t_dots.png","3","68","color,pattern,shape","191","1",""
"null","346865","HierDy8h3q7v3z","sub03","03","6","feedback","test","null","","","na","","191","",""
"743.1999998092651","347609","HierDy8h3q7v3z","sub03","03","6","rl","test","75","img/p_t_dots.png","7","75","color,pattern,shape","192","1",""
"null","348614","HierDy8h3q7v3z","sub03","03","6","feedback","test","null","","","na","","192","",""
"702.6999998092651","349318","HierDy8h3q7v3z","sub03","03","6","rl","test","83","img/r_c_diag.png","2","83","color,pattern,shape","193","1",""
"null","350330","HierDy8h3q7v3z","sub03","03","6","feedback","test","null","","","na","","193","",""
"1373.4000000953674","351705","HierDy8h3q7v3z","sub03","03","6","rl","test","83","img/r_c_diag.png","2","83","color,pattern,shape","194","1",""
"null","352710","HierDy8h3q7v3z","sub03","03","6","feedback","test","null","","","na","","194","",""
"820.6999998092651","353532","HierDy8h3q7v3z","sub03","03","6","rl","test","70","img/r_c_dots.png","4","70","color,pattern,shape","195","1",""
"null","354535","HierDy8h3q7v3z","sub03","03","6","feedback","test","null","","","na","","195","",""
"1064.5","355601","HierDy8h3q7v3z","sub03","03","6","rl","test","74","img/p_c_diag.png","6","74","color,pattern,shape","196","1",""
"null","356606","HierDy8h3q7v3z","sub03","03","6","feedback","test","null","","","na","","196","",""
"1360.5999999046326","357968","HierDy8h3q7v3z","sub03","03","6","rl","test","75","img/p_t_dots.png","7","75","color,pattern,shape","197","1",""
"null","358974","HierDy8h3q7v3z","sub03","03","6","feedback","test","null","","","na","","197","",""
"614.9000000953674","359590","HierDy8h3q7v3z","sub03","03","6","rl","test","65","img/r_t_diag.png","1","65","color,pattern,shape","198","1",""
"null","360603","HierDy8h3q7v3z","sub03","03","6","feedback","test","null","","","na","","198","",""
"873.5","361478","HierDy8h3q7v3z","sub03","03","6","rl","test","72","img/p_t_diag.png","5","72","color,pattern,shape","199","1",""
"null","362487","HierDy8h3q7v3z","sub03","03","6","feedback","test","null","","","na","","199","",""
"564.2999997138977","363052","HierDy8h3q7v3z","sub03","03","6","rl","test","76","img/p_c_dots.png","8","76","color,pattern,shape","200","1",""
"null","364056","HierDy8h3q7v3z","sub03","03","6","feedback","test","null","","","na","","200","",""
"504.5","364561","HierDy8h3q7v3z","sub03","03","6","rl","test","76","img/p_c_dots.png","8","76","color,pattern,shape","201","1",""
"null","365569","HierDy8h3q7v3z","sub03","03","6","feedback","test","null","","","na","","201","",""
"867.0999999046326","366437","HierDy8h3q7v3z","sub03","03","6","rl","test","65","img/r_t_diag.png","1","65","color,pattern,shape","202","1",""
"null","367438","HierDy8h3q7v3z","sub03","03","6","feedback","test","null","","","na","","202","",""
"677.5999999046326","368117","HierDy8h3q7v3z","sub03","03","6","rl","test","75","img/p_t_dots.png","7","75","color,pattern,shape","203","1",""
"null","369119","HierDy8h3q7v3z","sub03","03","6","feedback","test","null","","","na","","203","",""
"753.7000002861023","369874","HierDy8h3q7v3z","sub03","03","6","rl","test","68","img/r_t_dots.png","3","68","color,pattern,shape","204","1",""
"null","370879","HierDy8h3q7v3z","sub03","03","6","feedback","test","null","","","na","","204","",""
"590.6999998092651","371471","HierDy8h3q7v3z","sub03","03","6","rl","test","72","img/p_t_diag.png","5","72","color,pattern,shape","205","1",""
"null","372478","HierDy8h3q7v3z","sub03","03","6","feedback","test","null","","","na","","205","",""
"738.3000001907349","373218","HierDy8h3q7v3z","sub03","03","6","rl","test","75","img/p_t_dots.png","7","75","color,pattern,shape","206","1",""
"null","374224","HierDy8h3q7v3z","sub03","03","6","feedback","test","null","","","na","","206","",""
"566.3000001907349","374791","HierDy8h3q7v3z","sub03","03","6","rl","test","72","img/p_t_diag.png","5","72","color,pattern,shape","207","1",""
"null","375799","HierDy8h3q7v3z","sub03","03","6","feedback","test","null","","","na","","207","",""
"695.6999998092651","376496","HierDy8h3q7v3z","sub03","03","6","rl","test","83","img/r_c_diag.png","2","83","color,pattern,shape","208","1",""
"null","377502","HierDy8h3q7v3z","sub03","03","6","feedback","test","null","","","na","","208","",""
"1097.8000001907349","378601","HierDy8h3q7v3z","sub03","03","6","rl","test","75","img/p_c_dots.png","8","76","color,pattern,shape","209","0",""
"null","379606","HierDy8h3q7v3z","sub03","03","6","feedback","test","null","","","na","","209","",""
"502.40000009536743","380110","HierDy8h3q7v3z","sub03","03","6","rl","test","70","img/r_c_dots.png","4","70","color,pattern,shape","210","1",""
"null","381119","HierDy8h3q7v3z","sub03","03","6","feedback","test","null","","","na","","210","",""
"606.7000002861023","381727","HierDy8h3q7v3z","sub03","03","6","rl","test","74","img/p_c_diag.png","6","74","color,pattern,shape","211","1",""
"null","382736","HierDy8h3q7v3z","sub03","03","6","feedback","test","null","","","na","","211","",""
"956.4000000953674","383694","HierDy8h3q7v3z","sub03","03","6","rl","test","74","img/p_c_diag.png","6","74","color,pattern,shape","212","1",""
"null","384703","HierDy8h3q7v3z","sub03","03","6","feedback","test","null","","","na","","212","",""
"847.2000002861023","385551","HierDy8h3q7v3z","sub03","03","6","rl","test","70","img/r_c_dots.png","4","70","color,pattern,shape","213","1",""
"null","386562","HierDy8h3q7v3z","sub03","03","6","feedback","test","null","","","na","","213","",""
"965.7000002861023","387528","HierDy8h3q7v3z","sub03","03","6","rl","test","75","img/r_t_dots.png","3","68","color,pattern,shape","214","0",""
"null","388538","HierDy8h3q7v3z","sub03","03","6","feedback","test","null","","","na","","214","",""
"1324.1999998092651","389863","HierDy8h3q7v3z","sub03","03","6","rl","test","83","img/r_c_diag.png","2","83","color,pattern,shape","215","1",""
"null","390873","HierDy8h3q7v3z","sub03","03","6","feedback","test","null","","","na","","215","",""
"631.4000000953674","391505","HierDy8h3q7v3z","sub03","03","6","rl","test","65","img/r_t_diag.png","1","65","color,pattern,shape","216","1",""
"null","392514","HierDy8h3q7v3z","sub03","03","6","feedback","test","null","","","na","","216","",""
"1079.3000001907349","393594","HierDy8h3q7v3z","sub03","03","6","rl","test","74","img/p_c_diag.png","6","74","color,pattern,shape","217","1",""
"null","394599","HierDy8h3q7v3z","sub03","03","6","feedback","test","null","","","na","","217","",""
"641.7999997138977","395241","HierDy8h3q7v3z","sub03","03","6","rl","test","75","img/p_c_dots.png","8","76","color,pattern,shape","218","0",""
"null","396247","HierDy8h3q7v3z","sub03","03","6","feedback","test","null","","","na","","218","",""
"749.5","396998","HierDy8h3q7v3z","sub03","03","6","rl","test","72","img/p_t_diag.png","5","72","color,pattern,shape","219","1",""
"null","398009","HierDy8h3q7v3z","sub03","03","6","feedback","test","null","","","na","","219","",""
"757.1999998092651","398767","HierDy8h3q7v3z","sub03","03","6","rl","test","70","img/r_c_dots.png","4","70","color,pattern,shape","220","1",""
"null","399775","HierDy8h3q7v3z","sub03","03","6","feedback","test","null","","","na","","220","",""
"614.5999999046326","400391","HierDy8h3q7v3z","sub03","03","6","rl","test","75","img/p_t_dots.png","7","75","color,pattern,shape","221","1",""
"null","401400","HierDy8h3q7v3z","sub03","03","6","feedback","test","null","","","na","","221","",""
"496.7000002861023","401897","HierDy8h3q7v3z","sub03","03","6","rl","test","76","img/p_c_dots.png","8","76","color,pattern,shape","222","1",""
"null","402904","HierDy8h3q7v3z","sub03","03","6","feedback","test","null","","","na","","222","",""
"536.3999996185303","403441","HierDy8h3q7v3z","sub03","03","6","rl","test","75","img/p_t_dots.png","7","75","color,pattern,shape","223","1",""
"null","404447","HierDy8h3q7v3z","sub03","03","6","feedback","test","null","","","na","","223","",""
"730.3000001907349","405178","HierDy8h3q7v3z","sub03","03","6","rl","test","68","img/r_c_diag.png","2","83","color,pattern,shape","224","0",""
"null","406188","HierDy8h3q7v3z","sub03","03","6","feedback","test","null","","","na","","224","",""
"759.2999997138977","406948","HierDy8h3q7v3z","sub03","03","6","rl","test","75","img/r_t_dots.png","3","68","color,pattern,shape","225","0",""
"null","407954","HierDy8h3q7v3z","sub03","03","6","feedback","test","null","","","na","","225","",""
"626.0999999046326","408581","HierDy8h3q7v3z","sub03","03","6","rl","test","65","img/r_t_diag.png","1","65","color,pattern,shape","226","1",""
"null","409584","HierDy8h3q7v3z","sub03","03","6","feedback","test","null","","","na","","226","",""
"1180.3000001907349","410765","HierDy8h3q7v3z","sub03","03","6","rl","test","68","img/r_t_dots.png","3","68","color,pattern,shape","227","1",""
"null","411768","HierDy8h3q7v3z","sub03","03","6","feedback","test","null","","","na","","227","",""
"678.5","412447","HierDy8h3q7v3z","sub03","03","6","rl","test","70","img/r_c_dots.png","4","70","color,pattern,shape","228","1",""
"null","413459","HierDy8h3q7v3z","sub03","03","6","feedback","test","null","","","na","","228","",""
"724.5","414184","HierDy8h3q7v3z","sub03","03","6","rl","test","83","img/r_c_diag.png","2","83","color,pattern,shape","229","1",""
"null","415194","HierDy8h3q7v3z","sub03","03","6","feedback","test","null","","","na","","229","",""
"1224.7000002861023","416420","HierDy8h3q7v3z","sub03","03","6","rl","test","74","img/p_c_diag.png","6","74","color,pattern,shape","230","1",""
"null","417424","HierDy8h3q7v3z","sub03","03","6","feedback","test","null","","","na","","230","",""
"654","418079","HierDy8h3q7v3z","sub03","03","6","rl","test","65","img/r_t_diag.png","1","65","color,pattern,shape","231","1",""
"null","419091","HierDy8h3q7v3z","sub03","03","6","feedback","test","null","","","na","","231","",""
"625.6000003814697","419718","HierDy8h3q7v3z","sub03","03","6","rl","test","65","img/r_t_diag.png","1","65","color,pattern,shape","232","1",""
"null","420720","HierDy8h3q7v3z","sub03","03","6","feedback","test","null","","","na","","232","",""
"1399.5999999046326","422120","HierDy8h3q7v3z","sub03","03","6","rl","test","72","img/p_t_diag.png","5","72","color,pattern,shape","233","1",""
"null","423132","HierDy8h3q7v3z","sub03","03","6","feedback","test","null","","","na","","233","",""
"607.7999997138977","423742","HierDy8h3q7v3z","sub03","03","6","rl","test","74","img/p_c_diag.png","6","74","color,pattern,shape","234","1",""
"null","424745","HierDy8h3q7v3z","sub03","03","6","feedback","test","null","","","na","","234","",""
"932.4000000953674","425678","HierDy8h3q7v3z","sub03","03","6","rl","test","70","img/r_c_dots.png","4","70","color,pattern,shape","235","1",""
"null","426681","HierDy8h3q7v3z","sub03","03","6","feedback","test","null","","","na","","235","",""
"1034.6999998092651","427718","HierDy8h3q7v3z","sub03","03","6","rl","test","72","img/p_t_diag.png","5","72","color,pattern,shape","236","1",""
"null","428720","HierDy8h3q7v3z","sub03","03","6","feedback","test","null","","","na","","236","",""
"1072.7000002861023","429794","HierDy8h3q7v3z","sub03","03","6","rl","test","76","img/p_c_dots.png","8","76","color,pattern,shape","237","1",""
"null","430800","HierDy8h3q7v3z","sub03","03","6","feedback","test","null","","","na","","237","",""
"630.5999999046326","431432","HierDy8h3q7v3z","sub03","03","6","rl","test","75","img/p_t_dots.png","7","75","color,pattern,shape","238","1",""
"null","432442","HierDy8h3q7v3z","sub03","03","6","feedback","test","null","","","na","","238","",""
"1210.4000000953674","433654","HierDy8h3q7v3z","sub03","03","6","rl","test","68","img/r_t_dots.png","3","68","color,pattern,shape","239","1",""
"null","434657","HierDy8h3q7v3z","sub03","03","6","feedback","test","null","","","na","","239","",""
"665.5","435323","HierDy8h3q7v3z","sub03","03","6","rl","test","83","img/r_c_diag.png","2","83","color,pattern,shape","240","1",""
"null","436331","HierDy8h3q7v3z","sub03","03","6","feedback","test","null","","","na","","240","",""
"737.0999999046326","437069","HierDy8h3q7v3z","sub03","03","6","rl","test","70","img/r_c_dots.png","4","70","color,pattern,shape","241","1",""
"null","438073","HierDy8h3q7v3z","sub03","03","6","feedback","test","null","","","na","","241","",""
"531.6000003814697","438606","HierDy8h3q7v3z","sub03","03","6","rl","test","72","img/p_t_diag.png","5","72","color,pattern,shape","242","1",""
"null","439609","HierDy8h3q7v3z","sub03","03","6","feedback","test","null","","","na","","242","",""
"681.5","440291","HierDy8h3q7v3z","sub03","03","6","rl","test","83","img/r_c_diag.png","2","83","color,pattern,shape","243","1",""
"null","441297","HierDy8h3q7v3z","sub03","03","6","feedback","test","null","","","na","","243","",""
"615.2000002861023","441913","HierDy8h3q7v3z","sub03","03","6","rl","test","65","img/r_t_diag.png","1","65","color,pattern,shape","244","1",""
"null","442920","HierDy8h3q7v3z","sub03","03","6","feedback","test","null","","","na","","244","",""
"2346.2000002861023","445267","HierDy8h3q7v3z","sub03","03","6","rl","test","76","img/p_c_dots.png","8","76","color,pattern,shape","245","1",""
"null","446274","HierDy8h3q7v3z","sub03","03","6","feedback","test","null","","","na","","245","",""
"1117.5","447396","HierDy8h3q7v3z","sub03","03","6","rl","test","68","img/r_t_dots.png","3","68","color,pattern,shape","246","1",""
"null","448400","HierDy8h3q7v3z","sub03","03","6","feedback","test","null","","","na","","246","",""
"1080.5","449482","HierDy8h3q7v3z","sub03","03","6","rl","test","74","img/p_c_diag.png","6","74","color,pattern,shape","247","1",""
"null","450489","HierDy8h3q7v3z","sub03","03","6","feedback","test","null","","","na","","247","",""
"587.2999997138977","451077","HierDy8h3q7v3z","sub03","03","6","rl","test","75","img/p_t_dots.png","7","75","color,pattern,shape","248","1",""
"null","452083","HierDy8h3q7v3z","sub03","03","6","feedback","test","null","","","na","","248","",""
"11228.300000190735","463376","HierDy8h3q7v3z","sub03","03","6","","","","","","","","","","{""Q0"":""6""}"
"28904","492283","HierDy8h3q7v3z","sub03","03","6","","","","","","","","","","{""Q0"":""nothing in particular. (was briefly distracted by roomate entering room and asking a question)""}"
"861.1000003814697","493148","HierDy8h3q7v3z","sub03","03","6","","","","","","","","","",""
