"rt","time_elapsed","subject","subID","group","day","trialType","phase","key_press","stim","stimNum","corrresp","hierarchy","trialNum","corr","responses"
"1710.8999999985099","1712","HierDy0o0vy1bs","sub14","02","03","","","","","","","","","",""
"","8707","HierDy0o0vy1bs","sub14","02","03","fullscreen","","","","","","","","",""
"4821.60000000149","13530","HierDy0o0vy1bs","sub14","02","03","","prac","","","","","","","",""
"776.1999999955297","14311","HierDy0o0vy1bs","sub14","02","03","","","32","","","","","","",""
"545.2999999970198","14857","HierDy0o0vy1bs","sub14","02","03","","prac","","","","","","","",""
"2402.1999999955297","17261","HierDy0o0vy1bs","sub14","02","03","rl","test","70","img/p_d_diag.png","4","70","color,shape,pattern","1","1",""
"null","18264","HierDy0o0vy1bs","sub14","02","03","feedback","test","null","","","na","","1","",""
"770.6999999955297","19037","HierDy0o0vy1bs","sub14","02","03","rl","test","74","img/o_t_diag.png","6","74","color,shape,pattern","2","1",""
"null","20040","HierDy0o0vy1bs","sub14","02","03","feedback","test","null","","","na","","2","",""
"813","20856","HierDy0o0vy1bs","sub14","02","03","rl","test","72","img/o_t_check.png","5","72","color,shape,pattern","3","1",""
"null","21859","HierDy0o0vy1bs","sub14","02","03","feedback","test","null","","","na","","3","",""
"760.1999999955297","22621","HierDy0o0vy1bs","sub14","02","03","rl","test","83","img/p_t_diag.png","2","83","color,shape,pattern","4","1",""
"null","23624","HierDy0o0vy1bs","sub14","02","03","feedback","test","null","","","na","","4","",""
"665","24290","HierDy0o0vy1bs","sub14","02","03","rl","test","65","img/p_t_check.png","1","65","color,shape,pattern","5","1",""
"null","25293","HierDy0o0vy1bs","sub14","02","03","feedback","test","null","","","na","","5","",""
"891.6000000014901","26187","HierDy0o0vy1bs","sub14","02","03","rl","test","75","img/o_d_check.png","7","75","color,shape,pattern","6","1",""
"null","27192","HierDy0o0vy1bs","sub14","02","03","feedback","test","null","","","na","","6","",""
"701.1000000014901","27895","HierDy0o0vy1bs","sub14","02","03","rl","test","83","img/p_t_diag.png","2","83","color,shape,pattern","7","1",""
"null","28897","HierDy0o0vy1bs","sub14","02","03","feedback","test","null","","","na","","7","",""
"738.5","29637","HierDy0o0vy1bs","sub14","02","03","rl","test","68","img/p_d_check.png","3","68","color,shape,pattern","8","1",""
"null","30643","HierDy0o0vy1bs","sub14","02","03","feedback","test","null","","","na","","8","",""
"952.9000000059605","31598","HierDy0o0vy1bs","sub14","02","03","rl","test","76","img/o_d_diag.png","8","76","color,shape,pattern","9","1",""
"null","32603","HierDy0o0vy1bs","sub14","02","03","feedback","test","null","","","na","","9","",""
"519.9000000059605","33124","HierDy0o0vy1bs","sub14","02","03","rl","test","76","img/o_d_diag.png","8","76","color,shape,pattern","10","1",""
"null","34126","HierDy0o0vy1bs","sub14","02","03","feedback","test","null","","","na","","10","",""
"731.7999999970198","34860","HierDy0o0vy1bs","sub14","02","03","rl","test","72","img/o_t_check.png","5","72","color,shape,pattern","11","1",""
"null","35864","HierDy0o0vy1bs","sub14","02","03","feedback","test","null","","","na","","11","",""
"795.1999999955297","36661","HierDy0o0vy1bs","sub14","02","03","rl","test","70","img/p_d_diag.png","4","70","color,shape,pattern","12","1",""
"null","37666","HierDy0o0vy1bs","sub14","02","03","feedback","test","null","","","na","","12","",""
"698","38366","HierDy0o0vy1bs","sub14","02","03","rl","test","68","img/p_d_check.png","3","68","color,shape,pattern","13","1",""
"null","39367","HierDy0o0vy1bs","sub14","02","03","feedback","test","null","","","na","","13","",""
"954.3999999985099","40323","HierDy0o0vy1bs","sub14","02","03","rl","test","75","img/o_d_check.png","7","75","color,shape,pattern","14","1",""
"null","41325","HierDy0o0vy1bs","sub14","02","03","feedback","test","null","","","na","","14","",""
"631.3999999985099","41958","HierDy0o0vy1bs","sub14","02","03","rl","test","74","img/o_t_diag.png","6","74","color,shape,pattern","15","1",""
"null","42962","HierDy0o0vy1bs","sub14","02","03","feedback","test","null","","","na","","15","",""
"745.1000000014901","43709","HierDy0o0vy1bs","sub14","02","03","rl","test","65","img/p_t_check.png","1","65","color,shape,pattern","16","1",""
"null","44711","HierDy0o0vy1bs","sub14","02","03","feedback","test","null","","","na","","16","",""
"733.7000000029802","45447","HierDy0o0vy1bs","sub14","02","03","rl","test","74","img/o_t_diag.png","6","74","color,shape,pattern","17","1",""
"null","46450","HierDy0o0vy1bs","sub14","02","03","feedback","test","null","","","na","","17","",""
"853.8999999985099","47306","HierDy0o0vy1bs","sub14","02","03","rl","test","70","img/p_d_diag.png","4","70","color,shape,pattern","18","1",""
"null","48312","HierDy0o0vy1bs","sub14","02","03","feedback","test","null","","","na","","18","",""
"785.1000000014901","49098","HierDy0o0vy1bs","sub14","02","03","rl","test","83","img/p_t_diag.png","2","83","color,shape,pattern","19","1",""
"null","50104","HierDy0o0vy1bs","sub14","02","03","feedback","test","null","","","na","","19","",""
"571.6000000014901","50677","HierDy0o0vy1bs","sub14","02","03","rl","test","65","img/p_t_check.png","1","65","color,shape,pattern","20","1",""
"null","51682","HierDy0o0vy1bs","sub14","02","03","feedback","test","null","","","na","","20","",""
"920.2999999970198","52604","HierDy0o0vy1bs","sub14","02","03","rl","test","72","img/o_t_check.png","5","72","color,shape,pattern","21","1",""
"null","53608","HierDy0o0vy1bs","sub14","02","03","feedback","test","null","","","na","","21","",""
"1007","54617","HierDy0o0vy1bs","sub14","02","03","rl","test","68","img/p_d_check.png","3","68","color,shape,pattern","22","1",""
"null","55618","HierDy0o0vy1bs","sub14","02","03","feedback","test","null","","","na","","22","",""
"1152","56772","HierDy0o0vy1bs","sub14","02","03","rl","test","75","img/o_d_check.png","7","75","color,shape,pattern","23","1",""
"null","57778","HierDy0o0vy1bs","sub14","02","03","feedback","test","null","","","na","","23","",""
"657.8000000044703","58437","HierDy0o0vy1bs","sub14","02","03","rl","test","76","img/o_d_diag.png","8","76","color,shape,pattern","24","1",""
"null","59442","HierDy0o0vy1bs","sub14","02","03","feedback","test","null","","","na","","24","",""
"466.79999999701977","59910","HierDy0o0vy1bs","sub14","02","03","rl","test","76","img/o_d_diag.png","8","76","color,shape,pattern","25","1",""
"null","60914","HierDy0o0vy1bs","sub14","02","03","feedback","test","null","","","na","","25","",""
"941","61856","HierDy0o0vy1bs","sub14","02","03","rl","test","83","img/p_t_diag.png","2","83","color,shape,pattern","26","1",""
"null","62860","HierDy0o0vy1bs","sub14","02","03","feedback","test","null","","","na","","26","",""
"666.6000000014901","63529","HierDy0o0vy1bs","sub14","02","03","rl","test","76","img/o_d_diag.png","8","76","color,shape,pattern","27","1",""
"null","64534","HierDy0o0vy1bs","sub14","02","03","feedback","test","null","","","na","","27","",""
"744.1999999955297","65280","HierDy0o0vy1bs","sub14","02","03","rl","test","68","img/p_d_check.png","3","68","color,shape,pattern","28","1",""
"null","66285","HierDy0o0vy1bs","sub14","02","03","feedback","test","null","","","na","","28","",""
"841.8000000044703","67128","HierDy0o0vy1bs","sub14","02","03","rl","test","70","img/p_d_diag.png","4","70","color,shape,pattern","29","1",""
"null","68130","HierDy0o0vy1bs","sub14","02","03","feedback","test","null","","","na","","29","",""
"711.6000000014901","68843","HierDy0o0vy1bs","sub14","02","03","rl","test","75","img/o_d_check.png","7","75","color,shape,pattern","30","1",""
"null","69845","HierDy0o0vy1bs","sub14","02","03","feedback","test","null","","","na","","30","",""
"630.1000000014901","70477","HierDy0o0vy1bs","sub14","02","03","rl","test","74","img/o_t_diag.png","6","74","color,shape,pattern","31","1",""
"null","71479","HierDy0o0vy1bs","sub14","02","03","feedback","test","null","","","na","","31","",""
"1298.2999999970198","72779","HierDy0o0vy1bs","sub14","02","03","rl","test","65","img/p_t_check.png","1","65","color,shape,pattern","32","1",""
"null","73783","HierDy0o0vy1bs","sub14","02","03","feedback","test","null","","","na","","32","",""
"1487.7000000029802","75272","HierDy0o0vy1bs","sub14","02","03","rl","test","75","img/o_d_check.png","7","75","color,shape,pattern","33","1",""
"null","76274","HierDy0o0vy1bs","sub14","02","03","feedback","test","null","","","na","","33","",""
"809.8999999985099","77085","HierDy0o0vy1bs","sub14","02","03","rl","test","72","img/o_t_check.png","5","72","color,shape,pattern","34","1",""
"null","78087","HierDy0o0vy1bs","sub14","02","03","feedback","test","null","","","na","","34","",""
"1036","79124","HierDy0o0vy1bs","sub14","02","03","rl","test","65","img/p_t_check.png","1","65","color,shape,pattern","35","1",""
"null","80130","HierDy0o0vy1bs","sub14","02","03","feedback","test","null","","","na","","35","",""
"658","80789","HierDy0o0vy1bs","sub14","02","03","rl","test","83","img/o_t_diag.png","6","74","color,shape,pattern","36","0",""
"null","81794","HierDy0o0vy1bs","sub14","02","03","feedback","test","null","","","na","","36","",""
"1066.3000000044703","82862","HierDy0o0vy1bs","sub14","02","03","rl","test","76","img/p_d_diag.png","4","70","color,shape,pattern","37","0",""
"null","83868","HierDy0o0vy1bs","sub14","02","03","feedback","test","null","","","na","","37","",""
"840.7999999970198","84710","HierDy0o0vy1bs","sub14","02","03","rl","test","72","img/o_t_check.png","5","72","color,shape,pattern","38","1",""
"null","85716","HierDy0o0vy1bs","sub14","02","03","feedback","test","null","","","na","","38","",""
"812.8999999985099","86531","HierDy0o0vy1bs","sub14","02","03","rl","test","70","img/p_d_diag.png","4","70","color,shape,pattern","39","1",""
"null","87533","HierDy0o0vy1bs","sub14","02","03","feedback","test","null","","","na","","39","",""
"768.1000000014901","88302","HierDy0o0vy1bs","sub14","02","03","rl","test","83","img/p_t_diag.png","2","83","color,shape,pattern","40","1",""
"null","89308","HierDy0o0vy1bs","sub14","02","03","feedback","test","null","","","na","","40","",""
"742.3999999985099","90052","HierDy0o0vy1bs","sub14","02","03","rl","test","68","img/p_d_check.png","3","68","color,shape,pattern","41","1",""
"null","91058","HierDy0o0vy1bs","sub14","02","03","feedback","test","null","","","na","","41","",""
"593","91652","HierDy0o0vy1bs","sub14","02","03","rl","test","76","img/o_d_diag.png","8","76","color,shape,pattern","42","1",""
"null","92657","HierDy0o0vy1bs","sub14","02","03","feedback","test","null","","","na","","42","",""
"1075.2999999970198","93734","HierDy0o0vy1bs","sub14","02","03","rl","test","75","img/o_d_check.png","7","75","color,shape,pattern","43","1",""
"null","94738","HierDy0o0vy1bs","sub14","02","03","feedback","test","null","","","na","","43","",""
"597.8999999985099","95337","HierDy0o0vy1bs","sub14","02","03","rl","test","74","img/o_t_diag.png","6","74","color,shape,pattern","44","1",""
"null","96343","HierDy0o0vy1bs","sub14","02","03","feedback","test","null","","","na","","44","",""
"646.9000000059605","96992","HierDy0o0vy1bs","sub14","02","03","rl","test","65","img/p_t_check.png","1","65","color,shape,pattern","45","1",""
"null","97996","HierDy0o0vy1bs","sub14","02","03","feedback","test","null","","","na","","45","",""
"594.8999999985099","98593","HierDy0o0vy1bs","sub14","02","03","rl","test","65","img/p_t_check.png","1","65","color,shape,pattern","46","1",""
"null","99596","HierDy0o0vy1bs","sub14","02","03","feedback","test","null","","","na","","46","",""
"753.3999999985099","100351","HierDy0o0vy1bs","sub14","02","03","rl","test","72","img/o_t_check.png","5","72","color,shape,pattern","47","1",""
"null","101356","HierDy0o0vy1bs","sub14","02","03","feedback","test","null","","","na","","47","",""
"1090.5999999940395","102448","HierDy0o0vy1bs","sub14","02","03","rl","test","68","img/p_d_check.png","3","68","color,shape,pattern","48","1",""
"null","103452","HierDy0o0vy1bs","sub14","02","03","feedback","test","null","","","na","","48","",""
"669","104123","HierDy0o0vy1bs","sub14","02","03","rl","test","83","img/p_t_diag.png","2","83","color,shape,pattern","49","1",""
"null","105127","HierDy0o0vy1bs","sub14","02","03","feedback","test","null","","","na","","49","",""
"667.8000000044703","105796","HierDy0o0vy1bs","sub14","02","03","rl","test","68","img/p_d_check.png","3","68","color,shape,pattern","50","1",""
"null","106802","HierDy0o0vy1bs","sub14","02","03","feedback","test","null","","","na","","50","",""
"942.8999999985099","107746","HierDy0o0vy1bs","sub14","02","03","rl","test","72","img/o_t_check.png","5","72","color,shape,pattern","51","1",""
"null","108748","HierDy0o0vy1bs","sub14","02","03","feedback","test","null","","","na","","51","",""
"710.6999999955297","109461","HierDy0o0vy1bs","sub14","02","03","rl","test","83","img/p_t_diag.png","2","83","color,shape,pattern","52","1",""
"null","110465","HierDy0o0vy1bs","sub14","02","03","feedback","test","null","","","na","","52","",""
"511.80000000447035","110979","HierDy0o0vy1bs","sub14","02","03","rl","test","68","img/p_d_diag.png","4","70","color,shape,pattern","53","0",""
"null","111983","HierDy0o0vy1bs","sub14","02","03","feedback","test","null","","","na","","53","",""
"625.6000000014901","112610","HierDy0o0vy1bs","sub14","02","03","rl","test","76","img/o_d_diag.png","8","76","color,shape,pattern","54","1",""
"null","113615","HierDy0o0vy1bs","sub14","02","03","feedback","test","null","","","na","","54","",""
"759.6000000014901","114375","HierDy0o0vy1bs","sub14","02","03","rl","test","74","img/o_t_diag.png","6","74","color,shape,pattern","55","1",""
"null","115377","HierDy0o0vy1bs","sub14","02","03","feedback","test","null","","","na","","55","",""
"547","115926","HierDy0o0vy1bs","sub14","02","03","rl","test","74","img/o_t_diag.png","6","74","color,shape,pattern","56","1",""
"null","116929","HierDy0o0vy1bs","sub14","02","03","feedback","test","null","","","na","","56","",""
"860","117791","HierDy0o0vy1bs","sub14","02","03","rl","test","83","img/p_t_diag.png","2","83","color,shape,pattern","57","1",""
"null","118796","HierDy0o0vy1bs","sub14","02","03","feedback","test","null","","","na","","57","",""
"2138.5","120936","HierDy0o0vy1bs","sub14","02","03","rl","test","75","img/o_d_check.png","7","75","color,shape,pattern","58","1",""
"null","121943","HierDy0o0vy1bs","sub14","02","03","feedback","test","null","","","na","","58","",""
"776.7000000029802","122721","HierDy0o0vy1bs","sub14","02","03","rl","test","70","img/p_d_diag.png","4","70","color,shape,pattern","59","1",""
"null","123723","HierDy0o0vy1bs","sub14","02","03","feedback","test","null","","","na","","59","",""
"821.1000000014901","124546","HierDy0o0vy1bs","sub14","02","03","rl","test","68","img/p_d_check.png","3","68","color,shape,pattern","60","1",""
"null","125548","HierDy0o0vy1bs","sub14","02","03","feedback","test","null","","","na","","60","",""
"614","126163","HierDy0o0vy1bs","sub14","02","03","rl","test","65","img/p_t_check.png","1","65","color,shape,pattern","61","1",""
"null","127169","HierDy0o0vy1bs","sub14","02","03","feedback","test","null","","","na","","61","",""
"604.2000000029802","127775","HierDy0o0vy1bs","sub14","02","03","rl","test","76","img/o_d_diag.png","8","76","color,shape,pattern","62","1",""
"null","128780","HierDy0o0vy1bs","sub14","02","03","feedback","test","null","","","na","","62","",""
"1742","130524","HierDy0o0vy1bs","sub14","02","03","rl","test","65","img/p_t_check.png","1","65","color,shape,pattern","63","1",""
"null","131527","HierDy0o0vy1bs","sub14","02","03","feedback","test","null","","","na","","63","",""
"621.6000000014901","132150","HierDy0o0vy1bs","sub14","02","03","rl","test","72","img/o_t_check.png","5","72","color,shape,pattern","64","1",""
"null","133153","HierDy0o0vy1bs","sub14","02","03","feedback","test","null","","","na","","64","",""
"628.5","133784","HierDy0o0vy1bs","sub14","02","03","rl","test","75","img/o_d_check.png","7","75","color,shape,pattern","65","1",""
"null","134790","HierDy0o0vy1bs","sub14","02","03","feedback","test","null","","","na","","65","",""
"642.7000000029802","135435","HierDy0o0vy1bs","sub14","02","03","rl","test","68","img/p_d_check.png","3","68","color,shape,pattern","66","1",""
"null","136439","HierDy0o0vy1bs","sub14","02","03","feedback","test","null","","","na","","66","",""
"568.3999999985099","137009","HierDy0o0vy1bs","sub14","02","03","rl","test","72","img/o_t_check.png","5","72","color,shape,pattern","67","1",""
"null","138012","HierDy0o0vy1bs","sub14","02","03","feedback","test","null","","","na","","67","",""
"645","138659","HierDy0o0vy1bs","sub14","02","03","rl","test","83","img/p_t_diag.png","2","83","color,shape,pattern","68","1",""
"null","139665","HierDy0o0vy1bs","sub14","02","03","feedback","test","null","","","na","","68","",""
"548.1999999955297","140215","HierDy0o0vy1bs","sub14","02","03","rl","test","75","img/o_d_check.png","7","75","color,shape,pattern","69","1",""
"null","141217","HierDy0o0vy1bs","sub14","02","03","feedback","test","null","","","na","","69","",""
"885.3999999985099","142104","HierDy0o0vy1bs","sub14","02","03","rl","test","74","img/o_t_diag.png","6","74","color,shape,pattern","70","1",""
"null","143108","HierDy0o0vy1bs","sub14","02","03","feedback","test","null","","","na","","70","",""
"795.1000000014901","143905","HierDy0o0vy1bs","sub14","02","03","rl","test","70","img/p_d_diag.png","4","70","color,shape,pattern","71","1",""
"null","144907","HierDy0o0vy1bs","sub14","02","03","feedback","test","null","","","na","","71","",""
"749.6999999955297","145658","HierDy0o0vy1bs","sub14","02","03","rl","test","65","img/o_t_check.png","5","72","color,shape,pattern","72","0",""
"null","146662","HierDy0o0vy1bs","sub14","02","03","feedback","test","null","","","na","","72","",""
"611.6000000014901","147276","HierDy0o0vy1bs","sub14","02","03","rl","test","75","img/o_d_diag.png","8","76","color,shape,pattern","73","0",""
"null","148278","HierDy0o0vy1bs","sub14","02","03","feedback","test","null","","","na","","73","",""
"526.7999999970198","148807","HierDy0o0vy1bs","sub14","02","03","rl","test","76","img/o_d_diag.png","8","76","color,shape,pattern","74","1",""
"null","149810","HierDy0o0vy1bs","sub14","02","03","feedback","test","null","","","na","","74","",""
"698.5","150511","HierDy0o0vy1bs","sub14","02","03","rl","test","70","img/p_d_diag.png","4","70","color,shape,pattern","75","1",""
"null","151516","HierDy0o0vy1bs","sub14","02","03","feedback","test","null","","","na","","75","",""
"706.2999999970198","152224","HierDy0o0vy1bs","sub14","02","03","rl","test","74","img/o_t_diag.png","6","74","color,shape,pattern","76","1",""
"null","153228","HierDy0o0vy1bs","sub14","02","03","feedback","test","null","","","na","","76","",""
"775.2999999970198","154005","HierDy0o0vy1bs","sub14","02","03","rl","test","75","img/o_d_check.png","7","75","color,shape,pattern","77","1",""
"null","155009","HierDy0o0vy1bs","sub14","02","03","feedback","test","null","","","na","","77","",""
"589.0999999940395","155600","HierDy0o0vy1bs","sub14","02","03","rl","test","65","img/p_t_check.png","1","65","color,shape,pattern","78","1",""
"null","156602","HierDy0o0vy1bs","sub14","02","03","feedback","test","null","","","na","","78","",""
"904.7999999970198","157508","HierDy0o0vy1bs","sub14","02","03","rl","test","68","img/p_d_check.png","3","68","color,shape,pattern","79","1",""
"null","158513","HierDy0o0vy1bs","sub14","02","03","feedback","test","null","","","na","","79","",""
"762","159277","HierDy0o0vy1bs","sub14","02","03","rl","test","83","img/p_t_diag.png","2","83","color,shape,pattern","80","1",""
"null","160283","HierDy0o0vy1bs","sub14","02","03","feedback","test","null","","","na","","80","",""
"679.8000000044703","160965","HierDy0o0vy1bs","sub14","02","03","rl","test","76","img/o_d_diag.png","8","76","color,shape,pattern","81","1",""
"null","161969","HierDy0o0vy1bs","sub14","02","03","feedback","test","null","","","na","","81","",""
"603.1000000014901","162574","HierDy0o0vy1bs","sub14","02","03","rl","test","72","img/o_t_check.png","5","72","color,shape,pattern","82","1",""
"null","163579","HierDy0o0vy1bs","sub14","02","03","feedback","test","null","","","na","","82","",""
"950.6000000014901","164532","HierDy0o0vy1bs","sub14","02","03","rl","test","65","img/p_t_check.png","1","65","color,shape,pattern","83","1",""
"null","165537","HierDy0o0vy1bs","sub14","02","03","feedback","test","null","","","na","","83","",""
"685.7000000029802","166224","HierDy0o0vy1bs","sub14","02","03","rl","test","70","img/p_d_diag.png","4","70","color,shape,pattern","84","1",""
"null","167228","HierDy0o0vy1bs","sub14","02","03","feedback","test","null","","","na","","84","",""
"594.5","167824","HierDy0o0vy1bs","sub14","02","03","rl","test","83","img/p_t_diag.png","2","83","color,shape,pattern","85","1",""
"null","168827","HierDy0o0vy1bs","sub14","02","03","feedback","test","null","","","na","","85","",""
"778","169606","HierDy0o0vy1bs","sub14","02","03","rl","test","74","img/o_t_diag.png","6","74","color,shape,pattern","86","1",""
"null","170608","HierDy0o0vy1bs","sub14","02","03","feedback","test","null","","","na","","86","",""
"929.6000000014901","171539","HierDy0o0vy1bs","sub14","02","03","rl","test","68","img/p_d_check.png","3","68","color,shape,pattern","87","1",""
"null","172545","HierDy0o0vy1bs","sub14","02","03","feedback","test","null","","","na","","87","",""
"529.1000000014901","173075","HierDy0o0vy1bs","sub14","02","03","rl","test","74","img/o_t_diag.png","6","74","color,shape,pattern","88","1",""
"null","174081","HierDy0o0vy1bs","sub14","02","03","feedback","test","null","","","na","","88","",""
"704.6000000014901","174787","HierDy0o0vy1bs","sub14","02","03","rl","test","68","img/o_d_check.png","7","75","color,shape,pattern","89","0",""
"null","175792","HierDy0o0vy1bs","sub14","02","03","feedback","test","null","","","na","","89","",""
"1488.5","177282","HierDy0o0vy1bs","sub14","02","03","rl","test","68","img/p_d_check.png","3","68","color,shape,pattern","90","1",""
"null","178289","HierDy0o0vy1bs","sub14","02","03","feedback","test","null","","","na","","90","",""
"637.7000000029802","178928","HierDy0o0vy1bs","sub14","02","03","rl","test","83","img/p_t_diag.png","2","83","color,shape,pattern","91","1",""
"null","179931","HierDy0o0vy1bs","sub14","02","03","feedback","test","null","","","na","","91","",""
"648","180581","HierDy0o0vy1bs","sub14","02","03","rl","test","76","img/o_d_diag.png","8","76","color,shape,pattern","92","1",""
"null","181586","HierDy0o0vy1bs","sub14","02","03","feedback","test","null","","","na","","92","",""
"1189.2999999970198","182777","HierDy0o0vy1bs","sub14","02","03","rl","test","75","img/o_d_check.png","7","75","color,shape,pattern","93","1",""
"null","183782","HierDy0o0vy1bs","sub14","02","03","feedback","test","null","","","na","","93","",""
"624.7000000029802","184408","HierDy0o0vy1bs","sub14","02","03","rl","test","75","img/o_d_check.png","7","75","color,shape,pattern","94","1",""
"null","185413","HierDy0o0vy1bs","sub14","02","03","feedback","test","null","","","na","","94","",""
"543.6000000014901","185959","HierDy0o0vy1bs","sub14","02","03","rl","test","72","img/o_t_check.png","5","72","color,shape,pattern","95","1",""
"null","186960","HierDy0o0vy1bs","sub14","02","03","feedback","test","null","","","na","","95","",""
"695.2999999970198","187657","HierDy0o0vy1bs","sub14","02","03","rl","test","70","img/p_d_diag.png","4","70","color,shape,pattern","96","1",""
"null","188662","HierDy0o0vy1bs","sub14","02","03","feedback","test","null","","","na","","96","",""
"552","189215","HierDy0o0vy1bs","sub14","02","03","rl","test","65","img/p_t_check.png","1","65","color,shape,pattern","97","1",""
"null","190219","HierDy0o0vy1bs","sub14","02","03","feedback","test","null","","","na","","97","",""
"658.7999999970198","190879","HierDy0o0vy1bs","sub14","02","03","rl","test","72","img/o_t_check.png","5","72","color,shape,pattern","98","1",""
"null","191883","HierDy0o0vy1bs","sub14","02","03","feedback","test","null","","","na","","98","",""
"1166.1000000014901","193050","HierDy0o0vy1bs","sub14","02","03","rl","test","68","img/p_d_check.png","3","68","color,shape,pattern","99","1",""
"null","194055","HierDy0o0vy1bs","sub14","02","03","feedback","test","null","","","na","","99","",""
"660.6999999955297","194718","HierDy0o0vy1bs","sub14","02","03","rl","test","65","img/p_t_check.png","1","65","color,shape,pattern","100","1",""
"null","195720","HierDy0o0vy1bs","sub14","02","03","feedback","test","null","","","na","","100","",""
"638.5","196360","HierDy0o0vy1bs","sub14","02","03","rl","test","68","img/p_d_check.png","3","68","color,shape,pattern","101","1",""
"null","197366","HierDy0o0vy1bs","sub14","02","03","feedback","test","null","","","na","","101","",""
"611.9000000059605","197979","HierDy0o0vy1bs","sub14","02","03","rl","test","74","img/o_t_diag.png","6","74","color,shape,pattern","102","1",""
"null","198982","HierDy0o0vy1bs","sub14","02","03","feedback","test","null","","","na","","102","",""
"864.7999999970198","199848","HierDy0o0vy1bs","sub14","02","03","rl","test","70","img/p_d_diag.png","4","70","color,shape,pattern","103","1",""
"null","200854","HierDy0o0vy1bs","sub14","02","03","feedback","test","null","","","na","","103","",""
"596.2999999970198","201452","HierDy0o0vy1bs","sub14","02","03","rl","test","70","img/p_d_diag.png","4","70","color,shape,pattern","104","1",""
"null","202457","HierDy0o0vy1bs","sub14","02","03","feedback","test","null","","","na","","104","",""
"747.8999999985099","203207","HierDy0o0vy1bs","sub14","02","03","rl","test","83","img/p_t_diag.png","2","83","color,shape,pattern","105","1",""
"null","204208","HierDy0o0vy1bs","sub14","02","03","feedback","test","null","","","na","","105","",""
"575.8999999985099","204786","HierDy0o0vy1bs","sub14","02","03","rl","test","65","img/p_t_check.png","1","65","color,shape,pattern","106","1",""
"null","205792","HierDy0o0vy1bs","sub14","02","03","feedback","test","null","","","na","","106","",""
"783.2000000029802","206577","HierDy0o0vy1bs","sub14","02","03","rl","test","76","img/o_d_diag.png","8","76","color,shape,pattern","107","1",""
"null","207579","HierDy0o0vy1bs","sub14","02","03","feedback","test","null","","","na","","107","",""
"571.7000000029802","208152","HierDy0o0vy1bs","sub14","02","03","rl","test","76","img/o_d_diag.png","8","76","color,shape,pattern","108","1",""
"null","209157","HierDy0o0vy1bs","sub14","02","03","feedback","test","null","","","na","","108","",""
"771.1000000014901","209930","HierDy0o0vy1bs","sub14","02","03","rl","test","75","img/o_d_check.png","7","75","color,shape,pattern","109","1",""
"null","210934","HierDy0o0vy1bs","sub14","02","03","feedback","test","null","","","na","","109","",""
"1015.8999999985099","211951","HierDy0o0vy1bs","sub14","02","03","rl","test","83","img/p_t_diag.png","2","83","color,shape,pattern","110","1",""
"null","212954","HierDy0o0vy1bs","sub14","02","03","feedback","test","null","","","na","","110","",""
"1721.1000000014901","214677","HierDy0o0vy1bs","sub14","02","03","rl","test","74","img/o_t_diag.png","6","74","color,shape,pattern","111","1",""
"null","215680","HierDy0o0vy1bs","sub14","02","03","feedback","test","null","","","na","","111","",""
"694.1000000014901","216375","HierDy0o0vy1bs","sub14","02","03","rl","test","70","img/p_d_diag.png","4","70","color,shape,pattern","112","1",""
"null","217381","HierDy0o0vy1bs","sub14","02","03","feedback","test","null","","","na","","112","",""
"522.5","217906","HierDy0o0vy1bs","sub14","02","03","rl","test","72","img/o_t_check.png","5","72","color,shape,pattern","113","1",""
"null","218912","HierDy0o0vy1bs","sub14","02","03","feedback","test","null","","","na","","113","",""
"668.7999999970198","219583","HierDy0o0vy1bs","sub14","02","03","rl","test","68","img/p_d_check.png","3","68","color,shape,pattern","114","1",""
"null","220586","HierDy0o0vy1bs","sub14","02","03","feedback","test","null","","","na","","114","",""
"970.1000000014901","221558","HierDy0o0vy1bs","sub14","02","03","rl","test","74","img/o_t_diag.png","6","74","color,shape,pattern","115","1",""
"null","222560","HierDy0o0vy1bs","sub14","02","03","feedback","test","null","","","na","","115","",""
"878.8999999985099","223441","HierDy0o0vy1bs","sub14","02","03","rl","test","75","img/o_d_check.png","7","75","color,shape,pattern","116","1",""
"null","224446","HierDy0o0vy1bs","sub14","02","03","feedback","test","null","","","na","","116","",""
"653.8000000044703","225101","HierDy0o0vy1bs","sub14","02","03","rl","test","65","img/p_t_check.png","1","65","color,shape,pattern","117","1",""
"null","226106","HierDy0o0vy1bs","sub14","02","03","feedback","test","null","","","na","","117","",""
"635.7999999970198","226742","HierDy0o0vy1bs","sub14","02","03","rl","test","76","img/o_d_diag.png","8","76","color,shape,pattern","118","1",""
"null","227744","HierDy0o0vy1bs","sub14","02","03","feedback","test","null","","","na","","118","",""
"690.5","228436","HierDy0o0vy1bs","sub14","02","03","rl","test","83","img/p_t_diag.png","2","83","color,shape,pattern","119","1",""
"null","229440","HierDy0o0vy1bs","sub14","02","03","feedback","test","null","","","na","","119","",""
"615.8999999985099","230057","HierDy0o0vy1bs","sub14","02","03","rl","test","76","img/o_d_diag.png","8","76","color,shape,pattern","120","1",""
"null","231063","HierDy0o0vy1bs","sub14","02","03","feedback","test","null","","","na","","120","",""
"603.7000000029802","231667","HierDy0o0vy1bs","sub14","02","03","rl","test","72","img/o_t_check.png","5","72","color,shape,pattern","121","1",""
"null","232672","HierDy0o0vy1bs","sub14","02","03","feedback","test","null","","","na","","121","",""
"888.7000000029802","233562","HierDy0o0vy1bs","sub14","02","03","rl","test","83","img/p_t_diag.png","2","83","color,shape,pattern","122","1",""
"null","234567","HierDy0o0vy1bs","sub14","02","03","feedback","test","null","","","na","","122","",""
"576.8999999985099","235146","HierDy0o0vy1bs","sub14","02","03","rl","test","75","img/o_d_check.png","7","75","color,shape,pattern","123","1",""
"null","236149","HierDy0o0vy1bs","sub14","02","03","feedback","test","null","","","na","","123","",""
"1359.2999999970198","237510","HierDy0o0vy1bs","sub14","02","03","rl","test","68","img/p_d_check.png","3","68","color,shape,pattern","124","1",""
"null","238511","HierDy0o0vy1bs","sub14","02","03","feedback","test","null","","","na","","124","",""
"550.8000000044703","239064","HierDy0o0vy1bs","sub14","02","03","rl","test","72","img/o_t_check.png","5","72","color,shape,pattern","125","1",""
"null","240069","HierDy0o0vy1bs","sub14","02","03","feedback","test","null","","","na","","125","",""
"765.8000000044703","240837","HierDy0o0vy1bs","sub14","02","03","rl","test","70","img/p_d_diag.png","4","70","color,shape,pattern","126","1",""
"null","241838","HierDy0o0vy1bs","sub14","02","03","feedback","test","null","","","na","","126","",""
"879.8000000044703","242720","HierDy0o0vy1bs","sub14","02","03","rl","test","74","img/o_t_diag.png","6","74","color,shape,pattern","127","1",""
"null","243722","HierDy0o0vy1bs","sub14","02","03","feedback","test","null","","","na","","127","",""
"642.1000000014901","244366","HierDy0o0vy1bs","sub14","02","03","rl","test","65","img/p_t_check.png","1","65","color,shape,pattern","128","1",""
"null","245370","HierDy0o0vy1bs","sub14","02","03","feedback","test","null","","","na","","128","",""
"1189.6999999955297","246562","HierDy0o0vy1bs","sub14","02","03","rl","test","75","img/o_d_check.png","7","75","color,shape,pattern","129","1",""
"null","247568","HierDy0o0vy1bs","sub14","02","03","feedback","test","null","","","na","","129","",""
"864.5","248434","HierDy0o0vy1bs","sub14","02","03","rl","test","65","img/p_t_check.png","1","65","color,shape,pattern","130","1",""
"null","249440","HierDy0o0vy1bs","sub14","02","03","feedback","test","null","","","na","","130","",""
"691.6999999955297","250133","HierDy0o0vy1bs","sub14","02","03","rl","test","70","img/p_d_diag.png","4","70","color,shape,pattern","131","1",""
"null","251138","HierDy0o0vy1bs","sub14","02","03","feedback","test","null","","","na","","131","",""
"639.3999999985099","251779","HierDy0o0vy1bs","sub14","02","03","rl","test","74","img/o_t_diag.png","6","74","color,shape,pattern","132","1",""
"null","252784","HierDy0o0vy1bs","sub14","02","03","feedback","test","null","","","na","","132","",""
"608.2999999970198","253393","HierDy0o0vy1bs","sub14","02","03","rl","test","68","img/p_d_check.png","3","68","color,shape,pattern","133","1",""
"null","254399","HierDy0o0vy1bs","sub14","02","03","feedback","test","null","","","na","","133","",""
"696.3999999985099","255097","HierDy0o0vy1bs","sub14","02","03","rl","test","76","img/o_d_diag.png","8","76","color,shape,pattern","134","1",""
"null","256101","HierDy0o0vy1bs","sub14","02","03","feedback","test","null","","","na","","134","",""
"982.4000000059605","257085","HierDy0o0vy1bs","sub14","02","03","rl","test","83","img/p_t_diag.png","2","83","color,shape,pattern","135","1",""
"null","258090","HierDy0o0vy1bs","sub14","02","03","feedback","test","null","","","na","","135","",""
"585.1000000014901","258677","HierDy0o0vy1bs","sub14","02","03","rl","test","72","img/o_t_check.png","5","72","color,shape,pattern","136","1",""
"null","259679","HierDy0o0vy1bs","sub14","02","03","feedback","test","null","","","na","","136","",""
"1111.7000000029802","260793","HierDy0o0vy1bs","sub14","02","03","rl","test","72","img/o_t_check.png","5","72","color,shape,pattern","137","1",""
"null","261797","HierDy0o0vy1bs","sub14","02","03","feedback","test","null","","","na","","137","",""
"641.2000000029802","262440","HierDy0o0vy1bs","sub14","02","03","rl","test","83","img/p_t_diag.png","2","83","color,shape,pattern","138","1",""
"null","263445","HierDy0o0vy1bs","sub14","02","03","feedback","test","null","","","na","","138","",""
"864.7000000029802","264311","HierDy0o0vy1bs","sub14","02","03","rl","test","74","img/o_t_diag.png","6","74","color,shape,pattern","139","1",""
"null","265313","HierDy0o0vy1bs","sub14","02","03","feedback","test","null","","","na","","139","",""
"722.3999999985099","266037","HierDy0o0vy1bs","sub14","02","03","rl","test","65","img/p_t_check.png","1","65","color,shape,pattern","140","1",""
"null","267039","HierDy0o0vy1bs","sub14","02","03","feedback","test","null","","","na","","140","",""
"933.8999999985099","267974","HierDy0o0vy1bs","sub14","02","03","rl","test","68","img/p_d_check.png","3","68","color,shape,pattern","141","1",""
"null","268980","HierDy0o0vy1bs","sub14","02","03","feedback","test","null","","","na","","141","",""
"763.7000000029802","269745","HierDy0o0vy1bs","sub14","02","03","rl","test","75","img/o_d_check.png","7","75","color,shape,pattern","142","1",""
"null","270751","HierDy0o0vy1bs","sub14","02","03","feedback","test","null","","","na","","142","",""
"685.2999999970198","271438","HierDy0o0vy1bs","sub14","02","03","rl","test","70","img/p_d_diag.png","4","70","color,shape,pattern","143","1",""
"null","272442","HierDy0o0vy1bs","sub14","02","03","feedback","test","null","","","na","","143","",""
"631.1999999955297","273075","HierDy0o0vy1bs","sub14","02","03","rl","test","83","img/p_t_diag.png","2","83","color,shape,pattern","144","1",""
"null","274079","HierDy0o0vy1bs","sub14","02","03","feedback","test","null","","","na","","144","",""
"682.7999999970198","274764","HierDy0o0vy1bs","sub14","02","03","rl","test","70","img/p_d_diag.png","4","70","color,shape,pattern","145","1",""
"null","275767","HierDy0o0vy1bs","sub14","02","03","feedback","test","null","","","na","","145","",""
"629.7000000029802","276398","HierDy0o0vy1bs","sub14","02","03","rl","test","75","img/o_d_check.png","7","75","color,shape,pattern","146","1",""
"null","277402","HierDy0o0vy1bs","sub14","02","03","feedback","test","null","","","na","","146","",""
"727.1000000014901","278131","HierDy0o0vy1bs","sub14","02","03","rl","test","76","img/o_d_diag.png","8","76","color,shape,pattern","147","1",""
"null","279135","HierDy0o0vy1bs","sub14","02","03","feedback","test","null","","","na","","147","",""
"665.6999999955297","279803","HierDy0o0vy1bs","sub14","02","03","rl","test","76","img/o_d_diag.png","8","76","color,shape,pattern","148","1",""
"null","280809","HierDy0o0vy1bs","sub14","02","03","feedback","test","null","","","na","","148","",""
"1008.3999999985099","281819","HierDy0o0vy1bs","sub14","02","03","rl","test","72","img/o_t_check.png","5","72","color,shape,pattern","149","1",""
"null","282821","HierDy0o0vy1bs","sub14","02","03","feedback","test","null","","","na","","149","",""
"552.3000000044703","283374","HierDy0o0vy1bs","sub14","02","03","rl","test","65","img/p_t_check.png","1","65","color,shape,pattern","150","1",""
"null","284378","HierDy0o0vy1bs","sub14","02","03","feedback","test","null","","","na","","150","",""
"973","285353","HierDy0o0vy1bs","sub14","02","03","rl","test","68","img/p_d_check.png","3","68","color,shape,pattern","151","1",""
"null","286356","HierDy0o0vy1bs","sub14","02","03","feedback","test","null","","","na","","151","",""
"1177.2000000029802","287535","HierDy0o0vy1bs","sub14","02","03","rl","test","75","img/o_d_check.png","7","75","color,shape,pattern","152","1",""
"null","288537","HierDy0o0vy1bs","sub14","02","03","feedback","test","null","","","na","","152","",""
"647.7000000029802","289187","HierDy0o0vy1bs","sub14","02","03","rl","test","74","img/o_t_diag.png","6","74","color,shape,pattern","153","1",""
"null","290191","HierDy0o0vy1bs","sub14","02","03","feedback","test","null","","","na","","153","",""
"792.0999999940395","290985","HierDy0o0vy1bs","sub14","02","03","rl","test","68","img/p_d_check.png","3","68","color,shape,pattern","154","1",""
"null","291990","HierDy0o0vy1bs","sub14","02","03","feedback","test","null","","","na","","154","",""
"706.7000000029802","292699","HierDy0o0vy1bs","sub14","02","03","rl","test","83","img/p_t_diag.png","2","83","color,shape,pattern","155","1",""
"null","293705","HierDy0o0vy1bs","sub14","02","03","feedback","test","null","","","na","","155","",""
"786.5999999940395","294492","HierDy0o0vy1bs","sub14","02","03","rl","test","72","img/o_t_check.png","5","72","color,shape,pattern","156","1",""
"null","295498","HierDy0o0vy1bs","sub14","02","03","feedback","test","null","","","na","","156","",""
"774.7999999970198","296274","HierDy0o0vy1bs","sub14","02","03","rl","test","74","img/o_t_diag.png","6","74","color,shape,pattern","157","1",""
"null","297278","HierDy0o0vy1bs","sub14","02","03","feedback","test","null","","","na","","157","",""
"766","298046","HierDy0o0vy1bs","sub14","02","03","rl","test","65","img/p_t_check.png","1","65","color,shape,pattern","158","1",""
"null","299049","HierDy0o0vy1bs","sub14","02","03","feedback","test","null","","","na","","158","",""
"666.7999999970198","299718","HierDy0o0vy1bs","sub14","02","03","rl","test","68","img/p_d_check.png","3","68","color,shape,pattern","159","1",""
"null","300724","HierDy0o0vy1bs","sub14","02","03","feedback","test","null","","","na","","159","",""
"681.7999999970198","301407","HierDy0o0vy1bs","sub14","02","03","rl","test","70","img/p_d_diag.png","4","70","color,shape,pattern","160","1",""
"null","302409","HierDy0o0vy1bs","sub14","02","03","feedback","test","null","","","na","","160","",""
"571.2000000029802","302982","HierDy0o0vy1bs","sub14","02","03","rl","test","70","img/p_d_diag.png","4","70","color,shape,pattern","161","1",""
"null","303988","HierDy0o0vy1bs","sub14","02","03","feedback","test","null","","","na","","161","",""
"1278.6000000014901","305269","HierDy0o0vy1bs","sub14","02","03","rl","test","76","img/o_d_diag.png","8","76","color,shape,pattern","162","1",""
"null","306271","HierDy0o0vy1bs","sub14","02","03","feedback","test","null","","","na","","162","",""
"659.3999999985099","306932","HierDy0o0vy1bs","sub14","02","03","rl","test","65","img/p_t_check.png","1","65","color,shape,pattern","163","1",""
"null","307935","HierDy0o0vy1bs","sub14","02","03","feedback","test","null","","","na","","163","",""
"607.2000000029802","308543","HierDy0o0vy1bs","sub14","02","03","rl","test","83","img/p_t_diag.png","2","83","color,shape,pattern","164","1",""
"null","309545","HierDy0o0vy1bs","sub14","02","03","feedback","test","null","","","na","","164","",""
"718.6999999955297","310266","HierDy0o0vy1bs","sub14","02","03","rl","test","76","img/o_d_diag.png","8","76","color,shape,pattern","165","1",""
"null","311267","HierDy0o0vy1bs","sub14","02","03","feedback","test","null","","","na","","165","",""
"727.7000000029802","311996","HierDy0o0vy1bs","sub14","02","03","rl","test","83","img/o_t_diag.png","6","74","color,shape,pattern","166","0",""
"null","313001","HierDy0o0vy1bs","sub14","02","03","feedback","test","null","","","na","","166","",""
"1081.1000000014901","314084","HierDy0o0vy1bs","sub14","02","03","rl","test","75","img/o_d_check.png","7","75","color,shape,pattern","167","1",""
"null","315086","HierDy0o0vy1bs","sub14","02","03","feedback","test","null","","","na","","167","",""
"496.29999999701977","315584","HierDy0o0vy1bs","sub14","02","03","rl","test","72","img/o_t_check.png","5","72","color,shape,pattern","168","1",""
"null","316585","HierDy0o0vy1bs","sub14","02","03","feedback","test","null","","","na","","168","",""
"650.9000000059605","317238","HierDy0o0vy1bs","sub14","02","03","rl","test","75","img/o_d_check.png","7","75","color,shape,pattern","169","1",""
"null","318244","HierDy0o0vy1bs","sub14","02","03","feedback","test","null","","","na","","169","",""
"638.1000000014901","318884","HierDy0o0vy1bs","sub14","02","03","rl","test","65","img/p_t_check.png","1","65","color,shape,pattern","170","1",""
"null","319887","HierDy0o0vy1bs","sub14","02","03","feedback","test","null","","","na","","170","",""
"717.6999999955297","320606","HierDy0o0vy1bs","sub14","02","03","rl","test","76","img/o_d_diag.png","8","76","color,shape,pattern","171","1",""
"null","321609","HierDy0o0vy1bs","sub14","02","03","feedback","test","null","","","na","","171","",""
"593.1000000014901","322204","HierDy0o0vy1bs","sub14","02","03","rl","test","70","img/p_d_diag.png","4","70","color,shape,pattern","172","1",""
"null","323209","HierDy0o0vy1bs","sub14","02","03","feedback","test","null","","","na","","172","",""
"738.2999999970198","323949","HierDy0o0vy1bs","sub14","02","03","rl","test","83","img/p_t_diag.png","2","83","color,shape,pattern","173","1",""
"null","324953","HierDy0o0vy1bs","sub14","02","03","feedback","test","null","","","na","","173","",""
"606","325561","HierDy0o0vy1bs","sub14","02","03","rl","test","68","img/p_d_check.png","3","68","color,shape,pattern","174","1",""
"null","326564","HierDy0o0vy1bs","sub14","02","03","feedback","test","null","","","na","","174","",""
"559.8000000044703","327125","HierDy0o0vy1bs","sub14","02","03","rl","test","72","img/o_t_check.png","5","72","color,shape,pattern","175","1",""
"null","328132","HierDy0o0vy1bs","sub14","02","03","feedback","test","null","","","na","","175","",""
"862.3000000044703","328996","HierDy0o0vy1bs","sub14","02","03","rl","test","68","img/p_d_check.png","3","68","color,shape,pattern","176","1",""
"null","329998","HierDy0o0vy1bs","sub14","02","03","feedback","test","null","","","na","","176","",""
"661.1000000014901","330661","HierDy0o0vy1bs","sub14","02","03","rl","test","74","img/p_t_diag.png","2","83","color,shape,pattern","177","0",""
"null","331663","HierDy0o0vy1bs","sub14","02","03","feedback","test","null","","","na","","177","",""
"770","332434","HierDy0o0vy1bs","sub14","02","03","rl","test","65","img/p_t_check.png","1","65","color,shape,pattern","178","1",""
"null","333438","HierDy0o0vy1bs","sub14","02","03","feedback","test","null","","","na","","178","",""
"1138.3999999985099","334578","HierDy0o0vy1bs","sub14","02","03","rl","test","74","img/o_t_diag.png","6","74","color,shape,pattern","179","1",""
"null","335582","HierDy0o0vy1bs","sub14","02","03","feedback","test","null","","","na","","179","",""
"652","336236","HierDy0o0vy1bs","sub14","02","03","rl","test","74","img/o_t_diag.png","6","74","color,shape,pattern","180","1",""
"null","337241","HierDy0o0vy1bs","sub14","02","03","feedback","test","null","","","na","","180","",""
"567.6999999955297","337810","HierDy0o0vy1bs","sub14","02","03","rl","test","76","img/o_d_diag.png","8","76","color,shape,pattern","181","1",""
"null","338814","HierDy0o0vy1bs","sub14","02","03","feedback","test","null","","","na","","181","",""
"621.2999999970198","339437","HierDy0o0vy1bs","sub14","02","03","rl","test","75","img/o_d_check.png","7","75","color,shape,pattern","182","1",""
"null","340441","HierDy0o0vy1bs","sub14","02","03","feedback","test","null","","","na","","182","",""
"532","340975","HierDy0o0vy1bs","sub14","02","03","rl","test","72","img/o_t_check.png","5","72","color,shape,pattern","183","1",""
"null","341976","HierDy0o0vy1bs","sub14","02","03","feedback","test","null","","","na","","183","",""
"572.7999999970198","342551","HierDy0o0vy1bs","sub14","02","03","rl","test","70","img/p_d_diag.png","4","70","color,shape,pattern","184","1",""
"null","343556","HierDy0o0vy1bs","sub14","02","03","feedback","test","null","","","na","","184","",""
"757.7000000029802","344315","HierDy0o0vy1bs","sub14","02","03","rl","test","76","img/o_d_diag.png","8","76","color,shape,pattern","185","1",""
"null","345317","HierDy0o0vy1bs","sub14","02","03","feedback","test","null","","","na","","185","",""
"649.6000000014901","345969","HierDy0o0vy1bs","sub14","02","03","rl","test","76","img/p_d_diag.png","4","70","color,shape,pattern","186","0",""
"null","346974","HierDy0o0vy1bs","sub14","02","03","feedback","test","null","","","na","","186","",""
"888.1000000014901","347864","HierDy0o0vy1bs","sub14","02","03","rl","test","68","img/p_d_check.png","3","68","color,shape,pattern","187","1",""
"null","348867","HierDy0o0vy1bs","sub14","02","03","feedback","test","null","","","na","","187","",""
"671.6000000014901","349541","HierDy0o0vy1bs","sub14","02","03","rl","test","72","img/o_t_check.png","5","72","color,shape,pattern","188","1",""
"null","350547","HierDy0o0vy1bs","sub14","02","03","feedback","test","null","","","na","","188","",""
"761.1000000014901","351310","HierDy0o0vy1bs","sub14","02","03","rl","test","70","img/p_d_diag.png","4","70","color,shape,pattern","189","1",""
"null","352313","HierDy0o0vy1bs","sub14","02","03","feedback","test","null","","","na","","189","",""
"734.8999999985099","353049","HierDy0o0vy1bs","sub14","02","03","rl","test","74","img/o_t_diag.png","6","74","color,shape,pattern","190","1",""
"null","354051","HierDy0o0vy1bs","sub14","02","03","feedback","test","null","","","na","","190","",""
"605.1000000014901","354658","HierDy0o0vy1bs","sub14","02","03","rl","test","83","img/p_t_diag.png","2","83","color,shape,pattern","191","1",""
"null","355662","HierDy0o0vy1bs","sub14","02","03","feedback","test","null","","","na","","191","",""
"447","356111","HierDy0o0vy1bs","sub14","02","03","rl","test","83","img/p_t_diag.png","2","83","color,shape,pattern","192","1",""
"null","357116","HierDy0o0vy1bs","sub14","02","03","feedback","test","null","","","na","","192","",""
"542.9000000059605","357661","HierDy0o0vy1bs","sub14","02","03","rl","test","65","img/p_t_check.png","1","65","color,shape,pattern","193","1",""
"null","358665","HierDy0o0vy1bs","sub14","02","03","feedback","test","null","","","na","","193","",""
"566.1999999955297","359233","HierDy0o0vy1bs","sub14","02","03","rl","test","72","img/o_t_check.png","5","72","color,shape,pattern","194","1",""
"null","360238","HierDy0o0vy1bs","sub14","02","03","feedback","test","null","","","na","","194","",""
"607.6000000014901","360847","HierDy0o0vy1bs","sub14","02","03","rl","test","75","img/o_d_check.png","7","75","color,shape,pattern","195","1",""
"null","361853","HierDy0o0vy1bs","sub14","02","03","feedback","test","null","","","na","","195","",""
"590.2000000029802","362445","HierDy0o0vy1bs","sub14","02","03","rl","test","76","img/o_d_diag.png","8","76","color,shape,pattern","196","1",""
"null","363449","HierDy0o0vy1bs","sub14","02","03","feedback","test","null","","","na","","196","",""
"743.1999999955297","364193","HierDy0o0vy1bs","sub14","02","03","rl","test","65","img/p_t_check.png","1","65","color,shape,pattern","197","1",""
"null","365198","HierDy0o0vy1bs","sub14","02","03","feedback","test","null","","","na","","197","",""
"686.8999999985099","365886","HierDy0o0vy1bs","sub14","02","03","rl","test","74","img/o_t_diag.png","6","74","color,shape,pattern","198","1",""
"null","366888","HierDy0o0vy1bs","sub14","02","03","feedback","test","null","","","na","","198","",""
"618","367508","HierDy0o0vy1bs","sub14","02","03","rl","test","68","img/p_d_check.png","3","68","color,shape,pattern","199","1",""
"null","368510","HierDy0o0vy1bs","sub14","02","03","feedback","test","null","","","na","","199","",""
"1317.8999999985099","369829","HierDy0o0vy1bs","sub14","02","03","rl","test","75","img/o_d_check.png","7","75","color,shape,pattern","200","1",""
"null","370831","HierDy0o0vy1bs","sub14","02","03","feedback","test","null","","","na","","200","",""
"525.7000000029802","371358","HierDy0o0vy1bs","sub14","02","03","rl","test","75","img/o_d_check.png","7","75","color,shape,pattern","201","1",""
"null","372360","HierDy0o0vy1bs","sub14","02","03","feedback","test","null","","","na","","201","",""
"562.5","372924","HierDy0o0vy1bs","sub14","02","03","rl","test","68","img/p_d_check.png","3","68","color,shape,pattern","202","1",""
"null","373928","HierDy0o0vy1bs","sub14","02","03","feedback","test","null","","","na","","202","",""
"658.3999999985099","374588","HierDy0o0vy1bs","sub14","02","03","rl","test","70","img/p_d_diag.png","4","70","color,shape,pattern","203","1",""
"null","375592","HierDy0o0vy1bs","sub14","02","03","feedback","test","null","","","na","","203","",""
"951.6000000014901","376545","HierDy0o0vy1bs","sub14","02","03","rl","test","65","img/p_t_check.png","1","65","color,shape,pattern","204","1",""
"null","377550","HierDy0o0vy1bs","sub14","02","03","feedback","test","null","","","na","","204","",""
"780.8999999985099","378332","HierDy0o0vy1bs","sub14","02","03","rl","test","76","img/o_d_diag.png","8","76","color,shape,pattern","205","1",""
"null","379337","HierDy0o0vy1bs","sub14","02","03","feedback","test","null","","","na","","205","",""
"662.5999999940395","380002","HierDy0o0vy1bs","sub14","02","03","rl","test","74","img/o_t_diag.png","6","74","color,shape,pattern","206","1",""
"null","381006","HierDy0o0vy1bs","sub14","02","03","feedback","test","null","","","na","","206","",""
"609.5999999940395","381617","HierDy0o0vy1bs","sub14","02","03","rl","test","83","img/p_t_diag.png","2","83","color,shape,pattern","207","1",""
"null","382621","HierDy0o0vy1bs","sub14","02","03","feedback","test","null","","","na","","207","",""
"698.0999999940395","383321","HierDy0o0vy1bs","sub14","02","03","rl","test","72","img/o_t_check.png","5","72","color,shape,pattern","208","1",""
"null","384323","HierDy0o0vy1bs","sub14","02","03","feedback","test","null","","","na","","208","",""
"785.2999999970198","385110","HierDy0o0vy1bs","sub14","02","03","rl","test","70","img/p_d_diag.png","4","70","color,shape,pattern","209","1",""
"null","386111","HierDy0o0vy1bs","sub14","02","03","feedback","test","null","","","na","","209","",""
"595","386708","HierDy0o0vy1bs","sub14","02","03","rl","test","72","img/o_t_check.png","5","72","color,shape,pattern","210","1",""
"null","387709","HierDy0o0vy1bs","sub14","02","03","feedback","test","null","","","na","","210","",""
"607.5","388318","HierDy0o0vy1bs","sub14","02","03","rl","test","65","img/p_t_check.png","1","65","color,shape,pattern","211","1",""
"null","389320","HierDy0o0vy1bs","sub14","02","03","feedback","test","null","","","na","","211","",""
"521.8000000044703","389844","HierDy0o0vy1bs","sub14","02","03","rl","test","74","img/o_t_diag.png","6","74","color,shape,pattern","212","1",""
"null","390846","HierDy0o0vy1bs","sub14","02","03","feedback","test","null","","","na","","212","",""
"872.6000000014901","391720","HierDy0o0vy1bs","sub14","02","03","rl","test","68","img/p_d_check.png","3","68","color,shape,pattern","213","1",""
"null","392723","HierDy0o0vy1bs","sub14","02","03","feedback","test","null","","","na","","213","",""
"450.6000000014901","393175","HierDy0o0vy1bs","sub14","02","03","rl","test","75","img/o_d_check.png","7","75","color,shape,pattern","214","1",""
"null","394179","HierDy0o0vy1bs","sub14","02","03","feedback","test","null","","","na","","214","",""
"666.6000000014901","394847","HierDy0o0vy1bs","sub14","02","03","rl","test","76","img/o_d_diag.png","8","76","color,shape,pattern","215","1",""
"null","395848","HierDy0o0vy1bs","sub14","02","03","feedback","test","null","","","na","","215","",""
"605","396455","HierDy0o0vy1bs","sub14","02","03","rl","test","83","img/p_t_diag.png","2","83","color,shape,pattern","216","1",""
"null","397460","HierDy0o0vy1bs","sub14","02","03","feedback","test","null","","","na","","216","",""
"659.2000000029802","398121","HierDy0o0vy1bs","sub14","02","03","rl","test","68","img/p_d_check.png","3","68","color,shape,pattern","217","1",""
"null","399126","HierDy0o0vy1bs","sub14","02","03","feedback","test","null","","","na","","217","",""
"587.1000000014901","399715","HierDy0o0vy1bs","sub14","02","03","rl","test","83","img/p_t_diag.png","2","83","color,shape,pattern","218","1",""
"null","400717","HierDy0o0vy1bs","sub14","02","03","feedback","test","null","","","na","","218","",""
"759.6999999955297","401479","HierDy0o0vy1bs","sub14","02","03","rl","test","75","img/o_d_check.png","7","75","color,shape,pattern","219","1",""
"null","402483","HierDy0o0vy1bs","sub14","02","03","feedback","test","null","","","na","","219","",""
"808.5","403293","HierDy0o0vy1bs","sub14","02","03","rl","test","75","img/o_d_check.png","7","75","color,shape,pattern","220","1",""
"null","404295","HierDy0o0vy1bs","sub14","02","03","feedback","test","null","","","na","","220","",""
"1000.7999999970198","405298","HierDy0o0vy1bs","sub14","02","03","rl","test","70","img/p_d_diag.png","4","70","color,shape,pattern","221","1",""
"null","406301","HierDy0o0vy1bs","sub14","02","03","feedback","test","null","","","na","","221","",""
"653.7000000029802","406957","HierDy0o0vy1bs","sub14","02","03","rl","test","76","img/o_d_diag.png","8","76","color,shape,pattern","222","1",""
"null","407960","HierDy0o0vy1bs","sub14","02","03","feedback","test","null","","","na","","222","",""
"584.3999999985099","408546","HierDy0o0vy1bs","sub14","02","03","rl","test","65","img/o_t_check.png","5","72","color,shape,pattern","223","0",""
"null","409548","HierDy0o0vy1bs","sub14","02","03","feedback","test","null","","","na","","223","",""
"584.3999999985099","410134","HierDy0o0vy1bs","sub14","02","03","rl","test","76","img/p_d_diag.png","4","70","color,shape,pattern","224","0",""
"null","411138","HierDy0o0vy1bs","sub14","02","03","feedback","test","null","","","na","","224","",""
"737.7999999970198","411876","HierDy0o0vy1bs","sub14","02","03","rl","test","65","img/p_t_check.png","1","65","color,shape,pattern","225","1",""
"null","412880","HierDy0o0vy1bs","sub14","02","03","feedback","test","null","","","na","","225","",""
"867.6999999955297","413749","HierDy0o0vy1bs","sub14","02","03","rl","test","76","img/o_d_diag.png","8","76","color,shape,pattern","226","1",""
"null","414755","HierDy0o0vy1bs","sub14","02","03","feedback","test","null","","","na","","226","",""
"528.2000000029802","415284","HierDy0o0vy1bs","sub14","02","03","rl","test","74","img/o_t_diag.png","6","74","color,shape,pattern","227","1",""
"null","416290","HierDy0o0vy1bs","sub14","02","03","feedback","test","null","","","na","","227","",""
"795.3999999985099","417087","HierDy0o0vy1bs","sub14","02","03","rl","test","65","img/p_t_check.png","1","65","color,shape,pattern","228","1",""
"null","418093","HierDy0o0vy1bs","sub14","02","03","feedback","test","null","","","na","","228","",""
"677.8999999985099","418773","HierDy0o0vy1bs","sub14","02","03","rl","test","68","img/p_d_check.png","3","68","color,shape,pattern","229","1",""
"null","419778","HierDy0o0vy1bs","sub14","02","03","feedback","test","null","","","na","","229","",""
"584.2999999970198","420364","HierDy0o0vy1bs","sub14","02","03","rl","test","68","img/p_d_check.png","3","68","color,shape,pattern","230","1",""
"null","421368","HierDy0o0vy1bs","sub14","02","03","feedback","test","null","","","na","","230","",""
"649.2999999970198","422019","HierDy0o0vy1bs","sub14","02","03","rl","test","72","img/o_t_check.png","5","72","color,shape,pattern","231","1",""
"null","423026","HierDy0o0vy1bs","sub14","02","03","feedback","test","null","","","na","","231","",""
"690.7000000029802","423718","HierDy0o0vy1bs","sub14","02","03","rl","test","74","img/o_t_diag.png","6","74","color,shape,pattern","232","1",""
"null","424722","HierDy0o0vy1bs","sub14","02","03","feedback","test","null","","","na","","232","",""
"716.8000000044703","425441","HierDy0o0vy1bs","sub14","02","03","rl","test","83","img/p_t_diag.png","2","83","color,shape,pattern","233","1",""
"null","426445","HierDy0o0vy1bs","sub14","02","03","feedback","test","null","","","na","","233","",""
"961.5","427408","HierDy0o0vy1bs","sub14","02","03","rl","test","70","img/p_d_diag.png","4","70","color,shape,pattern","234","1",""
"null","428413","HierDy0o0vy1bs","sub14","02","03","feedback","test","null","","","na","","234","",""
"781.6000000014901","429196","HierDy0o0vy1bs","sub14","02","03","rl","test","75","img/o_d_check.png","7","75","color,shape,pattern","235","1",""
"null","430201","HierDy0o0vy1bs","sub14","02","03","feedback","test","null","","","na","","235","",""
"602","430805","HierDy0o0vy1bs","sub14","02","03","rl","test","74","img/o_t_diag.png","6","74","color,shape,pattern","236","1",""
"null","431810","HierDy0o0vy1bs","sub14","02","03","feedback","test","null","","","na","","236","",""
"592.2999999970198","432405","HierDy0o0vy1bs","sub14","02","03","rl","test","65","img/o_t_check.png","5","72","color,shape,pattern","237","0",""
"null","433410","HierDy0o0vy1bs","sub14","02","03","feedback","test","null","","","na","","237","",""
"533.5","433946","HierDy0o0vy1bs","sub14","02","03","rl","test","74","img/o_t_diag.png","6","74","color,shape,pattern","238","1",""
"null","434952","HierDy0o0vy1bs","sub14","02","03","feedback","test","null","","","na","","238","",""
"537.4000000059605","435491","HierDy0o0vy1bs","sub14","02","03","rl","test","65","img/p_t_check.png","1","65","color,shape,pattern","239","1",""
"null","436493","HierDy0o0vy1bs","sub14","02","03","feedback","test","null","","","na","","239","",""
"951.3000000044703","437446","HierDy0o0vy1bs","sub14","02","03","rl","test","76","img/o_d_diag.png","8","76","color,shape,pattern","240","1",""
"null","438450","HierDy0o0vy1bs","sub14","02","03","feedback","test","null","","","na","","240","",""
"821.6999999955297","439274","HierDy0o0vy1bs","sub14","02","03","rl","test","83","img/p_t_diag.png","2","83","color,shape,pattern","241","1",""
"null","440279","HierDy0o0vy1bs","sub14","02","03","feedback","test","null","","","na","","241","",""
"461.6000000014901","440742","HierDy0o0vy1bs","sub14","02","03","rl","test","83","img/p_t_diag.png","2","83","color,shape,pattern","242","1",""
"null","441746","HierDy0o0vy1bs","sub14","02","03","feedback","test","null","","","na","","242","",""
"706.3000000044703","442454","HierDy0o0vy1bs","sub14","02","03","rl","test","76","img/o_d_diag.png","8","76","color,shape,pattern","243","1",""
"null","443458","HierDy0o0vy1bs","sub14","02","03","feedback","test","null","","","na","","243","",""
"731.3999999985099","444191","HierDy0o0vy1bs","sub14","02","03","rl","test","75","img/o_d_check.png","7","75","color,shape,pattern","244","1",""
"null","445197","HierDy0o0vy1bs","sub14","02","03","feedback","test","null","","","na","","244","",""
"742.3999999985099","445941","HierDy0o0vy1bs","sub14","02","03","rl","test","68","img/p_d_check.png","3","68","color,shape,pattern","245","1",""
"null","446946","HierDy0o0vy1bs","sub14","02","03","feedback","test","null","","","na","","245","",""
"602.5","447550","HierDy0o0vy1bs","sub14","02","03","rl","test","65","img/p_t_check.png","1","65","color,shape,pattern","246","1",""
"null","448557","HierDy0o0vy1bs","sub14","02","03","feedback","test","null","","","na","","246","",""
"785.2000000029802","449343","HierDy0o0vy1bs","sub14","02","03","rl","test","70","img/p_d_diag.png","4","70","color,shape,pattern","247","1",""
"null","450349","HierDy0o0vy1bs","sub14","02","03","feedback","test","null","","","na","","247","",""
"742.6000000014901","451093","HierDy0o0vy1bs","sub14","02","03","rl","test","74","img/o_t_check.png","5","72","color,shape,pattern","248","0",""
"null","452098","HierDy0o0vy1bs","sub14","02","03","feedback","test","null","","","na","","248","",""
"2619.6999999955297","454725","HierDy0o0vy1bs","sub14","02","03","","","","","","","","","","{""Q0"":""8""}"
"20246.60000000149","474975","HierDy0o0vy1bs","sub14","02","03","","","","","","","","","","{""Q0"":""I tried to use my memory and not overthink my responses""}"
"2558.5","477534","HierDy0o0vy1bs","sub14","02","03","","","","","","","","","",""
