"rt","time_elapsed","subject","subID","group","day","trialType","phase","key_press","stim","stimNum","corrresp","hierarchy","trialNum","corr","responses"
"14705.799999952316","14707","HierDyp65jq1fq","sub06","06","4","","","","","","","","","",""
"","16662","HierDyp65jq1fq","sub06","06","4","fullscreen","","","","","","","","",""
"908.3000000715256","17572","HierDyp65jq1fq","sub06","06","4","","prac","","","","","","","",""
"788.9000000953674","18366","HierDyp65jq1fq","sub06","06","4","","","32","","","","","","",""
"535.5","18903","HierDyp65jq1fq","sub06","06","4","","prac","","","","","","","",""
"1431.5","20338","HierDyp65jq1fq","sub06","06","4","rl","test","83","img/r_t_stripes.png","2","83","pattern,shape,color","1","1",""
"null","21344","HierDyp65jq1fq","sub06","06","4","feedback","test","null","","","na","","1","",""
"1588.7999999523163","22935","HierDyp65jq1fq","sub06","06","4","rl","test","74","img/o_t_check.png","5","72","pattern,shape,color","2","0",""
"null","23939","HierDyp65jq1fq","sub06","06","4","feedback","test","null","","","na","","2","",""
"1993.6000000238419","25935","HierDyp65jq1fq","sub06","06","4","rl","test","74","img/o_s_stripes.png","3","68","pattern,shape,color","3","0",""
"null","26943","HierDyp65jq1fq","sub06","06","4","feedback","test","null","","","na","","3","",""
"1858","28803","HierDyp65jq1fq","sub06","06","4","rl","test","74","img/r_t_check.png","6","74","pattern,shape,color","4","1",""
"null","29806","HierDyp65jq1fq","sub06","06","4","feedback","test","null","","","na","","4","",""
"1075.5","30883","HierDyp65jq1fq","sub06","06","4","rl","test","65","img/o_t_stripes.png","1","65","pattern,shape,color","5","1",""
"null","31890","HierDyp65jq1fq","sub06","06","4","feedback","test","null","","","na","","5","",""
"2480.5","34372","HierDyp65jq1fq","sub06","06","4","rl","test","75","img/r_s_stripes.png","4","70","pattern,shape,color","6","0",""
"null","35374","HierDyp65jq1fq","sub06","06","4","feedback","test","null","","","na","","6","",""
"1750.0999999046326","37127","HierDyp65jq1fq","sub06","06","4","rl","test","76","img/r_s_check.png","8","76","pattern,shape,color","7","1",""
"null","38134","HierDyp65jq1fq","sub06","06","4","feedback","test","null","","","na","","7","",""
"1555","39690","HierDyp65jq1fq","sub06","06","4","rl","test","75","img/o_s_check.png","7","75","pattern,shape,color","8","1",""
"null","40693","HierDyp65jq1fq","sub06","06","4","feedback","test","null","","","na","","8","",""
"874.2000000476837","41569","HierDyp65jq1fq","sub06","06","4","rl","test","65","img/o_t_stripes.png","1","65","pattern,shape,color","9","1",""
"null","42576","HierDyp65jq1fq","sub06","06","4","feedback","test","null","","","na","","9","",""
"846.3000000715256","43424","HierDyp65jq1fq","sub06","06","4","rl","test","76","img/r_s_check.png","8","76","pattern,shape,color","10","1",""
"null","44431","HierDyp65jq1fq","sub06","06","4","feedback","test","null","","","na","","10","",""
"2302.0999999046326","46735","HierDyp65jq1fq","sub06","06","4","rl","test","74","img/o_t_check.png","5","72","pattern,shape,color","11","0",""
"null","47742","HierDyp65jq1fq","sub06","06","4","feedback","test","null","","","na","","11","",""
"618.8999999761581","48363","HierDyp65jq1fq","sub06","06","4","rl","test","72","img/r_t_check.png","6","74","pattern,shape,color","12","0",""
"null","49370","HierDyp65jq1fq","sub06","06","4","feedback","test","null","","","na","","12","",""
"1203.5","50575","HierDyp65jq1fq","sub06","06","4","rl","test","75","img/o_s_check.png","7","75","pattern,shape,color","13","1",""
"null","51580","HierDyp65jq1fq","sub06","06","4","feedback","test","null","","","na","","13","",""
"931.1000000238419","52513","HierDyp65jq1fq","sub06","06","4","rl","test","83","img/r_t_stripes.png","2","83","pattern,shape,color","14","1",""
"null","53519","HierDyp65jq1fq","sub06","06","4","feedback","test","null","","","na","","14","",""
"1219.1999999284744","54740","HierDyp65jq1fq","sub06","06","4","rl","test","70","img/o_s_check.png","7","75","pattern,shape,color","15","0",""
"null","55747","HierDyp65jq1fq","sub06","06","4","feedback","test","null","","","na","","15","",""
"1442.6999999284744","57192","HierDyp65jq1fq","sub06","06","4","rl","test","74","img/r_s_stripes.png","4","70","pattern,shape,color","16","0",""
"null","58198","HierDyp65jq1fq","sub06","06","4","feedback","test","null","","","na","","16","",""
"1182.1999999284744","59382","HierDyp65jq1fq","sub06","06","4","rl","test","75","img/o_s_stripes.png","3","68","pattern,shape,color","17","0",""
"null","60389","HierDyp65jq1fq","sub06","06","4","feedback","test","null","","","na","","17","",""
"1468.2999999523163","61859","HierDyp65jq1fq","sub06","06","4","rl","test","75","img/o_s_stripes.png","3","68","pattern,shape,color","18","0",""
"null","62864","HierDyp65jq1fq","sub06","06","4","feedback","test","null","","","na","","18","",""
"1179.8999999761581","64045","HierDyp65jq1fq","sub06","06","4","rl","test","70","img/r_s_stripes.png","4","70","pattern,shape,color","19","1",""
"null","65051","HierDyp65jq1fq","sub06","06","4","feedback","test","null","","","na","","19","",""
"933.9000000953674","65987","HierDyp65jq1fq","sub06","06","4","rl","test","65","img/o_t_stripes.png","1","65","pattern,shape,color","20","1",""
"null","66994","HierDyp65jq1fq","sub06","06","4","feedback","test","null","","","na","","20","",""
"1224.5","68220","HierDyp65jq1fq","sub06","06","4","rl","test","76","img/r_s_check.png","8","76","pattern,shape,color","21","1",""
"null","69225","HierDyp65jq1fq","sub06","06","4","feedback","test","null","","","na","","21","",""
"681.7000000476837","69909","HierDyp65jq1fq","sub06","06","4","rl","test","65","img/o_t_stripes.png","1","65","pattern,shape,color","22","1",""
"null","70916","HierDyp65jq1fq","sub06","06","4","feedback","test","null","","","na","","22","",""
"928.2999999523163","71846","HierDyp65jq1fq","sub06","06","4","rl","test","72","img/o_t_check.png","5","72","pattern,shape,color","23","1",""
"null","72849","HierDyp65jq1fq","sub06","06","4","feedback","test","null","","","na","","23","",""
"596.5","73448","HierDyp65jq1fq","sub06","06","4","rl","test","72","img/o_t_check.png","5","72","pattern,shape,color","24","1",""
"null","74454","HierDyp65jq1fq","sub06","06","4","feedback","test","null","","","na","","24","",""
"557.2999999523163","75013","HierDyp65jq1fq","sub06","06","4","rl","test","74","img/r_t_check.png","6","74","pattern,shape,color","25","1",""
"null","76015","HierDyp65jq1fq","sub06","06","4","feedback","test","null","","","na","","25","",""
"952.7999999523163","76970","HierDyp65jq1fq","sub06","06","4","rl","test","83","img/r_t_stripes.png","2","83","pattern,shape,color","26","1",""
"null","77973","HierDyp65jq1fq","sub06","06","4","feedback","test","null","","","na","","26","",""
"827.1000000238419","78802","HierDyp65jq1fq","sub06","06","4","rl","test","76","img/r_s_check.png","8","76","pattern,shape,color","27","1",""
"null","79809","HierDyp65jq1fq","sub06","06","4","feedback","test","null","","","na","","27","",""
"1310","81121","HierDyp65jq1fq","sub06","06","4","rl","test","68","img/o_s_stripes.png","3","68","pattern,shape,color","28","1",""
"null","82129","HierDyp65jq1fq","sub06","06","4","feedback","test","null","","","na","","28","",""
"1173.6000000238419","83306","HierDyp65jq1fq","sub06","06","4","rl","test","72","img/r_t_check.png","6","74","pattern,shape,color","29","0",""
"null","84313","HierDyp65jq1fq","sub06","06","4","feedback","test","null","","","na","","29","",""
"1841.8000000715256","86156","HierDyp65jq1fq","sub06","06","4","rl","test","75","img/o_s_check.png","7","75","pattern,shape,color","30","1",""
"null","87163","HierDyp65jq1fq","sub06","06","4","feedback","test","null","","","na","","30","",""
"1134.6000000238419","88300","HierDyp65jq1fq","sub06","06","4","rl","test","83","img/r_t_stripes.png","2","83","pattern,shape,color","31","1",""
"null","89303","HierDyp65jq1fq","sub06","06","4","feedback","test","null","","","na","","31","",""
"null","91809","HierDyp65jq1fq","sub06","06","4","rl","test","null","img/r_s_stripes.png","4","70","pattern,shape,color","32","0",""
"null","92812","HierDyp65jq1fq","sub06","06","4","feedback","test","null","","","na","","32","",""
"888.5999999046326","93702","HierDyp65jq1fq","sub06","06","4","rl","test","70","img/r_s_stripes.png","4","70","pattern,shape,color","33","1",""
"null","94708","HierDyp65jq1fq","sub06","06","4","feedback","test","null","","","na","","33","",""
"665.6999999284744","95376","HierDyp65jq1fq","sub06","06","4","rl","test","68","img/o_s_stripes.png","3","68","pattern,shape,color","34","1",""
"null","96378","HierDyp65jq1fq","sub06","06","4","feedback","test","null","","","na","","34","",""
"1499","97879","HierDyp65jq1fq","sub06","06","4","rl","test","72","img/o_t_check.png","5","72","pattern,shape,color","35","1",""
"null","98885","HierDyp65jq1fq","sub06","06","4","feedback","test","null","","","na","","35","",""
"789.5999999046326","99676","HierDyp65jq1fq","sub06","06","4","rl","test","65","img/o_t_stripes.png","1","65","pattern,shape,color","36","1",""
"null","100683","HierDyp65jq1fq","sub06","06","4","feedback","test","null","","","na","","36","",""
"1885.8999999761581","102571","HierDyp65jq1fq","sub06","06","4","rl","test","74","img/r_t_check.png","6","74","pattern,shape,color","37","1",""
"null","103578","HierDyp65jq1fq","sub06","06","4","feedback","test","null","","","na","","37","",""
"1722.0999999046326","105302","HierDyp65jq1fq","sub06","06","4","rl","test","83","img/r_t_stripes.png","2","83","pattern,shape,color","38","1",""
"null","106309","HierDyp65jq1fq","sub06","06","4","feedback","test","null","","","na","","38","",""
"1148.5","107459","HierDyp65jq1fq","sub06","06","4","rl","test","75","img/o_s_check.png","7","75","pattern,shape,color","39","1",""
"null","108463","HierDyp65jq1fq","sub06","06","4","feedback","test","null","","","na","","39","",""
"1869.2000000476837","110335","HierDyp65jq1fq","sub06","06","4","rl","test","74","img/r_t_check.png","6","74","pattern,shape,color","40","1",""
"null","111340","HierDyp65jq1fq","sub06","06","4","feedback","test","null","","","na","","40","",""
"1211.7000000476837","112553","HierDyp65jq1fq","sub06","06","4","rl","test","76","img/r_s_check.png","8","76","pattern,shape,color","41","1",""
"null","113555","HierDyp65jq1fq","sub06","06","4","feedback","test","null","","","na","","41","",""
"2039","115596","HierDyp65jq1fq","sub06","06","4","rl","test","74","img/r_t_stripes.png","2","83","pattern,shape,color","42","0",""
"null","116602","HierDyp65jq1fq","sub06","06","4","feedback","test","null","","","na","","42","",""
"1103.3999999761581","117707","HierDyp65jq1fq","sub06","06","4","rl","test","76","img/r_s_check.png","8","76","pattern,shape,color","43","1",""
"null","118712","HierDyp65jq1fq","sub06","06","4","feedback","test","null","","","na","","43","",""
"1309.2999999523163","120023","HierDyp65jq1fq","sub06","06","4","rl","test","70","img/r_s_stripes.png","4","70","pattern,shape,color","44","1",""
"null","121026","HierDyp65jq1fq","sub06","06","4","feedback","test","null","","","na","","44","",""
"1191.4000000953674","122220","HierDyp65jq1fq","sub06","06","4","rl","test","75","img/o_s_check.png","7","75","pattern,shape,color","45","1",""
"null","123223","HierDyp65jq1fq","sub06","06","4","feedback","test","null","","","na","","45","",""
"1729.1000000238419","124954","HierDyp65jq1fq","sub06","06","4","rl","test","65","img/o_t_stripes.png","1","65","pattern,shape,color","46","1",""
"null","125961","HierDyp65jq1fq","sub06","06","4","feedback","test","null","","","na","","46","",""
"1922.7999999523163","127886","HierDyp65jq1fq","sub06","06","4","rl","test","74","img/o_t_check.png","5","72","pattern,shape,color","47","0",""
"null","128890","HierDyp65jq1fq","sub06","06","4","feedback","test","null","","","na","","47","",""
"2076","130968","HierDyp65jq1fq","sub06","06","4","rl","test","68","img/o_s_stripes.png","3","68","pattern,shape,color","48","1",""
"null","131972","HierDyp65jq1fq","sub06","06","4","feedback","test","null","","","na","","48","",""
"1035.5999999046326","133010","HierDyp65jq1fq","sub06","06","4","rl","test","72","img/o_t_check.png","5","72","pattern,shape,color","49","1",""
"null","134013","HierDyp65jq1fq","sub06","06","4","feedback","test","null","","","na","","49","",""
"782.3999999761581","134797","HierDyp65jq1fq","sub06","06","4","rl","test","65","img/o_t_stripes.png","1","65","pattern,shape,color","50","1",""
"null","135801","HierDyp65jq1fq","sub06","06","4","feedback","test","null","","","na","","50","",""
"745.1999999284744","136549","HierDyp65jq1fq","sub06","06","4","rl","test","83","img/r_t_stripes.png","2","83","pattern,shape,color","51","1",""
"null","137551","HierDyp65jq1fq","sub06","06","4","feedback","test","null","","","na","","51","",""
"1739.3999999761581","139293","HierDyp65jq1fq","sub06","06","4","rl","test","70","img/r_s_stripes.png","4","70","pattern,shape,color","52","1",""
"null","140296","HierDyp65jq1fq","sub06","06","4","feedback","test","null","","","na","","52","",""
"638.2999999523163","140936","HierDyp65jq1fq","sub06","06","4","rl","test","68","img/o_s_stripes.png","3","68","pattern,shape,color","53","1",""
"null","141943","HierDyp65jq1fq","sub06","06","4","feedback","test","null","","","na","","53","",""
"1161.3000000715256","143105","HierDyp65jq1fq","sub06","06","4","rl","test","68","img/o_s_stripes.png","3","68","pattern,shape,color","54","1",""
"null","144107","HierDyp65jq1fq","sub06","06","4","feedback","test","null","","","na","","54","",""
"1619.6000000238419","145729","HierDyp65jq1fq","sub06","06","4","rl","test","72","img/r_t_check.png","6","74","pattern,shape,color","55","0",""
"null","146735","HierDyp65jq1fq","sub06","06","4","feedback","test","null","","","na","","55","",""
"1393.1000000238419","148131","HierDyp65jq1fq","sub06","06","4","rl","test","76","img/r_s_check.png","8","76","pattern,shape,color","56","1",""
"null","149137","HierDyp65jq1fq","sub06","06","4","feedback","test","null","","","na","","56","",""
"2060.7000000476837","151199","HierDyp65jq1fq","sub06","06","4","rl","test","83","img/o_t_stripes.png","1","65","pattern,shape,color","57","0",""
"null","152204","HierDyp65jq1fq","sub06","06","4","feedback","test","null","","","na","","57","",""
"1158.3000000715256","153364","HierDyp65jq1fq","sub06","06","4","rl","test","75","img/o_s_check.png","7","75","pattern,shape,color","58","1",""
"null","154367","HierDyp65jq1fq","sub06","06","4","feedback","test","null","","","na","","58","",""
"1006.7999999523163","155375","HierDyp65jq1fq","sub06","06","4","rl","test","76","img/r_s_check.png","8","76","pattern,shape,color","59","1",""
"null","156382","HierDyp65jq1fq","sub06","06","4","feedback","test","null","","","na","","59","",""
"1615.1999999284744","158000","HierDyp65jq1fq","sub06","06","4","rl","test","83","img/r_t_stripes.png","2","83","pattern,shape,color","60","1",""
"null","159006","HierDyp65jq1fq","sub06","06","4","feedback","test","null","","","na","","60","",""
"1777.5","160786","HierDyp65jq1fq","sub06","06","4","rl","test","75","img/o_s_check.png","7","75","pattern,shape,color","61","1",""
"null","161790","HierDyp65jq1fq","sub06","06","4","feedback","test","null","","","na","","61","",""
"1600.8999999761581","163393","HierDyp65jq1fq","sub06","06","4","rl","test","70","img/r_s_stripes.png","4","70","pattern,shape,color","62","1",""
"null","164398","HierDyp65jq1fq","sub06","06","4","feedback","test","null","","","na","","62","",""
"1127","165527","HierDyp65jq1fq","sub06","06","4","rl","test","74","img/r_t_check.png","6","74","pattern,shape,color","63","1",""
"null","166534","HierDyp65jq1fq","sub06","06","4","feedback","test","null","","","na","","63","",""
"953.4000000953674","167490","HierDyp65jq1fq","sub06","06","4","rl","test","72","img/o_t_check.png","5","72","pattern,shape,color","64","1",""
"null","168496","HierDyp65jq1fq","sub06","06","4","feedback","test","null","","","na","","64","",""
"1498.3999999761581","169997","HierDyp65jq1fq","sub06","06","4","rl","test","75","img/o_s_check.png","7","75","pattern,shape,color","65","1",""
"null","171000","HierDyp65jq1fq","sub06","06","4","feedback","test","null","","","na","","65","",""
"979.1999999284744","171981","HierDyp65jq1fq","sub06","06","4","rl","test","68","img/o_s_stripes.png","3","68","pattern,shape,color","66","1",""
"null","172984","HierDyp65jq1fq","sub06","06","4","feedback","test","null","","","na","","66","",""
"709.5","173696","HierDyp65jq1fq","sub06","06","4","rl","test","70","img/r_s_stripes.png","4","70","pattern,shape,color","67","1",""
"null","174703","HierDyp65jq1fq","sub06","06","4","feedback","test","null","","","na","","67","",""
"1948.6000000238419","176653","HierDyp65jq1fq","sub06","06","4","rl","test","65","img/o_t_stripes.png","1","65","pattern,shape,color","68","1",""
"null","177657","HierDyp65jq1fq","sub06","06","4","feedback","test","null","","","na","","68","",""
"1320.1999999284744","178979","HierDyp65jq1fq","sub06","06","4","rl","test","74","img/r_t_check.png","6","74","pattern,shape,color","69","1",""
"null","179984","HierDyp65jq1fq","sub06","06","4","feedback","test","null","","","na","","69","",""
"733.3999999761581","180720","HierDyp65jq1fq","sub06","06","4","rl","test","72","img/o_t_check.png","5","72","pattern,shape,color","70","1",""
"null","181724","HierDyp65jq1fq","sub06","06","4","feedback","test","null","","","na","","70","",""
"625.5","182352","HierDyp65jq1fq","sub06","06","4","rl","test","74","img/r_t_check.png","6","74","pattern,shape,color","71","1",""
"null","183359","HierDyp65jq1fq","sub06","06","4","feedback","test","null","","","na","","71","",""
"1103.6999999284744","184464","HierDyp65jq1fq","sub06","06","4","rl","test","76","img/r_s_check.png","8","76","pattern,shape,color","72","1",""
"null","185466","HierDyp65jq1fq","sub06","06","4","feedback","test","null","","","na","","72","",""
"1110.2000000476837","186578","HierDyp65jq1fq","sub06","06","4","rl","test","76","img/r_s_check.png","8","76","pattern,shape,color","73","1",""
"null","187584","HierDyp65jq1fq","sub06","06","4","feedback","test","null","","","na","","73","",""
"1264.5","188851","HierDyp65jq1fq","sub06","06","4","rl","test","65","img/r_t_stripes.png","2","83","pattern,shape,color","74","0",""
"null","189855","HierDyp65jq1fq","sub06","06","4","feedback","test","null","","","na","","74","",""
"null","192360","HierDyp65jq1fq","sub06","06","4","rl","test","null","img/o_t_stripes.png","1","65","pattern,shape,color","75","0",""
"null","193365","HierDyp65jq1fq","sub06","06","4","feedback","test","null","","","na","","75","",""
"2274.600000023842","195641","HierDyp65jq1fq","sub06","06","4","rl","test","83","img/r_t_stripes.png","2","83","pattern,shape,color","76","1",""
"null","196649","HierDyp65jq1fq","sub06","06","4","feedback","test","null","","","na","","76","",""
"2120.2999999523163","198773","HierDyp65jq1fq","sub06","06","4","rl","test","74","img/o_t_check.png","5","72","pattern,shape,color","77","0",""
"null","199780","HierDyp65jq1fq","sub06","06","4","feedback","test","null","","","na","","77","",""
"null","202287","HierDyp65jq1fq","sub06","06","4","rl","test","null","img/o_s_stripes.png","3","68","pattern,shape,color","78","0",""
"null","203294","HierDyp65jq1fq","sub06","06","4","feedback","test","null","","","na","","78","",""
"933.2999999523163","204229","HierDyp65jq1fq","sub06","06","4","rl","test","75","img/o_s_check.png","7","75","pattern,shape,color","79","1",""
"null","205233","HierDyp65jq1fq","sub06","06","4","feedback","test","null","","","na","","79","",""
"777.7000000476837","206012","HierDyp65jq1fq","sub06","06","4","rl","test","65","img/o_t_stripes.png","1","65","pattern,shape,color","80","1",""
"null","207016","HierDyp65jq1fq","sub06","06","4","feedback","test","null","","","na","","80","",""
"1290.7000000476837","208309","HierDyp65jq1fq","sub06","06","4","rl","test","68","img/o_s_stripes.png","3","68","pattern,shape,color","81","1",""
"null","209316","HierDyp65jq1fq","sub06","06","4","feedback","test","null","","","na","","81","",""
"1258.5","210576","HierDyp65jq1fq","sub06","06","4","rl","test","68","img/r_s_stripes.png","4","70","pattern,shape,color","82","0",""
"null","211583","HierDyp65jq1fq","sub06","06","4","feedback","test","null","","","na","","82","",""
"1077.3000000715256","212662","HierDyp65jq1fq","sub06","06","4","rl","test","76","img/r_s_check.png","8","76","pattern,shape,color","83","1",""
"null","213668","HierDyp65jq1fq","sub06","06","4","feedback","test","null","","","na","","83","",""
"2357.8000000715256","216028","HierDyp65jq1fq","sub06","06","4","rl","test","65","img/r_t_stripes.png","2","83","pattern,shape,color","84","0",""
"null","217034","HierDyp65jq1fq","sub06","06","4","feedback","test","null","","","na","","84","",""
"1915.6999999284744","218952","HierDyp65jq1fq","sub06","06","4","rl","test","70","img/r_s_stripes.png","4","70","pattern,shape,color","85","1",""
"null","219959","HierDyp65jq1fq","sub06","06","4","feedback","test","null","","","na","","85","",""
"1665.1000000238419","221626","HierDyp65jq1fq","sub06","06","4","rl","test","74","img/r_t_check.png","6","74","pattern,shape,color","86","1",""
"null","222629","HierDyp65jq1fq","sub06","06","4","feedback","test","null","","","na","","86","",""
"1676.1000000238419","224307","HierDyp65jq1fq","sub06","06","4","rl","test","75","img/o_t_check.png","5","72","pattern,shape,color","87","0",""
"null","225312","HierDyp65jq1fq","sub06","06","4","feedback","test","null","","","na","","87","",""
"null","227814","HierDyp65jq1fq","sub06","06","4","rl","test","null","img/o_s_check.png","7","75","pattern,shape,color","88","0",""
"null","228819","HierDyp65jq1fq","sub06","06","4","feedback","test","null","","","na","","88","",""
"715.8999999761581","229538","HierDyp65jq1fq","sub06","06","4","rl","test","75","img/o_s_check.png","7","75","pattern,shape,color","89","1",""
"null","230542","HierDyp65jq1fq","sub06","06","4","feedback","test","null","","","na","","89","",""
"1535","232079","HierDyp65jq1fq","sub06","06","4","rl","test","74","img/r_t_check.png","6","74","pattern,shape,color","90","1",""
"null","233086","HierDyp65jq1fq","sub06","06","4","feedback","test","null","","","na","","90","",""
"829.2999999523163","233917","HierDyp65jq1fq","sub06","06","4","rl","test","65","img/o_t_stripes.png","1","65","pattern,shape,color","91","1",""
"null","234924","HierDyp65jq1fq","sub06","06","4","feedback","test","null","","","na","","91","",""
"2243.2000000476837","237169","HierDyp65jq1fq","sub06","06","4","rl","test","68","img/o_s_stripes.png","3","68","pattern,shape,color","92","1",""
"null","238172","HierDyp65jq1fq","sub06","06","4","feedback","test","null","","","na","","92","",""
"1805.2000000476837","239979","HierDyp65jq1fq","sub06","06","4","rl","test","72","img/o_t_check.png","5","72","pattern,shape,color","93","1",""
"null","240982","HierDyp65jq1fq","sub06","06","4","feedback","test","null","","","na","","93","",""
"2085.4000000953674","243069","HierDyp65jq1fq","sub06","06","4","rl","test","68","img/r_s_stripes.png","4","70","pattern,shape,color","94","0",""
"null","244072","HierDyp65jq1fq","sub06","06","4","feedback","test","null","","","na","","94","",""
"966.1999999284744","245040","HierDyp65jq1fq","sub06","06","4","rl","test","76","img/r_s_check.png","8","76","pattern,shape,color","95","1",""
"null","246043","HierDyp65jq1fq","sub06","06","4","feedback","test","null","","","na","","95","",""
"1817.3000000715256","247862","HierDyp65jq1fq","sub06","06","4","rl","test","68","img/o_s_stripes.png","3","68","pattern,shape,color","96","1",""
"null","248866","HierDyp65jq1fq","sub06","06","4","feedback","test","null","","","na","","96","",""
"1035.6999999284744","249904","HierDyp65jq1fq","sub06","06","4","rl","test","83","img/r_t_stripes.png","2","83","pattern,shape,color","97","1",""
"null","250906","HierDyp65jq1fq","sub06","06","4","feedback","test","null","","","na","","97","",""
"1311.6999999284744","252220","HierDyp65jq1fq","sub06","06","4","rl","test","74","img/r_t_check.png","6","74","pattern,shape,color","98","1",""
"null","253227","HierDyp65jq1fq","sub06","06","4","feedback","test","null","","","na","","98","",""
"2396.600000023842","255625","HierDyp65jq1fq","sub06","06","4","rl","test","75","img/r_s_stripes.png","4","70","pattern,shape,color","99","0",""
"null","256628","HierDyp65jq1fq","sub06","06","4","feedback","test","null","","","na","","99","",""
"1433.1999999284744","258064","HierDyp65jq1fq","sub06","06","4","rl","test","74","img/o_t_check.png","5","72","pattern,shape,color","100","0",""
"null","259066","HierDyp65jq1fq","sub06","06","4","feedback","test","null","","","na","","100","",""
"1194.6999999284744","260262","HierDyp65jq1fq","sub06","06","4","rl","test","76","img/o_s_check.png","7","75","pattern,shape,color","101","0",""
"null","261269","HierDyp65jq1fq","sub06","06","4","feedback","test","null","","","na","","101","",""
"1615.3999999761581","262887","HierDyp65jq1fq","sub06","06","4","rl","test","83","img/r_t_stripes.png","2","83","pattern,shape,color","102","1",""
"null","263890","HierDyp65jq1fq","sub06","06","4","feedback","test","null","","","na","","102","",""
"1596.8000000715256","265489","HierDyp65jq1fq","sub06","06","4","rl","test","75","img/o_s_check.png","7","75","pattern,shape,color","103","1",""
"null","266496","HierDyp65jq1fq","sub06","06","4","feedback","test","null","","","na","","103","",""
"null","269002","HierDyp65jq1fq","sub06","06","4","rl","test","null","img/o_t_stripes.png","1","65","pattern,shape,color","104","0",""
"null","270008","HierDyp65jq1fq","sub06","06","4","feedback","test","null","","","na","","104","",""
"1299.1000000238419","271309","HierDyp65jq1fq","sub06","06","4","rl","test","65","img/o_t_stripes.png","1","65","pattern,shape,color","105","1",""
"null","272316","HierDyp65jq1fq","sub06","06","4","feedback","test","null","","","na","","105","",""
"1311.3000000715256","273629","HierDyp65jq1fq","sub06","06","4","rl","test","76","img/r_s_check.png","8","76","pattern,shape,color","106","1",""
"null","274632","HierDyp65jq1fq","sub06","06","4","feedback","test","null","","","na","","106","",""
"2237.2000000476837","276871","HierDyp65jq1fq","sub06","06","4","rl","test","72","img/r_t_check.png","6","74","pattern,shape,color","107","0",""
"null","277878","HierDyp65jq1fq","sub06","06","4","feedback","test","null","","","na","","107","",""
"1023.3999999761581","278903","HierDyp65jq1fq","sub06","06","4","rl","test","76","img/r_s_check.png","8","76","pattern,shape,color","108","1",""
"null","279906","HierDyp65jq1fq","sub06","06","4","feedback","test","null","","","na","","108","",""
"1280.8000000715256","281189","HierDyp65jq1fq","sub06","06","4","rl","test","70","img/r_s_stripes.png","4","70","pattern,shape,color","109","1",""
"null","282195","HierDyp65jq1fq","sub06","06","4","feedback","test","null","","","na","","109","",""
"1046.1000000238419","283243","HierDyp65jq1fq","sub06","06","4","rl","test","68","img/o_s_stripes.png","3","68","pattern,shape,color","110","1",""
"null","284245","HierDyp65jq1fq","sub06","06","4","feedback","test","null","","","na","","110","",""
"1037.6999999284744","285285","HierDyp65jq1fq","sub06","06","4","rl","test","75","img/o_s_check.png","7","75","pattern,shape,color","111","1",""
"null","286292","HierDyp65jq1fq","sub06","06","4","feedback","test","null","","","na","","111","",""
"1880.3999999761581","288175","HierDyp65jq1fq","sub06","06","4","rl","test","70","img/r_s_stripes.png","4","70","pattern,shape,color","112","1",""
"null","289179","HierDyp65jq1fq","sub06","06","4","feedback","test","null","","","na","","112","",""
"1042.7000000476837","290224","HierDyp65jq1fq","sub06","06","4","rl","test","74","img/r_t_check.png","6","74","pattern,shape,color","113","1",""
"null","291226","HierDyp65jq1fq","sub06","06","4","feedback","test","null","","","na","","113","",""
"1423.6000000238419","292652","HierDyp65jq1fq","sub06","06","4","rl","test","72","img/o_t_check.png","5","72","pattern,shape,color","114","1",""
"null","293658","HierDyp65jq1fq","sub06","06","4","feedback","test","null","","","na","","114","",""
"852.5","294513","HierDyp65jq1fq","sub06","06","4","rl","test","76","img/r_s_check.png","8","76","pattern,shape,color","115","1",""
"null","295515","HierDyp65jq1fq","sub06","06","4","feedback","test","null","","","na","","115","",""
"1732.7999999523163","297250","HierDyp65jq1fq","sub06","06","4","rl","test","83","img/r_t_stripes.png","2","83","pattern,shape,color","116","1",""
"null","298256","HierDyp65jq1fq","sub06","06","4","feedback","test","null","","","na","","116","",""
"null","300762","HierDyp65jq1fq","sub06","06","4","rl","test","null","img/r_t_stripes.png","2","83","pattern,shape,color","117","0",""
"null","301769","HierDyp65jq1fq","sub06","06","4","feedback","test","null","","","na","","117","",""
"1016.5","302788","HierDyp65jq1fq","sub06","06","4","rl","test","83","img/o_t_check.png","5","72","pattern,shape,color","118","0",""
"null","303790","HierDyp65jq1fq","sub06","06","4","feedback","test","null","","","na","","118","",""
"1566.3999999761581","305358","HierDyp65jq1fq","sub06","06","4","rl","test","75","img/o_s_stripes.png","3","68","pattern,shape,color","119","0",""
"null","306360","HierDyp65jq1fq","sub06","06","4","feedback","test","null","","","na","","119","",""
"1632.6000000238419","307995","HierDyp65jq1fq","sub06","06","4","rl","test","68","img/o_t_stripes.png","1","65","pattern,shape,color","120","0",""
"null","309000","HierDyp65jq1fq","sub06","06","4","feedback","test","null","","","na","","120","",""
"821","309823","HierDyp65jq1fq","sub06","06","4","rl","test","75","img/o_s_check.png","7","75","pattern,shape,color","121","1",""
"null","310828","HierDyp65jq1fq","sub06","06","4","feedback","test","null","","","na","","121","",""
"1788.6999999284744","312619","HierDyp65jq1fq","sub06","06","4","rl","test","68","img/o_t_stripes.png","1","65","pattern,shape,color","122","0",""
"null","313625","HierDyp65jq1fq","sub06","06","4","feedback","test","null","","","na","","122","",""
"2281.6999999284744","315909","HierDyp65jq1fq","sub06","06","4","rl","test","72","img/o_t_check.png","5","72","pattern,shape,color","123","1",""
"null","316915","HierDyp65jq1fq","sub06","06","4","feedback","test","null","","","na","","123","",""
"2119.899999976158","319037","HierDyp65jq1fq","sub06","06","4","rl","test","70","img/r_s_stripes.png","4","70","pattern,shape,color","124","1",""
"null","320043","HierDyp65jq1fq","sub06","06","4","feedback","test","null","","","na","","124","",""
"1071.8000000715256","321117","HierDyp65jq1fq","sub06","06","4","rl","test","68","img/o_s_stripes.png","3","68","pattern,shape,color","125","1",""
"null","322122","HierDyp65jq1fq","sub06","06","4","feedback","test","null","","","na","","125","",""
"978","323102","HierDyp65jq1fq","sub06","06","4","rl","test","76","img/r_s_check.png","8","76","pattern,shape,color","126","1",""
"null","324105","HierDyp65jq1fq","sub06","06","4","feedback","test","null","","","na","","126","",""
"1631.6000000238419","325738","HierDyp65jq1fq","sub06","06","4","rl","test","70","img/r_t_stripes.png","2","83","pattern,shape,color","127","0",""
"null","326745","HierDyp65jq1fq","sub06","06","4","feedback","test","null","","","na","","127","",""
"893.1000000238419","327640","HierDyp65jq1fq","sub06","06","4","rl","test","74","img/r_t_check.png","6","74","pattern,shape,color","128","1",""
"null","328644","HierDyp65jq1fq","sub06","06","4","feedback","test","null","","","na","","128","",""
"1958","330604","HierDyp65jq1fq","sub06","06","4","rl","test","75","img/o_s_check.png","7","75","pattern,shape,color","129","1",""
"null","331611","HierDyp65jq1fq","sub06","06","4","feedback","test","null","","","na","","129","",""
"1128.6999999284744","332743","HierDyp65jq1fq","sub06","06","4","rl","test","72","img/o_t_check.png","5","72","pattern,shape,color","130","1",""
"null","333745","HierDyp65jq1fq","sub06","06","4","feedback","test","null","","","na","","130","",""
"2399.899999976158","336147","HierDyp65jq1fq","sub06","06","4","rl","test","83","img/r_t_stripes.png","2","83","pattern,shape,color","131","1",""
"null","337150","HierDyp65jq1fq","sub06","06","4","feedback","test","null","","","na","","131","",""
"1433.1000000238419","338585","HierDyp65jq1fq","sub06","06","4","rl","test","75","img/o_s_check.png","7","75","pattern,shape,color","132","1",""
"null","339589","HierDyp65jq1fq","sub06","06","4","feedback","test","null","","","na","","132","",""
"2226.399999976158","341818","HierDyp65jq1fq","sub06","06","4","rl","test","65","img/o_t_stripes.png","1","65","pattern,shape,color","133","1",""
"null","342825","HierDyp65jq1fq","sub06","06","4","feedback","test","null","","","na","","133","",""
"2254.600000023842","345081","HierDyp65jq1fq","sub06","06","4","rl","test","70","img/o_s_stripes.png","3","68","pattern,shape,color","134","0",""
"null","346086","HierDyp65jq1fq","sub06","06","4","feedback","test","null","","","na","","134","",""
"650.3999999761581","346739","HierDyp65jq1fq","sub06","06","4","rl","test","68","img/o_s_stripes.png","3","68","pattern,shape,color","135","1",""
"null","347742","HierDyp65jq1fq","sub06","06","4","feedback","test","null","","","na","","135","",""
"1131.7999999523163","348876","HierDyp65jq1fq","sub06","06","4","rl","test","70","img/r_s_stripes.png","4","70","pattern,shape,color","136","1",""
"null","349881","HierDyp65jq1fq","sub06","06","4","feedback","test","null","","","na","","136","",""
"1603.6999999284744","351487","HierDyp65jq1fq","sub06","06","4","rl","test","74","img/r_t_check.png","6","74","pattern,shape,color","137","1",""
"null","352493","HierDyp65jq1fq","sub06","06","4","feedback","test","null","","","na","","137","",""
"1870.6000000238419","354365","HierDyp65jq1fq","sub06","06","4","rl","test","70","img/r_t_stripes.png","2","83","pattern,shape,color","138","0",""
"null","355369","HierDyp65jq1fq","sub06","06","4","feedback","test","null","","","na","","138","",""
"1534.2999999523163","356905","HierDyp65jq1fq","sub06","06","4","rl","test","76","img/r_s_check.png","8","76","pattern,shape,color","139","1",""
"null","357911","HierDyp65jq1fq","sub06","06","4","feedback","test","null","","","na","","139","",""
"2079","359992","HierDyp65jq1fq","sub06","06","4","rl","test","74","img/r_t_check.png","6","74","pattern,shape,color","140","1",""
"null","360998","HierDyp65jq1fq","sub06","06","4","feedback","test","null","","","na","","140","",""
"1108.8999999761581","362109","HierDyp65jq1fq","sub06","06","4","rl","test","72","img/o_t_check.png","5","72","pattern,shape,color","141","1",""
"null","363116","HierDyp65jq1fq","sub06","06","4","feedback","test","null","","","na","","141","",""
"1999.1999999284744","365117","HierDyp65jq1fq","sub06","06","4","rl","test","70","img/r_s_stripes.png","4","70","pattern,shape,color","142","1",""
"null","366123","HierDyp65jq1fq","sub06","06","4","feedback","test","null","","","na","","142","",""
"1000.5","367125","HierDyp65jq1fq","sub06","06","4","rl","test","76","img/r_s_check.png","8","76","pattern,shape,color","143","1",""
"null","368128","HierDyp65jq1fq","sub06","06","4","feedback","test","null","","","na","","143","",""
"1564.3999999761581","369694","HierDyp65jq1fq","sub06","06","4","rl","test","70","img/r_s_stripes.png","4","70","pattern,shape,color","144","1",""
"null","370697","HierDyp65jq1fq","sub06","06","4","feedback","test","null","","","na","","144","",""
"2472.8000000715256","373172","HierDyp65jq1fq","sub06","06","4","rl","test","72","img/o_t_stripes.png","1","65","pattern,shape,color","145","0",""
"null","374178","HierDyp65jq1fq","sub06","06","4","feedback","test","null","","","na","","145","",""
"2003.7999999523163","376184","HierDyp65jq1fq","sub06","06","4","rl","test","75","img/o_s_check.png","7","75","pattern,shape,color","146","1",""
"null","377189","HierDyp65jq1fq","sub06","06","4","feedback","test","null","","","na","","146","",""
"2288.399999976158","379479","HierDyp65jq1fq","sub06","06","4","rl","test","65","img/o_t_stripes.png","1","65","pattern,shape,color","147","1",""
"null","380485","HierDyp65jq1fq","sub06","06","4","feedback","test","null","","","na","","147","",""
"2450.8000000715256","382938","HierDyp65jq1fq","sub06","06","4","rl","test","68","img/o_s_stripes.png","3","68","pattern,shape,color","148","1",""
"null","383941","HierDyp65jq1fq","sub06","06","4","feedback","test","null","","","na","","148","",""
"1024","384968","HierDyp65jq1fq","sub06","06","4","rl","test","72","img/o_t_check.png","5","72","pattern,shape,color","149","1",""
"null","385973","HierDyp65jq1fq","sub06","06","4","feedback","test","null","","","na","","149","",""
"2287.399999976158","388262","HierDyp65jq1fq","sub06","06","4","rl","test","70","img/r_s_stripes.png","4","70","pattern,shape,color","150","1",""
"null","389266","HierDyp65jq1fq","sub06","06","4","feedback","test","null","","","na","","150","",""
"1917.2999999523163","391185","HierDyp65jq1fq","sub06","06","4","rl","test","83","img/r_t_stripes.png","2","83","pattern,shape,color","151","1",""
"null","392191","HierDyp65jq1fq","sub06","06","4","feedback","test","null","","","na","","151","",""
"889.0999999046326","393082","HierDyp65jq1fq","sub06","06","4","rl","test","83","img/r_t_stripes.png","2","83","pattern,shape,color","152","1",""
"null","394084","HierDyp65jq1fq","sub06","06","4","feedback","test","null","","","na","","152","",""
"2110.2999999523163","396197","HierDyp65jq1fq","sub06","06","4","rl","test","70","img/o_s_stripes.png","3","68","pattern,shape,color","153","0",""
"null","397203","HierDyp65jq1fq","sub06","06","4","feedback","test","null","","","na","","153","",""
"1711","398917","HierDyp65jq1fq","sub06","06","4","rl","test","74","img/r_t_check.png","6","74","pattern,shape,color","154","1",""
"null","399924","HierDyp65jq1fq","sub06","06","4","feedback","test","null","","","na","","154","",""
"1719.7999999523163","401646","HierDyp65jq1fq","sub06","06","4","rl","test","83","img/o_t_stripes.png","1","65","pattern,shape,color","155","0",""
"null","402652","HierDyp65jq1fq","sub06","06","4","feedback","test","null","","","na","","155","",""
"878.7999999523163","403533","HierDyp65jq1fq","sub06","06","4","rl","test","76","img/r_s_check.png","8","76","pattern,shape,color","156","1",""
"null","404540","HierDyp65jq1fq","sub06","06","4","feedback","test","null","","","na","","156","",""
"637.6000000238419","405180","HierDyp65jq1fq","sub06","06","4","rl","test","76","img/r_s_check.png","8","76","pattern,shape,color","157","1",""
"null","406187","HierDyp65jq1fq","sub06","06","4","feedback","test","null","","","na","","157","",""
"1632.7999999523163","407822","HierDyp65jq1fq","sub06","06","4","rl","test","72","img/r_t_check.png","6","74","pattern,shape,color","158","0",""
"null","408828","HierDyp65jq1fq","sub06","06","4","feedback","test","null","","","na","","158","",""
"781.5","409611","HierDyp65jq1fq","sub06","06","4","rl","test","72","img/o_t_check.png","5","72","pattern,shape,color","159","1",""
"null","410617","HierDyp65jq1fq","sub06","06","4","feedback","test","null","","","na","","159","",""
"739","411359","HierDyp65jq1fq","sub06","06","4","rl","test","76","img/r_s_check.png","8","76","pattern,shape,color","160","1",""
"null","412365","HierDyp65jq1fq","sub06","06","4","feedback","test","null","","","na","","160","",""
"743.6999999284744","413111","HierDyp65jq1fq","sub06","06","4","rl","test","75","img/o_s_check.png","7","75","pattern,shape,color","161","1",""
"null","414118","HierDyp65jq1fq","sub06","06","4","feedback","test","null","","","na","","161","",""
"695.0999999046326","414815","HierDyp65jq1fq","sub06","06","4","rl","test","65","img/o_t_stripes.png","1","65","pattern,shape,color","162","1",""
"null","415818","HierDyp65jq1fq","sub06","06","4","feedback","test","null","","","na","","162","",""
"1280","417100","HierDyp65jq1fq","sub06","06","4","rl","test","74","img/r_t_check.png","6","74","pattern,shape,color","163","1",""
"null","418106","HierDyp65jq1fq","sub06","06","4","feedback","test","null","","","na","","163","",""
"867.8999999761581","418976","HierDyp65jq1fq","sub06","06","4","rl","test","72","img/o_t_check.png","5","72","pattern,shape,color","164","1",""
"null","419983","HierDyp65jq1fq","sub06","06","4","feedback","test","null","","","na","","164","",""
"1506.1999999284744","421491","HierDyp65jq1fq","sub06","06","4","rl","test","70","img/r_s_stripes.png","4","70","pattern,shape,color","165","1",""
"null","422494","HierDyp65jq1fq","sub06","06","4","feedback","test","null","","","na","","165","",""
"1326.2999999523163","423822","HierDyp65jq1fq","sub06","06","4","rl","test","74","img/r_t_stripes.png","2","83","pattern,shape,color","166","0",""
"null","424827","HierDyp65jq1fq","sub06","06","4","feedback","test","null","","","na","","166","",""
"738.1000000238419","425567","HierDyp65jq1fq","sub06","06","4","rl","test","76","img/o_s_check.png","7","75","pattern,shape,color","167","0",""
"null","426569","HierDyp65jq1fq","sub06","06","4","feedback","test","null","","","na","","167","",""
"1646.2000000476837","428219","HierDyp65jq1fq","sub06","06","4","rl","test","68","img/o_s_stripes.png","3","68","pattern,shape,color","168","1",""
"null","429225","HierDyp65jq1fq","sub06","06","4","feedback","test","null","","","na","","168","",""
"768.3000000715256","429995","HierDyp65jq1fq","sub06","06","4","rl","test","65","img/o_t_stripes.png","1","65","pattern,shape,color","169","1",""
"null","431001","HierDyp65jq1fq","sub06","06","4","feedback","test","null","","","na","","169","",""
"1833.8000000715256","432837","HierDyp65jq1fq","sub06","06","4","rl","test","70","img/o_s_stripes.png","3","68","pattern,shape,color","170","0",""
"null","433839","HierDyp65jq1fq","sub06","06","4","feedback","test","null","","","na","","170","",""
"985.2999999523163","434826","HierDyp65jq1fq","sub06","06","4","rl","test","76","img/r_s_check.png","8","76","pattern,shape,color","171","1",""
"null","435833","HierDyp65jq1fq","sub06","06","4","feedback","test","null","","","na","","171","",""
"1725.7000000476837","437561","HierDyp65jq1fq","sub06","06","4","rl","test","72","img/o_t_check.png","5","72","pattern,shape,color","172","1",""
"null","438564","HierDyp65jq1fq","sub06","06","4","feedback","test","null","","","na","","172","",""
"770.7999999523163","439337","HierDyp65jq1fq","sub06","06","4","rl","test","74","img/r_t_check.png","6","74","pattern,shape,color","173","1",""
"null","440339","HierDyp65jq1fq","sub06","06","4","feedback","test","null","","","na","","173","",""
"2016.5999999046326","442358","HierDyp65jq1fq","sub06","06","4","rl","test","70","img/r_s_stripes.png","4","70","pattern,shape,color","174","1",""
"null","443362","HierDyp65jq1fq","sub06","06","4","feedback","test","null","","","na","","174","",""
"1332.7000000476837","444697","HierDyp65jq1fq","sub06","06","4","rl","test","72","img/o_t_check.png","5","72","pattern,shape,color","175","1",""
"null","445701","HierDyp65jq1fq","sub06","06","4","feedback","test","null","","","na","","175","",""
"1147.5","446851","HierDyp65jq1fq","sub06","06","4","rl","test","75","img/o_s_check.png","7","75","pattern,shape,color","176","1",""
"null","447855","HierDyp65jq1fq","sub06","06","4","feedback","test","null","","","na","","176","",""
"2239.7000000476837","450096","HierDyp65jq1fq","sub06","06","4","rl","test","83","img/r_t_stripes.png","2","83","pattern,shape,color","177","1",""
"null","451102","HierDyp65jq1fq","sub06","06","4","feedback","test","null","","","na","","177","",""
"805.6999999284744","451910","HierDyp65jq1fq","sub06","06","4","rl","test","83","img/r_t_stripes.png","2","83","pattern,shape,color","178","1",""
"null","452912","HierDyp65jq1fq","sub06","06","4","feedback","test","null","","","na","","178","",""
"2062.7999999523163","454977","HierDyp65jq1fq","sub06","06","4","rl","test","76","img/r_s_check.png","8","76","pattern,shape,color","179","1",""
"null","455979","HierDyp65jq1fq","sub06","06","4","feedback","test","null","","","na","","179","",""
"1083.1000000238419","457065","HierDyp65jq1fq","sub06","06","4","rl","test","75","img/o_s_check.png","7","75","pattern,shape,color","180","1",""
"null","458070","HierDyp65jq1fq","sub06","06","4","feedback","test","null","","","na","","180","",""
"1620.5","459692","HierDyp65jq1fq","sub06","06","4","rl","test","65","img/o_t_stripes.png","1","65","pattern,shape,color","181","1",""
"null","460698","HierDyp65jq1fq","sub06","06","4","feedback","test","null","","","na","","181","",""
"1427.8999999761581","462128","HierDyp65jq1fq","sub06","06","4","rl","test","83","img/o_s_stripes.png","3","68","pattern,shape,color","182","0",""
"null","463131","HierDyp65jq1fq","sub06","06","4","feedback","test","null","","","na","","182","",""
"null","465636","HierDyp65jq1fq","sub06","06","4","rl","test","null","img/r_t_check.png","6","74","pattern,shape,color","183","0",""
"null","466639","HierDyp65jq1fq","sub06","06","4","feedback","test","null","","","na","","183","",""
"1150.7999999523163","467792","HierDyp65jq1fq","sub06","06","4","rl","test","68","img/o_t_stripes.png","1","65","pattern,shape,color","184","0",""
"null","468797","HierDyp65jq1fq","sub06","06","4","feedback","test","null","","","na","","184","",""
"2326.9000000953674","471126","HierDyp65jq1fq","sub06","06","4","rl","test","83","img/r_s_stripes.png","4","70","pattern,shape,color","185","0",""
"null","472132","HierDyp65jq1fq","sub06","06","4","feedback","test","null","","","na","","185","",""
"995.3999999761581","473129","HierDyp65jq1fq","sub06","06","4","rl","test","75","img/o_s_check.png","7","75","pattern,shape,color","186","1",""
"null","474136","HierDyp65jq1fq","sub06","06","4","feedback","test","null","","","na","","186","",""
"2031.8999999761581","476170","HierDyp65jq1fq","sub06","06","4","rl","test","74","img/r_t_check.png","6","74","pattern,shape,color","187","1",""
"null","477177","HierDyp65jq1fq","sub06","06","4","feedback","test","null","","","na","","187","",""
"null","479680","HierDyp65jq1fq","sub06","06","4","rl","test","null","img/r_t_check.png","6","74","pattern,shape,color","188","0",""
"null","480688","HierDyp65jq1fq","sub06","06","4","feedback","test","null","","","na","","188","",""
"1395.7000000476837","482085","HierDyp65jq1fq","sub06","06","4","rl","test","68","img/o_s_stripes.png","3","68","pattern,shape,color","189","1",""
"null","483090","HierDyp65jq1fq","sub06","06","4","feedback","test","null","","","na","","189","",""
"767.1000000238419","483859","HierDyp65jq1fq","sub06","06","4","rl","test","72","img/o_t_check.png","5","72","pattern,shape,color","190","1",""
"null","484862","HierDyp65jq1fq","sub06","06","4","feedback","test","null","","","na","","190","",""
"1002.8999999761581","485867","HierDyp65jq1fq","sub06","06","4","rl","test","83","img/r_t_stripes.png","2","83","pattern,shape,color","191","1",""
"null","486871","HierDyp65jq1fq","sub06","06","4","feedback","test","null","","","na","","191","",""
"1334.3000000715256","488208","HierDyp65jq1fq","sub06","06","4","rl","test","70","img/r_s_stripes.png","4","70","pattern,shape,color","192","1",""
"null","489210","HierDyp65jq1fq","sub06","06","4","feedback","test","null","","","na","","192","",""
"1825.2999999523163","491038","HierDyp65jq1fq","sub06","06","4","rl","test","74","img/r_s_check.png","8","76","pattern,shape,color","193","0",""
"null","492045","HierDyp65jq1fq","sub06","06","4","feedback","test","null","","","na","","193","",""
"2190.600000023842","494238","HierDyp65jq1fq","sub06","06","4","rl","test","70","img/o_s_stripes.png","3","68","pattern,shape,color","194","0",""
"null","495244","HierDyp65jq1fq","sub06","06","4","feedback","test","null","","","na","","194","",""
"1443.2000000476837","496689","HierDyp65jq1fq","sub06","06","4","rl","test","75","img/r_s_check.png","8","76","pattern,shape,color","195","0",""
"null","497692","HierDyp65jq1fq","sub06","06","4","feedback","test","null","","","na","","195","",""
"930.7000000476837","498625","HierDyp65jq1fq","sub06","06","4","rl","test","65","img/o_t_stripes.png","1","65","pattern,shape,color","196","1",""
"null","499629","HierDyp65jq1fq","sub06","06","4","feedback","test","null","","","na","","196","",""
"1476.3999999761581","501108","HierDyp65jq1fq","sub06","06","4","rl","test","70","img/r_s_stripes.png","4","70","pattern,shape,color","197","1",""
"null","502115","HierDyp65jq1fq","sub06","06","4","feedback","test","null","","","na","","197","",""
"935.3999999761581","503052","HierDyp65jq1fq","sub06","06","4","rl","test","72","img/o_t_check.png","5","72","pattern,shape,color","198","1",""
"null","504055","HierDyp65jq1fq","sub06","06","4","feedback","test","null","","","na","","198","",""
"891.5","504948","HierDyp65jq1fq","sub06","06","4","rl","test","75","img/o_s_check.png","7","75","pattern,shape,color","199","1",""
"null","505956","HierDyp65jq1fq","sub06","06","4","feedback","test","null","","","na","","199","",""
"2296.100000023842","508254","HierDyp65jq1fq","sub06","06","4","rl","test","83","img/r_t_stripes.png","2","83","pattern,shape,color","200","1",""
"null","509260","HierDyp65jq1fq","sub06","06","4","feedback","test","null","","","na","","200","",""
"1472.8999999761581","510735","HierDyp65jq1fq","sub06","06","4","rl","test","70","img/r_s_stripes.png","4","70","pattern,shape,color","201","1",""
"null","511741","HierDyp65jq1fq","sub06","06","4","feedback","test","null","","","na","","201","",""
"2322.600000023842","514065","HierDyp65jq1fq","sub06","06","4","rl","test","68","img/o_t_stripes.png","1","65","pattern,shape,color","202","0",""
"null","515070","HierDyp65jq1fq","sub06","06","4","feedback","test","null","","","na","","202","",""
"1004.5","516076","HierDyp65jq1fq","sub06","06","4","rl","test","74","img/r_t_check.png","6","74","pattern,shape,color","203","1",""
"null","517080","HierDyp65jq1fq","sub06","06","4","feedback","test","null","","","na","","203","",""
"2081.899999976158","519164","HierDyp65jq1fq","sub06","06","4","rl","test","68","img/o_s_stripes.png","3","68","pattern,shape,color","204","1",""
"null","520167","HierDyp65jq1fq","sub06","06","4","feedback","test","null","","","na","","204","",""
"1654","521824","HierDyp65jq1fq","sub06","06","4","rl","test","72","img/o_t_check.png","5","72","pattern,shape,color","205","1",""
"null","522829","HierDyp65jq1fq","sub06","06","4","feedback","test","null","","","na","","205","",""
"1919","524750","HierDyp65jq1fq","sub06","06","4","rl","test","68","img/r_t_stripes.png","2","83","pattern,shape,color","206","0",""
"null","525752","HierDyp65jq1fq","sub06","06","4","feedback","test","null","","","na","","206","",""
"1869.6999999284744","527624","HierDyp65jq1fq","sub06","06","4","rl","test","72","img/o_t_check.png","5","72","pattern,shape,color","207","1",""
"null","528628","HierDyp65jq1fq","sub06","06","4","feedback","test","null","","","na","","207","",""
"1991.1000000238419","530621","HierDyp65jq1fq","sub06","06","4","rl","test","74","img/r_s_check.png","8","76","pattern,shape,color","208","0",""
"null","531625","HierDyp65jq1fq","sub06","06","4","feedback","test","null","","","na","","208","",""
"1844.2000000476837","533471","HierDyp65jq1fq","sub06","06","4","rl","test","83","img/r_t_stripes.png","2","83","pattern,shape,color","209","1",""
"null","534478","HierDyp65jq1fq","sub06","06","4","feedback","test","null","","","na","","209","",""
"1822.7000000476837","536303","HierDyp65jq1fq","sub06","06","4","rl","test","75","img/o_s_check.png","7","75","pattern,shape,color","210","1",""
"null","537309","HierDyp65jq1fq","sub06","06","4","feedback","test","null","","","na","","210","",""
"665.5","537977","HierDyp65jq1fq","sub06","06","4","rl","test","75","img/o_s_check.png","7","75","pattern,shape,color","211","1",""
"null","538979","HierDyp65jq1fq","sub06","06","4","feedback","test","null","","","na","","211","",""
"1453.2999999523163","540435","HierDyp65jq1fq","sub06","06","4","rl","test","65","img/o_t_stripes.png","1","65","pattern,shape,color","212","1",""
"null","541437","HierDyp65jq1fq","sub06","06","4","feedback","test","null","","","na","","212","",""
"867.8000000715256","542307","HierDyp65jq1fq","sub06","06","4","rl","test","76","img/r_s_check.png","8","76","pattern,shape,color","213","1",""
"null","543314","HierDyp65jq1fq","sub06","06","4","feedback","test","null","","","na","","213","",""
"577.6999999284744","543894","HierDyp65jq1fq","sub06","06","4","rl","test","76","img/r_s_check.png","8","76","pattern,shape,color","214","1",""
"null","544896","HierDyp65jq1fq","sub06","06","4","feedback","test","null","","","na","","214","",""
"1506.6000000238419","546405","HierDyp65jq1fq","sub06","06","4","rl","test","70","img/r_s_stripes.png","4","70","pattern,shape,color","215","1",""
"null","547409","HierDyp65jq1fq","sub06","06","4","feedback","test","null","","","na","","215","",""
"794.1000000238419","548205","HierDyp65jq1fq","sub06","06","4","rl","test","68","img/o_s_stripes.png","3","68","pattern,shape,color","216","1",""
"null","549211","HierDyp65jq1fq","sub06","06","4","feedback","test","null","","","na","","216","",""
"954.7999999523163","550168","HierDyp65jq1fq","sub06","06","4","rl","test","74","img/r_t_check.png","6","74","pattern,shape,color","217","1",""
"null","551172","HierDyp65jq1fq","sub06","06","4","feedback","test","null","","","na","","217","",""
"1708.6000000238419","552883","HierDyp65jq1fq","sub06","06","4","rl","test","68","img/o_s_stripes.png","3","68","pattern,shape,color","218","1",""
"null","553890","HierDyp65jq1fq","sub06","06","4","feedback","test","null","","","na","","218","",""
"828.0999999046326","554720","HierDyp65jq1fq","sub06","06","4","rl","test","70","img/r_s_stripes.png","4","70","pattern,shape,color","219","1",""
"null","555725","HierDyp65jq1fq","sub06","06","4","feedback","test","null","","","na","","219","",""
"764.3999999761581","556491","HierDyp65jq1fq","sub06","06","4","rl","test","65","img/o_t_stripes.png","1","65","pattern,shape,color","220","1",""
"null","557496","HierDyp65jq1fq","sub06","06","4","feedback","test","null","","","na","","220","",""
"689.3999999761581","558188","HierDyp65jq1fq","sub06","06","4","rl","test","83","img/r_t_stripes.png","2","83","pattern,shape,color","221","1",""
"null","559195","HierDyp65jq1fq","sub06","06","4","feedback","test","null","","","na","","221","",""
"882.2999999523163","560079","HierDyp65jq1fq","sub06","06","4","rl","test","72","img/o_t_check.png","5","72","pattern,shape,color","222","1",""
"null","561084","HierDyp65jq1fq","sub06","06","4","feedback","test","null","","","na","","222","",""
"970.8999999761581","562057","HierDyp65jq1fq","sub06","06","4","rl","test","76","img/r_s_check.png","8","76","pattern,shape,color","223","1",""
"null","563061","HierDyp65jq1fq","sub06","06","4","feedback","test","null","","","na","","223","",""
"1343.5","564407","HierDyp65jq1fq","sub06","06","4","rl","test","74","img/r_t_check.png","6","74","pattern,shape,color","224","1",""
"null","565413","HierDyp65jq1fq","sub06","06","4","feedback","test","null","","","na","","224","",""
"891.1999999284744","566306","HierDyp65jq1fq","sub06","06","4","rl","test","75","img/o_s_check.png","7","75","pattern,shape,color","225","1",""
"null","567312","HierDyp65jq1fq","sub06","06","4","feedback","test","null","","","na","","225","",""
"770","568085","HierDyp65jq1fq","sub06","06","4","rl","test","65","img/o_t_stripes.png","1","65","pattern,shape,color","226","1",""
"null","569090","HierDyp65jq1fq","sub06","06","4","feedback","test","null","","","na","","226","",""
"1397.5999999046326","570490","HierDyp65jq1fq","sub06","06","4","rl","test","74","img/r_t_check.png","6","74","pattern,shape,color","227","1",""
"null","571496","HierDyp65jq1fq","sub06","06","4","feedback","test","null","","","na","","227","",""
"1395.6000000238419","572893","HierDyp65jq1fq","sub06","06","4","rl","test","68","img/o_s_stripes.png","3","68","pattern,shape,color","228","1",""
"null","573900","HierDyp65jq1fq","sub06","06","4","feedback","test","null","","","na","","228","",""
"775.1000000238419","574677","HierDyp65jq1fq","sub06","06","4","rl","test","68","img/o_s_check.png","7","75","pattern,shape,color","229","0",""
"null","575684","HierDyp65jq1fq","sub06","06","4","feedback","test","null","","","na","","229","",""
"1782.6999999284744","577468","HierDyp65jq1fq","sub06","06","4","rl","test","83","img/r_t_stripes.png","2","83","pattern,shape,color","230","1",""
"null","578472","HierDyp65jq1fq","sub06","06","4","feedback","test","null","","","na","","230","",""
"1398.8999999761581","579872","HierDyp65jq1fq","sub06","06","4","rl","test","75","img/o_s_check.png","7","75","pattern,shape,color","231","1",""
"null","580877","HierDyp65jq1fq","sub06","06","4","feedback","test","null","","","na","","231","",""
"1311.3999999761581","582191","HierDyp65jq1fq","sub06","06","4","rl","test","70","img/r_s_stripes.png","4","70","pattern,shape,color","232","1",""
"null","583196","HierDyp65jq1fq","sub06","06","4","feedback","test","null","","","na","","232","",""
"1406.6999999284744","584605","HierDyp65jq1fq","sub06","06","4","rl","test","72","img/o_t_check.png","5","72","pattern,shape,color","233","1",""
"null","585611","HierDyp65jq1fq","sub06","06","4","feedback","test","null","","","na","","233","",""
"970.6999999284744","586584","HierDyp65jq1fq","sub06","06","4","rl","test","72","img/o_t_check.png","5","72","pattern,shape,color","234","1",""
"null","587589","HierDyp65jq1fq","sub06","06","4","feedback","test","null","","","na","","234","",""
"1428.3999999761581","589020","HierDyp65jq1fq","sub06","06","4","rl","test","83","img/r_t_stripes.png","2","83","pattern,shape,color","235","1",""
"null","590027","HierDyp65jq1fq","sub06","06","4","feedback","test","null","","","na","","235","",""
"1830.2999999523163","591859","HierDyp65jq1fq","sub06","06","4","rl","test","68","img/o_s_stripes.png","3","68","pattern,shape,color","236","1",""
"null","592866","HierDyp65jq1fq","sub06","06","4","feedback","test","null","","","na","","236","",""
"1674.1000000238419","594542","HierDyp65jq1fq","sub06","06","4","rl","test","70","img/r_s_stripes.png","4","70","pattern,shape,color","237","1",""
"null","595546","HierDyp65jq1fq","sub06","06","4","feedback","test","null","","","na","","237","",""
"1121.2000000476837","596668","HierDyp65jq1fq","sub06","06","4","rl","test","76","img/r_s_check.png","8","76","pattern,shape,color","238","1",""
"null","597675","HierDyp65jq1fq","sub06","06","4","feedback","test","null","","","na","","238","",""
"2459.6999999284744","600137","HierDyp65jq1fq","sub06","06","4","rl","test","70","img/o_s_stripes.png","3","68","pattern,shape,color","239","0",""
"null","601142","HierDyp65jq1fq","sub06","06","4","feedback","test","null","","","na","","239","",""
"870.8999999761581","602015","HierDyp65jq1fq","sub06","06","4","rl","test","65","img/o_t_stripes.png","1","65","pattern,shape,color","240","1",""
"null","603019","HierDyp65jq1fq","sub06","06","4","feedback","test","null","","","na","","240","",""
"801.3999999761581","603822","HierDyp65jq1fq","sub06","06","4","rl","test","65","img/o_t_stripes.png","1","65","pattern,shape,color","241","1",""
"null","604828","HierDyp65jq1fq","sub06","06","4","feedback","test","null","","","na","","241","",""
"878.6999999284744","605709","HierDyp65jq1fq","sub06","06","4","rl","test","74","img/r_t_check.png","6","74","pattern,shape,color","242","1",""
"null","606716","HierDyp65jq1fq","sub06","06","4","feedback","test","null","","","na","","242","",""
"1735","608452","HierDyp65jq1fq","sub06","06","4","rl","test","83","img/r_t_stripes.png","2","83","pattern,shape,color","243","1",""
"null","609457","HierDyp65jq1fq","sub06","06","4","feedback","test","null","","","na","","243","",""
"1790.2999999523163","611250","HierDyp65jq1fq","sub06","06","4","rl","test","72","img/r_t_check.png","6","74","pattern,shape,color","244","0",""
"null","612254","HierDyp65jq1fq","sub06","06","4","feedback","test","null","","","na","","244","",""
"900.6000000238419","613157","HierDyp65jq1fq","sub06","06","4","rl","test","76","img/r_s_check.png","8","76","pattern,shape,color","245","1",""
"null","614164","HierDyp65jq1fq","sub06","06","4","feedback","test","null","","","na","","245","",""
"1118.3000000715256","615285","HierDyp65jq1fq","sub06","06","4","rl","test","75","img/o_s_check.png","7","75","pattern,shape,color","246","1",""
"null","616291","HierDyp65jq1fq","sub06","06","4","feedback","test","null","","","na","","246","",""
"1776.2000000476837","618070","HierDyp65jq1fq","sub06","06","4","rl","test","74","img/o_t_check.png","5","72","pattern,shape,color","247","0",""
"null","619075","HierDyp65jq1fq","sub06","06","4","feedback","test","null","","","na","","247","",""
"2182.899999976158","621260","HierDyp65jq1fq","sub06","06","4","rl","test","70","img/r_s_stripes.png","4","70","pattern,shape,color","248","1",""
"null","622268","HierDyp65jq1fq","sub06","06","4","feedback","test","null","","","na","","248","",""
"2415","624689","HierDyp65jq1fq","sub06","06","4","","","","","","","","","","{""Q0"":""6""}"
"3779.8000000715256","628473","HierDyp65jq1fq","sub06","06","4","","","","","","","","","","{""Q0"":""I remembered some of the shapes corresponding to the letter from yesterday""}"
"1897","630372","HierDyp65jq1fq","sub06","06","4","","","","","","","","","",""
