"rt","time_elapsed","subject","subID","group","day","trialType","phase","key_press","stim","stimNum","corrresp","hierarchy","trialNum","corr","responses"
"14161.200000286102","14163","HierDych01kpvz","sub03","03","2","","","","","","","","","",""
"","16223","HierDych01kpvz","sub03","03","2","fullscreen","","","","","","","","",""
"5246.5","21471","HierDych01kpvz","sub03","03","2","","prac","","","","","","","",""
"2402.199999809265","23875","HierDych01kpvz","sub03","03","2","","","32","","","","","","",""
"1499.8000001907349","25375","HierDych01kpvz","sub03","03","2","","prac","","","","","","","",""
"1660.6999998092651","27037","HierDych01kpvz","sub03","03","2","rl","test","68","img/r_c_dots.png","4","70","color,pattern,shape","1","0",""
"null","28047","HierDych01kpvz","sub03","03","2","feedback","test","null","","","na","","1","",""
"1043.5999999046326","29091","HierDych01kpvz","sub03","03","2","rl","test","74","img/p_c_diag.png","6","74","color,pattern,shape","2","1",""
"null","30096","HierDych01kpvz","sub03","03","2","feedback","test","null","","","na","","2","",""
"1072.3000001907349","31170","HierDych01kpvz","sub03","03","2","rl","test","68","img/r_t_dots.png","3","68","color,pattern,shape","3","1",""
"null","32175","HierDych01kpvz","sub03","03","2","feedback","test","null","","","na","","3","",""
"639","32815","HierDych01kpvz","sub03","03","2","rl","test","65","img/r_t_diag.png","1","65","color,pattern,shape","4","1",""
"null","33826","HierDych01kpvz","sub03","03","2","feedback","test","null","","","na","","4","",""
"987","34814","HierDych01kpvz","sub03","03","2","rl","test","75","img/p_t_dots.png","7","75","color,pattern,shape","5","1",""
"null","35816","HierDych01kpvz","sub03","03","2","feedback","test","null","","","na","","5","",""
"610.2999997138977","36427","HierDych01kpvz","sub03","03","2","rl","test","72","img/p_t_diag.png","5","72","color,pattern,shape","6","1",""
"null","37436","HierDych01kpvz","sub03","03","2","feedback","test","null","","","na","","6","",""
"854.6999998092651","38292","HierDych01kpvz","sub03","03","2","rl","test","83","img/r_c_diag.png","2","83","color,pattern,shape","7","1",""
"null","39301","HierDych01kpvz","sub03","03","2","feedback","test","null","","","na","","7","",""
"1039.3999996185303","40341","HierDych01kpvz","sub03","03","2","rl","test","68","img/p_t_dots.png","7","75","color,pattern,shape","8","0",""
"null","41347","HierDych01kpvz","sub03","03","2","feedback","test","null","","","na","","8","",""
"772.5","42120","HierDych01kpvz","sub03","03","2","rl","test","74","img/p_c_diag.png","6","74","color,pattern,shape","9","1",""
"null","43129","HierDych01kpvz","sub03","03","2","feedback","test","null","","","na","","9","",""
"695.1000003814697","43825","HierDych01kpvz","sub03","03","2","rl","test","75","img/p_c_dots.png","8","76","color,pattern,shape","10","0",""
"null","44832","HierDych01kpvz","sub03","03","2","feedback","test","null","","","na","","10","",""
"862.5","45696","HierDych01kpvz","sub03","03","2","rl","test","75","img/p_c_dots.png","8","76","color,pattern,shape","11","0",""
"null","46704","HierDych01kpvz","sub03","03","2","feedback","test","null","","","na","","11","",""
"910.8999996185303","47616","HierDych01kpvz","sub03","03","2","rl","test","65","img/r_t_diag.png","1","65","color,pattern,shape","12","1",""
"null","48628","HierDych01kpvz","sub03","03","2","feedback","test","null","","","na","","12","",""
"1072.9000000953674","49702","HierDych01kpvz","sub03","03","2","rl","test","70","img/r_c_dots.png","4","70","color,pattern,shape","13","1",""
"null","50706","HierDych01kpvz","sub03","03","2","feedback","test","null","","","na","","13","",""
"853.1999998092651","51560","HierDych01kpvz","sub03","03","2","rl","test","68","img/r_t_dots.png","3","68","color,pattern,shape","14","1",""
"null","52568","HierDych01kpvz","sub03","03","2","feedback","test","null","","","na","","14","",""
"682.4000000953674","53252","HierDych01kpvz","sub03","03","2","rl","test","70","img/r_c_dots.png","4","70","color,pattern,shape","15","1",""
"null","54257","HierDych01kpvz","sub03","03","2","feedback","test","null","","","na","","15","",""
"770.9000000953674","55029","HierDych01kpvz","sub03","03","2","rl","test","83","img/r_c_diag.png","2","83","color,pattern,shape","16","1",""
"null","56034","HierDych01kpvz","sub03","03","2","feedback","test","null","","","na","","16","",""
"1097","57132","HierDych01kpvz","sub03","03","2","rl","test","75","img/p_c_dots.png","8","76","color,pattern,shape","17","0",""
"null","58137","HierDych01kpvz","sub03","03","2","feedback","test","null","","","na","","17","",""
"761.9000000953674","58900","HierDych01kpvz","sub03","03","2","rl","test","72","img/p_t_diag.png","5","72","color,pattern,shape","18","1",""
"null","59903","HierDych01kpvz","sub03","03","2","feedback","test","null","","","na","","18","",""
"1003.1999998092651","60907","HierDych01kpvz","sub03","03","2","rl","test","83","img/r_c_diag.png","2","83","color,pattern,shape","19","1",""
"null","61914","HierDych01kpvz","sub03","03","2","feedback","test","null","","","na","","19","",""
"760.5","62675","HierDych01kpvz","sub03","03","2","rl","test","72","img/p_t_diag.png","5","72","color,pattern,shape","20","1",""
"null","63680","HierDych01kpvz","sub03","03","2","feedback","test","null","","","na","","20","",""
"991.0999999046326","64672","HierDych01kpvz","sub03","03","2","rl","test","83","img/r_t_dots.png","3","68","color,pattern,shape","21","0",""
"null","65680","HierDych01kpvz","sub03","03","2","feedback","test","null","","","na","","21","",""
"1413.6999998092651","67095","HierDych01kpvz","sub03","03","2","rl","test","75","img/p_t_dots.png","7","75","color,pattern,shape","22","1",""
"null","68109","HierDych01kpvz","sub03","03","2","feedback","test","null","","","na","","22","",""
"798","68908","HierDych01kpvz","sub03","03","2","rl","test","74","img/p_c_diag.png","6","74","color,pattern,shape","23","1",""
"null","69913","HierDych01kpvz","sub03","03","2","feedback","test","null","","","na","","23","",""
"801.5","70715","HierDych01kpvz","sub03","03","2","rl","test","83","img/r_c_diag.png","2","83","color,pattern,shape","24","1",""
"null","71721","HierDych01kpvz","sub03","03","2","feedback","test","null","","","na","","24","",""
"518.1999998092651","72240","HierDych01kpvz","sub03","03","2","rl","test","65","img/r_t_diag.png","1","65","color,pattern,shape","25","1",""
"null","73249","HierDych01kpvz","sub03","03","2","feedback","test","null","","","na","","25","",""
"1219.3000001907349","74469","HierDych01kpvz","sub03","03","2","rl","test","68","img/p_t_dots.png","7","75","color,pattern,shape","26","0",""
"null","75474","HierDych01kpvz","sub03","03","2","feedback","test","null","","","na","","26","",""
"1418.3999996185303","76893","HierDych01kpvz","sub03","03","2","rl","test","76","img/p_c_dots.png","8","76","color,pattern,shape","27","1",""
"null","77899","HierDych01kpvz","sub03","03","2","feedback","test","null","","","na","","27","",""
"695.9000000953674","78595","HierDych01kpvz","sub03","03","2","rl","test","65","img/r_t_diag.png","1","65","color,pattern,shape","28","1",""
"null","79603","HierDych01kpvz","sub03","03","2","feedback","test","null","","","na","","28","",""
"592.0999999046326","80196","HierDych01kpvz","sub03","03","2","rl","test","65","img/r_t_diag.png","1","65","color,pattern,shape","29","1",""
"null","81201","HierDych01kpvz","sub03","03","2","feedback","test","null","","","na","","29","",""
"1093","82295","HierDych01kpvz","sub03","03","2","rl","test","70","img/r_c_dots.png","4","70","color,pattern,shape","30","1",""
"null","83300","HierDych01kpvz","sub03","03","2","feedback","test","null","","","na","","30","",""
"896.5","84197","HierDych01kpvz","sub03","03","2","rl","test","68","img/r_t_dots.png","3","68","color,pattern,shape","31","1",""
"null","85204","HierDych01kpvz","sub03","03","2","feedback","test","null","","","na","","31","",""
"640.4000000953674","85846","HierDych01kpvz","sub03","03","2","rl","test","72","img/p_t_diag.png","5","72","color,pattern,shape","32","1",""
"null","86851","HierDych01kpvz","sub03","03","2","feedback","test","null","","","na","","32","",""
"961.0999999046326","87813","HierDych01kpvz","sub03","03","2","rl","test","75","img/p_t_dots.png","7","75","color,pattern,shape","33","1",""
"null","88819","HierDych01kpvz","sub03","03","2","feedback","test","null","","","na","","33","",""
"717.0999999046326","89537","HierDych01kpvz","sub03","03","2","rl","test","74","img/p_c_diag.png","6","74","color,pattern,shape","34","1",""
"null","90550","HierDych01kpvz","sub03","03","2","feedback","test","null","","","na","","34","",""
"933.0999999046326","91484","HierDych01kpvz","sub03","03","2","rl","test","68","img/r_t_dots.png","3","68","color,pattern,shape","35","1",""
"null","92489","HierDych01kpvz","sub03","03","2","feedback","test","null","","","na","","35","",""
"895.2000002861023","93385","HierDych01kpvz","sub03","03","2","rl","test","74","img/p_c_diag.png","6","74","color,pattern,shape","36","1",""
"null","94394","HierDych01kpvz","sub03","03","2","feedback","test","null","","","na","","36","",""
"1183.5999999046326","95578","HierDych01kpvz","sub03","03","2","rl","test","83","img/r_c_diag.png","2","83","color,pattern,shape","37","1",""
"null","96581","HierDych01kpvz","sub03","03","2","feedback","test","null","","","na","","37","",""
"705.1999998092651","97287","HierDych01kpvz","sub03","03","2","rl","test","68","img/p_t_dots.png","7","75","color,pattern,shape","38","0",""
"null","98292","HierDych01kpvz","sub03","03","2","feedback","test","null","","","na","","38","",""
"1209.6999998092651","99502","HierDych01kpvz","sub03","03","2","rl","test","70","img/r_c_dots.png","4","70","color,pattern,shape","39","1",""
"null","100508","HierDych01kpvz","sub03","03","2","feedback","test","null","","","na","","39","",""
"591.3000001907349","101100","HierDych01kpvz","sub03","03","2","rl","test","72","img/p_t_diag.png","5","72","color,pattern,shape","40","1",""
"null","102108","HierDych01kpvz","sub03","03","2","feedback","test","null","","","na","","40","",""
"1064.7999997138977","103174","HierDych01kpvz","sub03","03","2","rl","test","76","img/p_c_dots.png","8","76","color,pattern,shape","41","1",""
"null","104179","HierDych01kpvz","sub03","03","2","feedback","test","null","","","na","","41","",""
"616.0999999046326","104796","HierDych01kpvz","sub03","03","2","rl","test","74","img/p_c_diag.png","6","74","color,pattern,shape","42","1",""
"null","105801","HierDych01kpvz","sub03","03","2","feedback","test","null","","","na","","42","",""
"721.0999999046326","106523","HierDych01kpvz","sub03","03","2","rl","test","72","img/p_c_diag.png","6","74","color,pattern,shape","43","0",""
"null","107529","HierDych01kpvz","sub03","03","2","feedback","test","null","","","na","","43","",""
"883.5999999046326","108414","HierDych01kpvz","sub03","03","2","rl","test","65","img/r_t_diag.png","1","65","color,pattern,shape","44","1",""
"null","109418","HierDych01kpvz","sub03","03","2","feedback","test","null","","","na","","44","",""
"825.0999999046326","110244","HierDych01kpvz","sub03","03","2","rl","test","70","img/r_c_dots.png","4","70","color,pattern,shape","45","1",""
"null","111249","HierDych01kpvz","sub03","03","2","feedback","test","null","","","na","","45","",""
"652.1000003814697","111902","HierDych01kpvz","sub03","03","2","rl","test","68","img/r_t_dots.png","3","68","color,pattern,shape","46","1",""
"null","112906","HierDych01kpvz","sub03","03","2","feedback","test","null","","","na","","46","",""
"892.8000001907349","113799","HierDych01kpvz","sub03","03","2","rl","test","83","img/r_c_diag.png","2","83","color,pattern,shape","47","1",""
"null","114804","HierDych01kpvz","sub03","03","2","feedback","test","null","","","na","","47","",""
"1518.5999999046326","116323","HierDych01kpvz","sub03","03","2","rl","test","76","img/p_c_dots.png","8","76","color,pattern,shape","48","1",""
"null","117333","HierDych01kpvz","sub03","03","2","feedback","test","null","","","na","","48","",""
"543.6999998092651","117877","HierDych01kpvz","sub03","03","2","rl","test","72","img/p_t_diag.png","5","72","color,pattern,shape","49","1",""
"null","118884","HierDych01kpvz","sub03","03","2","feedback","test","null","","","na","","49","",""
"1063","119948","HierDych01kpvz","sub03","03","2","rl","test","75","img/p_t_dots.png","7","75","color,pattern,shape","50","1",""
"null","120958","HierDych01kpvz","sub03","03","2","feedback","test","null","","","na","","50","",""
"657.9000000953674","121618","HierDych01kpvz","sub03","03","2","rl","test","72","img/p_t_diag.png","5","72","color,pattern,shape","51","1",""
"null","122629","HierDych01kpvz","sub03","03","2","feedback","test","null","","","na","","51","",""
"1227.3999996185303","123857","HierDych01kpvz","sub03","03","2","rl","test","76","img/p_c_dots.png","8","76","color,pattern,shape","52","1",""
"null","124871","HierDych01kpvz","sub03","03","2","feedback","test","null","","","na","","52","",""
"996","125868","HierDych01kpvz","sub03","03","2","rl","test","68","img/r_c_dots.png","4","70","color,pattern,shape","53","0",""
"null","126875","HierDych01kpvz","sub03","03","2","feedback","test","null","","","na","","53","",""
"756.7999997138977","127633","HierDych01kpvz","sub03","03","2","rl","test","68","img/r_t_dots.png","3","68","color,pattern,shape","54","1",""
"null","128638","HierDych01kpvz","sub03","03","2","feedback","test","null","","","na","","54","",""
"887.2999997138977","129525","HierDych01kpvz","sub03","03","2","rl","test","75","img/p_c_dots.png","8","76","color,pattern,shape","55","0",""
"null","130533","HierDych01kpvz","sub03","03","2","feedback","test","null","","","na","","55","",""
"556.2000002861023","131090","HierDych01kpvz","sub03","03","2","rl","test","72","img/p_t_diag.png","5","72","color,pattern,shape","56","1",""
"null","132099","HierDych01kpvz","sub03","03","2","feedback","test","null","","","na","","56","",""
"778.5","132878","HierDych01kpvz","sub03","03","2","rl","test","65","img/r_t_diag.png","1","65","color,pattern,shape","57","1",""
"null","133887","HierDych01kpvz","sub03","03","2","feedback","test","null","","","na","","57","",""
"664.2999997138977","134552","HierDych01kpvz","sub03","03","2","rl","test","74","img/p_c_diag.png","6","74","color,pattern,shape","58","1",""
"null","135558","HierDych01kpvz","sub03","03","2","feedback","test","null","","","na","","58","",""
"617.4000000953674","136176","HierDych01kpvz","sub03","03","2","rl","test","83","img/r_c_diag.png","2","83","color,pattern,shape","59","1",""
"null","137178","HierDych01kpvz","sub03","03","2","feedback","test","null","","","na","","59","",""
"542.7999997138977","137721","HierDych01kpvz","sub03","03","2","rl","test","83","img/r_c_diag.png","2","83","color,pattern,shape","60","1",""
"null","138732","HierDych01kpvz","sub03","03","2","feedback","test","null","","","na","","60","",""
"510.30000019073486","139243","HierDych01kpvz","sub03","03","2","rl","test","65","img/r_t_diag.png","1","65","color,pattern,shape","61","1",""
"null","140250","HierDych01kpvz","sub03","03","2","feedback","test","null","","","na","","61","",""
"710.0999999046326","140961","HierDych01kpvz","sub03","03","2","rl","test","70","img/r_c_dots.png","4","70","color,pattern,shape","62","1",""
"null","141971","HierDych01kpvz","sub03","03","2","feedback","test","null","","","na","","62","",""
"1166.0999999046326","143138","HierDych01kpvz","sub03","03","2","rl","test","75","img/p_t_dots.png","7","75","color,pattern,shape","63","1",""
"null","144147","HierDych01kpvz","sub03","03","2","feedback","test","null","","","na","","63","",""
"1555.5","145704","HierDych01kpvz","sub03","03","2","rl","test","68","img/r_t_dots.png","3","68","color,pattern,shape","64","1",""
"null","146707","HierDych01kpvz","sub03","03","2","feedback","test","null","","","na","","64","",""
"691.0999999046326","147399","HierDych01kpvz","sub03","03","2","rl","test","74","img/p_c_diag.png","6","74","color,pattern,shape","65","1",""
"null","148403","HierDych01kpvz","sub03","03","2","feedback","test","null","","","na","","65","",""
"711.6000003814697","149116","HierDych01kpvz","sub03","03","2","rl","test","65","img/r_t_diag.png","1","65","color,pattern,shape","66","1",""
"null","150123","HierDych01kpvz","sub03","03","2","feedback","test","null","","","na","","66","",""
"781.8999996185303","150906","HierDych01kpvz","sub03","03","2","rl","test","72","img/p_t_diag.png","5","72","color,pattern,shape","67","1",""
"null","151914","HierDych01kpvz","sub03","03","2","feedback","test","null","","","na","","67","",""
"1223.2000002861023","153138","HierDych01kpvz","sub03","03","2","rl","test","68","img/r_c_dots.png","4","70","color,pattern,shape","68","0",""
"null","154149","HierDych01kpvz","sub03","03","2","feedback","test","null","","","na","","68","",""
"1741.8000001907349","155892","HierDych01kpvz","sub03","03","2","rl","test","76","img/p_c_dots.png","8","76","color,pattern,shape","69","1",""
"null","156900","HierDych01kpvz","sub03","03","2","feedback","test","null","","","na","","69","",""
"672.3999996185303","157573","HierDych01kpvz","sub03","03","2","rl","test","76","img/p_c_dots.png","8","76","color,pattern,shape","70","1",""
"null","158580","HierDych01kpvz","sub03","03","2","feedback","test","null","","","na","","70","",""
"1211.6999998092651","159792","HierDych01kpvz","sub03","03","2","rl","test","70","img/r_c_dots.png","4","70","color,pattern,shape","71","1",""
"null","160797","HierDych01kpvz","sub03","03","2","feedback","test","null","","","na","","71","",""
"1600.7999997138977","162399","HierDych01kpvz","sub03","03","2","rl","test","75","img/p_t_dots.png","7","75","color,pattern,shape","72","1",""
"null","163407","HierDych01kpvz","sub03","03","2","feedback","test","null","","","na","","72","",""
"994.0999999046326","164402","HierDych01kpvz","sub03","03","2","rl","test","83","img/r_c_diag.png","2","83","color,pattern,shape","73","1",""
"null","165415","HierDych01kpvz","sub03","03","2","feedback","test","null","","","na","","73","",""
"714.5","166131","HierDych01kpvz","sub03","03","2","rl","test","68","img/r_t_dots.png","3","68","color,pattern,shape","74","1",""
"null","167140","HierDych01kpvz","sub03","03","2","feedback","test","null","","","na","","74","",""
"702.3000001907349","167843","HierDych01kpvz","sub03","03","2","rl","test","83","img/r_c_diag.png","2","83","color,pattern,shape","75","1",""
"null","168855","HierDych01kpvz","sub03","03","2","feedback","test","null","","","na","","75","",""
"777.8000001907349","169634","HierDych01kpvz","sub03","03","2","rl","test","75","img/p_t_dots.png","7","75","color,pattern,shape","76","1",""
"null","170646","HierDych01kpvz","sub03","03","2","feedback","test","null","","","na","","76","",""
"1501.9000000953674","172148","HierDych01kpvz","sub03","03","2","rl","test","68","img/r_t_dots.png","3","68","color,pattern,shape","77","1",""
"null","173160","HierDych01kpvz","sub03","03","2","feedback","test","null","","","na","","77","",""
"877.6999998092651","174039","HierDych01kpvz","sub03","03","2","rl","test","72","img/p_t_diag.png","5","72","color,pattern,shape","78","1",""
"null","175048","HierDych01kpvz","sub03","03","2","feedback","test","null","","","na","","78","",""
"520.1000003814697","175569","HierDych01kpvz","sub03","03","2","rl","test","74","img/p_c_diag.png","6","74","color,pattern,shape","79","1",""
"null","176575","HierDych01kpvz","sub03","03","2","feedback","test","null","","","na","","79","",""
"594.5","177170","HierDych01kpvz","sub03","03","2","rl","test","65","img/r_t_diag.png","1","65","color,pattern,shape","80","1",""
"null","178175","HierDych01kpvz","sub03","03","2","feedback","test","null","","","na","","80","",""
"674.2999997138977","178850","HierDych01kpvz","sub03","03","2","rl","test","74","img/p_c_diag.png","6","74","color,pattern,shape","81","1",""
"null","179854","HierDych01kpvz","sub03","03","2","feedback","test","null","","","na","","81","",""
"645.9000000953674","180501","HierDych01kpvz","sub03","03","2","rl","test","75","img/p_c_dots.png","8","76","color,pattern,shape","82","0",""
"null","181512","HierDych01kpvz","sub03","03","2","feedback","test","null","","","na","","82","",""
"873.3999996185303","182387","HierDych01kpvz","sub03","03","2","rl","test","68","img/r_t_dots.png","3","68","color,pattern,shape","83","1",""
"null","183396","HierDych01kpvz","sub03","03","2","feedback","test","null","","","na","","83","",""
"977.5","184374","HierDych01kpvz","sub03","03","2","rl","test","75","img/p_t_dots.png","7","75","color,pattern,shape","84","1",""
"null","185385","HierDych01kpvz","sub03","03","2","feedback","test","null","","","na","","84","",""
"802.3000001907349","186188","HierDych01kpvz","sub03","03","2","rl","test","65","img/r_t_diag.png","1","65","color,pattern,shape","85","1",""
"null","187197","HierDych01kpvz","sub03","03","2","feedback","test","null","","","na","","85","",""
"2134.5999999046326","189332","HierDych01kpvz","sub03","03","2","rl","test","70","img/r_c_dots.png","4","70","color,pattern,shape","86","1",""
"null","190343","HierDych01kpvz","sub03","03","2","feedback","test","null","","","na","","86","",""
"684.4000000953674","191028","HierDych01kpvz","sub03","03","2","rl","test","68","img/r_c_diag.png","2","83","color,pattern,shape","87","0",""
"null","192041","HierDych01kpvz","sub03","03","2","feedback","test","null","","","na","","87","",""
"1408","193450","HierDych01kpvz","sub03","03","2","rl","test","72","img/p_t_diag.png","5","72","color,pattern,shape","88","1",""
"null","194455","HierDych01kpvz","sub03","03","2","feedback","test","null","","","na","","88","",""
"445.1000003814697","194901","HierDych01kpvz","sub03","03","2","rl","test","72","img/p_t_diag.png","5","72","color,pattern,shape","89","1",""
"null","195912","HierDych01kpvz","sub03","03","2","feedback","test","null","","","na","","89","",""
"1426.5","197339","HierDych01kpvz","sub03","03","2","rl","test","68","img/r_t_dots.png","3","68","color,pattern,shape","90","1",""
"null","198349","HierDych01kpvz","sub03","03","2","feedback","test","null","","","na","","90","",""
"885.7999997138977","199236","HierDych01kpvz","sub03","03","2","rl","test","75","img/p_t_dots.png","7","75","color,pattern,shape","91","1",""
"null","200245","HierDych01kpvz","sub03","03","2","feedback","test","null","","","na","","91","",""
"1664.6999998092651","201911","HierDych01kpvz","sub03","03","2","rl","test","83","img/r_c_diag.png","2","83","color,pattern,shape","92","1",""
"null","202917","HierDych01kpvz","sub03","03","2","feedback","test","null","","","na","","92","",""
"1044.0999999046326","203962","HierDych01kpvz","sub03","03","2","rl","test","76","img/p_c_dots.png","8","76","color,pattern,shape","93","1",""
"null","204964","HierDych01kpvz","sub03","03","2","feedback","test","null","","","na","","93","",""
"1679.3999996185303","206645","HierDych01kpvz","sub03","03","2","rl","test","72","img/r_t_diag.png","1","65","color,pattern,shape","94","0",""
"null","207652","HierDych01kpvz","sub03","03","2","feedback","test","null","","","na","","94","",""
"722.5","208375","HierDych01kpvz","sub03","03","2","rl","test","74","img/p_c_diag.png","6","74","color,pattern,shape","95","1",""
"null","209381","HierDych01kpvz","sub03","03","2","feedback","test","null","","","na","","95","",""
"800.8000001907349","210182","HierDych01kpvz","sub03","03","2","rl","test","65","img/r_t_diag.png","1","65","color,pattern,shape","96","1",""
"null","211188","HierDych01kpvz","sub03","03","2","feedback","test","null","","","na","","96","",""
"1307.8999996185303","212497","HierDych01kpvz","sub03","03","2","rl","test","70","img/r_c_dots.png","4","70","color,pattern,shape","97","1",""
"null","213501","HierDych01kpvz","sub03","03","2","feedback","test","null","","","na","","97","",""
"663.2000002861023","214165","HierDych01kpvz","sub03","03","2","rl","test","68","img/r_t_dots.png","3","68","color,pattern,shape","98","1",""
"null","215175","HierDych01kpvz","sub03","03","2","feedback","test","null","","","na","","98","",""
"665.8000001907349","215842","HierDych01kpvz","sub03","03","2","rl","test","74","img/p_c_diag.png","6","74","color,pattern,shape","99","1",""
"null","216849","HierDych01kpvz","sub03","03","2","feedback","test","null","","","na","","99","",""
"1147.5999999046326","217998","HierDych01kpvz","sub03","03","2","rl","test","70","img/r_c_dots.png","4","70","color,pattern,shape","100","1",""
"null","219009","HierDych01kpvz","sub03","03","2","feedback","test","null","","","na","","100","",""
"885","219895","HierDych01kpvz","sub03","03","2","rl","test","76","img/p_c_dots.png","8","76","color,pattern,shape","101","1",""
"null","220902","HierDych01kpvz","sub03","03","2","feedback","test","null","","","na","","101","",""
"615.5999999046326","221518","HierDych01kpvz","sub03","03","2","rl","test","72","img/p_t_diag.png","5","72","color,pattern,shape","102","1",""
"null","222525","HierDych01kpvz","sub03","03","2","feedback","test","null","","","na","","102","",""
"538.8000001907349","223065","HierDych01kpvz","sub03","03","2","rl","test","74","img/p_t_diag.png","5","72","color,pattern,shape","103","0",""
"null","224070","HierDych01kpvz","sub03","03","2","feedback","test","null","","","na","","103","",""
"1368.6999998092651","225440","HierDych01kpvz","sub03","03","2","rl","test","68","img/r_t_dots.png","3","68","color,pattern,shape","104","1",""
"null","226445","HierDych01kpvz","sub03","03","2","feedback","test","null","","","na","","104","",""
"881.6999998092651","227328","HierDych01kpvz","sub03","03","2","rl","test","83","img/r_c_diag.png","2","83","color,pattern,shape","105","1",""
"null","228333","HierDych01kpvz","sub03","03","2","feedback","test","null","","","na","","105","",""
"699.2999997138977","229034","HierDych01kpvz","sub03","03","2","rl","test","75","img/p_t_dots.png","7","75","color,pattern,shape","106","1",""
"null","230038","HierDych01kpvz","sub03","03","2","feedback","test","null","","","na","","106","",""
"776.5999999046326","230815","HierDych01kpvz","sub03","03","2","rl","test","83","img/r_c_diag.png","2","83","color,pattern,shape","107","1",""
"null","231822","HierDych01kpvz","sub03","03","2","feedback","test","null","","","na","","107","",""
"728.0999999046326","232551","HierDych01kpvz","sub03","03","2","rl","test","65","img/r_t_diag.png","1","65","color,pattern,shape","108","1",""
"null","233558","HierDych01kpvz","sub03","03","2","feedback","test","null","","","na","","108","",""
"722","234281","HierDych01kpvz","sub03","03","2","rl","test","75","img/p_t_dots.png","7","75","color,pattern,shape","109","1",""
"null","235286","HierDych01kpvz","sub03","03","2","feedback","test","null","","","na","","109","",""
"873.8000001907349","236160","HierDych01kpvz","sub03","03","2","rl","test","76","img/p_c_dots.png","8","76","color,pattern,shape","110","1",""
"null","237166","HierDych01kpvz","sub03","03","2","feedback","test","null","","","na","","110","",""
"879.7999997138977","238047","HierDych01kpvz","sub03","03","2","rl","test","68","img/r_c_dots.png","4","70","color,pattern,shape","111","0",""
"null","239057","HierDych01kpvz","sub03","03","2","feedback","test","null","","","na","","111","",""
"594","239651","HierDych01kpvz","sub03","03","2","rl","test","70","img/r_c_dots.png","4","70","color,pattern,shape","112","1",""
"null","240656","HierDych01kpvz","sub03","03","2","feedback","test","null","","","na","","112","",""
"1449.4000000953674","242107","HierDych01kpvz","sub03","03","2","rl","test","74","img/p_c_diag.png","6","74","color,pattern,shape","113","1",""
"null","243110","HierDych01kpvz","sub03","03","2","feedback","test","null","","","na","","113","",""
"631.0999999046326","243742","HierDych01kpvz","sub03","03","2","rl","test","65","img/r_t_diag.png","1","65","color,pattern,shape","114","1",""
"null","244750","HierDych01kpvz","sub03","03","2","feedback","test","null","","","na","","114","",""
"824.4000000953674","245576","HierDych01kpvz","sub03","03","2","rl","test","75","img/p_c_dots.png","8","76","color,pattern,shape","115","0",""
"null","246582","HierDych01kpvz","sub03","03","2","feedback","test","null","","","na","","115","",""
"848.4000000953674","247431","HierDych01kpvz","sub03","03","2","rl","test","75","img/p_t_dots.png","7","75","color,pattern,shape","116","1",""
"null","248439","HierDych01kpvz","sub03","03","2","feedback","test","null","","","na","","116","",""
"1098.6999998092651","249538","HierDych01kpvz","sub03","03","2","rl","test","83","img/r_c_diag.png","2","83","color,pattern,shape","117","1",""
"null","250544","HierDych01kpvz","sub03","03","2","feedback","test","null","","","na","","117","",""
"647.8000001907349","251193","HierDych01kpvz","sub03","03","2","rl","test","72","img/p_t_diag.png","5","72","color,pattern,shape","118","1",""
"null","252202","HierDych01kpvz","sub03","03","2","feedback","test","null","","","na","","118","",""
"1403.9000000953674","253607","HierDych01kpvz","sub03","03","2","rl","test","68","img/r_t_dots.png","3","68","color,pattern,shape","119","1",""
"null","254615","HierDych01kpvz","sub03","03","2","feedback","test","null","","","na","","119","",""
"867","255483","HierDych01kpvz","sub03","03","2","rl","test","83","img/p_c_diag.png","6","74","color,pattern,shape","120","0",""
"null","256488","HierDych01kpvz","sub03","03","2","feedback","test","null","","","na","","120","",""
"783.7999997138977","257272","HierDych01kpvz","sub03","03","2","rl","test","83","img/r_c_diag.png","2","83","color,pattern,shape","121","1",""
"null","258280","HierDych01kpvz","sub03","03","2","feedback","test","null","","","na","","121","",""
"626","258907","HierDych01kpvz","sub03","03","2","rl","test","65","img/r_t_diag.png","1","65","color,pattern,shape","122","1",""
"null","259910","HierDych01kpvz","sub03","03","2","feedback","test","null","","","na","","122","",""
"953.3000001907349","260864","HierDych01kpvz","sub03","03","2","rl","test","72","img/p_t_diag.png","5","72","color,pattern,shape","123","1",""
"null","261874","HierDych01kpvz","sub03","03","2","feedback","test","null","","","na","","123","",""
"741.5","262617","HierDych01kpvz","sub03","03","2","rl","test","76","img/p_c_dots.png","8","76","color,pattern,shape","124","1",""
"null","263627","HierDych01kpvz","sub03","03","2","feedback","test","null","","","na","","124","",""
"473.90000009536743","264102","HierDych01kpvz","sub03","03","2","rl","test","70","img/r_c_dots.png","4","70","color,pattern,shape","125","1",""
"null","265111","HierDych01kpvz","sub03","03","2","feedback","test","null","","","na","","125","",""
"1006.9000000953674","266119","HierDych01kpvz","sub03","03","2","rl","test","74","img/p_c_diag.png","6","74","color,pattern,shape","126","1",""
"null","267130","HierDych01kpvz","sub03","03","2","feedback","test","null","","","na","","126","",""
"598.8000001907349","267730","HierDych01kpvz","sub03","03","2","rl","test","72","img/p_t_diag.png","5","72","color,pattern,shape","127","1",""
"null","268735","HierDych01kpvz","sub03","03","2","feedback","test","null","","","na","","127","",""
"789.4000000953674","269525","HierDych01kpvz","sub03","03","2","rl","test","75","img/p_t_dots.png","7","75","color,pattern,shape","128","1",""
"null","270537","HierDych01kpvz","sub03","03","2","feedback","test","null","","","na","","128","",""
"949.2000002861023","271488","HierDych01kpvz","sub03","03","2","rl","test","68","img/r_t_dots.png","3","68","color,pattern,shape","129","1",""
"null","272495","HierDych01kpvz","sub03","03","2","feedback","test","null","","","na","","129","",""
"804.6999998092651","273301","HierDych01kpvz","sub03","03","2","rl","test","83","img/r_t_dots.png","3","68","color,pattern,shape","130","0",""
"null","274306","HierDych01kpvz","sub03","03","2","feedback","test","null","","","na","","130","",""
"785.5999999046326","275092","HierDych01kpvz","sub03","03","2","rl","test","75","img/p_t_dots.png","7","75","color,pattern,shape","131","1",""
"null","276097","HierDych01kpvz","sub03","03","2","feedback","test","null","","","na","","131","",""
"833.7999997138977","276932","HierDych01kpvz","sub03","03","2","rl","test","65","img/r_t_diag.png","1","65","color,pattern,shape","132","1",""
"null","277935","HierDych01kpvz","sub03","03","2","feedback","test","null","","","na","","132","",""
"914.5","278851","HierDych01kpvz","sub03","03","2","rl","test","70","img/p_c_dots.png","8","76","color,pattern,shape","133","0",""
"null","279856","HierDych01kpvz","sub03","03","2","feedback","test","null","","","na","","133","",""
"2174.2000002861023","282031","HierDych01kpvz","sub03","03","2","rl","test","83","img/r_c_diag.png","2","83","color,pattern,shape","134","1",""
"null","283041","HierDych01kpvz","sub03","03","2","feedback","test","null","","","na","","134","",""
"1030.8000001907349","284073","HierDych01kpvz","sub03","03","2","rl","test","76","img/p_c_dots.png","8","76","color,pattern,shape","135","1",""
"null","285074","HierDych01kpvz","sub03","03","2","feedback","test","null","","","na","","135","",""
"1069.0999999046326","286144","HierDych01kpvz","sub03","03","2","rl","test","70","img/r_c_dots.png","4","70","color,pattern,shape","136","1",""
"null","287151","HierDych01kpvz","sub03","03","2","feedback","test","null","","","na","","136","",""
"653.0999999046326","287805","HierDych01kpvz","sub03","03","2","rl","test","68","img/r_t_dots.png","3","68","color,pattern,shape","137","1",""
"null","288810","HierDych01kpvz","sub03","03","2","feedback","test","null","","","na","","137","",""
"675.7999997138977","289486","HierDych01kpvz","sub03","03","2","rl","test","74","img/p_c_diag.png","6","74","color,pattern,shape","138","1",""
"null","290494","HierDych01kpvz","sub03","03","2","feedback","test","null","","","na","","138","",""
"814.0999999046326","291310","HierDych01kpvz","sub03","03","2","rl","test","75","img/p_t_dots.png","7","75","color,pattern,shape","139","1",""
"null","292321","HierDych01kpvz","sub03","03","2","feedback","test","null","","","na","","139","",""
"801.8000001907349","293124","HierDych01kpvz","sub03","03","2","rl","test","70","img/r_c_dots.png","4","70","color,pattern,shape","140","1",""
"null","294128","HierDych01kpvz","sub03","03","2","feedback","test","null","","","na","","140","",""
"628.4000000953674","294757","HierDych01kpvz","sub03","03","2","rl","test","72","img/p_t_diag.png","5","72","color,pattern,shape","141","1",""
"null","295763","HierDych01kpvz","sub03","03","2","feedback","test","null","","","na","","141","",""
"1114.4000000953674","296879","HierDych01kpvz","sub03","03","2","rl","test","83","img/r_c_diag.png","2","83","color,pattern,shape","142","1",""
"null","297890","HierDych01kpvz","sub03","03","2","feedback","test","null","","","na","","142","",""
"786.8000001907349","298677","HierDych01kpvz","sub03","03","2","rl","test","74","img/p_c_diag.png","6","74","color,pattern,shape","143","1",""
"null","299680","HierDych01kpvz","sub03","03","2","feedback","test","null","","","na","","143","",""
"1301.1999998092651","300982","HierDych01kpvz","sub03","03","2","rl","test","65","img/r_t_diag.png","1","65","color,pattern,shape","144","1",""
"null","301996","HierDych01kpvz","sub03","03","2","feedback","test","null","","","na","","144","",""
"717.9000000953674","302715","HierDych01kpvz","sub03","03","2","rl","test","74","img/p_c_diag.png","6","74","color,pattern,shape","145","1",""
"null","303720","HierDych01kpvz","sub03","03","2","feedback","test","null","","","na","","145","",""
"1060.2999997138977","304781","HierDych01kpvz","sub03","03","2","rl","test","70","img/r_c_dots.png","4","70","color,pattern,shape","146","1",""
"null","305787","HierDych01kpvz","sub03","03","2","feedback","test","null","","","na","","146","",""
"600.5","306388","HierDych01kpvz","sub03","03","2","rl","test","72","img/r_t_diag.png","1","65","color,pattern,shape","147","0",""
"null","307393","HierDych01kpvz","sub03","03","2","feedback","test","null","","","na","","147","",""
"904.7000002861023","308299","HierDych01kpvz","sub03","03","2","rl","test","76","img/p_c_dots.png","8","76","color,pattern,shape","148","1",""
"null","309304","HierDych01kpvz","sub03","03","2","feedback","test","null","","","na","","148","",""
"1803","311108","HierDych01kpvz","sub03","03","2","rl","test","83","img/r_c_diag.png","2","83","color,pattern,shape","149","1",""
"null","312112","HierDych01kpvz","sub03","03","2","feedback","test","null","","","na","","149","",""
"693.9000000953674","312806","HierDych01kpvz","sub03","03","2","rl","test","75","img/p_t_dots.png","7","75","color,pattern,shape","150","1",""
"null","313819","HierDych01kpvz","sub03","03","2","feedback","test","null","","","na","","150","",""
"984","314804","HierDych01kpvz","sub03","03","2","rl","test","65","img/r_t_dots.png","3","68","color,pattern,shape","151","0",""
"null","315809","HierDych01kpvz","sub03","03","2","feedback","test","null","","","na","","151","",""
"567.8000001907349","316378","HierDych01kpvz","sub03","03","2","rl","test","68","img/r_t_dots.png","3","68","color,pattern,shape","152","1",""
"null","317389","HierDych01kpvz","sub03","03","2","feedback","test","null","","","na","","152","",""
"2067.4000000953674","319457","HierDych01kpvz","sub03","03","2","rl","test","76","img/p_c_dots.png","8","76","color,pattern,shape","153","1",""
"null","320464","HierDych01kpvz","sub03","03","2","feedback","test","null","","","na","","153","",""
"688.4000000953674","321153","HierDych01kpvz","sub03","03","2","rl","test","75","img/p_t_dots.png","7","75","color,pattern,shape","154","1",""
"null","322165","HierDych01kpvz","sub03","03","2","feedback","test","null","","","na","","154","",""
"535.7999997138977","322701","HierDych01kpvz","sub03","03","2","rl","test","72","img/p_t_diag.png","5","72","color,pattern,shape","155","1",""
"null","323707","HierDych01kpvz","sub03","03","2","feedback","test","null","","","na","","155","",""
"749.8000001907349","324458","HierDych01kpvz","sub03","03","2","rl","test","65","img/r_t_diag.png","1","65","color,pattern,shape","156","1",""
"null","325469","HierDych01kpvz","sub03","03","2","feedback","test","null","","","na","","156","",""
"598.2000002861023","326068","HierDych01kpvz","sub03","03","2","rl","test","72","img/p_t_diag.png","5","72","color,pattern,shape","157","1",""
"null","327076","HierDych01kpvz","sub03","03","2","feedback","test","null","","","na","","157","",""
"1529.2000002861023","328606","HierDych01kpvz","sub03","03","2","rl","test","83","img/p_c_diag.png","6","74","color,pattern,shape","158","0",""
"null","329610","HierDych01kpvz","sub03","03","2","feedback","test","null","","","na","","158","",""
"1091.4000000953674","330702","HierDych01kpvz","sub03","03","2","rl","test","74","img/r_c_diag.png","2","83","color,pattern,shape","159","0",""
"null","331708","HierDych01kpvz","sub03","03","2","feedback","test","null","","","na","","159","",""
"1892.5","333601","HierDych01kpvz","sub03","03","2","rl","test","70","img/r_c_dots.png","4","70","color,pattern,shape","160","1",""
"null","334608","HierDych01kpvz","sub03","03","2","feedback","test","null","","","na","","160","",""
"689.6999998092651","335299","HierDych01kpvz","sub03","03","2","rl","test","70","img/r_c_dots.png","4","70","color,pattern,shape","161","1",""
"null","336306","HierDych01kpvz","sub03","03","2","feedback","test","null","","","na","","161","",""
"990","337297","HierDych01kpvz","sub03","03","2","rl","test","83","img/r_c_diag.png","2","83","color,pattern,shape","162","1",""
"null","338304","HierDych01kpvz","sub03","03","2","feedback","test","null","","","na","","162","",""
"581.5999999046326","338887","HierDych01kpvz","sub03","03","2","rl","test","72","img/p_t_diag.png","5","72","color,pattern,shape","163","1",""
"null","339888","HierDych01kpvz","sub03","03","2","feedback","test","null","","","na","","163","",""
"2011.5999999046326","341901","HierDych01kpvz","sub03","03","2","rl","test","83","img/r_t_dots.png","3","68","color,pattern,shape","164","0",""
"null","342904","HierDych01kpvz","sub03","03","2","feedback","test","null","","","na","","164","",""
"1008","343913","HierDych01kpvz","sub03","03","2","rl","test","83","img/p_c_diag.png","6","74","color,pattern,shape","165","0",""
"null","344923","HierDych01kpvz","sub03","03","2","feedback","test","null","","","na","","165","",""
"845.2999997138977","345770","HierDych01kpvz","sub03","03","2","rl","test","65","img/r_t_diag.png","1","65","color,pattern,shape","166","1",""
"null","346776","HierDych01kpvz","sub03","03","2","feedback","test","null","","","na","","166","",""
"1108","347885","HierDych01kpvz","sub03","03","2","rl","test","65","img/r_t_diag.png","1","65","color,pattern,shape","167","1",""
"null","348890","HierDych01kpvz","sub03","03","2","feedback","test","null","","","na","","167","",""
"1502.7000002861023","350394","HierDych01kpvz","sub03","03","2","rl","test","76","img/p_c_dots.png","8","76","color,pattern,shape","168","1",""
"null","351395","HierDych01kpvz","sub03","03","2","feedback","test","null","","","na","","168","",""
"843.9000000953674","352240","HierDych01kpvz","sub03","03","2","rl","test","75","img/p_t_dots.png","7","75","color,pattern,shape","169","1",""
"null","353251","HierDych01kpvz","sub03","03","2","feedback","test","null","","","na","","169","",""
"635.5999999046326","353887","HierDych01kpvz","sub03","03","2","rl","test","74","img/p_c_diag.png","6","74","color,pattern,shape","170","1",""
"null","354891","HierDych01kpvz","sub03","03","2","feedback","test","null","","","na","","170","",""
"630.5","355522","HierDych01kpvz","sub03","03","2","rl","test","72","img/p_t_diag.png","5","72","color,pattern,shape","171","1",""
"null","356530","HierDych01kpvz","sub03","03","2","feedback","test","null","","","na","","171","",""
"1259.1999998092651","357790","HierDych01kpvz","sub03","03","2","rl","test","76","img/p_c_dots.png","8","76","color,pattern,shape","172","1",""
"null","358798","HierDych01kpvz","sub03","03","2","feedback","test","null","","","na","","172","",""
"1017.4000000953674","359816","HierDych01kpvz","sub03","03","2","rl","test","68","img/r_t_dots.png","3","68","color,pattern,shape","173","1",""
"null","360826","HierDych01kpvz","sub03","03","2","feedback","test","null","","","na","","173","",""
"1236.2999997138977","362063","HierDych01kpvz","sub03","03","2","rl","test","70","img/p_c_dots.png","8","76","color,pattern,shape","174","0",""
"null","363068","HierDych01kpvz","sub03","03","2","feedback","test","null","","","na","","174","",""
"953.7000002861023","364023","HierDych01kpvz","sub03","03","2","rl","test","75","img/p_t_dots.png","7","75","color,pattern,shape","175","1",""
"null","365028","HierDych01kpvz","sub03","03","2","feedback","test","null","","","na","","175","",""
"933","365962","HierDych01kpvz","sub03","03","2","rl","test","70","img/r_c_dots.png","4","70","color,pattern,shape","176","1",""
"null","366970","HierDych01kpvz","sub03","03","2","feedback","test","null","","","na","","176","",""
"786.1999998092651","367757","HierDych01kpvz","sub03","03","2","rl","test","68","img/r_c_diag.png","2","83","color,pattern,shape","177","0",""
"null","368761","HierDych01kpvz","sub03","03","2","feedback","test","null","","","na","","177","",""
"1616.5999999046326","370379","HierDych01kpvz","sub03","03","2","rl","test","75","img/p_t_dots.png","7","75","color,pattern,shape","178","1",""
"null","371390","HierDych01kpvz","sub03","03","2","feedback","test","null","","","na","","178","",""
"647.3000001907349","372038","HierDych01kpvz","sub03","03","2","rl","test","72","img/p_t_diag.png","5","72","color,pattern,shape","179","1",""
"null","373043","HierDych01kpvz","sub03","03","2","feedback","test","null","","","na","","179","",""
"997.1999998092651","374041","HierDych01kpvz","sub03","03","2","rl","test","68","img/r_t_dots.png","3","68","color,pattern,shape","180","1",""
"null","375052","HierDych01kpvz","sub03","03","2","feedback","test","null","","","na","","180","",""
"1959","377012","HierDych01kpvz","sub03","03","2","rl","test","74","img/p_c_diag.png","6","74","color,pattern,shape","181","1",""
"null","378019","HierDych01kpvz","sub03","03","2","feedback","test","null","","","na","","181","",""
"720.5999999046326","378740","HierDych01kpvz","sub03","03","2","rl","test","65","img/r_t_diag.png","1","65","color,pattern,shape","182","1",""
"null","379749","HierDych01kpvz","sub03","03","2","feedback","test","null","","","na","","182","",""
"960.9000000953674","380711","HierDych01kpvz","sub03","03","2","rl","test","83","img/r_c_diag.png","2","83","color,pattern,shape","183","1",""
"null","381716","HierDych01kpvz","sub03","03","2","feedback","test","null","","","na","","183","",""
"665.5","382382","HierDych01kpvz","sub03","03","2","rl","test","72","img/p_t_diag.png","5","72","color,pattern,shape","184","1",""
"null","383386","HierDych01kpvz","sub03","03","2","feedback","test","null","","","na","","184","",""
"1067.6999998092651","384455","HierDych01kpvz","sub03","03","2","rl","test","70","img/r_c_dots.png","4","70","color,pattern,shape","185","1",""
"null","385460","HierDych01kpvz","sub03","03","2","feedback","test","null","","","na","","185","",""
"606.8999996185303","386069","HierDych01kpvz","sub03","03","2","rl","test","65","img/r_t_diag.png","1","65","color,pattern,shape","186","1",""
"null","387074","HierDych01kpvz","sub03","03","2","feedback","test","null","","","na","","186","",""
"1090.1999998092651","388165","HierDych01kpvz","sub03","03","2","rl","test","68","img/r_c_dots.png","4","70","color,pattern,shape","187","0",""
"null","389169","HierDych01kpvz","sub03","03","2","feedback","test","null","","","na","","187","",""
"682.0999999046326","389852","HierDych01kpvz","sub03","03","2","rl","test","76","img/p_c_dots.png","8","76","color,pattern,shape","188","1",""
"null","390861","HierDych01kpvz","sub03","03","2","feedback","test","null","","","na","","188","",""
"972.0999999046326","391834","HierDych01kpvz","sub03","03","2","rl","test","68","img/p_t_dots.png","7","75","color,pattern,shape","189","0",""
"null","392843","HierDych01kpvz","sub03","03","2","feedback","test","null","","","na","","189","",""
"1663.8999996185303","394508","HierDych01kpvz","sub03","03","2","rl","test","68","img/r_t_dots.png","3","68","color,pattern,shape","190","1",""
"null","395515","HierDych01kpvz","sub03","03","2","feedback","test","null","","","na","","190","",""
"697.3000001907349","396213","HierDych01kpvz","sub03","03","2","rl","test","68","img/r_t_dots.png","3","68","color,pattern,shape","191","1",""
"null","397223","HierDych01kpvz","sub03","03","2","feedback","test","null","","","na","","191","",""
"781.7000002861023","398005","HierDych01kpvz","sub03","03","2","rl","test","74","img/p_c_diag.png","6","74","color,pattern,shape","192","1",""
"null","399012","HierDych01kpvz","sub03","03","2","feedback","test","null","","","na","","192","",""
"1029.5","400042","HierDych01kpvz","sub03","03","2","rl","test","83","img/r_c_diag.png","2","83","color,pattern,shape","193","1",""
"null","401053","HierDych01kpvz","sub03","03","2","feedback","test","null","","","na","","193","",""
"1101.3000001907349","402155","HierDych01kpvz","sub03","03","2","rl","test","65","img/r_t_diag.png","1","65","color,pattern,shape","194","1",""
"null","403163","HierDych01kpvz","sub03","03","2","feedback","test","null","","","na","","194","",""
"1153.9000000953674","404318","HierDych01kpvz","sub03","03","2","rl","test","74","img/p_c_diag.png","6","74","color,pattern,shape","195","1",""
"null","405325","HierDych01kpvz","sub03","03","2","feedback","test","null","","","na","","195","",""
"853.3000001907349","406179","HierDych01kpvz","sub03","03","2","rl","test","72","img/p_t_diag.png","5","72","color,pattern,shape","196","1",""
"null","407191","HierDych01kpvz","sub03","03","2","feedback","test","null","","","na","","196","",""
"1502.5","408694","HierDych01kpvz","sub03","03","2","rl","test","70","img/r_c_dots.png","4","70","color,pattern,shape","197","1",""
"null","409703","HierDych01kpvz","sub03","03","2","feedback","test","null","","","na","","197","",""
"832","410536","HierDych01kpvz","sub03","03","2","rl","test","83","img/r_c_diag.png","2","83","color,pattern,shape","198","1",""
"null","411542","HierDych01kpvz","sub03","03","2","feedback","test","null","","","na","","198","",""
"1162.9000000953674","412705","HierDych01kpvz","sub03","03","2","rl","test","76","img/p_c_dots.png","8","76","color,pattern,shape","199","1",""
"null","413715","HierDych01kpvz","sub03","03","2","feedback","test","null","","","na","","199","",""
"1091.7999997138977","414808","HierDych01kpvz","sub03","03","2","rl","test","65","img/r_t_diag.png","1","65","color,pattern,shape","200","1",""
"null","415812","HierDych01kpvz","sub03","03","2","feedback","test","null","","","na","","200","",""
"704.6000003814697","416517","HierDych01kpvz","sub03","03","2","rl","test","68","img/p_t_dots.png","7","75","color,pattern,shape","201","0",""
"null","417523","HierDych01kpvz","sub03","03","2","feedback","test","null","","","na","","201","",""
"523.5999999046326","418047","HierDych01kpvz","sub03","03","2","rl","test","75","img/p_t_dots.png","7","75","color,pattern,shape","202","1",""
"null","419051","HierDych01kpvz","sub03","03","2","feedback","test","null","","","na","","202","",""
"962.4000000953674","420014","HierDych01kpvz","sub03","03","2","rl","test","76","img/p_c_dots.png","8","76","color,pattern,shape","203","1",""
"null","421019","HierDych01kpvz","sub03","03","2","feedback","test","null","","","na","","203","",""
"1966.8999996185303","422987","HierDych01kpvz","sub03","03","2","rl","test","68","img/r_t_dots.png","3","68","color,pattern,shape","204","1",""
"null","423999","HierDych01kpvz","sub03","03","2","feedback","test","null","","","na","","204","",""
"648","424647","HierDych01kpvz","sub03","03","2","rl","test","72","img/p_t_diag.png","5","72","color,pattern,shape","205","1",""
"null","425651","HierDych01kpvz","sub03","03","2","feedback","test","null","","","na","","205","",""
"924.0999999046326","426576","HierDych01kpvz","sub03","03","2","rl","test","83","img/r_c_diag.png","2","83","color,pattern,shape","206","1",""
"null","427578","HierDych01kpvz","sub03","03","2","feedback","test","null","","","na","","206","",""
"602.4000000953674","428181","HierDych01kpvz","sub03","03","2","rl","test","72","img/p_t_diag.png","5","72","color,pattern,shape","207","1",""
"null","429190","HierDych01kpvz","sub03","03","2","feedback","test","null","","","na","","207","",""
"699.0999999046326","429890","HierDych01kpvz","sub03","03","2","rl","test","83","img/p_c_diag.png","6","74","color,pattern,shape","208","0",""
"null","430900","HierDych01kpvz","sub03","03","2","feedback","test","null","","","na","","208","",""
"1123.0999999046326","432024","HierDych01kpvz","sub03","03","2","rl","test","75","img/p_t_dots.png","7","75","color,pattern,shape","209","1",""
"null","433030","HierDych01kpvz","sub03","03","2","feedback","test","null","","","na","","209","",""
"814.7999997138977","433846","HierDych01kpvz","sub03","03","2","rl","test","70","img/r_c_dots.png","4","70","color,pattern,shape","210","1",""
"null","434851","HierDych01kpvz","sub03","03","2","feedback","test","null","","","na","","210","",""
"817.1000003814697","435669","HierDych01kpvz","sub03","03","2","rl","test","74","img/p_c_diag.png","6","74","color,pattern,shape","211","1",""
"null","436678","HierDych01kpvz","sub03","03","2","feedback","test","null","","","na","","211","",""
"836.0999999046326","437515","HierDych01kpvz","sub03","03","2","rl","test","76","img/p_c_dots.png","8","76","color,pattern,shape","212","1",""
"null","438526","HierDych01kpvz","sub03","03","2","feedback","test","null","","","na","","212","",""
"1130.7999997138977","439657","HierDych01kpvz","sub03","03","2","rl","test","70","img/r_c_dots.png","4","70","color,pattern,shape","213","1",""
"null","440661","HierDych01kpvz","sub03","03","2","feedback","test","null","","","na","","213","",""
"896.5","441558","HierDych01kpvz","sub03","03","2","rl","test","65","img/r_t_diag.png","1","65","color,pattern,shape","214","1",""
"null","442563","HierDych01kpvz","sub03","03","2","feedback","test","null","","","na","","214","",""
"1245.1999998092651","443809","HierDych01kpvz","sub03","03","2","rl","test","70","img/r_c_dots.png","4","70","color,pattern,shape","215","1",""
"null","444814","HierDych01kpvz","sub03","03","2","feedback","test","null","","","na","","215","",""
"1095.3999996185303","445911","HierDych01kpvz","sub03","03","2","rl","test","68","img/r_t_dots.png","3","68","color,pattern,shape","216","1",""
"null","446915","HierDych01kpvz","sub03","03","2","feedback","test","null","","","na","","216","",""
"724.9000000953674","447641","HierDych01kpvz","sub03","03","2","rl","test","68","img/r_t_dots.png","3","68","color,pattern,shape","217","1",""
"null","448646","HierDych01kpvz","sub03","03","2","feedback","test","null","","","na","","217","",""
"742.8999996185303","449390","HierDych01kpvz","sub03","03","2","rl","test","65","img/r_t_diag.png","1","65","color,pattern,shape","218","1",""
"null","450397","HierDych01kpvz","sub03","03","2","feedback","test","null","","","na","","218","",""
"737.4000000953674","451135","HierDych01kpvz","sub03","03","2","rl","test","83","img/r_c_diag.png","2","83","color,pattern,shape","219","1",""
"null","452140","HierDych01kpvz","sub03","03","2","feedback","test","null","","","na","","219","",""
"1182.6999998092651","453324","HierDych01kpvz","sub03","03","2","rl","test","83","img/r_c_diag.png","2","83","color,pattern,shape","220","1",""
"null","454335","HierDych01kpvz","sub03","03","2","feedback","test","null","","","na","","220","",""
"598","454934","HierDych01kpvz","sub03","03","2","rl","test","72","img/p_t_diag.png","5","72","color,pattern,shape","221","1",""
"null","455942","HierDych01kpvz","sub03","03","2","feedback","test","null","","","na","","221","",""
"603.5","456547","HierDych01kpvz","sub03","03","2","rl","test","76","img/p_c_dots.png","8","76","color,pattern,shape","222","1",""
"null","457561","HierDych01kpvz","sub03","03","2","feedback","test","null","","","na","","222","",""
"666.5999999046326","458228","HierDych01kpvz","sub03","03","2","rl","test","75","img/p_t_dots.png","7","75","color,pattern,shape","223","1",""
"null","459236","HierDych01kpvz","sub03","03","2","feedback","test","null","","","na","","223","",""
"884.9000000953674","460121","HierDych01kpvz","sub03","03","2","rl","test","65","img/r_t_diag.png","1","65","color,pattern,shape","224","1",""
"null","461126","HierDych01kpvz","sub03","03","2","feedback","test","null","","","na","","224","",""
"704.5999999046326","461831","HierDych01kpvz","sub03","03","2","rl","test","83","img/r_c_diag.png","2","83","color,pattern,shape","225","1",""
"null","462836","HierDych01kpvz","sub03","03","2","feedback","test","null","","","na","","225","",""
"779.6999998092651","463617","HierDych01kpvz","sub03","03","2","rl","test","74","img/p_c_diag.png","6","74","color,pattern,shape","226","1",""
"null","464621","HierDych01kpvz","sub03","03","2","feedback","test","null","","","na","","226","",""
"711","465333","HierDych01kpvz","sub03","03","2","rl","test","72","img/p_t_diag.png","5","72","color,pattern,shape","227","1",""
"null","466341","HierDych01kpvz","sub03","03","2","feedback","test","null","","","na","","227","",""
"828.5","467170","HierDych01kpvz","sub03","03","2","rl","test","74","img/p_c_diag.png","6","74","color,pattern,shape","228","1",""
"null","468172","HierDych01kpvz","sub03","03","2","feedback","test","null","","","na","","228","",""
"966.7000002861023","469140","HierDych01kpvz","sub03","03","2","rl","test","76","img/p_c_dots.png","8","76","color,pattern,shape","229","1",""
"null","470148","HierDych01kpvz","sub03","03","2","feedback","test","null","","","na","","229","",""
"1231.3999996185303","471380","HierDych01kpvz","sub03","03","2","rl","test","70","img/r_c_dots.png","4","70","color,pattern,shape","230","1",""
"null","472390","HierDych01kpvz","sub03","03","2","feedback","test","null","","","na","","230","",""
"963.3999996185303","473354","HierDych01kpvz","sub03","03","2","rl","test","75","img/p_t_dots.png","7","75","color,pattern,shape","231","1",""
"null","474359","HierDych01kpvz","sub03","03","2","feedback","test","null","","","na","","231","",""
"1327.3000001907349","475687","HierDych01kpvz","sub03","03","2","rl","test","68","img/r_t_dots.png","3","68","color,pattern,shape","232","1",""
"null","476693","HierDych01kpvz","sub03","03","2","feedback","test","null","","","na","","232","",""
"916","477611","HierDych01kpvz","sub03","03","2","rl","test","76","img/r_c_dots.png","4","70","color,pattern,shape","233","0",""
"null","478615","HierDych01kpvz","sub03","03","2","feedback","test","null","","","na","","233","",""
"2145.699999809265","480762","HierDych01kpvz","sub03","03","2","rl","test","83","img/r_c_diag.png","2","83","color,pattern,shape","234","1",""
"null","481765","HierDych01kpvz","sub03","03","2","feedback","test","null","","","na","","234","",""
"975.9000000953674","482742","HierDych01kpvz","sub03","03","2","rl","test","75","img/p_t_dots.png","7","75","color,pattern,shape","235","1",""
"null","483750","HierDych01kpvz","sub03","03","2","feedback","test","null","","","na","","235","",""
"723.3000001907349","484474","HierDych01kpvz","sub03","03","2","rl","test","76","img/p_c_dots.png","8","76","color,pattern,shape","236","1",""
"null","485479","HierDych01kpvz","sub03","03","2","feedback","test","null","","","na","","236","",""
"932.5","486412","HierDych01kpvz","sub03","03","2","rl","test","68","img/r_t_dots.png","3","68","color,pattern,shape","237","1",""
"null","487426","HierDych01kpvz","sub03","03","2","feedback","test","null","","","na","","237","",""
"1567.2999997138977","488994","HierDych01kpvz","sub03","03","2","rl","test","72","img/p_t_diag.png","5","72","color,pattern,shape","238","1",""
"null","490000","HierDych01kpvz","sub03","03","2","feedback","test","null","","","na","","238","",""
"713.1999998092651","490714","HierDych01kpvz","sub03","03","2","rl","test","65","img/r_t_diag.png","1","65","color,pattern,shape","239","1",""
"null","491718","HierDych01kpvz","sub03","03","2","feedback","test","null","","","na","","239","",""
"681.1000003814697","492400","HierDych01kpvz","sub03","03","2","rl","test","74","img/p_c_diag.png","6","74","color,pattern,shape","240","1",""
"null","493406","HierDych01kpvz","sub03","03","2","feedback","test","null","","","na","","240","",""
"575.7999997138977","493982","HierDych01kpvz","sub03","03","2","rl","test","72","img/p_t_diag.png","5","72","color,pattern,shape","241","1",""
"null","494991","HierDych01kpvz","sub03","03","2","feedback","test","null","","","na","","241","",""
"830.8000001907349","495823","HierDych01kpvz","sub03","03","2","rl","test","75","img/p_t_dots.png","7","75","color,pattern,shape","242","1",""
"null","496830","HierDych01kpvz","sub03","03","2","feedback","test","null","","","na","","242","",""
"987.8000001907349","497819","HierDych01kpvz","sub03","03","2","rl","test","83","img/r_c_diag.png","2","83","color,pattern,shape","243","1",""
"null","498822","HierDych01kpvz","sub03","03","2","feedback","test","null","","","na","","243","",""
"922","499745","HierDych01kpvz","sub03","03","2","rl","test","65","img/r_t_diag.png","1","65","color,pattern,shape","244","1",""
"null","500749","HierDych01kpvz","sub03","03","2","feedback","test","null","","","na","","244","",""
"1107.2999997138977","501858","HierDych01kpvz","sub03","03","2","rl","test","70","img/r_c_dots.png","4","70","color,pattern,shape","245","1",""
"null","502861","HierDych01kpvz","sub03","03","2","feedback","test","null","","","na","","245","",""
"922.4000000953674","503784","HierDych01kpvz","sub03","03","2","rl","test","76","img/p_c_dots.png","8","76","color,pattern,shape","246","1",""
"null","504792","HierDych01kpvz","sub03","03","2","feedback","test","null","","","na","","246","",""
"1235.9000000953674","506029","HierDych01kpvz","sub03","03","2","rl","test","83","img/r_c_diag.png","2","83","color,pattern,shape","247","1",""
"null","507039","HierDych01kpvz","sub03","03","2","feedback","test","null","","","na","","247","",""
"1071.4000000953674","508111","HierDych01kpvz","sub03","03","2","rl","test","74","img/p_c_diag.png","6","74","color,pattern,shape","248","1",""
"null","509118","HierDych01kpvz","sub03","03","2","feedback","test","null","","","na","","248","",""
"14625.699999809265","523762","HierDych01kpvz","sub03","03","2","","","","","","","","","","{""Q0"":""8""}"
"37088.90000009537","560853","HierDych01kpvz","sub03","03","2","","","","","","","","","","{""Q0"":""Memorizing the patter of the shapes and patterns then thinking \""purple on the right\"" to remember the colors""}"
"6144.699999809265","566999","HierDych01kpvz","sub03","03","2","","","","","","","","","",""
