"rt","time_elapsed","subject","subID","group","day","trialType","phase","key_press","stim","stimNum","corrresp","hierarchy","trialNum","corr","responses"
"1135.5","1138","HierDyqyd9vw33","sub24","12","07","","","","","","","","","",""
"","3093","HierDyqyd9vw33","sub24","12","07","fullscreen","","","","","","","","",""
"1055.699999999255","4151","HierDyqyd9vw33","sub24","12","07","","prac","","","","","","","",""
"2968.2999999988824","7123","HierDyqyd9vw33","sub24","12","07","","","32","","","","","","",""
"501.40000000037253","7626","HierDyqyd9vw33","sub24","12","07","","prac","","","","","","","",""
"1440.300000000745","9070","HierDyqyd9vw33","sub24","12","07","rl","test","83","img/r_t_check.png","2","83","shape,color,pattern","1","1",""
"null","10077","HierDyqyd9vw33","sub24","12","07","feedback","test","null","","","na","","1","",""
"1542.5","11622","HierDyqyd9vw33","sub24","12","07","rl","test","74","img/r_d_check.png","6","74","shape,color,pattern","2","1",""
"null","12628","HierDyqyd9vw33","sub24","12","07","feedback","test","null","","","na","","2","",""
"645.6999999992549","13276","HierDyqyd9vw33","sub24","12","07","rl","test","72","img/r_d_stripes.png","5","72","shape,color,pattern","3","1",""
"null","14284","HierDyqyd9vw33","sub24","12","07","feedback","test","null","","","na","","3","",""
"998.5","15285","HierDyqyd9vw33","sub24","12","07","rl","test","75","img/b_d_stripes.png","7","75","shape,color,pattern","4","1",""
"null","16296","HierDyqyd9vw33","sub24","12","07","feedback","test","null","","","na","","4","",""
"739.9000000003725","17038","HierDyqyd9vw33","sub24","12","07","rl","test","70","img/b_t_check.png","4","70","shape,color,pattern","5","1",""
"null","18046","HierDyqyd9vw33","sub24","12","07","feedback","test","null","","","na","","5","",""
"1269.0999999996275","19318","HierDyqyd9vw33","sub24","12","07","rl","test","68","img/b_t_stripes.png","3","68","shape,color,pattern","6","1",""
"null","20325","HierDyqyd9vw33","sub24","12","07","feedback","test","null","","","na","","6","",""
"773.4000000003725","21099","HierDyqyd9vw33","sub24","12","07","rl","test","65","img/r_t_stripes.png","1","65","shape,color,pattern","7","1",""
"null","22110","HierDyqyd9vw33","sub24","12","07","feedback","test","null","","","na","","7","",""
"1590.699999999255","23703","HierDyqyd9vw33","sub24","12","07","rl","test","76","img/b_d_check.png","8","76","shape,color,pattern","8","1",""
"null","24712","HierDyqyd9vw33","sub24","12","07","feedback","test","null","","","na","","8","",""
"1037.800000000745","25752","HierDyqyd9vw33","sub24","12","07","rl","test","70","img/b_t_stripes.png","3","68","shape,color,pattern","9","0",""
"null","26759","HierDyqyd9vw33","sub24","12","07","feedback","test","null","","","na","","9","",""
"1058.0999999996275","27820","HierDyqyd9vw33","sub24","12","07","rl","test","75","img/b_d_check.png","8","76","shape,color,pattern","10","0",""
"null","28832","HierDyqyd9vw33","sub24","12","07","feedback","test","null","","","na","","10","",""
"2075.300000000745","30909","HierDyqyd9vw33","sub24","12","07","rl","test","83","img/r_t_check.png","2","83","shape,color,pattern","11","1",""
"null","31918","HierDyqyd9vw33","sub24","12","07","feedback","test","null","","","na","","11","",""
"926.0999999996275","32846","HierDyqyd9vw33","sub24","12","07","rl","test","72","img/r_d_stripes.png","5","72","shape,color,pattern","12","1",""
"null","33855","HierDyqyd9vw33","sub24","12","07","feedback","test","null","","","na","","12","",""
"903","34761","HierDyqyd9vw33","sub24","12","07","rl","test","74","img/r_d_check.png","6","74","shape,color,pattern","13","1",""
"null","35765","HierDyqyd9vw33","sub24","12","07","feedback","test","null","","","na","","13","",""
"786.3000000007451","36553","HierDyqyd9vw33","sub24","12","07","rl","test","75","img/b_d_stripes.png","7","75","shape,color,pattern","14","1",""
"null","37561","HierDyqyd9vw33","sub24","12","07","feedback","test","null","","","na","","14","",""
"971.6999999992549","38535","HierDyqyd9vw33","sub24","12","07","rl","test","65","img/r_t_stripes.png","1","65","shape,color,pattern","15","1",""
"null","39544","HierDyqyd9vw33","sub24","12","07","feedback","test","null","","","na","","15","",""
"879.4000000003725","40425","HierDyqyd9vw33","sub24","12","07","rl","test","65","img/r_t_stripes.png","1","65","shape,color,pattern","16","1",""
"null","41433","HierDyqyd9vw33","sub24","12","07","feedback","test","null","","","na","","16","",""
"749.9000000003725","42185","HierDyqyd9vw33","sub24","12","07","rl","test","70","img/b_t_check.png","4","70","shape,color,pattern","17","1",""
"null","43192","HierDyqyd9vw33","sub24","12","07","feedback","test","null","","","na","","17","",""
"1328.0999999996275","44522","HierDyqyd9vw33","sub24","12","07","rl","test","75","img/b_d_stripes.png","7","75","shape,color,pattern","18","1",""
"null","45537","HierDyqyd9vw33","sub24","12","07","feedback","test","null","","","na","","18","",""
"824.8000000007451","46364","HierDyqyd9vw33","sub24","12","07","rl","test","74","img/r_d_check.png","6","74","shape,color,pattern","19","1",""
"null","47377","HierDyqyd9vw33","sub24","12","07","feedback","test","null","","","na","","19","",""
"781.6000000014901","48160","HierDyqyd9vw33","sub24","12","07","rl","test","70","img/b_t_check.png","4","70","shape,color,pattern","20","1",""
"null","49164","HierDyqyd9vw33","sub24","12","07","feedback","test","null","","","na","","20","",""
"686.6999999992549","49852","HierDyqyd9vw33","sub24","12","07","rl","test","68","img/b_t_stripes.png","3","68","shape,color,pattern","21","1",""
"null","50865","HierDyqyd9vw33","sub24","12","07","feedback","test","null","","","na","","21","",""
"655.6999999992549","51522","HierDyqyd9vw33","sub24","12","07","rl","test","70","img/b_t_check.png","4","70","shape,color,pattern","22","1",""
"null","52532","HierDyqyd9vw33","sub24","12","07","feedback","test","null","","","na","","22","",""
"1282","53815","HierDyqyd9vw33","sub24","12","07","rl","test","76","img/b_d_check.png","8","76","shape,color,pattern","23","1",""
"null","54825","HierDyqyd9vw33","sub24","12","07","feedback","test","null","","","na","","23","",""
"1392","56219","HierDyqyd9vw33","sub24","12","07","rl","test","83","img/r_t_check.png","2","83","shape,color,pattern","24","1",""
"null","57232","HierDyqyd9vw33","sub24","12","07","feedback","test","null","","","na","","24","",""
"1269.699999999255","58503","HierDyqyd9vw33","sub24","12","07","rl","test","75","img/b_d_stripes.png","7","75","shape,color,pattern","25","1",""
"null","59509","HierDyqyd9vw33","sub24","12","07","feedback","test","null","","","na","","25","",""
"1105.2000000011176","60616","HierDyqyd9vw33","sub24","12","07","rl","test","72","img/r_d_stripes.png","5","72","shape,color,pattern","26","1",""
"null","61622","HierDyqyd9vw33","sub24","12","07","feedback","test","null","","","na","","26","",""
"603.3999999985099","62227","HierDyqyd9vw33","sub24","12","07","rl","test","72","img/r_d_stripes.png","5","72","shape,color,pattern","27","1",""
"null","63236","HierDyqyd9vw33","sub24","12","07","feedback","test","null","","","na","","27","",""
"1043.4000000003725","64282","HierDyqyd9vw33","sub24","12","07","rl","test","76","img/b_d_check.png","8","76","shape,color,pattern","28","1",""
"null","65288","HierDyqyd9vw33","sub24","12","07","feedback","test","null","","","na","","28","",""
"774.1999999992549","66064","HierDyqyd9vw33","sub24","12","07","rl","test","68","img/b_t_stripes.png","3","68","shape,color,pattern","29","1",""
"null","67072","HierDyqyd9vw33","sub24","12","07","feedback","test","null","","","na","","29","",""
"890.4000000003725","67965","HierDyqyd9vw33","sub24","12","07","rl","test","83","img/r_t_check.png","2","83","shape,color,pattern","30","1",""
"null","68974","HierDyqyd9vw33","sub24","12","07","feedback","test","null","","","na","","30","",""
"581.0999999996275","69558","HierDyqyd9vw33","sub24","12","07","rl","test","65","img/r_t_stripes.png","1","65","shape,color,pattern","31","1",""
"null","70568","HierDyqyd9vw33","sub24","12","07","feedback","test","null","","","na","","31","",""
"1629.7000000011176","72200","HierDyqyd9vw33","sub24","12","07","rl","test","74","img/r_d_check.png","6","74","shape,color,pattern","32","1",""
"null","73208","HierDyqyd9vw33","sub24","12","07","feedback","test","null","","","na","","32","",""
"476.90000000037253","73687","HierDyqyd9vw33","sub24","12","07","rl","test","74","img/r_d_check.png","6","74","shape,color,pattern","33","1",""
"null","74694","HierDyqyd9vw33","sub24","12","07","feedback","test","null","","","na","","33","",""
"788.1999999992549","75484","HierDyqyd9vw33","sub24","12","07","rl","test","70","img/b_t_check.png","4","70","shape,color,pattern","34","1",""
"null","76492","HierDyqyd9vw33","sub24","12","07","feedback","test","null","","","na","","34","",""
"1723.9000000003725","78218","HierDyqyd9vw33","sub24","12","07","rl","test","76","img/b_d_check.png","8","76","shape,color,pattern","35","1",""
"null","79228","HierDyqyd9vw33","sub24","12","07","feedback","test","null","","","na","","35","",""
"704.1999999992549","79935","HierDyqyd9vw33","sub24","12","07","rl","test","72","img/r_d_stripes.png","5","72","shape,color,pattern","36","1",""
"null","80939","HierDyqyd9vw33","sub24","12","07","feedback","test","null","","","na","","36","",""
"980.5","81922","HierDyqyd9vw33","sub24","12","07","rl","test","75","img/b_d_stripes.png","7","75","shape,color,pattern","37","1",""
"null","82936","HierDyqyd9vw33","sub24","12","07","feedback","test","null","","","na","","37","",""
"2242.5999999996275","85181","HierDyqyd9vw33","sub24","12","07","rl","test","72","img/r_d_stripes.png","5","72","shape,color,pattern","38","1",""
"null","86190","HierDyqyd9vw33","sub24","12","07","feedback","test","null","","","na","","38","",""
"876.1999999992549","87068","HierDyqyd9vw33","sub24","12","07","rl","test","68","img/b_t_stripes.png","3","68","shape,color,pattern","39","1",""
"null","88079","HierDyqyd9vw33","sub24","12","07","feedback","test","null","","","na","","39","",""
"2004.9000000003725","90086","HierDyqyd9vw33","sub24","12","07","rl","test","76","img/b_d_check.png","8","76","shape,color,pattern","40","1",""
"null","91091","HierDyqyd9vw33","sub24","12","07","feedback","test","null","","","na","","40","",""
"1272.3999999985099","92366","HierDyqyd9vw33","sub24","12","07","rl","test","83","img/r_t_check.png","2","83","shape,color,pattern","41","1",""
"null","93372","HierDyqyd9vw33","sub24","12","07","feedback","test","null","","","na","","41","",""
"643.4000000003725","94017","HierDyqyd9vw33","sub24","12","07","rl","test","68","img/b_t_stripes.png","3","68","shape,color,pattern","42","1",""
"null","95030","HierDyqyd9vw33","sub24","12","07","feedback","test","null","","","na","","42","",""
"657","95689","HierDyqyd9vw33","sub24","12","07","rl","test","70","img/b_t_check.png","4","70","shape,color,pattern","43","1",""
"null","96704","HierDyqyd9vw33","sub24","12","07","feedback","test","null","","","na","","43","",""
"712.2999999988824","97418","HierDyqyd9vw33","sub24","12","07","rl","test","65","img/r_t_stripes.png","1","65","shape,color,pattern","44","1",""
"null","98432","HierDyqyd9vw33","sub24","12","07","feedback","test","null","","","na","","44","",""
"1138.4000000003725","99573","HierDyqyd9vw33","sub24","12","07","rl","test","83","img/r_t_check.png","2","83","shape,color,pattern","45","1",""
"null","100582","HierDyqyd9vw33","sub24","12","07","feedback","test","null","","","na","","45","",""
"1583.4000000003725","102168","HierDyqyd9vw33","sub24","12","07","rl","test","72","img/r_d_stripes.png","5","72","shape,color,pattern","46","1",""
"null","103172","HierDyqyd9vw33","sub24","12","07","feedback","test","null","","","na","","46","",""
"788.9000000003725","103963","HierDyqyd9vw33","sub24","12","07","rl","test","74","img/r_d_check.png","6","74","shape,color,pattern","47","1",""
"null","104972","HierDyqyd9vw33","sub24","12","07","feedback","test","null","","","na","","47","",""
"1332.5999999996275","106307","HierDyqyd9vw33","sub24","12","07","rl","test","65","img/r_t_stripes.png","1","65","shape,color,pattern","48","1",""
"null","107320","HierDyqyd9vw33","sub24","12","07","feedback","test","null","","","na","","48","",""
"null","109830","HierDyqyd9vw33","sub24","12","07","rl","test","null","img/r_d_check.png","6","74","shape,color,pattern","49","0",""
"null","110838","HierDyqyd9vw33","sub24","12","07","feedback","test","null","","","na","","49","",""
"818.0999999996275","111658","HierDyqyd9vw33","sub24","12","07","rl","test","76","img/b_d_check.png","8","76","shape,color,pattern","50","1",""
"null","112667","HierDyqyd9vw33","sub24","12","07","feedback","test","null","","","na","","50","",""
"582.7000000011176","113251","HierDyqyd9vw33","sub24","12","07","rl","test","75","img/b_d_stripes.png","7","75","shape,color,pattern","51","1",""
"null","114260","HierDyqyd9vw33","sub24","12","07","feedback","test","null","","","na","","51","",""
"1532","115794","HierDyqyd9vw33","sub24","12","07","rl","test","83","img/r_t_check.png","2","83","shape,color,pattern","52","1",""
"null","116807","HierDyqyd9vw33","sub24","12","07","feedback","test","null","","","na","","52","",""
"659.2999999988824","117469","HierDyqyd9vw33","sub24","12","07","rl","test","68","img/b_t_stripes.png","3","68","shape,color,pattern","53","1",""
"null","118477","HierDyqyd9vw33","sub24","12","07","feedback","test","null","","","na","","53","",""
"2451.800000000745","120931","HierDyqyd9vw33","sub24","12","07","rl","test","75","img/b_d_stripes.png","7","75","shape,color,pattern","54","1",""
"null","121941","HierDyqyd9vw33","sub24","12","07","feedback","test","null","","","na","","54","",""
"1241.4000000003725","123185","HierDyqyd9vw33","sub24","12","07","rl","test","74","img/r_d_check.png","6","74","shape,color,pattern","55","1",""
"null","124198","HierDyqyd9vw33","sub24","12","07","feedback","test","null","","","na","","55","",""
"867.1999999992549","125067","HierDyqyd9vw33","sub24","12","07","rl","test","70","img/b_t_check.png","4","70","shape,color,pattern","56","1",""
"null","126077","HierDyqyd9vw33","sub24","12","07","feedback","test","null","","","na","","56","",""
"666","126745","HierDyqyd9vw33","sub24","12","07","rl","test","70","img/b_t_check.png","4","70","shape,color,pattern","57","1",""
"null","127758","HierDyqyd9vw33","sub24","12","07","feedback","test","null","","","na","","57","",""
"708.1000000014901","128468","HierDyqyd9vw33","sub24","12","07","rl","test","65","img/r_t_stripes.png","1","65","shape,color,pattern","58","1",""
"null","129475","HierDyqyd9vw33","sub24","12","07","feedback","test","null","","","na","","58","",""
"1078.0999999996275","130555","HierDyqyd9vw33","sub24","12","07","rl","test","75","img/b_d_stripes.png","7","75","shape,color,pattern","59","1",""
"null","131567","HierDyqyd9vw33","sub24","12","07","feedback","test","null","","","na","","59","",""
"1002","132571","HierDyqyd9vw33","sub24","12","07","rl","test","65","img/r_t_stripes.png","1","65","shape,color,pattern","60","1",""
"null","133581","HierDyqyd9vw33","sub24","12","07","feedback","test","null","","","na","","60","",""
"2105.60000000149","135688","HierDyqyd9vw33","sub24","12","07","rl","test","74","img/r_d_stripes.png","5","72","shape,color,pattern","61","0",""
"null","136703","HierDyqyd9vw33","sub24","12","07","feedback","test","null","","","na","","61","",""
"1074.199999999255","137779","HierDyqyd9vw33","sub24","12","07","rl","test","68","img/b_t_stripes.png","3","68","shape,color,pattern","62","1",""
"null","138791","HierDyqyd9vw33","sub24","12","07","feedback","test","null","","","na","","62","",""
"1380.5999999996275","140174","HierDyqyd9vw33","sub24","12","07","rl","test","83","img/r_t_check.png","2","83","shape,color,pattern","63","1",""
"null","141180","HierDyqyd9vw33","sub24","12","07","feedback","test","null","","","na","","63","",""
"1400.5","142582","HierDyqyd9vw33","sub24","12","07","rl","test","76","img/b_d_check.png","8","76","shape,color,pattern","64","1",""
"null","143587","HierDyqyd9vw33","sub24","12","07","feedback","test","null","","","na","","64","",""
"700.2999999988824","144289","HierDyqyd9vw33","sub24","12","07","rl","test","76","img/b_d_check.png","8","76","shape,color,pattern","65","1",""
"null","145301","HierDyqyd9vw33","sub24","12","07","feedback","test","null","","","na","","65","",""
"849.7000000011176","146153","HierDyqyd9vw33","sub24","12","07","rl","test","72","img/r_d_stripes.png","5","72","shape,color,pattern","66","1",""
"null","147167","HierDyqyd9vw33","sub24","12","07","feedback","test","null","","","na","","66","",""
"641.6000000014901","147810","HierDyqyd9vw33","sub24","12","07","rl","test","74","img/r_d_check.png","6","74","shape,color,pattern","67","1",""
"null","148822","HierDyqyd9vw33","sub24","12","07","feedback","test","null","","","na","","67","",""
"759.9000000003725","149584","HierDyqyd9vw33","sub24","12","07","rl","test","68","img/b_t_stripes.png","3","68","shape,color,pattern","68","1",""
"null","150596","HierDyqyd9vw33","sub24","12","07","feedback","test","null","","","na","","68","",""
"1437.9000000003725","152036","HierDyqyd9vw33","sub24","12","07","rl","test","75","img/b_d_stripes.png","7","75","shape,color,pattern","69","1",""
"null","153042","HierDyqyd9vw33","sub24","12","07","feedback","test","null","","","na","","69","",""
"1254.800000000745","154299","HierDyqyd9vw33","sub24","12","07","rl","test","83","img/r_t_check.png","2","83","shape,color,pattern","70","1",""
"null","155311","HierDyqyd9vw33","sub24","12","07","feedback","test","null","","","na","","70","",""
"678.7999999988824","155992","HierDyqyd9vw33","sub24","12","07","rl","test","68","img/b_t_stripes.png","3","68","shape,color,pattern","71","1",""
"null","157007","HierDyqyd9vw33","sub24","12","07","feedback","test","null","","","na","","71","",""
"662.3999999985099","157671","HierDyqyd9vw33","sub24","12","07","rl","test","70","img/b_t_check.png","4","70","shape,color,pattern","72","1",""
"null","158674","HierDyqyd9vw33","sub24","12","07","feedback","test","null","","","na","","72","",""
"1439.199999999255","160115","HierDyqyd9vw33","sub24","12","07","rl","test","72","img/b_d_stripes.png","7","75","shape,color,pattern","73","0",""
"null","161122","HierDyqyd9vw33","sub24","12","07","feedback","test","null","","","na","","73","",""
"1252.199999999255","162376","HierDyqyd9vw33","sub24","12","07","rl","test","65","img/r_t_stripes.png","1","65","shape,color,pattern","74","1",""
"null","163388","HierDyqyd9vw33","sub24","12","07","feedback","test","null","","","na","","74","",""
"1633.300000000745","165023","HierDyqyd9vw33","sub24","12","07","rl","test","74","img/r_d_check.png","6","74","shape,color,pattern","75","1",""
"null","166038","HierDyqyd9vw33","sub24","12","07","feedback","test","null","","","na","","75","",""
"1331.6000000014901","167372","HierDyqyd9vw33","sub24","12","07","rl","test","83","img/r_t_check.png","2","83","shape,color,pattern","76","1",""
"null","168379","HierDyqyd9vw33","sub24","12","07","feedback","test","null","","","na","","76","",""
"1146.199999999255","169527","HierDyqyd9vw33","sub24","12","07","rl","test","70","img/b_t_check.png","4","70","shape,color,pattern","77","1",""
"null","170534","HierDyqyd9vw33","sub24","12","07","feedback","test","null","","","na","","77","",""
"1083.300000000745","171619","HierDyqyd9vw33","sub24","12","07","rl","test","72","img/r_d_stripes.png","5","72","shape,color,pattern","78","1",""
"null","172630","HierDyqyd9vw33","sub24","12","07","feedback","test","null","","","na","","78","",""
"1584.4000000003725","174216","HierDyqyd9vw33","sub24","12","07","rl","test","76","img/b_d_check.png","8","76","shape,color,pattern","79","1",""
"null","175226","HierDyqyd9vw33","sub24","12","07","feedback","test","null","","","na","","79","",""
"1487.9000000003725","176716","HierDyqyd9vw33","sub24","12","07","rl","test","83","img/r_t_check.png","2","83","shape,color,pattern","80","1",""
"null","177724","HierDyqyd9vw33","sub24","12","07","feedback","test","null","","","na","","80","",""
"917.8000000007451","178644","HierDyqyd9vw33","sub24","12","07","rl","test","65","img/r_t_stripes.png","1","65","shape,color,pattern","81","1",""
"null","179650","HierDyqyd9vw33","sub24","12","07","feedback","test","null","","","na","","81","",""
"1050.4000000003725","180703","HierDyqyd9vw33","sub24","12","07","rl","test","75","img/b_d_stripes.png","7","75","shape,color,pattern","82","1",""
"null","181709","HierDyqyd9vw33","sub24","12","07","feedback","test","null","","","na","","82","",""
"1018","182729","HierDyqyd9vw33","sub24","12","07","rl","test","65","img/r_t_stripes.png","1","65","shape,color,pattern","83","1",""
"null","183737","HierDyqyd9vw33","sub24","12","07","feedback","test","null","","","na","","83","",""
"823.0999999996275","184563","HierDyqyd9vw33","sub24","12","07","rl","test","68","img/b_t_stripes.png","3","68","shape,color,pattern","84","1",""
"null","185570","HierDyqyd9vw33","sub24","12","07","feedback","test","null","","","na","","84","",""
"573.0999999996275","186145","HierDyqyd9vw33","sub24","12","07","rl","test","70","img/b_t_check.png","4","70","shape,color,pattern","85","1",""
"null","187157","HierDyqyd9vw33","sub24","12","07","feedback","test","null","","","na","","85","",""
"1942.2000000011176","189102","HierDyqyd9vw33","sub24","12","07","rl","test","74","img/r_d_check.png","6","74","shape,color,pattern","86","1",""
"null","190110","HierDyqyd9vw33","sub24","12","07","feedback","test","null","","","na","","86","",""
"2034.0999999996275","192146","HierDyqyd9vw33","sub24","12","07","rl","test","68","img/b_t_stripes.png","3","68","shape,color,pattern","87","1",""
"null","193154","HierDyqyd9vw33","sub24","12","07","feedback","test","null","","","na","","87","",""
"1377.699999999255","194534","HierDyqyd9vw33","sub24","12","07","rl","test","72","img/r_d_stripes.png","5","72","shape,color,pattern","88","1",""
"null","195541","HierDyqyd9vw33","sub24","12","07","feedback","test","null","","","na","","88","",""
"622.1999999992549","196166","HierDyqyd9vw33","sub24","12","07","rl","test","72","img/r_d_stripes.png","5","72","shape,color,pattern","89","1",""
"null","197170","HierDyqyd9vw33","sub24","12","07","feedback","test","null","","","na","","89","",""
"815.5999999996275","197988","HierDyqyd9vw33","sub24","12","07","rl","test","76","img/b_d_check.png","8","76","shape,color,pattern","90","1",""
"null","198998","HierDyqyd9vw33","sub24","12","07","feedback","test","null","","","na","","90","",""
"881.6000000014901","199881","HierDyqyd9vw33","sub24","12","07","rl","test","74","img/r_d_check.png","6","74","shape,color,pattern","91","1",""
"null","200892","HierDyqyd9vw33","sub24","12","07","feedback","test","null","","","na","","91","",""
"1169.699999999255","202064","HierDyqyd9vw33","sub24","12","07","rl","test","76","img/b_d_check.png","8","76","shape,color,pattern","92","1",""
"null","203077","HierDyqyd9vw33","sub24","12","07","feedback","test","null","","","na","","92","",""
"1237.2000000011176","204317","HierDyqyd9vw33","sub24","12","07","rl","test","83","img/r_t_check.png","2","83","shape,color,pattern","93","1",""
"null","205325","HierDyqyd9vw33","sub24","12","07","feedback","test","null","","","na","","93","",""
"1530.6000000014901","206857","HierDyqyd9vw33","sub24","12","07","rl","test","75","img/b_d_stripes.png","7","75","shape,color,pattern","94","1",""
"null","207866","HierDyqyd9vw33","sub24","12","07","feedback","test","null","","","na","","94","",""
"779.5999999996275","208648","HierDyqyd9vw33","sub24","12","07","rl","test","72","img/r_d_stripes.png","5","72","shape,color,pattern","95","1",""
"null","209662","HierDyqyd9vw33","sub24","12","07","feedback","test","null","","","na","","95","",""
"1628.2999999988824","211292","HierDyqyd9vw33","sub24","12","07","rl","test","76","img/b_d_check.png","8","76","shape,color,pattern","96","1",""
"null","212301","HierDyqyd9vw33","sub24","12","07","feedback","test","null","","","na","","96","",""
"1098","213402","HierDyqyd9vw33","sub24","12","07","rl","test","70","img/b_t_check.png","4","70","shape,color,pattern","97","1",""
"null","214410","HierDyqyd9vw33","sub24","12","07","feedback","test","null","","","na","","97","",""
"836","215249","HierDyqyd9vw33","sub24","12","07","rl","test","65","img/r_t_stripes.png","1","65","shape,color,pattern","98","1",""
"null","216261","HierDyqyd9vw33","sub24","12","07","feedback","test","null","","","na","","98","",""
"655.4000000003725","216919","HierDyqyd9vw33","sub24","12","07","rl","test","65","img/r_t_stripes.png","1","65","shape,color,pattern","99","1",""
"null","217929","HierDyqyd9vw33","sub24","12","07","feedback","test","null","","","na","","99","",""
"638.5999999996275","218570","HierDyqyd9vw33","sub24","12","07","rl","test","70","img/b_t_check.png","4","70","shape,color,pattern","100","1",""
"null","219578","HierDyqyd9vw33","sub24","12","07","feedback","test","null","","","na","","100","",""
"1013.1999999992549","220594","HierDyqyd9vw33","sub24","12","07","rl","test","83","img/r_t_check.png","2","83","shape,color,pattern","101","1",""
"null","221604","HierDyqyd9vw33","sub24","12","07","feedback","test","null","","","na","","101","",""
"718.0999999996275","222325","HierDyqyd9vw33","sub24","12","07","rl","test","68","img/b_t_stripes.png","3","68","shape,color,pattern","102","1",""
"null","223333","HierDyqyd9vw33","sub24","12","07","feedback","test","null","","","na","","102","",""
"1751.4000000003725","225087","HierDyqyd9vw33","sub24","12","07","rl","test","75","img/b_d_stripes.png","7","75","shape,color,pattern","103","1",""
"null","226099","HierDyqyd9vw33","sub24","12","07","feedback","test","null","","","na","","103","",""
"693.3000000007451","226795","HierDyqyd9vw33","sub24","12","07","rl","test","74","img/r_d_check.png","6","74","shape,color,pattern","104","1",""
"null","227801","HierDyqyd9vw33","sub24","12","07","feedback","test","null","","","na","","104","",""
"1761","229564","HierDyqyd9vw33","sub24","12","07","rl","test","83","img/r_t_check.png","2","83","shape,color,pattern","105","1",""
"null","230571","HierDyqyd9vw33","sub24","12","07","feedback","test","null","","","na","","105","",""
"1795.800000000745","232369","HierDyqyd9vw33","sub24","12","07","rl","test","65","img/r_t_stripes.png","1","65","shape,color,pattern","106","1",""
"null","233381","HierDyqyd9vw33","sub24","12","07","feedback","test","null","","","na","","106","",""
"2124.7000000011176","235508","HierDyqyd9vw33","sub24","12","07","rl","test","74","img/r_d_check.png","6","74","shape,color,pattern","107","1",""
"null","236515","HierDyqyd9vw33","sub24","12","07","feedback","test","null","","","na","","107","",""
"1740.0999999996275","238257","HierDyqyd9vw33","sub24","12","07","rl","test","75","img/b_d_stripes.png","7","75","shape,color,pattern","108","1",""
"null","239265","HierDyqyd9vw33","sub24","12","07","feedback","test","null","","","na","","108","",""
"1156.300000000745","240423","HierDyqyd9vw33","sub24","12","07","rl","test","72","img/r_d_stripes.png","5","72","shape,color,pattern","109","1",""
"null","241433","HierDyqyd9vw33","sub24","12","07","feedback","test","null","","","na","","109","",""
"955","242390","HierDyqyd9vw33","sub24","12","07","rl","test","68","img/b_t_stripes.png","3","68","shape,color,pattern","110","1",""
"null","243397","HierDyqyd9vw33","sub24","12","07","feedback","test","null","","","na","","110","",""
"1096.4000000003725","244495","HierDyqyd9vw33","sub24","12","07","rl","test","76","img/b_d_check.png","8","76","shape,color,pattern","111","1",""
"null","245505","HierDyqyd9vw33","sub24","12","07","feedback","test","null","","","na","","111","",""
"1523.300000000745","247030","HierDyqyd9vw33","sub24","12","07","rl","test","83","img/r_t_check.png","2","83","shape,color,pattern","112","1",""
"null","248045","HierDyqyd9vw33","sub24","12","07","feedback","test","null","","","na","","112","",""
"1340.2000000011176","249387","HierDyqyd9vw33","sub24","12","07","rl","test","76","img/b_d_check.png","8","76","shape,color,pattern","113","1",""
"null","250393","HierDyqyd9vw33","sub24","12","07","feedback","test","null","","","na","","113","",""
"831.2000000011176","251226","HierDyqyd9vw33","sub24","12","07","rl","test","70","img/b_t_check.png","4","70","shape,color,pattern","114","1",""
"null","252233","HierDyqyd9vw33","sub24","12","07","feedback","test","null","","","na","","114","",""
"482.7999999988824","252718","HierDyqyd9vw33","sub24","12","07","rl","test","70","img/b_t_check.png","4","70","shape,color,pattern","115","1",""
"null","253729","HierDyqyd9vw33","sub24","12","07","feedback","test","null","","","na","","115","",""
"699.5999999996275","254430","HierDyqyd9vw33","sub24","12","07","rl","test","65","img/r_t_stripes.png","1","65","shape,color,pattern","116","1",""
"null","255445","HierDyqyd9vw33","sub24","12","07","feedback","test","null","","","na","","116","",""
"1132.699999999255","256579","HierDyqyd9vw33","sub24","12","07","rl","test","75","img/b_d_stripes.png","7","75","shape,color,pattern","117","1",""
"null","257587","HierDyqyd9vw33","sub24","12","07","feedback","test","null","","","na","","117","",""
"1459.300000000745","259049","HierDyqyd9vw33","sub24","12","07","rl","test","74","img/r_d_check.png","6","74","shape,color,pattern","118","1",""
"null","260058","HierDyqyd9vw33","sub24","12","07","feedback","test","null","","","na","","118","",""
"840.2000000011176","260900","HierDyqyd9vw33","sub24","12","07","rl","test","76","img/b_d_check.png","8","76","shape,color,pattern","119","1",""
"null","261908","HierDyqyd9vw33","sub24","12","07","feedback","test","null","","","na","","119","",""
"686.2999999988824","262597","HierDyqyd9vw33","sub24","12","07","rl","test","72","img/r_d_stripes.png","5","72","shape,color,pattern","120","1",""
"null","263600","HierDyqyd9vw33","sub24","12","07","feedback","test","null","","","na","","120","",""
"970.6999999992549","264573","HierDyqyd9vw33","sub24","12","07","rl","test","75","img/b_d_stripes.png","7","75","shape,color,pattern","121","1",""
"null","265576","HierDyqyd9vw33","sub24","12","07","feedback","test","null","","","na","","121","",""
"966.4000000003725","266545","HierDyqyd9vw33","sub24","12","07","rl","test","68","img/b_t_stripes.png","3","68","shape,color,pattern","122","1",""
"null","267554","HierDyqyd9vw33","sub24","12","07","feedback","test","null","","","na","","122","",""
"425.40000000037253","267981","HierDyqyd9vw33","sub24","12","07","rl","test","68","img/b_t_stripes.png","3","68","shape,color,pattern","123","1",""
"null","268984","HierDyqyd9vw33","sub24","12","07","feedback","test","null","","","na","","123","",""
"1686.7999999988824","270673","HierDyqyd9vw33","sub24","12","07","rl","test","65","img/r_t_stripes.png","1","65","shape,color,pattern","124","1",""
"null","271681","HierDyqyd9vw33","sub24","12","07","feedback","test","null","","","na","","124","",""
"751.5","272434","HierDyqyd9vw33","sub24","12","07","rl","test","70","img/b_t_check.png","4","70","shape,color,pattern","125","1",""
"null","273444","HierDyqyd9vw33","sub24","12","07","feedback","test","null","","","na","","125","",""
"1177.300000000745","274624","HierDyqyd9vw33","sub24","12","07","rl","test","74","img/r_d_check.png","6","74","shape,color,pattern","126","1",""
"null","275636","HierDyqyd9vw33","sub24","12","07","feedback","test","null","","","na","","126","",""
"2110.9000000003725","277749","HierDyqyd9vw33","sub24","12","07","rl","test","83","img/r_t_check.png","2","83","shape,color,pattern","127","1",""
"null","278764","HierDyqyd9vw33","sub24","12","07","feedback","test","null","","","na","","127","",""
"1656.2000000011176","280423","HierDyqyd9vw33","sub24","12","07","rl","test","74","img/r_d_check.png","6","74","shape,color,pattern","128","1",""
"null","281432","HierDyqyd9vw33","sub24","12","07","feedback","test","null","","","na","","128","",""
"615","282049","HierDyqyd9vw33","sub24","12","07","rl","test","72","img/r_d_stripes.png","5","72","shape,color,pattern","129","1",""
"null","283056","HierDyqyd9vw33","sub24","12","07","feedback","test","null","","","na","","129","",""
"705.5999999996275","283764","HierDyqyd9vw33","sub24","12","07","rl","test","70","img/b_t_check.png","4","70","shape,color,pattern","130","1",""
"null","284772","HierDyqyd9vw33","sub24","12","07","feedback","test","null","","","na","","130","",""
"680.5999999996275","285455","HierDyqyd9vw33","sub24","12","07","rl","test","65","img/r_t_stripes.png","1","65","shape,color,pattern","131","1",""
"null","286466","HierDyqyd9vw33","sub24","12","07","feedback","test","null","","","na","","131","",""
"1389","287857","HierDyqyd9vw33","sub24","12","07","rl","test","74","img/b_d_check.png","8","76","shape,color,pattern","132","0",""
"null","288868","HierDyqyd9vw33","sub24","12","07","feedback","test","null","","","na","","132","",""
"1352.4000000003725","290223","HierDyqyd9vw33","sub24","12","07","rl","test","83","img/r_t_check.png","2","83","shape,color,pattern","133","1",""
"null","291233","HierDyqyd9vw33","sub24","12","07","feedback","test","null","","","na","","133","",""
"1120.4000000003725","292356","HierDyqyd9vw33","sub24","12","07","rl","test","72","img/r_d_stripes.png","5","72","shape,color,pattern","134","1",""
"null","293359","HierDyqyd9vw33","sub24","12","07","feedback","test","null","","","na","","134","",""
"862.3999999985099","294224","HierDyqyd9vw33","sub24","12","07","rl","test","76","img/b_d_check.png","8","76","shape,color,pattern","135","1",""
"null","295234","HierDyqyd9vw33","sub24","12","07","feedback","test","null","","","na","","135","",""
"573.1999999992549","295809","HierDyqyd9vw33","sub24","12","07","rl","test","75","img/b_d_stripes.png","7","75","shape,color,pattern","136","1",""
"null","296818","HierDyqyd9vw33","sub24","12","07","feedback","test","null","","","na","","136","",""
"1080.4000000003725","297901","HierDyqyd9vw33","sub24","12","07","rl","test","68","img/b_t_stripes.png","3","68","shape,color,pattern","137","1",""
"null","298912","HierDyqyd9vw33","sub24","12","07","feedback","test","null","","","na","","137","",""
"824.5999999996275","299739","HierDyqyd9vw33","sub24","12","07","rl","test","65","img/r_t_stripes.png","1","65","shape,color,pattern","138","1",""
"null","300745","HierDyqyd9vw33","sub24","12","07","feedback","test","null","","","na","","138","",""
"1272","302019","HierDyqyd9vw33","sub24","12","07","rl","test","70","img/b_t_check.png","4","70","shape,color,pattern","139","1",""
"null","303024","HierDyqyd9vw33","sub24","12","07","feedback","test","null","","","na","","139","",""
"1241","304267","HierDyqyd9vw33","sub24","12","07","rl","test","74","img/r_d_check.png","6","74","shape,color,pattern","140","1",""
"null","305275","HierDyqyd9vw33","sub24","12","07","feedback","test","null","","","na","","140","",""
"989.9000000003725","306267","HierDyqyd9vw33","sub24","12","07","rl","test","68","img/b_t_stripes.png","3","68","shape,color,pattern","141","1",""
"null","307275","HierDyqyd9vw33","sub24","12","07","feedback","test","null","","","na","","141","",""
"1928.0999999996275","309205","HierDyqyd9vw33","sub24","12","07","rl","test","75","img/b_d_stripes.png","7","75","shape,color,pattern","142","1",""
"null","310219","HierDyqyd9vw33","sub24","12","07","feedback","test","null","","","na","","142","",""
"1389","311610","HierDyqyd9vw33","sub24","12","07","rl","test","83","img/r_t_check.png","2","83","shape,color,pattern","143","1",""
"null","312617","HierDyqyd9vw33","sub24","12","07","feedback","test","null","","","na","","143","",""
"1848.5","314467","HierDyqyd9vw33","sub24","12","07","rl","test","75","img/b_d_stripes.png","7","75","shape,color,pattern","144","1",""
"null","315474","HierDyqyd9vw33","sub24","12","07","feedback","test","null","","","na","","144","",""
"1657.5999999996275","317134","HierDyqyd9vw33","sub24","12","07","rl","test","72","img/r_d_stripes.png","5","72","shape,color,pattern","145","1",""
"null","318145","HierDyqyd9vw33","sub24","12","07","feedback","test","null","","","na","","145","",""
"526.6999999992549","318673","HierDyqyd9vw33","sub24","12","07","rl","test","72","img/r_d_stripes.png","5","72","shape,color,pattern","146","1",""
"null","319682","HierDyqyd9vw33","sub24","12","07","feedback","test","null","","","na","","146","",""
"1336.300000000745","321021","HierDyqyd9vw33","sub24","12","07","rl","test","65","img/r_t_stripes.png","1","65","shape,color,pattern","147","1",""
"null","322035","HierDyqyd9vw33","sub24","12","07","feedback","test","null","","","na","","147","",""
"null","324543","HierDyqyd9vw33","sub24","12","07","rl","test","null","img/b_d_check.png","8","76","shape,color,pattern","148","0",""
"null","325554","HierDyqyd9vw33","sub24","12","07","feedback","test","null","","","na","","148","",""
"1073.0999999996275","326629","HierDyqyd9vw33","sub24","12","07","rl","test","68","img/b_t_stripes.png","3","68","shape,color,pattern","149","1",""
"null","327639","HierDyqyd9vw33","sub24","12","07","feedback","test","null","","","na","","149","",""
"976.1000000014901","328617","HierDyqyd9vw33","sub24","12","07","rl","test","83","img/r_t_check.png","2","83","shape,color,pattern","150","1",""
"null","329623","HierDyqyd9vw33","sub24","12","07","feedback","test","null","","","na","","150","",""
"1672.699999999255","331298","HierDyqyd9vw33","sub24","12","07","rl","test","76","img/b_d_check.png","8","76","shape,color,pattern","151","1",""
"null","332305","HierDyqyd9vw33","sub24","12","07","feedback","test","null","","","na","","151","",""
"815.8999999985099","333123","HierDyqyd9vw33","sub24","12","07","rl","test","70","img/b_t_check.png","4","70","shape,color,pattern","152","1",""
"null","334126","HierDyqyd9vw33","sub24","12","07","feedback","test","null","","","na","","152","",""
"735.7000000011176","334864","HierDyqyd9vw33","sub24","12","07","rl","test","70","img/b_t_check.png","4","70","shape,color,pattern","153","1",""
"null","335874","HierDyqyd9vw33","sub24","12","07","feedback","test","null","","","na","","153","",""
"1134.7000000011176","337011","HierDyqyd9vw33","sub24","12","07","rl","test","74","img/r_d_check.png","6","74","shape,color,pattern","154","1",""
"null","338019","HierDyqyd9vw33","sub24","12","07","feedback","test","null","","","na","","154","",""
"1031.5999999996275","339053","HierDyqyd9vw33","sub24","12","07","rl","test","75","img/b_d_stripes.png","7","75","shape,color,pattern","155","1",""
"null","340066","HierDyqyd9vw33","sub24","12","07","feedback","test","null","","","na","","155","",""
"1425.3999999985099","341494","HierDyqyd9vw33","sub24","12","07","rl","test","83","img/r_t_check.png","2","83","shape,color,pattern","156","1",""
"null","342502","HierDyqyd9vw33","sub24","12","07","feedback","test","null","","","na","","156","",""
"1084.4000000003725","343589","HierDyqyd9vw33","sub24","12","07","rl","test","65","img/r_t_stripes.png","1","65","shape,color,pattern","157","1",""
"null","344603","HierDyqyd9vw33","sub24","12","07","feedback","test","null","","","na","","157","",""
"1565.4000000003725","346170","HierDyqyd9vw33","sub24","12","07","rl","test","74","img/r_d_check.png","6","74","shape,color,pattern","158","1",""
"null","347175","HierDyqyd9vw33","sub24","12","07","feedback","test","null","","","na","","158","",""
"1190.199999999255","348368","HierDyqyd9vw33","sub24","12","07","rl","test","65","img/r_t_stripes.png","1","65","shape,color,pattern","159","1",""
"null","349379","HierDyqyd9vw33","sub24","12","07","feedback","test","null","","","na","","159","",""
"1224","350605","HierDyqyd9vw33","sub24","12","07","rl","test","68","img/b_t_stripes.png","3","68","shape,color,pattern","160","1",""
"null","351617","HierDyqyd9vw33","sub24","12","07","feedback","test","null","","","na","","160","",""
"840.3000000007451","352460","HierDyqyd9vw33","sub24","12","07","rl","test","72","img/r_d_stripes.png","5","72","shape,color,pattern","161","1",""
"null","353471","HierDyqyd9vw33","sub24","12","07","feedback","test","null","","","na","","161","",""
"1098","354571","HierDyqyd9vw33","sub24","12","07","rl","test","83","img/r_t_check.png","2","83","shape,color,pattern","162","1",""
"null","355576","HierDyqyd9vw33","sub24","12","07","feedback","test","null","","","na","","162","",""
"1210.699999999255","356789","HierDyqyd9vw33","sub24","12","07","rl","test","68","img/b_t_stripes.png","3","68","shape,color,pattern","163","1",""
"null","357802","HierDyqyd9vw33","sub24","12","07","feedback","test","null","","","na","","163","",""
"1892.300000000745","359697","HierDyqyd9vw33","sub24","12","07","rl","test","72","img/r_d_stripes.png","5","72","shape,color,pattern","164","1",""
"null","360703","HierDyqyd9vw33","sub24","12","07","feedback","test","null","","","na","","164","",""
"1260.2000000011176","361965","HierDyqyd9vw33","sub24","12","07","rl","test","70","img/b_t_check.png","4","70","shape,color,pattern","165","1",""
"null","362975","HierDyqyd9vw33","sub24","12","07","feedback","test","null","","","na","","165","",""
"1467.7000000011176","364444","HierDyqyd9vw33","sub24","12","07","rl","test","76","img/b_d_check.png","8","76","shape,color,pattern","166","1",""
"null","365458","HierDyqyd9vw33","sub24","12","07","feedback","test","null","","","na","","166","",""
"731.3000000007451","366192","HierDyqyd9vw33","sub24","12","07","rl","test","75","img/b_d_stripes.png","7","75","shape,color,pattern","167","1",""
"null","367200","HierDyqyd9vw33","sub24","12","07","feedback","test","null","","","na","","167","",""
"1211.199999999255","368413","HierDyqyd9vw33","sub24","12","07","rl","test","74","img/r_d_check.png","6","74","shape,color,pattern","168","1",""
"null","369422","HierDyqyd9vw33","sub24","12","07","feedback","test","null","","","na","","168","",""
"437.69999999925494","369862","HierDyqyd9vw33","sub24","12","07","rl","test","72","img/r_d_stripes.png","5","72","shape,color,pattern","169","1",""
"null","370873","HierDyqyd9vw33","sub24","12","07","feedback","test","null","","","na","","169","",""
"1005.3000000007451","371881","HierDyqyd9vw33","sub24","12","07","rl","test","70","img/b_t_check.png","4","70","shape,color,pattern","170","1",""
"null","372889","HierDyqyd9vw33","sub24","12","07","feedback","test","null","","","na","","170","",""
"1774.9000000003725","374666","HierDyqyd9vw33","sub24","12","07","rl","test","75","img/b_d_stripes.png","7","75","shape,color,pattern","171","1",""
"null","375672","HierDyqyd9vw33","sub24","12","07","feedback","test","null","","","na","","171","",""
"921","376595","HierDyqyd9vw33","sub24","12","07","rl","test","68","img/b_t_stripes.png","3","68","shape,color,pattern","172","1",""
"null","377608","HierDyqyd9vw33","sub24","12","07","feedback","test","null","","","na","","172","",""
"1038.0999999996275","378648","HierDyqyd9vw33","sub24","12","07","rl","test","75","img/b_d_stripes.png","7","75","shape,color,pattern","173","1",""
"null","379658","HierDyqyd9vw33","sub24","12","07","feedback","test","null","","","na","","173","",""
"1614.699999999255","381275","HierDyqyd9vw33","sub24","12","07","rl","test","65","img/r_t_stripes.png","1","65","shape,color,pattern","174","1",""
"null","382290","HierDyqyd9vw33","sub24","12","07","feedback","test","null","","","na","","174","",""
"1078.5999999996275","383371","HierDyqyd9vw33","sub24","12","07","rl","test","83","img/r_t_check.png","2","83","shape,color,pattern","175","1",""
"null","384384","HierDyqyd9vw33","sub24","12","07","feedback","test","null","","","na","","175","",""
"1745.300000000745","386132","HierDyqyd9vw33","sub24","12","07","rl","test","74","img/r_d_check.png","6","74","shape,color,pattern","176","1",""
"null","387145","HierDyqyd9vw33","sub24","12","07","feedback","test","null","","","na","","176","",""
"1909.5999999996275","389056","HierDyqyd9vw33","sub24","12","07","rl","test","70","img/b_t_check.png","4","70","shape,color,pattern","177","1",""
"null","390064","HierDyqyd9vw33","sub24","12","07","feedback","test","null","","","na","","177","",""
"1610.5","391677","HierDyqyd9vw33","sub24","12","07","rl","test","76","img/b_d_check.png","8","76","shape,color,pattern","178","1",""
"null","392690","HierDyqyd9vw33","sub24","12","07","feedback","test","null","","","na","","178","",""
"566.2999999988824","393258","HierDyqyd9vw33","sub24","12","07","rl","test","76","img/b_d_check.png","8","76","shape,color,pattern","179","1",""
"null","394265","HierDyqyd9vw33","sub24","12","07","feedback","test","null","","","na","","179","",""
"962.2000000011176","395229","HierDyqyd9vw33","sub24","12","07","rl","test","72","img/r_d_stripes.png","5","72","shape,color,pattern","180","1",""
"null","396242","HierDyqyd9vw33","sub24","12","07","feedback","test","null","","","na","","180","",""
"757.2999999988824","397001","HierDyqyd9vw33","sub24","12","07","rl","test","68","img/b_t_stripes.png","3","68","shape,color,pattern","181","1",""
"null","398010","HierDyqyd9vw33","sub24","12","07","feedback","test","null","","","na","","181","",""
"656.6999999992549","398668","HierDyqyd9vw33","sub24","12","07","rl","test","65","img/r_t_stripes.png","1","65","shape,color,pattern","182","1",""
"null","399682","HierDyqyd9vw33","sub24","12","07","feedback","test","null","","","na","","182","",""
"1454.9000000003725","401139","HierDyqyd9vw33","sub24","12","07","rl","test","74","img/r_d_check.png","6","74","shape,color,pattern","183","1",""
"null","402149","HierDyqyd9vw33","sub24","12","07","feedback","test","null","","","na","","183","",""
"1592.300000000745","403743","HierDyqyd9vw33","sub24","12","07","rl","test","83","img/r_t_check.png","2","83","shape,color,pattern","184","1",""
"null","404750","HierDyqyd9vw33","sub24","12","07","feedback","test","null","","","na","","184","",""
"2015.9000000003725","406768","HierDyqyd9vw33","sub24","12","07","rl","test","74","img/r_d_check.png","6","74","shape,color,pattern","185","1",""
"null","407775","HierDyqyd9vw33","sub24","12","07","feedback","test","null","","","na","","185","",""
"995.8999999985099","408773","HierDyqyd9vw33","sub24","12","07","rl","test","68","img/b_t_stripes.png","3","68","shape,color,pattern","186","1",""
"null","409783","HierDyqyd9vw33","sub24","12","07","feedback","test","null","","","na","","186","",""
"1368.800000000745","411154","HierDyqyd9vw33","sub24","12","07","rl","test","75","img/b_d_stripes.png","7","75","shape,color,pattern","187","1",""
"null","412157","HierDyqyd9vw33","sub24","12","07","feedback","test","null","","","na","","187","",""
"1174.5","413334","HierDyqyd9vw33","sub24","12","07","rl","test","83","img/r_t_check.png","2","83","shape,color,pattern","188","1",""
"null","414343","HierDyqyd9vw33","sub24","12","07","feedback","test","null","","","na","","188","",""
"1636.5999999996275","415982","HierDyqyd9vw33","sub24","12","07","rl","test","76","img/b_d_check.png","8","76","shape,color,pattern","189","1",""
"null","416991","HierDyqyd9vw33","sub24","12","07","feedback","test","null","","","na","","189","",""
"785.5","417779","HierDyqyd9vw33","sub24","12","07","rl","test","70","img/b_t_check.png","4","70","shape,color,pattern","190","1",""
"null","418789","HierDyqyd9vw33","sub24","12","07","feedback","test","null","","","na","","190","",""
"1782.9000000003725","420574","HierDyqyd9vw33","sub24","12","07","rl","test","72","img/r_d_stripes.png","5","72","shape,color,pattern","191","1",""
"null","421583","HierDyqyd9vw33","sub24","12","07","feedback","test","null","","","na","","191","",""
"529.0999999996275","422115","HierDyqyd9vw33","sub24","12","07","rl","test","72","img/r_d_stripes.png","5","72","shape,color,pattern","192","1",""
"null","423129","HierDyqyd9vw33","sub24","12","07","feedback","test","null","","","na","","192","",""
"1539.4000000003725","424671","HierDyqyd9vw33","sub24","12","07","rl","test","83","img/b_t_check.png","4","70","shape,color,pattern","193","0",""
"null","425680","HierDyqyd9vw33","sub24","12","07","feedback","test","null","","","na","","193","",""
"1927.5","427609","HierDyqyd9vw33","sub24","12","07","rl","test","65","img/r_t_stripes.png","1","65","shape,color,pattern","194","1",""
"null","428612","HierDyqyd9vw33","sub24","12","07","feedback","test","null","","","na","","194","",""
"1792.7999999988824","430407","HierDyqyd9vw33","sub24","12","07","rl","test","76","img/b_d_check.png","8","76","shape,color,pattern","195","1",""
"null","431416","HierDyqyd9vw33","sub24","12","07","feedback","test","null","","","na","","195","",""
"938.2000000011176","432357","HierDyqyd9vw33","sub24","12","07","rl","test","68","img/b_t_stripes.png","3","68","shape,color,pattern","196","1",""
"null","433369","HierDyqyd9vw33","sub24","12","07","feedback","test","null","","","na","","196","",""
"703.0999999996275","434074","HierDyqyd9vw33","sub24","12","07","rl","test","65","img/r_t_stripes.png","1","65","shape,color,pattern","197","1",""
"null","435085","HierDyqyd9vw33","sub24","12","07","feedback","test","null","","","na","","197","",""
"1583.5","436671","HierDyqyd9vw33","sub24","12","07","rl","test","74","img/r_d_check.png","6","74","shape,color,pattern","198","1",""
"null","437677","HierDyqyd9vw33","sub24","12","07","feedback","test","null","","","na","","198","",""
"1786.5","439466","HierDyqyd9vw33","sub24","12","07","rl","test","83","img/r_t_check.png","2","83","shape,color,pattern","199","1",""
"null","440479","HierDyqyd9vw33","sub24","12","07","feedback","test","null","","","na","","199","",""
"675.9000000003725","441157","HierDyqyd9vw33","sub24","12","07","rl","test","83","img/r_t_check.png","2","83","shape,color,pattern","200","1",""
"null","442165","HierDyqyd9vw33","sub24","12","07","feedback","test","null","","","na","","200","",""
"1279.6000000014901","443447","HierDyqyd9vw33","sub24","12","07","rl","test","75","img/b_d_stripes.png","7","75","shape,color,pattern","201","1",""
"null","444456","HierDyqyd9vw33","sub24","12","07","feedback","test","null","","","na","","201","",""
"612.1999999992549","445071","HierDyqyd9vw33","sub24","12","07","rl","test","76","img/b_d_check.png","8","76","shape,color,pattern","202","1",""
"null","446081","HierDyqyd9vw33","sub24","12","07","feedback","test","null","","","na","","202","",""
"511.8999999985099","446595","HierDyqyd9vw33","sub24","12","07","rl","test","75","img/b_d_stripes.png","7","75","shape,color,pattern","203","1",""
"null","447608","HierDyqyd9vw33","sub24","12","07","feedback","test","null","","","na","","203","",""
"1403.5","449014","HierDyqyd9vw33","sub24","12","07","rl","test","68","img/b_t_stripes.png","3","68","shape,color,pattern","204","1",""
"null","450024","HierDyqyd9vw33","sub24","12","07","feedback","test","null","","","na","","204","",""
"1418.7000000011176","451445","HierDyqyd9vw33","sub24","12","07","rl","test","74","img/r_d_check.png","6","74","shape,color,pattern","205","1",""
"null","452453","HierDyqyd9vw33","sub24","12","07","feedback","test","null","","","na","","205","",""
"524.0999999996275","452980","HierDyqyd9vw33","sub24","12","07","rl","test","72","img/r_d_stripes.png","5","72","shape,color,pattern","206","1",""
"null","453990","HierDyqyd9vw33","sub24","12","07","feedback","test","null","","","na","","206","",""
"695","454687","HierDyqyd9vw33","sub24","12","07","rl","test","75","img/b_d_stripes.png","7","75","shape,color,pattern","207","1",""
"null","455694","HierDyqyd9vw33","sub24","12","07","feedback","test","null","","","na","","207","",""
"966.8999999985099","456664","HierDyqyd9vw33","sub24","12","07","rl","test","70","img/b_t_check.png","4","70","shape,color,pattern","208","1",""
"null","457672","HierDyqyd9vw33","sub24","12","07","feedback","test","null","","","na","","208","",""
"533.5999999996275","458208","HierDyqyd9vw33","sub24","12","07","rl","test","70","img/b_t_check.png","4","70","shape,color,pattern","209","1",""
"null","459213","HierDyqyd9vw33","sub24","12","07","feedback","test","null","","","na","","209","",""
"843.9000000003725","460060","HierDyqyd9vw33","sub24","12","07","rl","test","65","img/r_t_stripes.png","1","65","shape,color,pattern","210","1",""
"null","461070","HierDyqyd9vw33","sub24","12","07","feedback","test","null","","","na","","210","",""
"2010.7000000011176","463082","HierDyqyd9vw33","sub24","12","07","rl","test","72","img/r_d_stripes.png","5","72","shape,color,pattern","211","1",""
"null","464093","HierDyqyd9vw33","sub24","12","07","feedback","test","null","","","na","","211","",""
"1881.2000000011176","465976","HierDyqyd9vw33","sub24","12","07","rl","test","83","img/r_t_check.png","2","83","shape,color,pattern","212","1",""
"null","466982","HierDyqyd9vw33","sub24","12","07","feedback","test","null","","","na","","212","",""
"2109.300000000745","469094","HierDyqyd9vw33","sub24","12","07","rl","test","74","img/r_d_check.png","6","74","shape,color,pattern","213","1",""
"null","470102","HierDyqyd9vw33","sub24","12","07","feedback","test","null","","","na","","213","",""
"1266.199999999255","471371","HierDyqyd9vw33","sub24","12","07","rl","test","65","img/r_t_stripes.png","1","65","shape,color,pattern","214","1",""
"null","472383","HierDyqyd9vw33","sub24","12","07","feedback","test","null","","","na","","214","",""
"960.8000000007451","473346","HierDyqyd9vw33","sub24","12","07","rl","test","70","img/b_t_check.png","4","70","shape,color,pattern","215","1",""
"null","474359","HierDyqyd9vw33","sub24","12","07","feedback","test","null","","","na","","215","",""
"null","476871","HierDyqyd9vw33","sub24","12","07","rl","test","null","img/b_d_check.png","8","76","shape,color,pattern","216","0",""
"null","477878","HierDyqyd9vw33","sub24","12","07","feedback","test","null","","","na","","216","",""
"1036.5","478916","HierDyqyd9vw33","sub24","12","07","rl","test","68","img/b_t_stripes.png","3","68","shape,color,pattern","217","1",""
"null","479925","HierDyqyd9vw33","sub24","12","07","feedback","test","null","","","na","","217","",""
"456.90000000037253","480384","HierDyqyd9vw33","sub24","12","07","rl","test","76","img/b_d_check.png","8","76","shape,color,pattern","218","1",""
"null","481388","HierDyqyd9vw33","sub24","12","07","feedback","test","null","","","na","","218","",""
"556.0999999996275","481946","HierDyqyd9vw33","sub24","12","07","rl","test","65","img/r_t_stripes.png","1","65","shape,color,pattern","219","1",""
"null","482960","HierDyqyd9vw33","sub24","12","07","feedback","test","null","","","na","","219","",""
"831.7999999988824","483794","HierDyqyd9vw33","sub24","12","07","rl","test","72","img/r_d_stripes.png","5","72","shape,color,pattern","220","1",""
"null","484808","HierDyqyd9vw33","sub24","12","07","feedback","test","null","","","na","","220","",""
"665.7999999988824","485476","HierDyqyd9vw33","sub24","12","07","rl","test","68","img/b_t_stripes.png","3","68","shape,color,pattern","221","1",""
"null","486487","HierDyqyd9vw33","sub24","12","07","feedback","test","null","","","na","","221","",""
"1051.4000000003725","487541","HierDyqyd9vw33","sub24","12","07","rl","test","75","img/b_d_stripes.png","7","75","shape,color,pattern","222","1",""
"null","488549","HierDyqyd9vw33","sub24","12","07","feedback","test","null","","","na","","222","",""
"743.6999999992549","489295","HierDyqyd9vw33","sub24","12","07","rl","test","74","img/r_d_check.png","6","74","shape,color,pattern","223","1",""
"null","490303","HierDyqyd9vw33","sub24","12","07","feedback","test","null","","","na","","223","",""
"1121","491427","HierDyqyd9vw33","sub24","12","07","rl","test","68","img/b_t_stripes.png","3","68","shape,color,pattern","224","1",""
"null","492439","HierDyqyd9vw33","sub24","12","07","feedback","test","null","","","na","","224","",""
"742.5999999996275","493184","HierDyqyd9vw33","sub24","12","07","rl","test","65","img/r_t_stripes.png","1","65","shape,color,pattern","225","1",""
"null","494192","HierDyqyd9vw33","sub24","12","07","feedback","test","null","","","na","","225","",""
"1040.5","495234","HierDyqyd9vw33","sub24","12","07","rl","test","83","img/r_t_check.png","2","83","shape,color,pattern","226","1",""
"null","496246","HierDyqyd9vw33","sub24","12","07","feedback","test","null","","","na","","226","",""
"1112","497361","HierDyqyd9vw33","sub24","12","07","rl","test","70","img/b_t_check.png","4","70","shape,color,pattern","227","1",""
"null","498372","HierDyqyd9vw33","sub24","12","07","feedback","test","null","","","na","","227","",""
"1037.0999999996275","499411","HierDyqyd9vw33","sub24","12","07","rl","test","72","img/r_d_stripes.png","5","72","shape,color,pattern","228","1",""
"null","500421","HierDyqyd9vw33","sub24","12","07","feedback","test","null","","","na","","228","",""
"929.0999999996275","501352","HierDyqyd9vw33","sub24","12","07","rl","test","75","img/b_d_stripes.png","7","75","shape,color,pattern","229","1",""
"null","502363","HierDyqyd9vw33","sub24","12","07","feedback","test","null","","","na","","229","",""
"1192.2000000011176","503557","HierDyqyd9vw33","sub24","12","07","rl","test","72","img/r_d_stripes.png","5","72","shape,color,pattern","230","1",""
"null","504563","HierDyqyd9vw33","sub24","12","07","feedback","test","null","","","na","","230","",""
"1683.300000000745","506249","HierDyqyd9vw33","sub24","12","07","rl","test","83","img/r_t_check.png","2","83","shape,color,pattern","231","1",""
"null","507262","HierDyqyd9vw33","sub24","12","07","feedback","test","null","","","na","","231","",""
"2142.5","509406","HierDyqyd9vw33","sub24","12","07","rl","test","74","img/r_d_check.png","6","74","shape,color,pattern","232","1",""
"null","510412","HierDyqyd9vw33","sub24","12","07","feedback","test","null","","","na","","232","",""
"1094.0999999996275","511508","HierDyqyd9vw33","sub24","12","07","rl","test","76","img/b_d_check.png","8","76","shape,color,pattern","233","1",""
"null","512517","HierDyqyd9vw33","sub24","12","07","feedback","test","null","","","na","","233","",""
"553.0999999996275","513072","HierDyqyd9vw33","sub24","12","07","rl","test","76","img/b_d_check.png","8","76","shape,color,pattern","234","1",""
"null","514078","HierDyqyd9vw33","sub24","12","07","feedback","test","null","","","na","","234","",""
"828.5999999996275","514909","HierDyqyd9vw33","sub24","12","07","rl","test","75","img/b_d_stripes.png","7","75","shape,color,pattern","235","1",""
"null","515915","HierDyqyd9vw33","sub24","12","07","feedback","test","null","","","na","","235","",""
"1207.9000000003725","517126","HierDyqyd9vw33","sub24","12","07","rl","test","65","img/r_t_stripes.png","1","65","shape,color,pattern","236","1",""
"null","518133","HierDyqyd9vw33","sub24","12","07","feedback","test","null","","","na","","236","",""
"796.8999999985099","518932","HierDyqyd9vw33","sub24","12","07","rl","test","70","img/b_t_check.png","4","70","shape,color,pattern","237","1",""
"null","519938","HierDyqyd9vw33","sub24","12","07","feedback","test","null","","","na","","237","",""
"1024.199999999255","520965","HierDyqyd9vw33","sub24","12","07","rl","test","75","img/b_d_stripes.png","7","75","shape,color,pattern","238","1",""
"null","521975","HierDyqyd9vw33","sub24","12","07","feedback","test","null","","","na","","238","",""
"1536.7000000011176","523514","HierDyqyd9vw33","sub24","12","07","rl","test","68","img/b_t_stripes.png","3","68","shape,color,pattern","239","1",""
"null","524527","HierDyqyd9vw33","sub24","12","07","feedback","test","null","","","na","","239","",""
"1206","525735","HierDyqyd9vw33","sub24","12","07","rl","test","74","img/r_d_check.png","6","74","shape,color,pattern","240","1",""
"null","526739","HierDyqyd9vw33","sub24","12","07","feedback","test","null","","","na","","240","",""
"1350.9000000003725","528092","HierDyqyd9vw33","sub24","12","07","rl","test","83","img/r_t_check.png","2","83","shape,color,pattern","241","1",""
"null","529098","HierDyqyd9vw33","sub24","12","07","feedback","test","null","","","na","","241","",""
"1083.4000000003725","530184","HierDyqyd9vw33","sub24","12","07","rl","test","68","img/b_t_stripes.png","3","68","shape,color,pattern","242","1",""
"null","531196","HierDyqyd9vw33","sub24","12","07","feedback","test","null","","","na","","242","",""
"1695.5","532894","HierDyqyd9vw33","sub24","12","07","rl","test","65","img/r_t_stripes.png","1","65","shape,color,pattern","243","1",""
"null","533903","HierDyqyd9vw33","sub24","12","07","feedback","test","null","","","na","","243","",""
"1227.699999999255","535133","HierDyqyd9vw33","sub24","12","07","rl","test","74","img/r_d_check.png","6","74","shape,color,pattern","244","1",""
"null","536143","HierDyqyd9vw33","sub24","12","07","feedback","test","null","","","na","","244","",""
"609.1999999992549","536754","HierDyqyd9vw33","sub24","12","07","rl","test","72","img/r_d_stripes.png","5","72","shape,color,pattern","245","1",""
"null","537763","HierDyqyd9vw33","sub24","12","07","feedback","test","null","","","na","","245","",""
"1718.699999999255","539484","HierDyqyd9vw33","sub24","12","07","rl","test","83","img/r_t_check.png","2","83","shape,color,pattern","246","1",""
"null","540493","HierDyqyd9vw33","sub24","12","07","feedback","test","null","","","na","","246","",""
"2317","542812","HierDyqyd9vw33","sub24","12","07","rl","test","76","img/b_d_check.png","8","76","shape,color,pattern","247","1",""
"null","543820","HierDyqyd9vw33","sub24","12","07","feedback","test","null","","","na","","247","",""
"821.9000000003725","544644","HierDyqyd9vw33","sub24","12","07","rl","test","70","img/b_t_check.png","4","70","shape,color,pattern","248","1",""
"null","545652","HierDyqyd9vw33","sub24","12","07","feedback","test","null","","","na","","248","",""
"7250.4000000003725","552908","HierDyqyd9vw33","sub24","12","07","","","","","","","","","","{""Q0"":""8""}"
"19978.900000000373","572890","HierDyqyd9vw33","sub24","12","07","","","","","","","","","","{""Q0"":""I looked at the shapes and tried to remember the correct response as quickly as I could""}"
"1459.0999999996275","574350","HierDyqyd9vw33","sub24","12","07","","","","","","","","","",""
