"rt","time_elapsed","subject","subID","group","day","trialType","phase","key_press","stim","stimNum","corrresp","hierarchy","trialNum","corr","responses"
"4337","4339","HierDy3xk5vwgv","sub05","05","4","","","","","","","","","",""
"","10606","HierDy3xk5vwgv","sub05","05","4","fullscreen","","","","","","","","",""
"1620","12228","HierDy3xk5vwgv","sub05","05","4","","prac","","","","","","","",""
"905","13137","HierDy3xk5vwgv","sub05","05","4","","","32","","","","","","",""
"2310","15448","HierDy3xk5vwgv","sub05","05","4","","prac","","","","","","","",""
"2013","17464","HierDy3xk5vwgv","sub05","05","4","rl","test","83","img/p_c_diag.png","2","83","pattern,shape,color","1","1",""
"null","18468","HierDy3xk5vwgv","sub05","05","4","feedback","test","null","","","na","","1","",""
"943","19414","HierDy3xk5vwgv","sub05","05","4","rl","test","76","img/b_d_dots.png","7","75","pattern,shape,color","2","0",""
"null","20417","HierDy3xk5vwgv","sub05","05","4","feedback","test","null","","","na","","2","",""
"2448","22867","HierDy3xk5vwgv","sub05","05","4","rl","test","75","img/p_c_dots.png","6","74","pattern,shape,color","3","0",""
"null","23871","HierDy3xk5vwgv","sub05","05","4","feedback","test","null","","","na","","3","",""
"946","24820","HierDy3xk5vwgv","sub05","05","4","rl","test","68","img/b_d_diag.png","3","68","pattern,shape,color","4","1",""
"null","25822","HierDy3xk5vwgv","sub05","05","4","feedback","test","null","","","na","","4","",""
"1005","26829","HierDy3xk5vwgv","sub05","05","4","rl","test","65","img/b_c_diag.png","1","65","pattern,shape,color","5","1",""
"null","27833","HierDy3xk5vwgv","sub05","05","4","feedback","test","null","","","na","","5","",""
"1427","29262","HierDy3xk5vwgv","sub05","05","4","rl","test","70","img/p_d_diag.png","4","70","pattern,shape,color","6","1",""
"null","30266","HierDy3xk5vwgv","sub05","05","4","feedback","test","null","","","na","","6","",""
"944.9999999999964","31213","HierDy3xk5vwgv","sub05","05","4","rl","test","74","img/p_c_dots.png","6","74","pattern,shape,color","7","1",""
"null","32216","HierDy3xk5vwgv","sub05","05","4","feedback","test","null","","","na","","7","",""
"null","34720","HierDy3xk5vwgv","sub05","05","4","rl","test","null","img/p_d_dots.png","8","76","pattern,shape,color","8","0",""
"null","35723","HierDy3xk5vwgv","sub05","05","4","feedback","test","null","","","na","","8","",""
"845","36571","HierDy3xk5vwgv","sub05","05","4","rl","test","72","img/b_c_dots.png","5","72","pattern,shape,color","9","1",""
"null","37575","HierDy3xk5vwgv","sub05","05","4","feedback","test","null","","","na","","9","",""
"1209","38787","HierDy3xk5vwgv","sub05","05","4","rl","test","68","img/b_d_diag.png","3","68","pattern,shape,color","10","1",""
"null","39790","HierDy3xk5vwgv","sub05","05","4","feedback","test","null","","","na","","10","",""
"1648","41439","HierDy3xk5vwgv","sub05","05","4","rl","test","72","img/b_c_dots.png","5","72","pattern,shape,color","11","1",""
"null","42442","HierDy3xk5vwgv","sub05","05","4","feedback","test","null","","","na","","11","",""
"969","43414","HierDy3xk5vwgv","sub05","05","4","rl","test","83","img/p_c_diag.png","2","83","pattern,shape,color","12","1",""
"null","44417","HierDy3xk5vwgv","sub05","05","4","feedback","test","null","","","na","","12","",""
"832","45252","HierDy3xk5vwgv","sub05","05","4","rl","test","68","img/b_d_diag.png","3","68","pattern,shape,color","13","1",""
"null","46255","HierDy3xk5vwgv","sub05","05","4","feedback","test","null","","","na","","13","",""
"1485","47742","HierDy3xk5vwgv","sub05","05","4","rl","test","65","img/b_c_diag.png","1","65","pattern,shape,color","14","1",""
"null","48745","HierDy3xk5vwgv","sub05","05","4","feedback","test","null","","","na","","14","",""
"1154","49901","HierDy3xk5vwgv","sub05","05","4","rl","test","75","img/b_d_dots.png","7","75","pattern,shape,color","15","1",""
"null","50904","HierDy3xk5vwgv","sub05","05","4","feedback","test","null","","","na","","15","",""
"605","51512","HierDy3xk5vwgv","sub05","05","4","rl","test","76","img/p_d_dots.png","8","76","pattern,shape,color","16","1",""
"null","52515","HierDy3xk5vwgv","sub05","05","4","feedback","test","null","","","na","","16","",""
"998","53515","HierDy3xk5vwgv","sub05","05","4","rl","test","70","img/p_d_diag.png","4","70","pattern,shape,color","17","1",""
"null","54519","HierDy3xk5vwgv","sub05","05","4","feedback","test","null","","","na","","17","",""
"664.0000000000073","55185","HierDy3xk5vwgv","sub05","05","4","rl","test","70","img/p_d_diag.png","4","70","pattern,shape,color","18","1",""
"null","56189","HierDy3xk5vwgv","sub05","05","4","feedback","test","null","","","na","","18","",""
"1982","58173","HierDy3xk5vwgv","sub05","05","4","rl","test","65","img/p_c_diag.png","2","83","pattern,shape,color","19","0",""
"null","59176","HierDy3xk5vwgv","sub05","05","4","feedback","test","null","","","na","","19","",""
"1579","60758","HierDy3xk5vwgv","sub05","05","4","rl","test","75","img/p_d_dots.png","8","76","pattern,shape,color","20","0",""
"null","61761","HierDy3xk5vwgv","sub05","05","4","feedback","test","null","","","na","","20","",""
"904","62667","HierDy3xk5vwgv","sub05","05","4","rl","test","74","img/p_c_dots.png","6","74","pattern,shape,color","21","1",""
"null","63670","HierDy3xk5vwgv","sub05","05","4","feedback","test","null","","","na","","21","",""
"1645","65317","HierDy3xk5vwgv","sub05","05","4","rl","test","65","img/b_c_diag.png","1","65","pattern,shape,color","22","1",""
"null","66321","HierDy3xk5vwgv","sub05","05","4","feedback","test","null","","","na","","22","",""
"1170","67493","HierDy3xk5vwgv","sub05","05","4","rl","test","72","img/b_c_dots.png","5","72","pattern,shape,color","23","1",""
"null","68497","HierDy3xk5vwgv","sub05","05","4","feedback","test","null","","","na","","23","",""
"1391","69890","HierDy3xk5vwgv","sub05","05","4","rl","test","75","img/b_d_dots.png","7","75","pattern,shape,color","24","1",""
"null","70893","HierDy3xk5vwgv","sub05","05","4","feedback","test","null","","","na","","24","",""
"859","71754","HierDy3xk5vwgv","sub05","05","4","rl","test","72","img/b_c_dots.png","5","72","pattern,shape,color","25","1",""
"null","72757","HierDy3xk5vwgv","sub05","05","4","feedback","test","null","","","na","","25","",""
"594","73353","HierDy3xk5vwgv","sub05","05","4","rl","test","74","img/p_c_dots.png","6","74","pattern,shape,color","26","1",""
"null","74356","HierDy3xk5vwgv","sub05","05","4","feedback","test","null","","","na","","26","",""
"869","75227","HierDy3xk5vwgv","sub05","05","4","rl","test","68","img/b_d_diag.png","3","68","pattern,shape,color","27","1",""
"null","76230","HierDy3xk5vwgv","sub05","05","4","feedback","test","null","","","na","","27","",""
"966","77199","HierDy3xk5vwgv","sub05","05","4","rl","test","65","img/b_c_diag.png","1","65","pattern,shape,color","28","1",""
"null","78202","HierDy3xk5vwgv","sub05","05","4","feedback","test","null","","","na","","28","",""
"1254","79459","HierDy3xk5vwgv","sub05","05","4","rl","test","83","img/p_c_diag.png","2","83","pattern,shape,color","29","1",""
"null","80462","HierDy3xk5vwgv","sub05","05","4","feedback","test","null","","","na","","29","",""
"1575","82039","HierDy3xk5vwgv","sub05","05","4","rl","test","83","img/p_c_diag.png","2","83","pattern,shape,color","30","1",""
"null","83041","HierDy3xk5vwgv","sub05","05","4","feedback","test","null","","","na","","30","",""
"711","83753","HierDy3xk5vwgv","sub05","05","4","rl","test","70","img/p_d_diag.png","4","70","pattern,shape,color","31","1",""
"null","84756","HierDy3xk5vwgv","sub05","05","4","feedback","test","null","","","na","","31","",""
"712","85470","HierDy3xk5vwgv","sub05","05","4","rl","test","70","img/p_d_diag.png","4","70","pattern,shape,color","32","1",""
"null","86473","HierDy3xk5vwgv","sub05","05","4","feedback","test","null","","","na","","32","",""
"1218","87692","HierDy3xk5vwgv","sub05","05","4","rl","test","68","img/p_d_dots.png","8","76","pattern,shape,color","33","0",""
"null","88696","HierDy3xk5vwgv","sub05","05","4","feedback","test","null","","","na","","33","",""
"1269","89967","HierDy3xk5vwgv","sub05","05","4","rl","test","75","img/b_d_dots.png","7","75","pattern,shape,color","34","1",""
"null","90971","HierDy3xk5vwgv","sub05","05","4","feedback","test","null","","","na","","34","",""
"1104","92077","HierDy3xk5vwgv","sub05","05","4","rl","test","65","img/b_c_diag.png","1","65","pattern,shape,color","35","1",""
"null","93082","HierDy3xk5vwgv","sub05","05","4","feedback","test","null","","","na","","35","",""
"1478","94562","HierDy3xk5vwgv","sub05","05","4","rl","test","75","img/b_d_dots.png","7","75","pattern,shape,color","36","1",""
"null","95565","HierDy3xk5vwgv","sub05","05","4","feedback","test","null","","","na","","36","",""
"1719","97286","HierDy3xk5vwgv","sub05","05","4","rl","test","76","img/p_d_dots.png","8","76","pattern,shape,color","37","1",""
"null","98289","HierDy3xk5vwgv","sub05","05","4","feedback","test","null","","","na","","37","",""
"1104","99395","HierDy3xk5vwgv","sub05","05","4","rl","test","68","img/b_d_diag.png","3","68","pattern,shape,color","38","1",""
"null","100398","HierDy3xk5vwgv","sub05","05","4","feedback","test","null","","","na","","38","",""
"753","101153","HierDy3xk5vwgv","sub05","05","4","rl","test","72","img/b_c_dots.png","5","72","pattern,shape,color","39","1",""
"null","102156","HierDy3xk5vwgv","sub05","05","4","feedback","test","null","","","na","","39","",""
"513.0000000000146","102670","HierDy3xk5vwgv","sub05","05","4","rl","test","74","img/p_c_dots.png","6","74","pattern,shape,color","40","1",""
"null","103673","HierDy3xk5vwgv","sub05","05","4","feedback","test","null","","","na","","40","",""
"847.0000000000146","104521","HierDy3xk5vwgv","sub05","05","4","rl","test","75","img/b_d_dots.png","7","75","pattern,shape,color","41","1",""
"null","105524","HierDy3xk5vwgv","sub05","05","4","feedback","test","null","","","na","","41","",""
"845","106370","HierDy3xk5vwgv","sub05","05","4","rl","test","72","img/b_c_dots.png","5","72","pattern,shape,color","42","1",""
"null","107372","HierDy3xk5vwgv","sub05","05","4","feedback","test","null","","","na","","42","",""
"534","107907","HierDy3xk5vwgv","sub05","05","4","rl","test","76","img/p_d_dots.png","8","76","pattern,shape,color","43","1",""
"null","108910","HierDy3xk5vwgv","sub05","05","4","feedback","test","null","","","na","","43","",""
"1693.9999999999854","110605","HierDy3xk5vwgv","sub05","05","4","rl","test","76","img/p_c_dots.png","6","74","pattern,shape,color","44","0",""
"null","111608","HierDy3xk5vwgv","sub05","05","4","feedback","test","null","","","na","","44","",""
"1430","113041","HierDy3xk5vwgv","sub05","05","4","rl","test","83","img/p_c_diag.png","2","83","pattern,shape,color","45","1",""
"null","114044","HierDy3xk5vwgv","sub05","05","4","feedback","test","null","","","na","","45","",""
"1150.9999999999854","115196","HierDy3xk5vwgv","sub05","05","4","rl","test","68","img/b_d_diag.png","3","68","pattern,shape,color","46","1",""
"null","116198","HierDy3xk5vwgv","sub05","05","4","feedback","test","null","","","na","","46","",""
"1004","117204","HierDy3xk5vwgv","sub05","05","4","rl","test","70","img/p_d_diag.png","4","70","pattern,shape,color","47","1",""
"null","118206","HierDy3xk5vwgv","sub05","05","4","feedback","test","null","","","na","","47","",""
"2103","120311","HierDy3xk5vwgv","sub05","05","4","rl","test","65","img/b_c_diag.png","1","65","pattern,shape,color","48","1",""
"null","121315","HierDy3xk5vwgv","sub05","05","4","feedback","test","null","","","na","","48","",""
"701.0000000000146","122018","HierDy3xk5vwgv","sub05","05","4","rl","test","65","img/b_c_diag.png","1","65","pattern,shape,color","49","1",""
"null","123022","HierDy3xk5vwgv","sub05","05","4","feedback","test","null","","","na","","49","",""
"856","123879","HierDy3xk5vwgv","sub05","05","4","rl","test","76","img/p_d_dots.png","8","76","pattern,shape,color","50","1",""
"null","124882","HierDy3xk5vwgv","sub05","05","4","feedback","test","null","","","na","","50","",""
"661.0000000000146","125546","HierDy3xk5vwgv","sub05","05","4","rl","test","74","img/b_d_diag.png","3","68","pattern,shape,color","51","0",""
"null","126549","HierDy3xk5vwgv","sub05","05","4","feedback","test","null","","","na","","51","",""
"1412.0000000000146","127963","HierDy3xk5vwgv","sub05","05","4","rl","test","72","img/b_c_dots.png","5","72","pattern,shape,color","52","1",""
"null","128966","HierDy3xk5vwgv","sub05","05","4","feedback","test","null","","","na","","52","",""
"1398","130366","HierDy3xk5vwgv","sub05","05","4","rl","test","70","img/p_d_diag.png","4","70","pattern,shape,color","53","1",""
"null","131369","HierDy3xk5vwgv","sub05","05","4","feedback","test","null","","","na","","53","",""
"1858.999999999971","133230","HierDy3xk5vwgv","sub05","05","4","rl","test","83","img/p_c_diag.png","2","83","pattern,shape,color","54","1",""
"null","134232","HierDy3xk5vwgv","sub05","05","4","feedback","test","null","","","na","","54","",""
"1739.999999999971","135975","HierDy3xk5vwgv","sub05","05","4","rl","test","74","img/p_c_dots.png","6","74","pattern,shape,color","55","1",""
"null","136978","HierDy3xk5vwgv","sub05","05","4","feedback","test","null","","","na","","55","",""
"1882","138861","HierDy3xk5vwgv","sub05","05","4","rl","test","75","img/b_d_dots.png","7","75","pattern,shape,color","56","1",""
"null","139864","HierDy3xk5vwgv","sub05","05","4","feedback","test","null","","","na","","56","",""
"1051","140917","HierDy3xk5vwgv","sub05","05","4","rl","test","74","img/p_c_dots.png","6","74","pattern,shape,color","57","1",""
"null","141921","HierDy3xk5vwgv","sub05","05","4","feedback","test","null","","","na","","57","",""
"1202","143125","HierDy3xk5vwgv","sub05","05","4","rl","test","83","img/p_c_diag.png","2","83","pattern,shape,color","58","1",""
"null","144128","HierDy3xk5vwgv","sub05","05","4","feedback","test","null","","","na","","58","",""
"1632","145762","HierDy3xk5vwgv","sub05","05","4","rl","test","75","img/b_d_dots.png","7","75","pattern,shape,color","59","1",""
"null","146765","HierDy3xk5vwgv","sub05","05","4","feedback","test","null","","","na","","59","",""
"1055","147822","HierDy3xk5vwgv","sub05","05","4","rl","test","70","img/p_d_diag.png","4","70","pattern,shape,color","60","1",""
"null","148826","HierDy3xk5vwgv","sub05","05","4","feedback","test","null","","","na","","60","",""
"2111","150939","HierDy3xk5vwgv","sub05","05","4","rl","test","65","img/b_c_diag.png","1","65","pattern,shape,color","61","1",""
"null","151942","HierDy3xk5vwgv","sub05","05","4","feedback","test","null","","","na","","61","",""
"1325","153269","HierDy3xk5vwgv","sub05","05","4","rl","test","76","img/p_d_dots.png","8","76","pattern,shape,color","62","1",""
"null","154272","HierDy3xk5vwgv","sub05","05","4","feedback","test","null","","","na","","62","",""
"984.0000000000291","155258","HierDy3xk5vwgv","sub05","05","4","rl","test","72","img/b_c_dots.png","5","72","pattern,shape,color","63","1",""
"null","156261","HierDy3xk5vwgv","sub05","05","4","feedback","test","null","","","na","","63","",""
"1029","157292","HierDy3xk5vwgv","sub05","05","4","rl","test","68","img/b_d_diag.png","3","68","pattern,shape,color","64","1",""
"null","158295","HierDy3xk5vwgv","sub05","05","4","feedback","test","null","","","na","","64","",""
"760","159057","HierDy3xk5vwgv","sub05","05","4","rl","test","68","img/b_d_diag.png","3","68","pattern,shape,color","65","1",""
"null","160059","HierDy3xk5vwgv","sub05","05","4","feedback","test","null","","","na","","65","",""
"1183","161244","HierDy3xk5vwgv","sub05","05","4","rl","test","74","img/p_c_dots.png","6","74","pattern,shape,color","66","1",""
"null","162247","HierDy3xk5vwgv","sub05","05","4","feedback","test","null","","","na","","66","",""
"1127","163376","HierDy3xk5vwgv","sub05","05","4","rl","test","75","img/b_d_dots.png","7","75","pattern,shape,color","67","1",""
"null","164379","HierDy3xk5vwgv","sub05","05","4","feedback","test","null","","","na","","67","",""
"962","165344","HierDy3xk5vwgv","sub05","05","4","rl","test","83","img/p_c_diag.png","2","83","pattern,shape,color","68","1",""
"null","166346","HierDy3xk5vwgv","sub05","05","4","feedback","test","null","","","na","","68","",""
"1819","168166","HierDy3xk5vwgv","sub05","05","4","rl","test","72","img/b_c_dots.png","5","72","pattern,shape,color","69","1",""
"null","169170","HierDy3xk5vwgv","sub05","05","4","feedback","test","null","","","na","","69","",""
"1034","170206","HierDy3xk5vwgv","sub05","05","4","rl","test","68","img/b_d_diag.png","3","68","pattern,shape,color","70","1",""
"null","171209","HierDy3xk5vwgv","sub05","05","4","feedback","test","null","","","na","","70","",""
"763","171973","HierDy3xk5vwgv","sub05","05","4","rl","test","70","img/p_d_diag.png","4","70","pattern,shape,color","71","1",""
"null","172976","HierDy3xk5vwgv","sub05","05","4","feedback","test","null","","","na","","71","",""
"1044.999999999971","174022","HierDy3xk5vwgv","sub05","05","4","rl","test","76","img/p_d_dots.png","8","76","pattern,shape,color","72","1",""
"null","175026","HierDy3xk5vwgv","sub05","05","4","feedback","test","null","","","na","","72","",""
"1482","176510","HierDy3xk5vwgv","sub05","05","4","rl","test","65","img/b_c_diag.png","1","65","pattern,shape,color","73","1",""
"null","177514","HierDy3xk5vwgv","sub05","05","4","feedback","test","null","","","na","","73","",""
"null","180017","HierDy3xk5vwgv","sub05","05","4","rl","test","null","img/p_d_dots.png","8","76","pattern,shape,color","74","0",""
"null","181022","HierDy3xk5vwgv","sub05","05","4","feedback","test","null","","","na","","74","",""
"1721","182745","HierDy3xk5vwgv","sub05","05","4","rl","test","83","img/p_c_diag.png","2","83","pattern,shape,color","75","1",""
"null","183748","HierDy3xk5vwgv","sub05","05","4","feedback","test","null","","","na","","75","",""
"1095","184846","HierDy3xk5vwgv","sub05","05","4","rl","test","65","img/b_c_diag.png","1","65","pattern,shape,color","76","1",""
"null","185850","HierDy3xk5vwgv","sub05","05","4","feedback","test","null","","","na","","76","",""
"1827","187679","HierDy3xk5vwgv","sub05","05","4","rl","test","72","img/b_c_dots.png","5","72","pattern,shape,color","77","1",""
"null","188682","HierDy3xk5vwgv","sub05","05","4","feedback","test","null","","","na","","77","",""
"729.0000000000291","189412","HierDy3xk5vwgv","sub05","05","4","rl","test","74","img/p_c_dots.png","6","74","pattern,shape,color","78","1",""
"null","190416","HierDy3xk5vwgv","sub05","05","4","feedback","test","null","","","na","","78","",""
"1958","192376","HierDy3xk5vwgv","sub05","05","4","rl","test","76","img/p_d_dots.png","8","76","pattern,shape,color","79","1",""
"null","193380","HierDy3xk5vwgv","sub05","05","4","feedback","test","null","","","na","","79","",""
"879","194260","HierDy3xk5vwgv","sub05","05","4","rl","test","70","img/p_d_diag.png","4","70","pattern,shape,color","80","1",""
"null","195264","HierDy3xk5vwgv","sub05","05","4","feedback","test","null","","","na","","80","",""
"982","196247","HierDy3xk5vwgv","sub05","05","4","rl","test","75","img/b_d_dots.png","7","75","pattern,shape,color","81","1",""
"null","197251","HierDy3xk5vwgv","sub05","05","4","feedback","test","null","","","na","","81","",""
"1219.000000000029","198471","HierDy3xk5vwgv","sub05","05","4","rl","test","65","img/b_c_diag.png","1","65","pattern,shape,color","82","1",""
"null","199475","HierDy3xk5vwgv","sub05","05","4","feedback","test","null","","","na","","82","",""
"1314","200790","HierDy3xk5vwgv","sub05","05","4","rl","test","68","img/b_d_diag.png","3","68","pattern,shape,color","83","1",""
"null","201793","HierDy3xk5vwgv","sub05","05","4","feedback","test","null","","","na","","83","",""
"718.0000000000291","202514","HierDy3xk5vwgv","sub05","05","4","rl","test","70","img/p_d_diag.png","4","70","pattern,shape,color","84","1",""
"null","203517","HierDy3xk5vwgv","sub05","05","4","feedback","test","null","","","na","","84","",""
"1876.999999999971","205396","HierDy3xk5vwgv","sub05","05","4","rl","test","65","img/b_c_diag.png","1","65","pattern,shape,color","85","1",""
"null","206399","HierDy3xk5vwgv","sub05","05","4","feedback","test","null","","","na","","85","",""
"600.0000000000291","207002","HierDy3xk5vwgv","sub05","05","4","rl","test","83","img/p_c_diag.png","2","83","pattern,shape,color","86","1",""
"null","208005","HierDy3xk5vwgv","sub05","05","4","feedback","test","null","","","na","","86","",""
"664.9999999999709","208672","HierDy3xk5vwgv","sub05","05","4","rl","test","83","img/p_c_diag.png","2","83","pattern,shape,color","87","1",""
"null","209675","HierDy3xk5vwgv","sub05","05","4","feedback","test","null","","","na","","87","",""
"952","210629","HierDy3xk5vwgv","sub05","05","4","rl","test","75","img/b_d_dots.png","7","75","pattern,shape,color","88","1",""
"null","211633","HierDy3xk5vwgv","sub05","05","4","feedback","test","null","","","na","","88","",""
"783","212417","HierDy3xk5vwgv","sub05","05","4","rl","test","75","img/b_d_dots.png","7","75","pattern,shape,color","89","1",""
"null","213421","HierDy3xk5vwgv","sub05","05","4","feedback","test","null","","","na","","89","",""
"962","214385","HierDy3xk5vwgv","sub05","05","4","rl","test","72","img/b_c_dots.png","5","72","pattern,shape,color","90","1",""
"null","215388","HierDy3xk5vwgv","sub05","05","4","feedback","test","null","","","na","","90","",""
"759","216149","HierDy3xk5vwgv","sub05","05","4","rl","test","75","img/b_d_dots.png","7","75","pattern,shape,color","91","1",""
"null","217152","HierDy3xk5vwgv","sub05","05","4","feedback","test","null","","","na","","91","",""
"833","217987","HierDy3xk5vwgv","sub05","05","4","rl","test","74","img/p_c_dots.png","6","74","pattern,shape,color","92","1",""
"null","218991","HierDy3xk5vwgv","sub05","05","4","feedback","test","null","","","na","","92","",""
"492","219484","HierDy3xk5vwgv","sub05","05","4","rl","test","76","img/p_d_dots.png","8","76","pattern,shape,color","93","1",""
"null","220488","HierDy3xk5vwgv","sub05","05","4","feedback","test","null","","","na","","93","",""
"779.0000000000291","221270","HierDy3xk5vwgv","sub05","05","4","rl","test","72","img/b_c_dots.png","5","72","pattern,shape,color","94","1",""
"null","222273","HierDy3xk5vwgv","sub05","05","4","feedback","test","null","","","na","","94","",""
"627.9999999999709","222903","HierDy3xk5vwgv","sub05","05","4","rl","test","74","img/p_c_dots.png","6","74","pattern,shape,color","95","1",""
"null","223906","HierDy3xk5vwgv","sub05","05","4","feedback","test","null","","","na","","95","",""
"980.0000000000291","224888","HierDy3xk5vwgv","sub05","05","4","rl","test","72","img/b_c_dots.png","5","72","pattern,shape,color","96","1",""
"null","225892","HierDy3xk5vwgv","sub05","05","4","feedback","test","null","","","na","","96","",""
"765.9999999999709","226661","HierDy3xk5vwgv","sub05","05","4","rl","test","70","img/p_d_diag.png","4","70","pattern,shape,color","97","1",""
"null","227664","HierDy3xk5vwgv","sub05","05","4","feedback","test","null","","","na","","97","",""
"585.0000000000291","228252","HierDy3xk5vwgv","sub05","05","4","rl","test","68","img/b_d_diag.png","3","68","pattern,shape,color","98","1",""
"null","229255","HierDy3xk5vwgv","sub05","05","4","feedback","test","null","","","na","","98","",""
"1214","230471","HierDy3xk5vwgv","sub05","05","4","rl","test","76","img/p_d_dots.png","8","76","pattern,shape,color","99","1",""
"null","231474","HierDy3xk5vwgv","sub05","05","4","feedback","test","null","","","na","","99","",""
"950","232426","HierDy3xk5vwgv","sub05","05","4","rl","test","65","img/b_c_diag.png","1","65","pattern,shape,color","100","1",""
"null","233430","HierDy3xk5vwgv","sub05","05","4","feedback","test","null","","","na","","100","",""
"1030","234462","HierDy3xk5vwgv","sub05","05","4","rl","test","74","img/p_c_dots.png","6","74","pattern,shape,color","101","1",""
"null","235465","HierDy3xk5vwgv","sub05","05","4","feedback","test","null","","","na","","101","",""
"1348","236815","HierDy3xk5vwgv","sub05","05","4","rl","test","83","img/p_c_diag.png","2","83","pattern,shape,color","102","1",""
"null","237819","HierDy3xk5vwgv","sub05","05","4","feedback","test","null","","","na","","102","",""
"1742","239563","HierDy3xk5vwgv","sub05","05","4","rl","test","68","img/b_d_diag.png","3","68","pattern,shape,color","103","1",""
"null","240566","HierDy3xk5vwgv","sub05","05","4","feedback","test","null","","","na","","103","",""
"616","241184","HierDy3xk5vwgv","sub05","05","4","rl","test","70","img/p_d_diag.png","4","70","pattern,shape,color","104","1",""
"null","242188","HierDy3xk5vwgv","sub05","05","4","feedback","test","null","","","na","","104","",""
"944","243134","HierDy3xk5vwgv","sub05","05","4","rl","test","72","img/b_c_dots.png","5","72","pattern,shape,color","105","1",""
"null","244138","HierDy3xk5vwgv","sub05","05","4","feedback","test","null","","","na","","105","",""
"1468.000000000029","245608","HierDy3xk5vwgv","sub05","05","4","rl","test","75","img/b_d_dots.png","7","75","pattern,shape,color","106","1",""
"null","246611","HierDy3xk5vwgv","sub05","05","4","feedback","test","null","","","na","","106","",""
"1822","248435","HierDy3xk5vwgv","sub05","05","4","rl","test","76","img/p_d_dots.png","8","76","pattern,shape,color","107","1",""
"null","249439","HierDy3xk5vwgv","sub05","05","4","feedback","test","null","","","na","","107","",""
"708","250149","HierDy3xk5vwgv","sub05","05","4","rl","test","70","img/p_d_diag.png","4","70","pattern,shape,color","108","1",""
"null","251152","HierDy3xk5vwgv","sub05","05","4","feedback","test","null","","","na","","108","",""
"1862","253016","HierDy3xk5vwgv","sub05","05","4","rl","test","74","img/p_c_dots.png","6","74","pattern,shape,color","109","1",""
"null","254019","HierDy3xk5vwgv","sub05","05","4","feedback","test","null","","","na","","109","",""
"1156.999999999971","255179","HierDy3xk5vwgv","sub05","05","4","rl","test","83","img/b_c_diag.png","1","65","pattern,shape,color","110","0",""
"null","256183","HierDy3xk5vwgv","sub05","05","4","feedback","test","null","","","na","","110","",""
"1111.9999999999418","257298","HierDy3xk5vwgv","sub05","05","4","rl","test","83","img/p_c_diag.png","2","83","pattern,shape,color","111","1",""
"null","258301","HierDy3xk5vwgv","sub05","05","4","feedback","test","null","","","na","","111","",""
"946.0000000000291","259249","HierDy3xk5vwgv","sub05","05","4","rl","test","65","img/b_c_diag.png","1","65","pattern,shape,color","112","1",""
"null","260252","HierDy3xk5vwgv","sub05","05","4","feedback","test","null","","","na","","112","",""
"626","260880","HierDy3xk5vwgv","sub05","05","4","rl","test","70","img/b_d_diag.png","3","68","pattern,shape,color","113","0",""
"null","261883","HierDy3xk5vwgv","sub05","05","4","feedback","test","null","","","na","","113","",""
"1036.9999999999418","262922","HierDy3xk5vwgv","sub05","05","4","rl","test","83","img/p_c_diag.png","2","83","pattern,shape,color","114","1",""
"null","263925","HierDy3xk5vwgv","sub05","05","4","feedback","test","null","","","na","","114","",""
"1085","265013","HierDy3xk5vwgv","sub05","05","4","rl","test","76","img/p_d_dots.png","8","76","pattern,shape,color","115","1",""
"null","266016","HierDy3xk5vwgv","sub05","05","4","feedback","test","null","","","na","","115","",""
"895","266914","HierDy3xk5vwgv","sub05","05","4","rl","test","72","img/b_c_dots.png","5","72","pattern,shape,color","116","1",""
"null","267918","HierDy3xk5vwgv","sub05","05","4","feedback","test","null","","","na","","116","",""
"1082","269002","HierDy3xk5vwgv","sub05","05","4","rl","test","70","img/p_d_diag.png","4","70","pattern,shape,color","117","1",""
"null","270005","HierDy3xk5vwgv","sub05","05","4","feedback","test","null","","","na","","117","",""
"1063","271070","HierDy3xk5vwgv","sub05","05","4","rl","test","75","img/b_d_dots.png","7","75","pattern,shape,color","118","1",""
"null","272073","HierDy3xk5vwgv","sub05","05","4","feedback","test","null","","","na","","118","",""
"750","272826","HierDy3xk5vwgv","sub05","05","4","rl","test","75","img/b_d_dots.png","7","75","pattern,shape,color","119","1",""
"null","273830","HierDy3xk5vwgv","sub05","05","4","feedback","test","null","","","na","","119","",""
"1462.9999999999418","275295","HierDy3xk5vwgv","sub05","05","4","rl","test","76","img/p_d_dots.png","8","76","pattern,shape,color","120","1",""
"null","276298","HierDy3xk5vwgv","sub05","05","4","feedback","test","null","","","na","","120","",""
"1738","278039","HierDy3xk5vwgv","sub05","05","4","rl","test","74","img/p_c_dots.png","6","74","pattern,shape,color","121","1",""
"null","279042","HierDy3xk5vwgv","sub05","05","4","feedback","test","null","","","na","","121","",""
"885","279930","HierDy3xk5vwgv","sub05","05","4","rl","test","68","img/b_d_diag.png","3","68","pattern,shape,color","122","1",""
"null","280934","HierDy3xk5vwgv","sub05","05","4","feedback","test","null","","","na","","122","",""
"1789","282724","HierDy3xk5vwgv","sub05","05","4","rl","test","65","img/b_c_diag.png","1","65","pattern,shape,color","123","1",""
"null","283728","HierDy3xk5vwgv","sub05","05","4","feedback","test","null","","","na","","123","",""
"937","284667","HierDy3xk5vwgv","sub05","05","4","rl","test","68","img/b_d_diag.png","3","68","pattern,shape,color","124","1",""
"null","285670","HierDy3xk5vwgv","sub05","05","4","feedback","test","null","","","na","","124","",""
"1380","287053","HierDy3xk5vwgv","sub05","05","4","rl","test","74","img/p_c_dots.png","6","74","pattern,shape,color","125","1",""
"null","288057","HierDy3xk5vwgv","sub05","05","4","feedback","test","null","","","na","","125","",""
"809","288867","HierDy3xk5vwgv","sub05","05","4","rl","test","72","img/b_c_dots.png","5","72","pattern,shape,color","126","1",""
"null","289870","HierDy3xk5vwgv","sub05","05","4","feedback","test","null","","","na","","126","",""
"1193.9999999999418","291067","HierDy3xk5vwgv","sub05","05","4","rl","test","83","img/p_c_diag.png","2","83","pattern,shape,color","127","1",""
"null","292070","HierDy3xk5vwgv","sub05","05","4","feedback","test","null","","","na","","127","",""
"541","292613","HierDy3xk5vwgv","sub05","05","4","rl","test","65","img/b_c_diag.png","1","65","pattern,shape,color","128","1",""
"null","293617","HierDy3xk5vwgv","sub05","05","4","feedback","test","null","","","na","","128","",""
"705","294324","HierDy3xk5vwgv","sub05","05","4","rl","test","70","img/p_d_diag.png","4","70","pattern,shape,color","129","1",""
"null","295327","HierDy3xk5vwgv","sub05","05","4","feedback","test","null","","","na","","129","",""
"543.0000000000582","295872","HierDy3xk5vwgv","sub05","05","4","rl","test","70","img/p_d_diag.png","4","70","pattern,shape,color","130","1",""
"null","296876","HierDy3xk5vwgv","sub05","05","4","feedback","test","null","","","na","","130","",""
"692","297570","HierDy3xk5vwgv","sub05","05","4","rl","test","68","img/b_d_diag.png","3","68","pattern,shape,color","131","1",""
"null","298573","HierDy3xk5vwgv","sub05","05","4","feedback","test","null","","","na","","131","",""
"1367","299941","HierDy3xk5vwgv","sub05","05","4","rl","test","72","img/b_c_dots.png","5","72","pattern,shape,color","132","1",""
"null","300944","HierDy3xk5vwgv","sub05","05","4","feedback","test","null","","","na","","132","",""
"2089","303035","HierDy3xk5vwgv","sub05","05","4","rl","test","75","img/b_d_dots.png","7","75","pattern,shape,color","133","1",""
"null","304039","HierDy3xk5vwgv","sub05","05","4","feedback","test","null","","","na","","133","",""
"853","304894","HierDy3xk5vwgv","sub05","05","4","rl","test","76","img/p_d_dots.png","8","76","pattern,shape,color","134","1",""
"null","305896","HierDy3xk5vwgv","sub05","05","4","feedback","test","null","","","na","","134","",""
"1795","307693","HierDy3xk5vwgv","sub05","05","4","rl","test","74","img/p_c_dots.png","6","74","pattern,shape,color","135","1",""
"null","308696","HierDy3xk5vwgv","sub05","05","4","feedback","test","null","","","na","","135","",""
"1569","310267","HierDy3xk5vwgv","sub05","05","4","rl","test","75","img/b_d_dots.png","7","75","pattern,shape,color","136","1",""
"null","311271","HierDy3xk5vwgv","sub05","05","4","feedback","test","null","","","na","","136","",""
"607","311879","HierDy3xk5vwgv","sub05","05","4","rl","test","70","img/p_d_diag.png","4","70","pattern,shape,color","137","1",""
"null","312883","HierDy3xk5vwgv","sub05","05","4","feedback","test","null","","","na","","137","",""
"938.9999999999418","313824","HierDy3xk5vwgv","sub05","05","4","rl","test","83","img/p_c_diag.png","2","83","pattern,shape,color","138","1",""
"null","314827","HierDy3xk5vwgv","sub05","05","4","feedback","test","null","","","na","","138","",""
"856","315686","HierDy3xk5vwgv","sub05","05","4","rl","test","83","img/p_c_diag.png","2","83","pattern,shape,color","139","1",""
"null","316689","HierDy3xk5vwgv","sub05","05","4","feedback","test","null","","","na","","139","",""
"1458","318149","HierDy3xk5vwgv","sub05","05","4","rl","test","76","img/p_d_dots.png","8","76","pattern,shape,color","140","1",""
"null","319153","HierDy3xk5vwgv","sub05","05","4","feedback","test","null","","","na","","140","",""
"1745","320900","HierDy3xk5vwgv","sub05","05","4","rl","test","65","img/b_c_diag.png","1","65","pattern,shape,color","141","1",""
"null","321903","HierDy3xk5vwgv","sub05","05","4","feedback","test","null","","","na","","141","",""
"1564","323470","HierDy3xk5vwgv","sub05","05","4","rl","test","72","img/b_c_dots.png","5","72","pattern,shape,color","142","1",""
"null","324473","HierDy3xk5vwgv","sub05","05","4","feedback","test","null","","","na","","142","",""
"1268","325743","HierDy3xk5vwgv","sub05","05","4","rl","test","83","img/p_c_diag.png","2","83","pattern,shape,color","143","1",""
"null","326746","HierDy3xk5vwgv","sub05","05","4","feedback","test","null","","","na","","143","",""
"1139","327887","HierDy3xk5vwgv","sub05","05","4","rl","test","75","img/b_d_dots.png","7","75","pattern,shape,color","144","1",""
"null","328890","HierDy3xk5vwgv","sub05","05","4","feedback","test","null","","","na","","144","",""
"837.0000000000582","329730","HierDy3xk5vwgv","sub05","05","4","rl","test","68","img/b_d_diag.png","3","68","pattern,shape,color","145","1",""
"null","330733","HierDy3xk5vwgv","sub05","05","4","feedback","test","null","","","na","","145","",""
"1565.9999999999418","332300","HierDy3xk5vwgv","sub05","05","4","rl","test","74","img/p_c_dots.png","6","74","pattern,shape,color","146","1",""
"null","333303","HierDy3xk5vwgv","sub05","05","4","feedback","test","null","","","na","","146","",""
"1276.0000000000582","334581","HierDy3xk5vwgv","sub05","05","4","rl","test","68","img/b_d_diag.png","3","68","pattern,shape,color","147","1",""
"null","335584","HierDy3xk5vwgv","sub05","05","4","feedback","test","null","","","na","","147","",""
"1153","336739","HierDy3xk5vwgv","sub05","05","4","rl","test","76","img/p_d_dots.png","8","76","pattern,shape,color","148","1",""
"null","337742","HierDy3xk5vwgv","sub05","05","4","feedback","test","null","","","na","","148","",""
"1021","338765","HierDy3xk5vwgv","sub05","05","4","rl","test","74","img/p_c_dots.png","6","74","pattern,shape,color","149","1",""
"null","339769","HierDy3xk5vwgv","sub05","05","4","feedback","test","null","","","na","","149","",""
"1165.9999999999418","340937","HierDy3xk5vwgv","sub05","05","4","rl","test","70","img/p_d_diag.png","4","70","pattern,shape,color","150","1",""
"null","341940","HierDy3xk5vwgv","sub05","05","4","feedback","test","null","","","na","","150","",""
"1280","343222","HierDy3xk5vwgv","sub05","05","4","rl","test","72","img/b_c_dots.png","5","72","pattern,shape,color","151","1",""
"null","344225","HierDy3xk5vwgv","sub05","05","4","feedback","test","null","","","na","","151","",""
"1982","346209","HierDy3xk5vwgv","sub05","05","4","rl","test","68","img/b_d_diag.png","3","68","pattern,shape,color","152","1",""
"null","347213","HierDy3xk5vwgv","sub05","05","4","feedback","test","null","","","na","","152","",""
"952","348167","HierDy3xk5vwgv","sub05","05","4","rl","test","76","img/p_d_dots.png","8","76","pattern,shape,color","153","1",""
"null","349170","HierDy3xk5vwgv","sub05","05","4","feedback","test","null","","","na","","153","",""
"1243","350415","HierDy3xk5vwgv","sub05","05","4","rl","test","70","img/p_d_diag.png","4","70","pattern,shape,color","154","1",""
"null","351418","HierDy3xk5vwgv","sub05","05","4","feedback","test","null","","","na","","154","",""
"918.9999999999418","352339","HierDy3xk5vwgv","sub05","05","4","rl","test","65","img/b_c_diag.png","1","65","pattern,shape,color","155","1",""
"null","353342","HierDy3xk5vwgv","sub05","05","4","feedback","test","null","","","na","","155","",""
"1023","354368","HierDy3xk5vwgv","sub05","05","4","rl","test","75","img/b_d_dots.png","7","75","pattern,shape,color","156","1",""
"null","355372","HierDy3xk5vwgv","sub05","05","4","feedback","test","null","","","na","","156","",""
"693","356067","HierDy3xk5vwgv","sub05","05","4","rl","test","72","img/b_c_dots.png","5","72","pattern,shape,color","157","1",""
"null","357071","HierDy3xk5vwgv","sub05","05","4","feedback","test","null","","","na","","157","",""
"1014","358087","HierDy3xk5vwgv","sub05","05","4","rl","test","83","img/p_c_diag.png","2","83","pattern,shape,color","158","1",""
"null","359090","HierDy3xk5vwgv","sub05","05","4","feedback","test","null","","","na","","158","",""
"866","359958","HierDy3xk5vwgv","sub05","05","4","rl","test","68","img/b_d_diag.png","3","68","pattern,shape,color","159","1",""
"null","360962","HierDy3xk5vwgv","sub05","05","4","feedback","test","null","","","na","","159","",""
"1649","362612","HierDy3xk5vwgv","sub05","05","4","rl","test","65","img/b_c_diag.png","1","65","pattern,shape,color","160","1",""
"null","363616","HierDy3xk5vwgv","sub05","05","4","feedback","test","null","","","na","","160","",""
"1537","365155","HierDy3xk5vwgv","sub05","05","4","rl","test","74","img/p_c_dots.png","6","74","pattern,shape,color","161","1",""
"null","366158","HierDy3xk5vwgv","sub05","05","4","feedback","test","null","","","na","","161","",""
"547","366706","HierDy3xk5vwgv","sub05","05","4","rl","test","74","img/p_c_dots.png","6","74","pattern,shape,color","162","1",""
"null","367710","HierDy3xk5vwgv","sub05","05","4","feedback","test","null","","","na","","162","",""
"1208.0000000000582","368920","HierDy3xk5vwgv","sub05","05","4","rl","test","65","img/b_c_diag.png","1","65","pattern,shape,color","163","1",""
"null","369923","HierDy3xk5vwgv","sub05","05","4","feedback","test","null","","","na","","163","",""
"1181","371106","HierDy3xk5vwgv","sub05","05","4","rl","test","75","img/b_d_dots.png","7","75","pattern,shape,color","164","1",""
"null","372109","HierDy3xk5vwgv","sub05","05","4","feedback","test","null","","","na","","164","",""
"1327","373439","HierDy3xk5vwgv","sub05","05","4","rl","test","65","img/b_c_diag.png","1","65","pattern,shape,color","165","1",""
"null","374442","HierDy3xk5vwgv","sub05","05","4","feedback","test","null","","","na","","165","",""
"1582","376027","HierDy3xk5vwgv","sub05","05","4","rl","test","72","img/b_c_dots.png","5","72","pattern,shape,color","166","1",""
"null","377030","HierDy3xk5vwgv","sub05","05","4","feedback","test","null","","","na","","166","",""
"815","377847","HierDy3xk5vwgv","sub05","05","4","rl","test","70","img/p_d_diag.png","4","70","pattern,shape,color","167","1",""
"null","378849","HierDy3xk5vwgv","sub05","05","4","feedback","test","null","","","na","","167","",""
"938","379790","HierDy3xk5vwgv","sub05","05","4","rl","test","76","img/p_d_dots.png","8","76","pattern,shape,color","168","1",""
"null","380793","HierDy3xk5vwgv","sub05","05","4","feedback","test","null","","","na","","168","",""
"1557","382353","HierDy3xk5vwgv","sub05","05","4","rl","test","83","img/p_c_diag.png","2","83","pattern,shape,color","169","1",""
"null","383356","HierDy3xk5vwgv","sub05","05","4","feedback","test","null","","","na","","169","",""
"1951","385309","HierDy3xk5vwgv","sub05","05","4","rl","test","75","img/b_d_dots.png","7","75","pattern,shape,color","170","1",""
"null","386313","HierDy3xk5vwgv","sub05","05","4","feedback","test","null","","","na","","170","",""
"909","387224","HierDy3xk5vwgv","sub05","05","4","rl","test","70","img/p_d_diag.png","4","70","pattern,shape,color","171","1",""
"null","388227","HierDy3xk5vwgv","sub05","05","4","feedback","test","null","","","na","","171","",""
"959","389187","HierDy3xk5vwgv","sub05","05","4","rl","test","83","img/p_c_diag.png","2","83","pattern,shape,color","172","1",""
"null","390191","HierDy3xk5vwgv","sub05","05","4","feedback","test","null","","","na","","172","",""
"1133","391326","HierDy3xk5vwgv","sub05","05","4","rl","test","72","img/b_c_dots.png","5","72","pattern,shape,color","173","1",""
"null","392329","HierDy3xk5vwgv","sub05","05","4","feedback","test","null","","","na","","173","",""
"2364.999999999942","394695","HierDy3xk5vwgv","sub05","05","4","rl","test","68","img/b_d_diag.png","3","68","pattern,shape,color","174","1",""
"null","395699","HierDy3xk5vwgv","sub05","05","4","feedback","test","null","","","na","","174","",""
"625","396326","HierDy3xk5vwgv","sub05","05","4","rl","test","68","img/b_d_diag.png","3","68","pattern,shape,color","175","1",""
"null","397330","HierDy3xk5vwgv","sub05","05","4","feedback","test","null","","","na","","175","",""
"1951.0000000000582","399282","HierDy3xk5vwgv","sub05","05","4","rl","test","74","img/p_c_dots.png","6","74","pattern,shape,color","176","1",""
"null","400285","HierDy3xk5vwgv","sub05","05","4","feedback","test","null","","","na","","176","",""
"838","401125","HierDy3xk5vwgv","sub05","05","4","rl","test","76","img/p_d_dots.png","8","76","pattern,shape,color","177","1",""
"null","402128","HierDy3xk5vwgv","sub05","05","4","feedback","test","null","","","na","","177","",""
"1262","403392","HierDy3xk5vwgv","sub05","05","4","rl","test","74","img/p_c_dots.png","6","74","pattern,shape,color","178","1",""
"null","404395","HierDy3xk5vwgv","sub05","05","4","feedback","test","null","","","na","","178","",""
"1364","405762","HierDy3xk5vwgv","sub05","05","4","rl","test","76","img/p_d_dots.png","8","76","pattern,shape,color","179","1",""
"null","406765","HierDy3xk5vwgv","sub05","05","4","feedback","test","null","","","na","","179","",""
"2269","409037","HierDy3xk5vwgv","sub05","05","4","rl","test","65","img/b_c_diag.png","1","65","pattern,shape,color","180","1",""
"null","410040","HierDy3xk5vwgv","sub05","05","4","feedback","test","null","","","na","","180","",""
"1935","411977","HierDy3xk5vwgv","sub05","05","4","rl","test","83","img/b_c_dots.png","5","72","pattern,shape,color","181","0",""
"null","412982","HierDy3xk5vwgv","sub05","05","4","feedback","test","null","","","na","","181","",""
"1320.9999999999418","414305","HierDy3xk5vwgv","sub05","05","4","rl","test","83","img/p_c_diag.png","2","83","pattern,shape,color","182","1",""
"null","415309","HierDy3xk5vwgv","sub05","05","4","feedback","test","null","","","na","","182","",""
"1722","417033","HierDy3xk5vwgv","sub05","05","4","rl","test","75","img/b_d_dots.png","7","75","pattern,shape,color","183","1",""
"null","418036","HierDy3xk5vwgv","sub05","05","4","feedback","test","null","","","na","","183","",""
"874","418912","HierDy3xk5vwgv","sub05","05","4","rl","test","74","img/p_c_dots.png","6","74","pattern,shape,color","184","1",""
"null","419915","HierDy3xk5vwgv","sub05","05","4","feedback","test","null","","","na","","184","",""
"958","420875","HierDy3xk5vwgv","sub05","05","4","rl","test","70","img/p_d_diag.png","4","70","pattern,shape,color","185","1",""
"null","421878","HierDy3xk5vwgv","sub05","05","4","feedback","test","null","","","na","","185","",""
"571","422451","HierDy3xk5vwgv","sub05","05","4","rl","test","72","img/b_c_dots.png","5","72","pattern,shape,color","186","1",""
"null","423454","HierDy3xk5vwgv","sub05","05","4","feedback","test","null","","","na","","186","",""
"993","424449","HierDy3xk5vwgv","sub05","05","4","rl","test","68","img/b_d_diag.png","3","68","pattern,shape,color","187","1",""
"null","425453","HierDy3xk5vwgv","sub05","05","4","feedback","test","null","","","na","","187","",""
"1347.9999999999418","426803","HierDy3xk5vwgv","sub05","05","4","rl","test","70","img/p_d_diag.png","4","70","pattern,shape,color","188","1",""
"null","427806","HierDy3xk5vwgv","sub05","05","4","feedback","test","null","","","na","","188","",""
"2045","429853","HierDy3xk5vwgv","sub05","05","4","rl","test","76","img/p_d_dots.png","8","76","pattern,shape,color","189","1",""
"null","430856","HierDy3xk5vwgv","sub05","05","4","feedback","test","null","","","na","","189","",""
"1672","432530","HierDy3xk5vwgv","sub05","05","4","rl","test","65","img/b_c_diag.png","1","65","pattern,shape,color","190","1",""
"null","433533","HierDy3xk5vwgv","sub05","05","4","feedback","test","null","","","na","","190","",""
"1009","434545","HierDy3xk5vwgv","sub05","05","4","rl","test","68","img/b_d_diag.png","3","68","pattern,shape,color","191","1",""
"null","435548","HierDy3xk5vwgv","sub05","05","4","feedback","test","null","","","na","","191","",""
"2084","437634","HierDy3xk5vwgv","sub05","05","4","rl","test","75","img/b_d_dots.png","7","75","pattern,shape,color","192","1",""
"null","438637","HierDy3xk5vwgv","sub05","05","4","feedback","test","null","","","na","","192","",""
"1517","440157","HierDy3xk5vwgv","sub05","05","4","rl","test","83","img/p_c_diag.png","2","83","pattern,shape,color","193","1",""
"null","441161","HierDy3xk5vwgv","sub05","05","4","feedback","test","null","","","na","","193","",""
"602.0000000000582","441765","HierDy3xk5vwgv","sub05","05","4","rl","test","83","img/p_c_diag.png","2","83","pattern,shape,color","194","1",""
"null","442768","HierDy3xk5vwgv","sub05","05","4","feedback","test","null","","","na","","194","",""
"839.9999999999418","443610","HierDy3xk5vwgv","sub05","05","4","rl","test","70","img/p_d_diag.png","4","70","pattern,shape,color","195","1",""
"null","444613","HierDy3xk5vwgv","sub05","05","4","feedback","test","null","","","na","","195","",""
"1433.9999999999418","446050","HierDy3xk5vwgv","sub05","05","4","rl","test","74","img/p_c_dots.png","6","74","pattern,shape,color","196","1",""
"null","447053","HierDy3xk5vwgv","sub05","05","4","feedback","test","null","","","na","","196","",""
"1166","448220","HierDy3xk5vwgv","sub05","05","4","rl","test","75","img/b_d_dots.png","7","75","pattern,shape,color","197","1",""
"null","449223","HierDy3xk5vwgv","sub05","05","4","feedback","test","null","","","na","","197","",""
"1232","450456","HierDy3xk5vwgv","sub05","05","4","rl","test","83","img/b_c_diag.png","1","65","pattern,shape,color","198","0",""
"null","451459","HierDy3xk5vwgv","sub05","05","4","feedback","test","null","","","na","","198","",""
"1131.0000000000582","452592","HierDy3xk5vwgv","sub05","05","4","rl","test","72","img/b_c_dots.png","5","72","pattern,shape,color","199","1",""
"null","453594","HierDy3xk5vwgv","sub05","05","4","feedback","test","null","","","na","","199","",""
"2208","455804","HierDy3xk5vwgv","sub05","05","4","rl","test","76","img/p_d_dots.png","8","76","pattern,shape,color","200","1",""
"null","456807","HierDy3xk5vwgv","sub05","05","4","feedback","test","null","","","na","","200","",""
"602","457410","HierDy3xk5vwgv","sub05","05","4","rl","test","76","img/p_d_dots.png","8","76","pattern,shape,color","201","1",""
"null","458413","HierDy3xk5vwgv","sub05","05","4","feedback","test","null","","","na","","201","",""
"1047","459461","HierDy3xk5vwgv","sub05","05","4","rl","test","65","img/b_c_diag.png","1","65","pattern,shape,color","202","1",""
"null","460464","HierDy3xk5vwgv","sub05","05","4","feedback","test","null","","","na","","202","",""
"1684","462149","HierDy3xk5vwgv","sub05","05","4","rl","test","75","img/b_d_dots.png","7","75","pattern,shape,color","203","1",""
"null","463152","HierDy3xk5vwgv","sub05","05","4","feedback","test","null","","","na","","203","",""
"1794","464948","HierDy3xk5vwgv","sub05","05","4","rl","test","68","img/b_d_diag.png","3","68","pattern,shape,color","204","1",""
"null","465950","HierDy3xk5vwgv","sub05","05","4","feedback","test","null","","","na","","204","",""
"766","466718","HierDy3xk5vwgv","sub05","05","4","rl","test","72","img/b_c_dots.png","5","72","pattern,shape,color","205","1",""
"null","467721","HierDy3xk5vwgv","sub05","05","4","feedback","test","null","","","na","","205","",""
"1095.0000000000582","468817","HierDy3xk5vwgv","sub05","05","4","rl","test","75","img/b_d_dots.png","7","75","pattern,shape,color","206","1",""
"null","469820","HierDy3xk5vwgv","sub05","05","4","feedback","test","null","","","na","","206","",""
"861","470682","HierDy3xk5vwgv","sub05","05","4","rl","test","72","img/b_c_dots.png","5","72","pattern,shape,color","207","1",""
"null","471685","HierDy3xk5vwgv","sub05","05","4","feedback","test","null","","","na","","207","",""
"1068","472755","HierDy3xk5vwgv","sub05","05","4","rl","test","83","img/p_c_diag.png","2","83","pattern,shape,color","208","1",""
"null","473757","HierDy3xk5vwgv","sub05","05","4","feedback","test","null","","","na","","208","",""
"1394","475154","HierDy3xk5vwgv","sub05","05","4","rl","test","76","img/p_d_dots.png","8","76","pattern,shape,color","209","1",""
"null","476156","HierDy3xk5vwgv","sub05","05","4","feedback","test","null","","","na","","209","",""
"1130","477287","HierDy3xk5vwgv","sub05","05","4","rl","test","70","img/p_d_diag.png","4","70","pattern,shape,color","210","1",""
"null","478290","HierDy3xk5vwgv","sub05","05","4","feedback","test","null","","","na","","210","",""
"997","479289","HierDy3xk5vwgv","sub05","05","4","rl","test","74","img/p_c_dots.png","6","74","pattern,shape,color","211","1",""
"null","480292","HierDy3xk5vwgv","sub05","05","4","feedback","test","null","","","na","","211","",""
"608.9999999999418","480903","HierDy3xk5vwgv","sub05","05","4","rl","test","74","img/p_c_dots.png","6","74","pattern,shape,color","212","1",""
"null","481905","HierDy3xk5vwgv","sub05","05","4","feedback","test","null","","","na","","212","",""
"2131.000000000058","484038","HierDy3xk5vwgv","sub05","05","4","rl","test","70","img/p_d_diag.png","4","70","pattern,shape,color","213","1",""
"null","485041","HierDy3xk5vwgv","sub05","05","4","feedback","test","null","","","na","","213","",""
"621.0000000000582","485663","HierDy3xk5vwgv","sub05","05","4","rl","test","68","img/b_d_diag.png","3","68","pattern,shape,color","214","1",""
"null","486666","HierDy3xk5vwgv","sub05","05","4","feedback","test","null","","","na","","214","",""
"1224","487891","HierDy3xk5vwgv","sub05","05","4","rl","test","83","img/p_c_diag.png","2","83","pattern,shape,color","215","1",""
"null","488894","HierDy3xk5vwgv","sub05","05","4","feedback","test","null","","","na","","215","",""
"600","489496","HierDy3xk5vwgv","sub05","05","4","rl","test","65","img/b_c_diag.png","1","65","pattern,shape,color","216","1",""
"null","490499","HierDy3xk5vwgv","sub05","05","4","feedback","test","null","","","na","","216","",""
"699.0000000000582","491199","HierDy3xk5vwgv","sub05","05","4","rl","test","74","img/p_c_dots.png","6","74","pattern,shape,color","217","1",""
"null","492202","HierDy3xk5vwgv","sub05","05","4","feedback","test","null","","","na","","217","",""
"895.9999999999418","493100","HierDy3xk5vwgv","sub05","05","4","rl","test","76","img/p_d_dots.png","8","76","pattern,shape,color","218","1",""
"null","494103","HierDy3xk5vwgv","sub05","05","4","feedback","test","null","","","na","","218","",""
"554","494659","HierDy3xk5vwgv","sub05","05","4","rl","test","72","img/b_c_dots.png","5","72","pattern,shape,color","219","1",""
"null","495662","HierDy3xk5vwgv","sub05","05","4","feedback","test","null","","","na","","219","",""
"803","496467","HierDy3xk5vwgv","sub05","05","4","rl","test","70","img/p_d_diag.png","4","70","pattern,shape,color","220","1",""
"null","497469","HierDy3xk5vwgv","sub05","05","4","feedback","test","null","","","na","","220","",""
"657.9999999999418","498129","HierDy3xk5vwgv","sub05","05","4","rl","test","75","img/b_d_dots.png","7","75","pattern,shape,color","221","1",""
"null","499132","HierDy3xk5vwgv","sub05","05","4","feedback","test","null","","","na","","221","",""
"1344","500477","HierDy3xk5vwgv","sub05","05","4","rl","test","76","img/p_d_dots.png","8","76","pattern,shape,color","222","1",""
"null","501480","HierDy3xk5vwgv","sub05","05","4","feedback","test","null","","","na","","222","",""
"828","502309","HierDy3xk5vwgv","sub05","05","4","rl","test","75","img/b_d_dots.png","7","75","pattern,shape,color","223","1",""
"null","503312","HierDy3xk5vwgv","sub05","05","4","feedback","test","null","","","na","","223","",""
"1619","504933","HierDy3xk5vwgv","sub05","05","4","rl","test","83","img/p_c_diag.png","2","83","pattern,shape,color","224","1",""
"null","505936","HierDy3xk5vwgv","sub05","05","4","feedback","test","null","","","na","","224","",""
"767","506705","HierDy3xk5vwgv","sub05","05","4","rl","test","68","img/b_d_diag.png","3","68","pattern,shape,color","225","1",""
"null","507708","HierDy3xk5vwgv","sub05","05","4","feedback","test","null","","","na","","225","",""
"1218","508927","HierDy3xk5vwgv","sub05","05","4","rl","test","65","img/b_c_diag.png","1","65","pattern,shape,color","226","1",""
"null","509931","HierDy3xk5vwgv","sub05","05","4","feedback","test","null","","","na","","226","",""
"1108.0000000000582","511041","HierDy3xk5vwgv","sub05","05","4","rl","test","68","img/b_d_diag.png","3","68","pattern,shape,color","227","1",""
"null","512045","HierDy3xk5vwgv","sub05","05","4","feedback","test","null","","","na","","227","",""
"581","512628","HierDy3xk5vwgv","sub05","05","4","rl","test","70","img/p_d_diag.png","4","70","pattern,shape,color","228","1",""
"null","513632","HierDy3xk5vwgv","sub05","05","4","feedback","test","null","","","na","","228","",""
"1687","515321","HierDy3xk5vwgv","sub05","05","4","rl","test","65","img/p_c_diag.png","2","83","pattern,shape,color","229","0",""
"null","516326","HierDy3xk5vwgv","sub05","05","4","feedback","test","null","","","na","","229","",""
"1041.9999999999418","517370","HierDy3xk5vwgv","sub05","05","4","rl","test","74","img/p_c_dots.png","6","74","pattern,shape,color","230","1",""
"null","518374","HierDy3xk5vwgv","sub05","05","4","feedback","test","null","","","na","","230","",""
"1026.9999999999418","519403","HierDy3xk5vwgv","sub05","05","4","rl","test","65","img/b_c_diag.png","1","65","pattern,shape,color","231","1",""
"null","520407","HierDy3xk5vwgv","sub05","05","4","feedback","test","null","","","na","","231","",""
"657.0000000000582","521066","HierDy3xk5vwgv","sub05","05","4","rl","test","65","img/b_c_diag.png","1","65","pattern,shape,color","232","1",""
"null","522069","HierDy3xk5vwgv","sub05","05","4","feedback","test","null","","","na","","232","",""
"852.0000000001164","522924","HierDy3xk5vwgv","sub05","05","4","rl","test","72","img/b_c_dots.png","5","72","pattern,shape,color","233","1",""
"null","523927","HierDy3xk5vwgv","sub05","05","4","feedback","test","null","","","na","","233","",""
"578","524507","HierDy3xk5vwgv","sub05","05","4","rl","test","74","img/p_c_dots.png","6","74","pattern,shape,color","234","1",""
"null","525511","HierDy3xk5vwgv","sub05","05","4","feedback","test","null","","","na","","234","",""
"1011","526524","HierDy3xk5vwgv","sub05","05","4","rl","test","70","img/p_d_diag.png","4","70","pattern,shape,color","235","1",""
"null","527528","HierDy3xk5vwgv","sub05","05","4","feedback","test","null","","","na","","235","",""
"922","528452","HierDy3xk5vwgv","sub05","05","4","rl","test","72","img/b_c_dots.png","5","72","pattern,shape,color","236","1",""
"null","529456","HierDy3xk5vwgv","sub05","05","4","feedback","test","null","","","na","","236","",""
"1209","530667","HierDy3xk5vwgv","sub05","05","4","rl","test","76","img/p_d_dots.png","8","76","pattern,shape,color","237","1",""
"null","531670","HierDy3xk5vwgv","sub05","05","4","feedback","test","null","","","na","","237","",""
"969","532642","HierDy3xk5vwgv","sub05","05","4","rl","test","75","img/b_d_dots.png","7","75","pattern,shape,color","238","1",""
"null","533646","HierDy3xk5vwgv","sub05","05","4","feedback","test","null","","","na","","238","",""
"2124","535773","HierDy3xk5vwgv","sub05","05","4","rl","test","68","img/b_d_diag.png","3","68","pattern,shape,color","239","1",""
"null","536777","HierDy3xk5vwgv","sub05","05","4","feedback","test","null","","","na","","239","",""
"1360","538139","HierDy3xk5vwgv","sub05","05","4","rl","test","83","img/p_c_diag.png","2","83","pattern,shape,color","240","1",""
"null","539142","HierDy3xk5vwgv","sub05","05","4","feedback","test","null","","","na","","240","",""
"870.9999999998836","540016","HierDy3xk5vwgv","sub05","05","4","rl","test","70","img/p_d_diag.png","4","70","pattern,shape,color","241","1",""
"null","541019","HierDy3xk5vwgv","sub05","05","4","feedback","test","null","","","na","","241","",""
"1505","542526","HierDy3xk5vwgv","sub05","05","4","rl","test","72","img/b_c_dots.png","5","72","pattern,shape,color","242","1",""
"null","543530","HierDy3xk5vwgv","sub05","05","4","feedback","test","null","","","na","","242","",""
"1412","544944","HierDy3xk5vwgv","sub05","05","4","rl","test","83","img/p_c_diag.png","2","83","pattern,shape,color","243","1",""
"null","545948","HierDy3xk5vwgv","sub05","05","4","feedback","test","null","","","na","","243","",""
"821","546771","HierDy3xk5vwgv","sub05","05","4","rl","test","65","img/b_c_diag.png","1","65","pattern,shape,color","244","1",""
"null","547775","HierDy3xk5vwgv","sub05","05","4","feedback","test","null","","","na","","244","",""
"1518","549295","HierDy3xk5vwgv","sub05","05","4","rl","test","76","img/p_d_dots.png","8","76","pattern,shape,color","245","1",""
"null","550298","HierDy3xk5vwgv","sub05","05","4","feedback","test","null","","","na","","245","",""
"659","550959","HierDy3xk5vwgv","sub05","05","4","rl","test","70","img/b_d_diag.png","3","68","pattern,shape,color","246","0",""
"null","551963","HierDy3xk5vwgv","sub05","05","4","feedback","test","null","","","na","","246","",""
"1056","553021","HierDy3xk5vwgv","sub05","05","4","rl","test","74","img/p_c_dots.png","6","74","pattern,shape,color","247","1",""
"null","554025","HierDy3xk5vwgv","sub05","05","4","feedback","test","null","","","na","","247","",""
"934","554961","HierDy3xk5vwgv","sub05","05","4","rl","test","75","img/b_d_dots.png","7","75","pattern,shape,color","248","1",""
"null","555965","HierDy3xk5vwgv","sub05","05","4","feedback","test","null","","","na","","248","",""
"24536","580534","HierDy3xk5vwgv","sub05","05","4","","","","","","","","","","{""Q0"":""4.5""}"
"81129.00000000012","661667","HierDy3xk5vwgv","sub05","05","4","","","","","","","","","","{""Q0"":""saying the number of my finger to press down out loud and remembering that the shapes were grouped together (every 2 keys), with the design being specific to each hand, and the colors switched every other key""}"
"6064","667732","HierDy3xk5vwgv","sub05","05","4","","","","","","","","","",""
