"rt","time_elapsed","subject","subID","group","day","trialType","key_press","stim","corrresp","phase","stimNum","trialNum","corr","repeatTrial","motorSwitch","hierarchy","responses"
"1297","1323","HierDy5qw5xqtq","sub12","12","8","","","","","","","","","","","",""
"","3065","HierDy5qw5xqtq","sub12","12","8","fullscreen","","","","","","","","","","",""
"355181","358258","HierDy5qw5xqtq","sub12","12","8","","","","","","","","","","","",""
"652","358924","HierDy5qw5xqtq","sub12","12","8","motor","76","img/motor_8.png","76","motor","8","1","1","0","0","",""
"null","359039","HierDy5qw5xqtq","sub12","12","8","iti","null","img/motor_8.png","76","motor","","","","","","",""
"394","359444","HierDy5qw5xqtq","sub12","12","8","motor","75","img/motor_7.png","75","motor","7","2","1","0","0","",""
"null","359553","HierDy5qw5xqtq","sub12","12","8","iti","null","img/motor_7.png","75","motor","","","","","","",""
"492","360054","HierDy5qw5xqtq","sub12","12","8","motor","72","img/motor_5.png","72","motor","5","3","1","0","0","",""
"null","360164","HierDy5qw5xqtq","sub12","12","8","iti","null","img/motor_5.png","72","motor","","","","","","",""
"426","360601","HierDy5qw5xqtq","sub12","12","8","motor","76","img/motor_8.png","76","motor","8","4","1","0","0","",""
"null","360711","HierDy5qw5xqtq","sub12","12","8","iti","null","img/motor_8.png","76","motor","","","","","","",""
"403","361124","HierDy5qw5xqtq","sub12","12","8","motor","72","img/motor_5.png","72","motor","5","5","1","0","0","",""
"null","361235","HierDy5qw5xqtq","sub12","12","8","iti","null","img/motor_5.png","72","motor","","","","","","",""
"578","361821","HierDy5qw5xqtq","sub12","12","8","motor","70","img/motor_3.png","68","motor","3","6","0","1","0","",""
"338","362168","HierDy5qw5xqtq","sub12","12","8","motorRepeat","68","img/motor_3.png","68","motor","3","6","1","0","0","",""
"null","362279","HierDy5qw5xqtq","sub12","12","8","iti","null","img/motor_3.png","68","motor","","","","","","",""
"407","362695","HierDy5qw5xqtq","sub12","12","8","motor","68","img/motor_3.png","68","motor","3","7","1","0","0","",""
"null","362805","HierDy5qw5xqtq","sub12","12","8","iti","null","img/motor_3.png","68","motor","","","","","","",""
"432","363245","HierDy5qw5xqtq","sub12","12","8","motor","76","img/motor_8.png","76","motor","8","8","1","0","0","",""
"null","363355","HierDy5qw5xqtq","sub12","12","8","iti","null","img/motor_8.png","76","motor","","","","","","",""
"485","363849","HierDy5qw5xqtq","sub12","12","8","motor","75","img/motor_7.png","75","motor","7","9","1","0","0","",""
"null","363960","HierDy5qw5xqtq","sub12","12","8","iti","null","img/motor_7.png","75","motor","","","","","","",""
"554","364522","HierDy5qw5xqtq","sub12","12","8","motor","83","img/motor_2.png","83","motor","2","10","1","0","0","",""
"null","364633","HierDy5qw5xqtq","sub12","12","8","iti","null","img/motor_2.png","83","motor","","","","","","",""
"460","365102","HierDy5qw5xqtq","sub12","12","8","motor","70","img/motor_4.png","70","motor","4","11","1","0","0","",""
"null","365213","HierDy5qw5xqtq","sub12","12","8","iti","null","img/motor_4.png","70","motor","","","","","","",""
"482","365704","HierDy5qw5xqtq","sub12","12","8","motor","83","img/motor_2.png","83","motor","2","12","1","0","0","",""
"null","365814","HierDy5qw5xqtq","sub12","12","8","iti","null","img/motor_2.png","83","motor","","","","","","",""
"433","366256","HierDy5qw5xqtq","sub12","12","8","motor","65","img/motor_1.png","65","motor","1","13","1","0","0","",""
"null","366368","HierDy5qw5xqtq","sub12","12","8","iti","null","img/motor_1.png","65","motor","","","","","","",""
"471","366849","HierDy5qw5xqtq","sub12","12","8","motor","83","img/motor_2.png","83","motor","2","14","1","0","0","",""
"null","366959","HierDy5qw5xqtq","sub12","12","8","iti","null","img/motor_2.png","83","motor","","","","","","",""
"629","367597","HierDy5qw5xqtq","sub12","12","8","motor","74","img/motor_6.png","74","motor","6","15","1","0","0","",""
"null","367707","HierDy5qw5xqtq","sub12","12","8","iti","null","img/motor_6.png","74","motor","","","","","","",""
"616","368332","HierDy5qw5xqtq","sub12","12","8","motor","75","img/motor_7.png","75","motor","7","16","1","0","0","",""
"null","368442","HierDy5qw5xqtq","sub12","12","8","iti","null","img/motor_7.png","75","motor","","","","","","",""
"370","368821","HierDy5qw5xqtq","sub12","12","8","motor","76","img/motor_8.png","76","motor","8","17","1","0","0","",""
"null","368932","HierDy5qw5xqtq","sub12","12","8","iti","null","img/motor_8.png","76","motor","","","","","","",""
"436","369375","HierDy5qw5xqtq","sub12","12","8","motor","65","img/motor_1.png","65","motor","1","18","1","0","0","",""
"null","369487","HierDy5qw5xqtq","sub12","12","8","iti","null","img/motor_1.png","65","motor","","","","","","",""
"494","369990","HierDy5qw5xqtq","sub12","12","8","motor","76","img/motor_8.png","76","motor","8","19","1","0","0","",""
"null","370101","HierDy5qw5xqtq","sub12","12","8","iti","null","img/motor_8.png","76","motor","","","","","","",""
"463","370572","HierDy5qw5xqtq","sub12","12","8","motor","68","img/motor_3.png","68","motor","3","20","1","0","0","",""
"null","370683","HierDy5qw5xqtq","sub12","12","8","iti","null","img/motor_3.png","68","motor","","","","","","",""
"432","371125","HierDy5qw5xqtq","sub12","12","8","motor","76","img/motor_8.png","76","motor","8","21","1","0","0","",""
"null","371236","HierDy5qw5xqtq","sub12","12","8","iti","null","img/motor_8.png","76","motor","","","","","","",""
"773","372018","HierDy5qw5xqtq","sub12","12","8","motor","74","img/motor_6.png","74","motor","6","22","1","0","0","",""
"null","372128","HierDy5qw5xqtq","sub12","12","8","iti","null","img/motor_6.png","74","motor","","","","","","",""
"468","372606","HierDy5qw5xqtq","sub12","12","8","motor","72","img/motor_5.png","72","motor","5","23","1","0","0","",""
"null","372716","HierDy5qw5xqtq","sub12","12","8","iti","null","img/motor_5.png","72","motor","","","","","","",""
"386","373112","HierDy5qw5xqtq","sub12","12","8","motor","74","img/motor_6.png","74","motor","6","24","1","0","0","",""
"null","373223","HierDy5qw5xqtq","sub12","12","8","iti","null","img/motor_6.png","74","motor","","","","","","",""
"472","373704","HierDy5qw5xqtq","sub12","12","8","motor","70","img/motor_4.png","70","motor","4","25","1","0","0","",""
"null","373815","HierDy5qw5xqtq","sub12","12","8","iti","null","img/motor_4.png","70","motor","","","","","","",""
"409","374234","HierDy5qw5xqtq","sub12","12","8","motor","74","img/motor_6.png","74","motor","6","26","1","0","0","",""
"null","374344","HierDy5qw5xqtq","sub12","12","8","iti","null","img/motor_6.png","74","motor","","","","","","",""
"397","374750","HierDy5qw5xqtq","sub12","12","8","motor","74","img/motor_6.png","74","motor","6","27","1","0","0","",""
"null","374860","HierDy5qw5xqtq","sub12","12","8","iti","null","img/motor_6.png","74","motor","","","","","","",""
"599","375467","HierDy5qw5xqtq","sub12","12","8","motor","83","img/motor_2.png","83","motor","2","28","1","0","0","",""
"null","375578","HierDy5qw5xqtq","sub12","12","8","iti","null","img/motor_2.png","83","motor","","","","","","",""
"493","376080","HierDy5qw5xqtq","sub12","12","8","motor","72","img/motor_5.png","72","motor","5","29","1","0","0","",""
"null","376191","HierDy5qw5xqtq","sub12","12","8","iti","null","img/motor_5.png","72","motor","","","","","","",""
"451","376651","HierDy5qw5xqtq","sub12","12","8","motor","75","img/motor_7.png","75","motor","7","30","1","0","0","",""
"null","376758","HierDy5qw5xqtq","sub12","12","8","iti","null","img/motor_7.png","75","motor","","","","","","",""
"406","377172","HierDy5qw5xqtq","sub12","12","8","motor","75","img/motor_7.png","75","motor","7","31","1","0","0","",""
"null","377280","HierDy5qw5xqtq","sub12","12","8","iti","null","img/motor_7.png","75","motor","","","","","","",""
"571","377861","HierDy5qw5xqtq","sub12","12","8","motor","68","img/motor_3.png","68","motor","3","32","1","0","0","",""
"null","377971","HierDy5qw5xqtq","sub12","12","8","iti","null","img/motor_3.png","68","motor","","","","","","",""
"513","378492","HierDy5qw5xqtq","sub12","12","8","motor","72","img/motor_5.png","72","motor","5","33","1","0","0","",""
"null","378602","HierDy5qw5xqtq","sub12","12","8","iti","null","img/motor_5.png","72","motor","","","","","","",""
"508","379118","HierDy5qw5xqtq","sub12","12","8","motor","70","img/motor_4.png","70","motor","4","34","1","0","0","",""
"null","379229","HierDy5qw5xqtq","sub12","12","8","iti","null","img/motor_4.png","70","motor","","","","","","",""
"494","379731","HierDy5qw5xqtq","sub12","12","8","motor","65","img/motor_1.png","65","motor","1","35","1","0","0","",""
"null","379841","HierDy5qw5xqtq","sub12","12","8","iti","null","img/motor_1.png","65","motor","","","","","","",""
"394","380243","HierDy5qw5xqtq","sub12","12","8","motor","65","img/motor_1.png","65","motor","1","36","1","0","0","",""
"null","380353","HierDy5qw5xqtq","sub12","12","8","iti","null","img/motor_1.png","65","motor","","","","","","",""
"510","380871","HierDy5qw5xqtq","sub12","12","8","motor","83","img/motor_2.png","83","motor","2","37","1","0","0","",""
"null","380982","HierDy5qw5xqtq","sub12","12","8","iti","null","img/motor_2.png","83","motor","","","","","","",""
"448","381438","HierDy5qw5xqtq","sub12","12","8","motor","65","img/motor_1.png","65","motor","1","38","1","0","0","",""
"null","381545","HierDy5qw5xqtq","sub12","12","8","iti","null","img/motor_1.png","65","motor","","","","","","",""
"371","381925","HierDy5qw5xqtq","sub12","12","8","motor","65","img/motor_1.png","65","motor","1","39","1","0","0","",""
"null","382033","HierDy5qw5xqtq","sub12","12","8","iti","null","img/motor_1.png","65","motor","","","","","","",""
"599","382641","HierDy5qw5xqtq","sub12","12","8","motor","74","img/motor_6.png","74","motor","6","40","1","0","0","",""
"null","382751","HierDy5qw5xqtq","sub12","12","8","iti","null","img/motor_6.png","74","motor","","","","","","",""
"414","383175","HierDy5qw5xqtq","sub12","12","8","motor","76","img/motor_8.png","76","motor","8","41","1","0","0","",""
"null","383284","HierDy5qw5xqtq","sub12","12","8","iti","null","img/motor_8.png","76","motor","","","","","","",""
"553","383847","HierDy5qw5xqtq","sub12","12","8","motor","70","img/motor_4.png","70","motor","4","42","1","0","0","",""
"null","383957","HierDy5qw5xqtq","sub12","12","8","iti","null","img/motor_4.png","70","motor","","","","","","",""
"417","384385","HierDy5qw5xqtq","sub12","12","8","motor","70","img/motor_4.png","70","motor","4","43","1","0","0","",""
"null","384496","HierDy5qw5xqtq","sub12","12","8","iti","null","img/motor_4.png","70","motor","","","","","","",""
"416","384922","HierDy5qw5xqtq","sub12","12","8","motor","74","img/motor_5.png","72","motor","5","44","0","1","0","",""
"357","385287","HierDy5qw5xqtq","sub12","12","8","motorRepeat","72","img/motor_5.png","72","motor","5","44","1","0","0","",""
"null","385397","HierDy5qw5xqtq","sub12","12","8","iti","null","img/motor_5.png","72","motor","","","","","","",""
"640","386044","HierDy5qw5xqtq","sub12","12","8","motor","83","img/motor_2.png","83","motor","2","45","1","0","0","",""
"null","386155","HierDy5qw5xqtq","sub12","12","8","iti","null","img/motor_2.png","83","motor","","","","","","",""
"607","386773","HierDy5qw5xqtq","sub12","12","8","motor","75","img/motor_7.png","75","motor","7","46","1","0","0","",""
"null","386883","HierDy5qw5xqtq","sub12","12","8","iti","null","img/motor_7.png","75","motor","","","","","","",""
"595","387484","HierDy5qw5xqtq","sub12","12","8","motor","83","img/motor_2.png","83","motor","2","47","1","0","0","",""
"null","387597","HierDy5qw5xqtq","sub12","12","8","iti","null","img/motor_2.png","83","motor","","","","","","",""
"503","388110","HierDy5qw5xqtq","sub12","12","8","motor","72","img/motor_5.png","72","motor","5","48","1","0","0","",""
"null","388219","HierDy5qw5xqtq","sub12","12","8","iti","null","img/motor_5.png","72","motor","","","","","","",""
"462","388691","HierDy5qw5xqtq","sub12","12","8","motor","76","img/motor_8.png","76","motor","8","49","1","0","0","",""
"null","388800","HierDy5qw5xqtq","sub12","12","8","iti","null","img/motor_8.png","76","motor","","","","","","",""
"484","389292","HierDy5qw5xqtq","sub12","12","8","motor","65","img/motor_1.png","65","motor","1","50","1","0","0","",""
"null","389402","HierDy5qw5xqtq","sub12","12","8","iti","null","img/motor_1.png","65","motor","","","","","","",""
"501","389914","HierDy5qw5xqtq","sub12","12","8","motor","76","img/motor_8.png","76","motor","8","51","1","0","0","",""
"null","390025","HierDy5qw5xqtq","sub12","12","8","iti","null","img/motor_8.png","76","motor","","","","","","",""
"462","390496","HierDy5qw5xqtq","sub12","12","8","motor","72","img/motor_5.png","72","motor","5","52","1","0","0","",""
"null","390607","HierDy5qw5xqtq","sub12","12","8","iti","null","img/motor_5.png","72","motor","","","","","","",""
"504","391120","HierDy5qw5xqtq","sub12","12","8","motor","70","img/motor_4.png","70","motor","4","53","1","0","0","",""
"null","391231","HierDy5qw5xqtq","sub12","12","8","iti","null","img/motor_4.png","70","motor","","","","","","",""
"469","391709","HierDy5qw5xqtq","sub12","12","8","motor","76","img/motor_8.png","76","motor","8","54","1","0","0","",""
"null","391819","HierDy5qw5xqtq","sub12","12","8","iti","null","img/motor_8.png","76","motor","","","","","","",""
"552","392379","HierDy5qw5xqtq","sub12","12","8","motor","83","img/motor_2.png","83","motor","2","55","1","0","0","",""
"null","392491","HierDy5qw5xqtq","sub12","12","8","iti","null","img/motor_2.png","83","motor","","","","","","",""
"501","393001","HierDy5qw5xqtq","sub12","12","8","motor","68","img/motor_3.png","68","motor","3","56","1","0","0","",""
"null","393112","HierDy5qw5xqtq","sub12","12","8","iti","null","img/motor_3.png","68","motor","","","","","","",""
"478","393600","HierDy5qw5xqtq","sub12","12","8","motor","76","img/motor_8.png","76","motor","8","57","1","0","0","",""
"null","393710","HierDy5qw5xqtq","sub12","12","8","iti","null","img/motor_8.png","76","motor","","","","","","",""
"524","394244","HierDy5qw5xqtq","sub12","12","8","motor","75","img/motor_7.png","75","motor","7","58","1","0","0","",""
"null","394354","HierDy5qw5xqtq","sub12","12","8","iti","null","img/motor_7.png","75","motor","","","","","","",""
"566","394928","HierDy5qw5xqtq","sub12","12","8","motor","70","img/motor_4.png","70","motor","4","59","1","0","0","",""
"null","395039","HierDy5qw5xqtq","sub12","12","8","iti","null","img/motor_4.png","70","motor","","","","","","",""
"469","395516","HierDy5qw5xqtq","sub12","12","8","motor","68","img/motor_3.png","68","motor","3","60","1","0","0","",""
"null","395626","HierDy5qw5xqtq","sub12","12","8","iti","null","img/motor_3.png","68","motor","","","","","","",""
"392","396027","HierDy5qw5xqtq","sub12","12","8","motor","65","img/motor_1.png","65","motor","1","61","1","0","0","",""
"null","396137","HierDy5qw5xqtq","sub12","12","8","iti","null","img/motor_1.png","65","motor","","","","","","",""
"444","396591","HierDy5qw5xqtq","sub12","12","8","motor","83","img/motor_2.png","83","motor","2","62","1","0","0","",""
"null","396702","HierDy5qw5xqtq","sub12","12","8","iti","null","img/motor_2.png","83","motor","","","","","","",""
"617","397328","HierDy5qw5xqtq","sub12","12","8","motor","75","img/motor_7.png","75","motor","7","63","1","0","0","",""
"null","397439","HierDy5qw5xqtq","sub12","12","8","iti","null","img/motor_7.png","75","motor","","","","","","",""
"623","398071","HierDy5qw5xqtq","sub12","12","8","motor","83","img/motor_2.png","83","motor","2","64","1","0","0","",""
"null","398180","HierDy5qw5xqtq","sub12","12","8","iti","null","img/motor_2.png","83","motor","","","","","","",""
"438","398627","HierDy5qw5xqtq","sub12","12","8","motor","65","img/motor_1.png","65","motor","1","65","1","0","0","",""
"null","398739","HierDy5qw5xqtq","sub12","12","8","iti","null","img/motor_1.png","65","motor","","","","","","",""
"461","399209","HierDy5qw5xqtq","sub12","12","8","motor","75","img/motor_7.png","75","motor","7","66","1","0","0","",""
"null","399319","HierDy5qw5xqtq","sub12","12","8","iti","null","img/motor_7.png","75","motor","","","","","","",""
"538","399868","HierDy5qw5xqtq","sub12","12","8","motor","83","img/motor_2.png","83","motor","2","67","1","0","0","",""
"null","399979","HierDy5qw5xqtq","sub12","12","8","iti","null","img/motor_2.png","83","motor","","","","","","",""
"561","400549","HierDy5qw5xqtq","sub12","12","8","motor","74","img/motor_6.png","74","motor","6","68","1","0","0","",""
"null","400658","HierDy5qw5xqtq","sub12","12","8","iti","null","img/motor_6.png","74","motor","","","","","","",""
"478","401147","HierDy5qw5xqtq","sub12","12","8","motor","70","img/motor_4.png","70","motor","4","69","1","0","0","",""
"null","401258","HierDy5qw5xqtq","sub12","12","8","iti","null","img/motor_4.png","70","motor","","","","","","",""
"443","401710","HierDy5qw5xqtq","sub12","12","8","motor","83","img/motor_2.png","83","motor","2","70","1","0","0","",""
"null","401821","HierDy5qw5xqtq","sub12","12","8","iti","null","img/motor_2.png","83","motor","","","","","","",""
"469","402299","HierDy5qw5xqtq","sub12","12","8","motor","68","img/motor_3.png","68","motor","3","71","1","0","0","",""
"null","402409","HierDy5qw5xqtq","sub12","12","8","iti","null","img/motor_3.png","68","motor","","","","","","",""
"651","403068","HierDy5qw5xqtq","sub12","12","8","motor","74","img/motor_6.png","74","motor","6","72","1","0","0","",""
"null","403177","HierDy5qw5xqtq","sub12","12","8","iti","null","img/motor_6.png","74","motor","","","","","","",""
"520","403705","HierDy5qw5xqtq","sub12","12","8","motor","70","img/motor_4.png","70","motor","4","73","1","0","0","",""
"null","403817","HierDy5qw5xqtq","sub12","12","8","iti","null","img/motor_4.png","70","motor","","","","","","",""
"491","404318","HierDy5qw5xqtq","sub12","12","8","motor","83","img/motor_2.png","83","motor","2","74","1","0","0","",""
"null","404428","HierDy5qw5xqtq","sub12","12","8","iti","null","img/motor_2.png","83","motor","","","","","","",""
"394","404832","HierDy5qw5xqtq","sub12","12","8","motor","70","img/motor_4.png","70","motor","4","75","1","0","0","",""
"null","404942","HierDy5qw5xqtq","sub12","12","8","iti","null","img/motor_4.png","70","motor","","","","","","",""
"421","405373","HierDy5qw5xqtq","sub12","12","8","motor","75","img/motor_7.png","75","motor","7","76","1","0","0","",""
"null","405484","HierDy5qw5xqtq","sub12","12","8","iti","null","img/motor_7.png","75","motor","","","","","","",""
"742","406235","HierDy5qw5xqtq","sub12","12","8","motor","76","img/motor_8.png","76","motor","8","77","1","0","0","",""
"null","406346","HierDy5qw5xqtq","sub12","12","8","iti","null","img/motor_8.png","76","motor","","","","","","",""
"533","406887","HierDy5qw5xqtq","sub12","12","8","motor","83","img/motor_2.png","83","motor","2","78","1","0","0","",""
"null","406996","HierDy5qw5xqtq","sub12","12","8","iti","null","img/motor_2.png","83","motor","","","","","","",""
"509","407515","HierDy5qw5xqtq","sub12","12","8","motor","76","img/motor_8.png","76","motor","8","79","1","0","0","",""
"null","407624","HierDy5qw5xqtq","sub12","12","8","iti","null","img/motor_8.png","76","motor","","","","","","",""
"440","408073","HierDy5qw5xqtq","sub12","12","8","motor","74","img/motor_6.png","74","motor","6","80","1","0","0","",""
"null","408183","HierDy5qw5xqtq","sub12","12","8","iti","null","img/motor_6.png","74","motor","","","","","","",""
"411","408604","HierDy5qw5xqtq","sub12","12","8","motor","75","img/motor_6.png","74","motor","6","81","0","1","0","",""
"19","408632","HierDy5qw5xqtq","sub12","12","8","motorRepeat","74","img/motor_6.png","74","motor","6","81","1","0","0","",""
"null","408741","HierDy5qw5xqtq","sub12","12","8","iti","null","img/motor_6.png","74","motor","","","","","","",""
"572","409324","HierDy5qw5xqtq","sub12","12","8","motor","70","img/motor_4.png","70","motor","4","82","1","0","0","",""
"null","409433","HierDy5qw5xqtq","sub12","12","8","iti","null","img/motor_4.png","70","motor","","","","","","",""
"450","409894","HierDy5qw5xqtq","sub12","12","8","motor","74","img/motor_6.png","74","motor","6","83","1","0","0","",""
"null","410006","HierDy5qw5xqtq","sub12","12","8","iti","null","img/motor_6.png","74","motor","","","","","","",""
"575","410589","HierDy5qw5xqtq","sub12","12","8","motor","72","img/motor_5.png","72","motor","5","84","1","0","0","",""
"null","410700","HierDy5qw5xqtq","sub12","12","8","iti","null","img/motor_5.png","72","motor","","","","","","",""
"389","411098","HierDy5qw5xqtq","sub12","12","8","motor","74","img/motor_6.png","74","motor","6","85","1","0","0","",""
"null","411206","HierDy5qw5xqtq","sub12","12","8","iti","null","img/motor_6.png","74","motor","","","","","","",""
"333","411548","HierDy5qw5xqtq","sub12","12","8","motor","72","img/motor_5.png","72","motor","5","86","1","0","0","",""
"null","411660","HierDy5qw5xqtq","sub12","12","8","iti","null","img/motor_5.png","72","motor","","","","","","",""
"578","412248","HierDy5qw5xqtq","sub12","12","8","motor","68","img/motor_3.png","68","motor","3","87","1","0","0","",""
"null","412359","HierDy5qw5xqtq","sub12","12","8","iti","null","img/motor_3.png","68","motor","","","","","","",""
"553","412921","HierDy5qw5xqtq","sub12","12","8","motor","76","img/motor_8.png","76","motor","8","88","1","0","0","",""
"null","413032","HierDy5qw5xqtq","sub12","12","8","iti","null","img/motor_8.png","76","motor","","","","","","",""
"642","413683","HierDy5qw5xqtq","sub12","12","8","motor","70","img/motor_4.png","70","motor","4","89","1","0","0","",""
"null","413791","HierDy5qw5xqtq","sub12","12","8","iti","null","img/motor_4.png","70","motor","","","","","","",""
"514","414315","HierDy5qw5xqtq","sub12","12","8","motor","74","img/motor_6.png","74","motor","6","90","1","0","0","",""
"null","414426","HierDy5qw5xqtq","sub12","12","8","iti","null","img/motor_6.png","74","motor","","","","","","",""
"406","414843","HierDy5qw5xqtq","sub12","12","8","motor","75","img/motor_7.png","75","motor","7","91","1","0","0","",""
"null","414953","HierDy5qw5xqtq","sub12","12","8","iti","null","img/motor_7.png","75","motor","","","","","","",""
"449","415411","HierDy5qw5xqtq","sub12","12","8","motor","72","img/motor_5.png","72","motor","5","92","1","0","0","",""
"null","415521","HierDy5qw5xqtq","sub12","12","8","iti","null","img/motor_5.png","72","motor","","","","","","",""
"462","415993","HierDy5qw5xqtq","sub12","12","8","motor","68","img/motor_3.png","68","motor","3","93","1","0","0","",""
"null","416103","HierDy5qw5xqtq","sub12","12","8","iti","null","img/motor_3.png","68","motor","","","","","","",""
"463","416574","HierDy5qw5xqtq","sub12","12","8","motor","74","img/motor_6.png","74","motor","6","94","1","0","0","",""
"null","416684","HierDy5qw5xqtq","sub12","12","8","iti","null","img/motor_6.png","74","motor","","","","","","",""
"458","417151","HierDy5qw5xqtq","sub12","12","8","motor","65","img/motor_1.png","65","motor","1","95","1","0","0","",""
"null","417263","HierDy5qw5xqtq","sub12","12","8","iti","null","img/motor_1.png","65","motor","","","","","","",""
"433","417705","HierDy5qw5xqtq","sub12","12","8","motor","72","img/motor_5.png","72","motor","5","96","1","0","0","",""
"null","417815","HierDy5qw5xqtq","sub12","12","8","iti","null","img/motor_5.png","72","motor","","","","","","",""
"436","418260","HierDy5qw5xqtq","sub12","12","8","motor","65","img/motor_1.png","65","motor","1","97","1","0","0","",""
"null","418372","HierDy5qw5xqtq","sub12","12","8","iti","null","img/motor_1.png","65","motor","","","","","","",""
"431","418811","HierDy5qw5xqtq","sub12","12","8","motor","70","img/motor_4.png","70","motor","4","98","1","0","0","",""
"null","418920","HierDy5qw5xqtq","sub12","12","8","iti","null","img/motor_4.png","70","motor","","","","","","",""
"475","419406","HierDy5qw5xqtq","sub12","12","8","motor","83","img/motor_2.png","83","motor","2","99","1","0","0","",""
"null","419516","HierDy5qw5xqtq","sub12","12","8","iti","null","img/motor_2.png","83","motor","","","","","","",""
"493","420018","HierDy5qw5xqtq","sub12","12","8","motor","74","img/motor_6.png","74","motor","6","100","1","0","0","",""
"null","420128","HierDy5qw5xqtq","sub12","12","8","iti","null","img/motor_6.png","74","motor","","","","","","",""
"388","420525","HierDy5qw5xqtq","sub12","12","8","motor","74","img/motor_6.png","74","motor","6","101","1","0","0","",""
"null","420636","HierDy5qw5xqtq","sub12","12","8","iti","null","img/motor_6.png","74","motor","","","","","","",""
"781","421427","HierDy5qw5xqtq","sub12","12","8","motor","76","img/motor_8.png","76","motor","8","102","1","0","0","",""
"null","421535","HierDy5qw5xqtq","sub12","12","8","iti","null","img/motor_8.png","76","motor","","","","","","",""
"662","422207","HierDy5qw5xqtq","sub12","12","8","motor","68","img/motor_3.png","68","motor","3","103","1","0","0","",""
"null","422318","HierDy5qw5xqtq","sub12","12","8","iti","null","img/motor_3.png","68","motor","","","","","","",""
"452","422778","HierDy5qw5xqtq","sub12","12","8","motor","76","img/motor_8.png","76","motor","8","104","1","0","0","",""
"null","422889","HierDy5qw5xqtq","sub12","12","8","iti","null","img/motor_8.png","76","motor","","","","","","",""
"483","423382","HierDy5qw5xqtq","sub12","12","8","motor","83","img/motor_2.png","83","motor","2","105","1","0","0","",""
"null","423490","HierDy5qw5xqtq","sub12","12","8","iti","null","img/motor_2.png","83","motor","","","","","","",""
"483","423984","HierDy5qw5xqtq","sub12","12","8","motor","68","img/motor_3.png","68","motor","3","106","1","0","0","",""
"60","424094","HierDy5qw5xqtq","sub12","12","8","iti","68","img/motor_3.png","68","motor","","","","","","",""
"436","424538","HierDy5qw5xqtq","sub12","12","8","motor","72","img/motor_5.png","72","motor","5","107","1","0","0","",""
"null","424646","HierDy5qw5xqtq","sub12","12","8","iti","null","img/motor_5.png","72","motor","","","","","","",""
"441","425095","HierDy5qw5xqtq","sub12","12","8","motor","65","img/motor_1.png","65","motor","1","108","1","0","0","",""
"null","425207","HierDy5qw5xqtq","sub12","12","8","iti","null","img/motor_1.png","65","motor","","","","","","",""
"478","425696","HierDy5qw5xqtq","sub12","12","8","motor","75","img/motor_7.png","75","motor","7","109","1","0","0","",""
"null","425805","HierDy5qw5xqtq","sub12","12","8","iti","null","img/motor_7.png","75","motor","","","","","","",""
"452","426266","HierDy5qw5xqtq","sub12","12","8","motor","70","img/motor_4.png","70","motor","4","110","1","0","0","",""
"null","426376","HierDy5qw5xqtq","sub12","12","8","iti","null","img/motor_4.png","70","motor","","","","","","",""
"502","426889","HierDy5qw5xqtq","sub12","12","8","motor","75","img/motor_7.png","75","motor","7","111","1","0","0","",""
"null","427000","HierDy5qw5xqtq","sub12","12","8","iti","null","img/motor_7.png","75","motor","","","","","","",""
"367","427376","HierDy5qw5xqtq","sub12","12","8","motor","75","img/motor_7.png","75","motor","7","112","1","0","0","",""
"null","427486","HierDy5qw5xqtq","sub12","12","8","iti","null","img/motor_7.png","75","motor","","","","","","",""
"426","427921","HierDy5qw5xqtq","sub12","12","8","motor","65","img/motor_1.png","65","motor","1","113","1","0","0","",""
"null","428030","HierDy5qw5xqtq","sub12","12","8","iti","null","img/motor_1.png","65","motor","","","","","","",""
"388","428428","HierDy5qw5xqtq","sub12","12","8","motor","70","img/motor_4.png","70","motor","4","114","1","0","0","",""
"null","428537","HierDy5qw5xqtq","sub12","12","8","iti","null","img/motor_4.png","70","motor","","","","","","",""
"555","429101","HierDy5qw5xqtq","sub12","12","8","motor","76","img/motor_8.png","76","motor","8","115","1","0","0","",""
"null","429213","HierDy5qw5xqtq","sub12","12","8","iti","null","img/motor_8.png","76","motor","","","","","","",""
"565","429786","HierDy5qw5xqtq","sub12","12","8","motor","68","img/motor_3.png","68","motor","3","116","1","0","0","",""
"null","429895","HierDy5qw5xqtq","sub12","12","8","iti","null","img/motor_3.png","68","motor","","","","","","",""
"567","430473","HierDy5qw5xqtq","sub12","12","8","motor","83","img/motor_2.png","83","motor","2","117","1","0","0","",""
"null","430585","HierDy5qw5xqtq","sub12","12","8","iti","null","img/motor_2.png","83","motor","","","","","","",""
"384","430976","HierDy5qw5xqtq","sub12","12","8","motor","83","img/motor_2.png","83","motor","2","118","1","0","0","",""
"null","431087","HierDy5qw5xqtq","sub12","12","8","iti","null","img/motor_2.png","83","motor","","","","","","",""
"504","431599","HierDy5qw5xqtq","sub12","12","8","motor","70","img/motor_4.png","70","motor","4","119","1","0","0","",""
"null","431710","HierDy5qw5xqtq","sub12","12","8","iti","null","img/motor_4.png","70","motor","","","","","","",""
"462","432182","HierDy5qw5xqtq","sub12","12","8","motor","68","img/motor_3.png","68","motor","3","120","1","0","0","",""
"null","432291","HierDy5qw5xqtq","sub12","12","8","iti","null","img/motor_3.png","68","motor","","","","","","",""
"329","432628","HierDy5qw5xqtq","sub12","12","8","motor","70","img/motor_4.png","70","motor","4","121","1","0","0","",""
"null","432737","HierDy5qw5xqtq","sub12","12","8","iti","null","img/motor_4.png","70","motor","","","","","","",""
"346","433092","HierDy5qw5xqtq","sub12","12","8","motor","65","img/motor_1.png","65","motor","1","122","1","0","0","",""
"null","433202","HierDy5qw5xqtq","sub12","12","8","iti","null","img/motor_1.png","65","motor","","","","","","",""
"421","433633","HierDy5qw5xqtq","sub12","12","8","motor","76","img/motor_8.png","76","motor","8","123","1","0","0","",""
"null","433744","HierDy5qw5xqtq","sub12","12","8","iti","null","img/motor_8.png","76","motor","","","","","","",""
"517","434270","HierDy5qw5xqtq","sub12","12","8","motor","65","img/motor_1.png","65","motor","1","124","1","0","0","",""
"null","434381","HierDy5qw5xqtq","sub12","12","8","iti","null","img/motor_1.png","65","motor","","","","","","",""
"446","434837","HierDy5qw5xqtq","sub12","12","8","motor","74","img/motor_6.png","74","motor","6","125","1","0","0","",""
"null","434948","HierDy5qw5xqtq","sub12","12","8","iti","null","img/motor_6.png","74","motor","","","","","","",""
"455","435414","HierDy5qw5xqtq","sub12","12","8","motor","70","img/motor_4.png","70","motor","4","126","1","0","0","",""
"null","435524","HierDy5qw5xqtq","sub12","12","8","iti","null","img/motor_4.png","70","motor","","","","","","",""
"387","435920","HierDy5qw5xqtq","sub12","12","8","motor","76","img/motor_8.png","76","motor","8","127","1","0","0","",""
"null","436031","HierDy5qw5xqtq","sub12","12","8","iti","null","img/motor_8.png","76","motor","","","","","","",""
"493","436534","HierDy5qw5xqtq","sub12","12","8","motor","68","img/motor_3.png","68","motor","3","128","1","0","0","",""
"null","436645","HierDy5qw5xqtq","sub12","12","8","iti","null","img/motor_3.png","68","motor","","","","","","",""
"470","437125","HierDy5qw5xqtq","sub12","12","8","motor","83","img/motor_2.png","83","motor","2","129","1","0","0","",""
"null","437235","HierDy5qw5xqtq","sub12","12","8","iti","null","img/motor_2.png","83","motor","","","","","","",""
"467","437713","HierDy5qw5xqtq","sub12","12","8","motor","72","img/motor_5.png","72","motor","5","130","1","0","0","",""
"null","437824","HierDy5qw5xqtq","sub12","12","8","iti","null","img/motor_5.png","72","motor","","","","","","",""
"458","438292","HierDy5qw5xqtq","sub12","12","8","motor","75","img/motor_7.png","75","motor","7","131","1","0","0","",""
"null","438402","HierDy5qw5xqtq","sub12","12","8","iti","null","img/motor_7.png","75","motor","","","","","","",""
"483","438896","HierDy5qw5xqtq","sub12","12","8","motor","74","img/motor_6.png","74","motor","6","132","1","0","0","",""
"null","439007","HierDy5qw5xqtq","sub12","12","8","iti","null","img/motor_6.png","74","motor","","","","","","",""
"429","439443","HierDy5qw5xqtq","sub12","12","8","motor","65","img/motor_1.png","65","motor","1","133","1","0","0","",""
"null","439551","HierDy5qw5xqtq","sub12","12","8","iti","null","img/motor_1.png","65","motor","","","","","","",""
"489","440049","HierDy5qw5xqtq","sub12","12","8","motor","74","img/motor_6.png","74","motor","6","134","1","0","0","",""
"null","440160","HierDy5qw5xqtq","sub12","12","8","iti","null","img/motor_6.png","74","motor","","","","","","",""
"418","440588","HierDy5qw5xqtq","sub12","12","8","motor","70","img/motor_3.png","68","motor","3","135","0","1","0","",""
"374","440971","HierDy5qw5xqtq","sub12","12","8","motorRepeat","68","img/motor_3.png","68","motor","3","135","1","0","0","",""
"null","441081","HierDy5qw5xqtq","sub12","12","8","iti","null","img/motor_3.png","68","motor","","","","","","",""
"393","441483","HierDy5qw5xqtq","sub12","12","8","motor","68","img/motor_3.png","68","motor","3","136","1","0","0","",""
"null","441594","HierDy5qw5xqtq","sub12","12","8","iti","null","img/motor_3.png","68","motor","","","","","","",""
"660","442265","HierDy5qw5xqtq","sub12","12","8","motor","72","img/motor_5.png","72","motor","5","137","1","0","0","",""
"null","442376","HierDy5qw5xqtq","sub12","12","8","iti","null","img/motor_5.png","72","motor","","","","","","",""
"435","442822","HierDy5qw5xqtq","sub12","12","8","motor","68","img/motor_3.png","68","motor","3","138","1","0","0","",""
"null","442931","HierDy5qw5xqtq","sub12","12","8","iti","null","img/motor_3.png","68","motor","","","","","","",""
"501","443441","HierDy5qw5xqtq","sub12","12","8","motor","83","img/motor_2.png","83","motor","2","139","1","0","0","",""
"null","443550","HierDy5qw5xqtq","sub12","12","8","iti","null","img/motor_2.png","83","motor","","","","","","",""
"467","444027","HierDy5qw5xqtq","sub12","12","8","motor","68","img/motor_3.png","68","motor","3","140","1","0","0","",""
"null","444136","HierDy5qw5xqtq","sub12","12","8","iti","null","img/motor_3.png","68","motor","","","","","","",""
"322","444469","HierDy5qw5xqtq","sub12","12","8","motor","68","img/motor_3.png","68","motor","3","141","1","0","0","",""
"null","444579","HierDy5qw5xqtq","sub12","12","8","iti","null","img/motor_3.png","68","motor","","","","","","",""
"469","445056","HierDy5qw5xqtq","sub12","12","8","motor","70","img/motor_4.png","70","motor","4","142","1","0","0","",""
"null","445166","HierDy5qw5xqtq","sub12","12","8","iti","null","img/motor_4.png","70","motor","","","","","","",""
"464","445639","HierDy5qw5xqtq","sub12","12","8","motor","83","img/motor_2.png","83","motor","2","143","1","0","0","",""
"null","445747","HierDy5qw5xqtq","sub12","12","8","iti","null","img/motor_2.png","83","motor","","","","","","",""
"415","446171","HierDy5qw5xqtq","sub12","12","8","motor","70","img/motor_4.png","70","motor","4","144","1","0","0","",""
"null","446281","HierDy5qw5xqtq","sub12","12","8","iti","null","img/motor_4.png","70","motor","","","","","","",""
"592","446884","HierDy5qw5xqtq","sub12","12","8","motor","75","img/motor_7.png","75","motor","7","145","1","0","0","",""
"null","446995","HierDy5qw5xqtq","sub12","12","8","iti","null","img/motor_7.png","75","motor","","","","","","",""
"492","447494","HierDy5qw5xqtq","sub12","12","8","motor","83","img/motor_2.png","83","motor","2","146","1","0","0","",""
"null","447605","HierDy5qw5xqtq","sub12","12","8","iti","null","img/motor_2.png","83","motor","","","","","","",""
"803","448419","HierDy5qw5xqtq","sub12","12","8","motor","76","img/motor_8.png","76","motor","8","147","1","0","0","",""
"null","448528","HierDy5qw5xqtq","sub12","12","8","iti","null","img/motor_8.png","76","motor","","","","","","",""
"453","448991","HierDy5qw5xqtq","sub12","12","8","motor","75","img/motor_6.png","74","motor","6","148","0","1","0","",""
"311","449312","HierDy5qw5xqtq","sub12","12","8","motorRepeat","74","img/motor_6.png","74","motor","6","148","1","0","0","",""
"null","449423","HierDy5qw5xqtq","sub12","12","8","iti","null","img/motor_6.png","74","motor","","","","","","",""
"475","449909","HierDy5qw5xqtq","sub12","12","8","motor","76","img/motor_8.png","76","motor","8","149","1","0","0","",""
"null","450020","HierDy5qw5xqtq","sub12","12","8","iti","null","img/motor_8.png","76","motor","","","","","","",""
"452","450480","HierDy5qw5xqtq","sub12","12","8","motor","75","img/motor_7.png","75","motor","7","150","1","0","0","",""
"null","450591","HierDy5qw5xqtq","sub12","12","8","iti","null","img/motor_7.png","75","motor","","","","","","",""
"401","451001","HierDy5qw5xqtq","sub12","12","8","motor","76","img/motor_8.png","76","motor","8","151","1","0","0","",""
"null","451111","HierDy5qw5xqtq","sub12","12","8","iti","null","img/motor_8.png","76","motor","","","","","","",""
"475","451594","HierDy5qw5xqtq","sub12","12","8","motor","65","img/motor_1.png","65","motor","1","152","1","0","0","",""
"null","451706","HierDy5qw5xqtq","sub12","12","8","iti","null","img/motor_1.png","65","motor","","","","","","",""
"485","452200","HierDy5qw5xqtq","sub12","12","8","motor","76","img/motor_8.png","76","motor","8","153","1","0","0","",""
"null","452308","HierDy5qw5xqtq","sub12","12","8","iti","null","img/motor_8.png","76","motor","","","","","","",""
"501","452818","HierDy5qw5xqtq","sub12","12","8","motor","83","img/motor_2.png","83","motor","2","154","1","0","0","",""
"null","452930","HierDy5qw5xqtq","sub12","12","8","iti","null","img/motor_2.png","83","motor","","","","","","",""
"492","453433","HierDy5qw5xqtq","sub12","12","8","motor","74","img/motor_6.png","74","motor","6","155","1","0","0","",""
"null","453541","HierDy5qw5xqtq","sub12","12","8","iti","null","img/motor_6.png","74","motor","","","","","","",""
"469","454020","HierDy5qw5xqtq","sub12","12","8","motor","83","img/motor_2.png","83","motor","2","156","1","0","0","",""
"null","454132","HierDy5qw5xqtq","sub12","12","8","iti","null","img/motor_2.png","83","motor","","","","","","",""
"674","454816","HierDy5qw5xqtq","sub12","12","8","motor","75","img/motor_7.png","75","motor","7","157","1","0","0","",""
"null","454925","HierDy5qw5xqtq","sub12","12","8","iti","null","img/motor_7.png","75","motor","","","","","","",""
"750","455685","HierDy5qw5xqtq","sub12","12","8","motor","83","img/motor_2.png","83","motor","2","158","1","0","0","",""
"null","455795","HierDy5qw5xqtq","sub12","12","8","iti","null","img/motor_2.png","83","motor","","","","","","",""
"538","456343","HierDy5qw5xqtq","sub12","12","8","motor","68","img/motor_3.png","68","motor","3","159","1","0","0","",""
"null","456454","HierDy5qw5xqtq","sub12","12","8","iti","null","img/motor_3.png","68","motor","","","","","","",""
"540","457005","HierDy5qw5xqtq","sub12","12","8","motor","72","img/motor_5.png","72","motor","5","160","1","0","0","",""
"null","457116","HierDy5qw5xqtq","sub12","12","8","iti","null","img/motor_5.png","72","motor","","","","","","",""
"562","457688","HierDy5qw5xqtq","sub12","12","8","motor","83","img/motor_2.png","83","motor","2","161","1","0","0","",""
"null","457797","HierDy5qw5xqtq","sub12","12","8","iti","null","img/motor_2.png","83","motor","","","","","","",""
"398","458205","HierDy5qw5xqtq","sub12","12","8","motor","68","img/motor_3.png","68","motor","3","162","1","0","0","",""
"null","458316","HierDy5qw5xqtq","sub12","12","8","iti","null","img/motor_3.png","68","motor","","","","","","",""
"492","458817","HierDy5qw5xqtq","sub12","12","8","motor","74","img/motor_6.png","74","motor","6","163","1","0","0","",""
"null","458928","HierDy5qw5xqtq","sub12","12","8","iti","null","img/motor_6.png","74","motor","","","","","","",""
"413","459351","HierDy5qw5xqtq","sub12","12","8","motor","72","img/motor_5.png","72","motor","5","164","1","0","0","",""
"null","459462","HierDy5qw5xqtq","sub12","12","8","iti","null","img/motor_5.png","72","motor","","","","","","",""
"654","460126","HierDy5qw5xqtq","sub12","12","8","motor","65","img/motor_1.png","65","motor","1","165","1","0","0","",""
"null","460237","HierDy5qw5xqtq","sub12","12","8","iti","null","img/motor_1.png","65","motor","","","","","","",""
"557","460802","HierDy5qw5xqtq","sub12","12","8","motor","68","img/motor_3.png","68","motor","3","166","1","0","0","",""
"null","460911","HierDy5qw5xqtq","sub12","12","8","iti","null","img/motor_3.png","68","motor","","","","","","",""
"447","461368","HierDy5qw5xqtq","sub12","12","8","motor","83","img/motor_2.png","83","motor","2","167","1","0","0","",""
"null","461480","HierDy5qw5xqtq","sub12","12","8","iti","null","img/motor_2.png","83","motor","","","","","","",""
"416","461905","HierDy5qw5xqtq","sub12","12","8","motor","65","img/motor_1.png","65","motor","1","168","1","0","0","",""
"null","462013","HierDy5qw5xqtq","sub12","12","8","iti","null","img/motor_1.png","65","motor","","","","","","",""
"433","462456","HierDy5qw5xqtq","sub12","12","8","motor","70","img/motor_4.png","70","motor","4","169","1","0","0","",""
"null","462567","HierDy5qw5xqtq","sub12","12","8","iti","null","img/motor_4.png","70","motor","","","","","","",""
"537","463115","HierDy5qw5xqtq","sub12","12","8","motor","72","img/motor_5.png","72","motor","5","170","1","0","0","",""
"null","463226","HierDy5qw5xqtq","sub12","12","8","iti","null","img/motor_5.png","72","motor","","","","","","",""
"544","463781","HierDy5qw5xqtq","sub12","12","8","motor","74","img/motor_6.png","74","motor","6","171","1","0","0","",""
"null","463892","HierDy5qw5xqtq","sub12","12","8","iti","null","img/motor_6.png","74","motor","","","","","","",""
"401","464301","HierDy5qw5xqtq","sub12","12","8","motor","76","img/motor_8.png","76","motor","8","172","1","0","0","",""
"null","464412","HierDy5qw5xqtq","sub12","12","8","iti","null","img/motor_8.png","76","motor","","","","","","",""
"509","464931","HierDy5qw5xqtq","sub12","12","8","motor","83","img/motor_2.png","83","motor","2","173","1","0","0","",""
"null","465041","HierDy5qw5xqtq","sub12","12","8","iti","null","img/motor_2.png","83","motor","","","","","","",""
"462","465512","HierDy5qw5xqtq","sub12","12","8","motor","74","img/motor_6.png","74","motor","6","174","1","0","0","",""
"null","465623","HierDy5qw5xqtq","sub12","12","8","iti","null","img/motor_6.png","74","motor","","","","","","",""
"406","466038","HierDy5qw5xqtq","sub12","12","8","motor","75","img/motor_7.png","75","motor","7","175","1","0","0","",""
"null","466149","HierDy5qw5xqtq","sub12","12","8","iti","null","img/motor_7.png","75","motor","","","","","","",""
"529","466687","HierDy5qw5xqtq","sub12","12","8","motor","70","img/motor_4.png","70","motor","4","176","1","0","0","",""
"null","466796","HierDy5qw5xqtq","sub12","12","8","iti","null","img/motor_4.png","70","motor","","","","","","",""
"528","467333","HierDy5qw5xqtq","sub12","12","8","motor","74","img/motor_6.png","74","motor","6","177","1","0","0","",""
"null","467443","HierDy5qw5xqtq","sub12","12","8","iti","null","img/motor_6.png","74","motor","","","","","","",""
"539","467992","HierDy5qw5xqtq","sub12","12","8","motor","72","img/motor_5.png","72","motor","5","178","1","0","0","",""
"null","468103","HierDy5qw5xqtq","sub12","12","8","iti","null","img/motor_5.png","72","motor","","","","","","",""
"430","468542","HierDy5qw5xqtq","sub12","12","8","motor","70","img/motor_4.png","70","motor","4","179","1","0","0","",""
"null","468652","HierDy5qw5xqtq","sub12","12","8","iti","null","img/motor_4.png","70","motor","","","","","","",""
"493","469152","HierDy5qw5xqtq","sub12","12","8","motor","75","img/motor_7.png","75","motor","7","180","1","0","0","",""
"null","469259","HierDy5qw5xqtq","sub12","12","8","iti","null","img/motor_7.png","75","motor","","","","","","",""
"441","469707","HierDy5qw5xqtq","sub12","12","8","motor","74","img/motor_6.png","74","motor","6","181","1","0","0","",""
"null","469814","HierDy5qw5xqtq","sub12","12","8","iti","null","img/motor_6.png","74","motor","","","","","","",""
"470","470291","HierDy5qw5xqtq","sub12","12","8","motor","65","img/motor_1.png","65","motor","1","182","1","0","0","",""
"null","470399","HierDy5qw5xqtq","sub12","12","8","iti","null","img/motor_1.png","65","motor","","","","","","",""
"428","470836","HierDy5qw5xqtq","sub12","12","8","motor","68","img/motor_3.png","68","motor","3","183","1","0","0","",""
"null","470945","HierDy5qw5xqtq","sub12","12","8","iti","null","img/motor_3.png","68","motor","","","","","","",""
"429","471385","HierDy5qw5xqtq","sub12","12","8","motor","83","img/motor_2.png","83","motor","2","184","1","0","0","",""
"null","471493","HierDy5qw5xqtq","sub12","12","8","iti","null","img/motor_2.png","83","motor","","","","","","",""
"369","471873","HierDy5qw5xqtq","sub12","12","8","motor","83","img/motor_2.png","83","motor","2","185","1","0","0","",""
"null","471984","HierDy5qw5xqtq","sub12","12","8","iti","null","img/motor_2.png","83","motor","","","","","","",""
"469","472462","HierDy5qw5xqtq","sub12","12","8","motor","72","img/motor_5.png","72","motor","5","186","1","0","0","",""
"null","472573","HierDy5qw5xqtq","sub12","12","8","iti","null","img/motor_5.png","72","motor","","","","","","",""
"416","472999","HierDy5qw5xqtq","sub12","12","8","motor","76","img/motor_8.png","76","motor","8","187","1","0","0","",""
"null","473111","HierDy5qw5xqtq","sub12","12","8","iti","null","img/motor_8.png","76","motor","","","","","","",""
"682","473802","HierDy5qw5xqtq","sub12","12","8","motor","68","img/motor_3.png","68","motor","3","188","1","0","0","",""
"null","473914","HierDy5qw5xqtq","sub12","12","8","iti","null","img/motor_3.png","68","motor","","","","","","",""
"369","474291","HierDy5qw5xqtq","sub12","12","8","motor","70","img/motor_4.png","70","motor","4","189","1","0","0","",""
"null","474402","HierDy5qw5xqtq","sub12","12","8","iti","null","img/motor_4.png","70","motor","","","","","","",""
"353","474767","HierDy5qw5xqtq","sub12","12","8","motor","70","img/motor_4.png","70","motor","4","190","1","0","0","",""
"null","474877","HierDy5qw5xqtq","sub12","12","8","iti","null","img/motor_4.png","70","motor","","","","","","",""
"468","475353","HierDy5qw5xqtq","sub12","12","8","motor","76","img/motor_8.png","76","motor","8","191","1","0","0","",""
"null","475464","HierDy5qw5xqtq","sub12","12","8","iti","null","img/motor_8.png","76","motor","","","","","","",""
"392","475864","HierDy5qw5xqtq","sub12","12","8","motor","74","img/motor_6.png","74","motor","6","192","1","0","0","",""
"null","475975","HierDy5qw5xqtq","sub12","12","8","iti","null","img/motor_6.png","74","motor","","","","","","",""
"363","476348","HierDy5qw5xqtq","sub12","12","8","motor","72","img/motor_5.png","72","motor","5","193","1","0","0","",""
"null","476457","HierDy5qw5xqtq","sub12","12","8","iti","null","img/motor_5.png","72","motor","","","","","","",""
"322","476789","HierDy5qw5xqtq","sub12","12","8","motor","74","img/motor_6.png","74","motor","6","194","1","0","0","",""
"null","476901","HierDy5qw5xqtq","sub12","12","8","iti","null","img/motor_6.png","74","motor","","","","","","",""
"387","477297","HierDy5qw5xqtq","sub12","12","8","motor","76","img/motor_8.png","76","motor","8","195","1","0","0","",""
"null","477408","HierDy5qw5xqtq","sub12","12","8","iti","null","img/motor_8.png","76","motor","","","","","","",""
"461","477880","HierDy5qw5xqtq","sub12","12","8","motor","70","img/motor_4.png","70","motor","4","196","1","0","0","",""
"null","477991","HierDy5qw5xqtq","sub12","12","8","iti","null","img/motor_4.png","70","motor","","","","","","",""
"394","478396","HierDy5qw5xqtq","sub12","12","8","motor","68","img/motor_3.png","68","motor","3","197","1","0","0","",""
"null","478506","HierDy5qw5xqtq","sub12","12","8","iti","null","img/motor_3.png","68","motor","","","","","","",""
"401","478917","HierDy5qw5xqtq","sub12","12","8","motor","72","img/motor_5.png","72","motor","5","198","1","0","0","",""
"null","479027","HierDy5qw5xqtq","sub12","12","8","iti","null","img/motor_5.png","72","motor","","","","","","",""
"469","479506","HierDy5qw5xqtq","sub12","12","8","motor","68","img/motor_2.png","83","motor","2","199","0","1","0","",""
"279","479793","HierDy5qw5xqtq","sub12","12","8","motorRepeat","83","img/motor_2.png","83","motor","2","199","1","0","0","",""
"null","479905","HierDy5qw5xqtq","sub12","12","8","iti","null","img/motor_2.png","83","motor","","","","","","",""
"507","480424","HierDy5qw5xqtq","sub12","12","8","motor","75","img/motor_7.png","75","motor","7","200","1","0","0","",""
"null","480534","HierDy5qw5xqtq","sub12","12","8","iti","null","img/motor_7.png","75","motor","","","","","","",""
"535","481079","HierDy5qw5xqtq","sub12","12","8","motor","65","img/motor_1.png","65","motor","1","201","1","0","0","",""
"null","481188","HierDy5qw5xqtq","sub12","12","8","iti","null","img/motor_1.png","65","motor","","","","","","",""
"495","481693","HierDy5qw5xqtq","sub12","12","8","motor","75","img/motor_7.png","75","motor","7","202","1","0","0","",""
"null","481804","HierDy5qw5xqtq","sub12","12","8","iti","null","img/motor_7.png","75","motor","","","","","","",""
"452","482264","HierDy5qw5xqtq","sub12","12","8","motor","76","img/motor_8.png","76","motor","8","203","1","0","0","",""
"null","482374","HierDy5qw5xqtq","sub12","12","8","iti","null","img/motor_8.png","76","motor","","","","","","",""
"462","482846","HierDy5qw5xqtq","sub12","12","8","motor","70","img/motor_4.png","70","motor","4","204","1","0","0","",""
"null","482957","HierDy5qw5xqtq","sub12","12","8","iti","null","img/motor_4.png","70","motor","","","","","","",""
"412","483378","HierDy5qw5xqtq","sub12","12","8","motor","76","img/motor_8.png","76","motor","8","205","1","0","0","",""
"null","483487","HierDy5qw5xqtq","sub12","12","8","iti","null","img/motor_8.png","76","motor","","","","","","",""
"464","483961","HierDy5qw5xqtq","sub12","12","8","motor","75","img/motor_7.png","75","motor","7","206","1","0","0","",""
"null","484071","HierDy5qw5xqtq","sub12","12","8","iti","null","img/motor_7.png","75","motor","","","","","","",""
"507","484588","HierDy5qw5xqtq","sub12","12","8","motor","70","img/motor_4.png","70","motor","4","207","1","0","0","",""
"null","484699","HierDy5qw5xqtq","sub12","12","8","iti","null","img/motor_4.png","70","motor","","","","","","",""
"403","485111","HierDy5qw5xqtq","sub12","12","8","motor","74","img/motor_5.png","72","motor","5","208","0","1","0","",""
"341","485461","HierDy5qw5xqtq","sub12","12","8","motorRepeat","72","img/motor_5.png","72","motor","5","208","1","0","0","",""
"76","485572","HierDy5qw5xqtq","sub12","12","8","iti","72","img/motor_5.png","72","motor","","","","","","",""
"489","486070","HierDy5qw5xqtq","sub12","12","8","motor","70","img/motor_4.png","70","motor","4","209","1","0","0","",""
"null","486180","HierDy5qw5xqtq","sub12","12","8","iti","null","img/motor_4.png","70","motor","","","","","","",""
"481","486671","HierDy5qw5xqtq","sub12","12","8","motor","75","img/motor_7.png","75","motor","7","210","1","0","0","",""
"null","486780","HierDy5qw5xqtq","sub12","12","8","iti","null","img/motor_7.png","75","motor","","","","","","",""
"533","487323","HierDy5qw5xqtq","sub12","12","8","motor","68","img/motor_3.png","68","motor","3","211","1","0","0","",""
"null","487434","HierDy5qw5xqtq","sub12","12","8","iti","null","img/motor_3.png","68","motor","","","","","","",""
"441","487885","HierDy5qw5xqtq","sub12","12","8","motor","83","img/motor_2.png","83","motor","2","212","1","0","0","",""
"null","487997","HierDy5qw5xqtq","sub12","12","8","iti","null","img/motor_2.png","83","motor","","","","","","",""
"483","488489","HierDy5qw5xqtq","sub12","12","8","motor","76","img/motor_8.png","76","motor","8","213","1","0","0","",""
"null","488600","HierDy5qw5xqtq","sub12","12","8","iti","null","img/motor_8.png","76","motor","","","","","","",""
"531","489141","HierDy5qw5xqtq","sub12","12","8","motor","76","img/motor_8.png","76","motor","8","214","1","0","0","",""
"null","489251","HierDy5qw5xqtq","sub12","12","8","iti","null","img/motor_8.png","76","motor","","","","","","",""
"617","489877","HierDy5qw5xqtq","sub12","12","8","motor","74","img/motor_6.png","74","motor","6","215","1","0","0","",""
"null","489988","HierDy5qw5xqtq","sub12","12","8","iti","null","img/motor_6.png","74","motor","","","","","","",""
"475","490472","HierDy5qw5xqtq","sub12","12","8","motor","70","img/motor_4.png","70","motor","4","216","1","0","0","",""
"null","490583","HierDy5qw5xqtq","sub12","12","8","iti","null","img/motor_4.png","70","motor","","","","","","",""
"444","491037","HierDy5qw5xqtq","sub12","12","8","motor","70","img/motor_4.png","70","motor","4","217","1","0","0","",""
"null","491148","HierDy5qw5xqtq","sub12","12","8","iti","null","img/motor_4.png","70","motor","","","","","","",""
"445","491604","HierDy5qw5xqtq","sub12","12","8","motor","76","img/motor_8.png","76","motor","8","218","1","0","0","",""
"null","491715","HierDy5qw5xqtq","sub12","12","8","iti","null","img/motor_8.png","76","motor","","","","","","",""
"396","492121","HierDy5qw5xqtq","sub12","12","8","motor","76","img/motor_8.png","76","motor","8","219","1","0","0","",""
"null","492231","HierDy5qw5xqtq","sub12","12","8","iti","null","img/motor_8.png","76","motor","","","","","","",""
"482","492724","HierDy5qw5xqtq","sub12","12","8","motor","72","img/motor_5.png","72","motor","5","220","1","0","0","",""
"null","492835","HierDy5qw5xqtq","sub12","12","8","iti","null","img/motor_5.png","72","motor","","","","","","",""
"373","493216","HierDy5qw5xqtq","sub12","12","8","motor","72","img/motor_5.png","72","motor","5","221","1","0","0","",""
"null","493327","HierDy5qw5xqtq","sub12","12","8","iti","null","img/motor_5.png","72","motor","","","","","","",""
"496","493833","HierDy5qw5xqtq","sub12","12","8","motor","83","img/motor_2.png","83","motor","2","222","1","0","0","",""
"null","493946","HierDy5qw5xqtq","sub12","12","8","iti","null","img/motor_2.png","83","motor","","","","","","",""
"324","494279","HierDy5qw5xqtq","sub12","12","8","motor","83","img/motor_2.png","83","motor","2","223","1","0","0","",""
"null","494390","HierDy5qw5xqtq","sub12","12","8","iti","null","img/motor_2.png","83","motor","","","","","","",""
"400","494799","HierDy5qw5xqtq","sub12","12","8","motor","70","img/motor_4.png","70","motor","4","224","1","0","0","",""
"null","494910","HierDy5qw5xqtq","sub12","12","8","iti","null","img/motor_4.png","70","motor","","","","","","",""
"489","495408","HierDy5qw5xqtq","sub12","12","8","motor","72","img/motor_5.png","72","motor","5","225","1","0","0","",""
"null","495519","HierDy5qw5xqtq","sub12","12","8","iti","null","img/motor_5.png","72","motor","","","","","","",""
"567","496096","HierDy5qw5xqtq","sub12","12","8","motor","70","img/motor_4.png","70","motor","4","226","1","0","0","",""
"null","496208","HierDy5qw5xqtq","sub12","12","8","iti","null","img/motor_4.png","70","motor","","","","","","",""
"435","496654","HierDy5qw5xqtq","sub12","12","8","motor","68","img/motor_3.png","68","motor","3","227","1","0","0","",""
"null","496764","HierDy5qw5xqtq","sub12","12","8","iti","null","img/motor_3.png","68","motor","","","","","","",""
"467","497241","HierDy5qw5xqtq","sub12","12","8","motor","76","img/motor_8.png","76","motor","8","228","1","0","0","",""
"null","497352","HierDy5qw5xqtq","sub12","12","8","iti","null","img/motor_8.png","76","motor","","","","","","",""
"384","497746","HierDy5qw5xqtq","sub12","12","8","motor","72","img/motor_5.png","72","motor","5","229","1","0","0","",""
"null","497858","HierDy5qw5xqtq","sub12","12","8","iti","null","img/motor_5.png","72","motor","","","","","","",""
"546","498412","HierDy5qw5xqtq","sub12","12","8","motor","70","img/motor_4.png","70","motor","4","230","1","0","0","",""
"null","498524","HierDy5qw5xqtq","sub12","12","8","iti","null","img/motor_4.png","70","motor","","","","","","",""
"497","499031","HierDy5qw5xqtq","sub12","12","8","motor","75","img/motor_7.png","75","motor","7","231","1","0","0","",""
"null","499141","HierDy5qw5xqtq","sub12","12","8","iti","null","img/motor_7.png","75","motor","","","","","","",""
"563","499713","HierDy5qw5xqtq","sub12","12","8","motor","83","img/motor_2.png","83","motor","2","232","1","0","0","",""
"null","499826","HierDy5qw5xqtq","sub12","12","8","iti","null","img/motor_2.png","83","motor","","","","","","",""
"576","500411","HierDy5qw5xqtq","sub12","12","8","motor","75","img/motor_7.png","75","motor","7","233","1","0","0","",""
"null","500522","HierDy5qw5xqtq","sub12","12","8","iti","null","img/motor_7.png","75","motor","","","","","","",""
"356","500888","HierDy5qw5xqtq","sub12","12","8","motor","70","img/motor_4.png","70","motor","4","234","1","0","0","",""
"null","501000","HierDy5qw5xqtq","sub12","12","8","iti","null","img/motor_4.png","70","motor","","","","","","",""
"427","501436","HierDy5qw5xqtq","sub12","12","8","motor","76","img/motor_8.png","76","motor","8","235","1","0","0","",""
"null","501544","HierDy5qw5xqtq","sub12","12","8","iti","null","img/motor_8.png","76","motor","","","","","","",""
"564","502118","HierDy5qw5xqtq","sub12","12","8","motor","68","img/motor_3.png","68","motor","3","236","1","0","0","",""
"null","502227","HierDy5qw5xqtq","sub12","12","8","iti","null","img/motor_3.png","68","motor","","","","","","",""
"494","502730","HierDy5qw5xqtq","sub12","12","8","motor","74","img/motor_6.png","74","motor","6","237","1","0","0","",""
"null","502842","HierDy5qw5xqtq","sub12","12","8","iti","null","img/motor_6.png","74","motor","","","","","","",""
"375","503227","HierDy5qw5xqtq","sub12","12","8","motor","74","img/motor_6.png","74","motor","6","238","1","0","0","",""
"null","503338","HierDy5qw5xqtq","sub12","12","8","iti","null","img/motor_6.png","74","motor","","","","","","",""
"571","503919","HierDy5qw5xqtq","sub12","12","8","motor","75","img/motor_7.png","75","motor","7","239","1","0","0","",""
"null","504029","HierDy5qw5xqtq","sub12","12","8","iti","null","img/motor_7.png","75","motor","","","","","","",""
"370","504409","HierDy5qw5xqtq","sub12","12","8","motor","74","img/motor_6.png","74","motor","6","240","1","0","0","",""
"null","504519","HierDy5qw5xqtq","sub12","12","8","iti","null","img/motor_6.png","74","motor","","","","","","",""
"404","504933","HierDy5qw5xqtq","sub12","12","8","motor","70","img/motor_3.png","68","motor","3","241","0","1","0","",""
"311","505255","HierDy5qw5xqtq","sub12","12","8","motorRepeat","68","img/motor_3.png","68","motor","3","241","1","0","0","",""
"null","505366","HierDy5qw5xqtq","sub12","12","8","iti","null","img/motor_3.png","68","motor","","","","","","",""
"487","505864","HierDy5qw5xqtq","sub12","12","8","motor","75","img/motor_7.png","75","motor","7","242","1","0","0","",""
"null","505974","HierDy5qw5xqtq","sub12","12","8","iti","null","img/motor_7.png","75","motor","","","","","","",""
"400","506383","HierDy5qw5xqtq","sub12","12","8","motor","68","img/motor_3.png","68","motor","3","243","1","0","0","",""
"null","506492","HierDy5qw5xqtq","sub12","12","8","iti","null","img/motor_3.png","68","motor","","","","","","",""
"480","506980","HierDy5qw5xqtq","sub12","12","8","motor","75","img/motor_7.png","75","motor","7","244","1","0","0","",""
"null","507091","HierDy5qw5xqtq","sub12","12","8","iti","null","img/motor_7.png","75","motor","","","","","","",""
"580","507680","HierDy5qw5xqtq","sub12","12","8","motor","70","img/motor_4.png","70","motor","4","245","1","0","0","",""
"null","507790","HierDy5qw5xqtq","sub12","12","8","iti","null","img/motor_4.png","70","motor","","","","","","",""
"417","508218","HierDy5qw5xqtq","sub12","12","8","motor","72","img/motor_5.png","72","motor","5","246","1","0","0","",""
"null","508330","HierDy5qw5xqtq","sub12","12","8","iti","null","img/motor_5.png","72","motor","","","","","","",""
"439","508778","HierDy5qw5xqtq","sub12","12","8","motor","68","img/motor_4.png","70","motor","4","247","0","1","0","",""
"210","508998","HierDy5qw5xqtq","sub12","12","8","motorRepeat","70","img/motor_4.png","70","motor","4","247","1","0","0","",""
"null","509109","HierDy5qw5xqtq","sub12","12","8","iti","null","img/motor_4.png","70","motor","","","","","","",""
"443","509563","HierDy5qw5xqtq","sub12","12","8","motor","74","img/motor_6.png","74","motor","6","248","1","0","0","",""
"null","509674","HierDy5qw5xqtq","sub12","12","8","iti","null","img/motor_6.png","74","motor","","","","","","",""
"394","510078","HierDy5qw5xqtq","sub12","12","8","motor","75","img/motor_7.png","75","motor","7","249","1","0","0","",""
"null","510188","HierDy5qw5xqtq","sub12","12","8","iti","null","img/motor_7.png","75","motor","","","","","","",""
"587","510785","HierDy5qw5xqtq","sub12","12","8","motor","68","img/motor_3.png","68","motor","3","250","1","0","0","",""
"null","510896","HierDy5qw5xqtq","sub12","12","8","iti","null","img/motor_3.png","68","motor","","","","","","",""
"478","511385","HierDy5qw5xqtq","sub12","12","8","motor","65","img/motor_1.png","65","motor","1","251","1","0","0","",""
"null","511493","HierDy5qw5xqtq","sub12","12","8","iti","null","img/motor_1.png","65","motor","","","","","","",""
"447","511948","HierDy5qw5xqtq","sub12","12","8","motor","70","img/motor_4.png","70","motor","4","252","1","0","0","",""
"null","512060","HierDy5qw5xqtq","sub12","12","8","iti","null","img/motor_4.png","70","motor","","","","","","",""
"459","512529","HierDy5qw5xqtq","sub12","12","8","motor","83","img/motor_2.png","83","motor","2","253","1","0","0","",""
"null","512638","HierDy5qw5xqtq","sub12","12","8","iti","null","img/motor_2.png","83","motor","","","","","","",""
"415","513063","HierDy5qw5xqtq","sub12","12","8","motor","70","img/motor_4.png","70","motor","4","254","1","0","0","",""
"null","513175","HierDy5qw5xqtq","sub12","12","8","iti","null","img/motor_4.png","70","motor","","","","","","",""
"487","513671","HierDy5qw5xqtq","sub12","12","8","motor","68","img/motor_3.png","68","motor","3","255","1","0","0","",""
"null","513782","HierDy5qw5xqtq","sub12","12","8","iti","null","img/motor_3.png","68","motor","","","","","","",""
"387","514178","HierDy5qw5xqtq","sub12","12","8","motor","70","img/motor_4.png","70","motor","4","256","1","0","0","",""
"null","514288","HierDy5qw5xqtq","sub12","12","8","iti","null","img/motor_4.png","70","motor","","","","","","",""
"579","514875","HierDy5qw5xqtq","sub12","12","8","motor","74","img/motor_6.png","74","motor","6","257","1","0","0","",""
"null","514986","HierDy5qw5xqtq","sub12","12","8","iti","null","img/motor_6.png","74","motor","","","","","","",""
"552","515546","HierDy5qw5xqtq","sub12","12","8","motor","68","img/motor_3.png","68","motor","3","258","1","0","0","",""
"null","515657","HierDy5qw5xqtq","sub12","12","8","iti","null","img/motor_3.png","68","motor","","","","","","",""
"522","516189","HierDy5qw5xqtq","sub12","12","8","motor","76","img/motor_8.png","76","motor","8","259","1","0","0","",""
"null","516298","HierDy5qw5xqtq","sub12","12","8","iti","null","img/motor_8.png","76","motor","","","","","","",""
"518","516828","HierDy5qw5xqtq","sub12","12","8","motor","75","img/motor_7.png","75","motor","7","260","1","0","0","",""
"null","516939","HierDy5qw5xqtq","sub12","12","8","iti","null","img/motor_7.png","75","motor","","","","","","",""
"381","517330","HierDy5qw5xqtq","sub12","12","8","motor","72","img/motor_5.png","72","motor","5","261","1","0","0","",""
"null","517442","HierDy5qw5xqtq","sub12","12","8","iti","null","img/motor_5.png","72","motor","","","","","","",""
"358","517809","HierDy5qw5xqtq","sub12","12","8","motor","74","img/motor_5.png","72","motor","5","262","0","1","0","",""
"230","518049","HierDy5qw5xqtq","sub12","12","8","motorRepeat","72","img/motor_5.png","72","motor","5","262","1","0","0","",""
"null","518160","HierDy5qw5xqtq","sub12","12","8","iti","null","img/motor_5.png","72","motor","","","","","","",""
"474","518645","HierDy5qw5xqtq","sub12","12","8","motor","65","img/motor_1.png","65","motor","1","263","1","0","0","",""
"null","518756","HierDy5qw5xqtq","sub12","12","8","iti","null","img/motor_1.png","65","motor","","","","","","",""
"647","519414","HierDy5qw5xqtq","sub12","12","8","motor","75","img/motor_7.png","75","motor","7","264","1","0","0","",""
"null","519525","HierDy5qw5xqtq","sub12","12","8","iti","null","img/motor_7.png","75","motor","","","","","","",""
"485","520020","HierDy5qw5xqtq","sub12","12","8","motor","76","img/motor_8.png","76","motor","8","265","1","0","0","",""
"null","520130","HierDy5qw5xqtq","sub12","12","8","iti","null","img/motor_8.png","76","motor","","","","","","",""
"544","520684","HierDy5qw5xqtq","sub12","12","8","motor","65","img/motor_1.png","65","motor","1","266","1","0","0","",""
"null","520795","HierDy5qw5xqtq","sub12","12","8","iti","null","img/motor_1.png","65","motor","","","","","","",""
"605","521411","HierDy5qw5xqtq","sub12","12","8","motor","68","img/motor_3.png","68","motor","3","267","1","0","0","",""
"null","521522","HierDy5qw5xqtq","sub12","12","8","iti","null","img/motor_3.png","68","motor","","","","","","",""
"68","521599","HierDy5qw5xqtq","sub12","12","8","motor","68","img/motor_7.png","75","motor","7","268","0","1","0","",""
"435","522044","HierDy5qw5xqtq","sub12","12","8","motorRepeat","74","img/motor_7.png","75","motor","7","268","0","1","0","",""
"333","522385","HierDy5qw5xqtq","sub12","12","8","motorRepeat","75","img/motor_7.png","75","motor","7","268","1","0","0","",""
"null","522496","HierDy5qw5xqtq","sub12","12","8","iti","null","img/motor_7.png","75","motor","","","","","","",""
"486","522992","HierDy5qw5xqtq","sub12","12","8","motor","74","img/motor_6.png","74","motor","6","269","1","0","0","",""
"null","523102","HierDy5qw5xqtq","sub12","12","8","iti","null","img/motor_6.png","74","motor","","","","","","",""
"373","523483","HierDy5qw5xqtq","sub12","12","8","motor","75","img/motor_7.png","75","motor","7","270","1","0","0","",""
"null","523594","HierDy5qw5xqtq","sub12","12","8","iti","null","img/motor_7.png","75","motor","","","","","","",""
"487","524090","HierDy5qw5xqtq","sub12","12","8","motor","74","img/motor_6.png","74","motor","6","271","1","0","0","",""
"null","524201","HierDy5qw5xqtq","sub12","12","8","iti","null","img/motor_6.png","74","motor","","","","","","",""
"819","525029","HierDy5qw5xqtq","sub12","12","8","motor","83","img/motor_2.png","83","motor","2","272","1","0","0","",""
"null","525141","HierDy5qw5xqtq","sub12","12","8","iti","null","img/motor_2.png","83","motor","","","","","","",""
"550","525702","HierDy5qw5xqtq","sub12","12","8","motor","76","img/motor_8.png","76","motor","8","273","1","0","0","",""
"null","525811","HierDy5qw5xqtq","sub12","12","8","iti","null","img/motor_8.png","76","motor","","","","","","",""
"524","526345","HierDy5qw5xqtq","sub12","12","8","motor","70","img/motor_4.png","70","motor","4","274","1","0","0","",""
"null","526455","HierDy5qw5xqtq","sub12","12","8","iti","null","img/motor_4.png","70","motor","","","","","","",""
"441","526906","HierDy5qw5xqtq","sub12","12","8","motor","65","img/motor_1.png","65","motor","1","275","1","0","0","",""
"null","527015","HierDy5qw5xqtq","sub12","12","8","iti","null","img/motor_1.png","65","motor","","","","","","",""
"613","527638","HierDy5qw5xqtq","sub12","12","8","motor","72","img/motor_5.png","72","motor","5","276","1","0","0","",""
"null","527747","HierDy5qw5xqtq","sub12","12","8","iti","null","img/motor_5.png","72","motor","","","","","","",""
"698","528457","HierDy5qw5xqtq","sub12","12","8","motor","83","img/motor_2.png","83","motor","2","277","1","0","0","",""
"null","528568","HierDy5qw5xqtq","sub12","12","8","iti","null","img/motor_2.png","83","motor","","","","","","",""
"497","529075","HierDy5qw5xqtq","sub12","12","8","motor","83","img/motor_1.png","65","motor","1","278","0","1","0","",""
"255","529342","HierDy5qw5xqtq","sub12","12","8","motorRepeat","65","img/motor_1.png","65","motor","1","278","1","0","0","",""
"null","529455","HierDy5qw5xqtq","sub12","12","8","iti","null","img/motor_1.png","65","motor","","","","","","",""
"479","529942","HierDy5qw5xqtq","sub12","12","8","motor","76","img/motor_8.png","76","motor","8","279","1","0","0","",""
"null","530053","HierDy5qw5xqtq","sub12","12","8","iti","null","img/motor_8.png","76","motor","","","","","","",""
"506","530569","HierDy5qw5xqtq","sub12","12","8","motor","83","img/motor_2.png","83","motor","2","280","1","0","0","",""
"null","530680","HierDy5qw5xqtq","sub12","12","8","iti","null","img/motor_2.png","83","motor","","","","","","",""
"427","531116","HierDy5qw5xqtq","sub12","12","8","motor","65","img/motor_1.png","65","motor","1","281","1","0","0","",""
"null","531226","HierDy5qw5xqtq","sub12","12","8","iti","null","img/motor_1.png","65","motor","","","","","","",""
"494","531730","HierDy5qw5xqtq","sub12","12","8","motor","70","img/motor_5.png","72","motor","5","282","0","1","0","",""
"315","532054","HierDy5qw5xqtq","sub12","12","8","motorRepeat","72","img/motor_5.png","72","motor","5","282","1","0","0","",""
"null","532164","HierDy5qw5xqtq","sub12","12","8","iti","null","img/motor_5.png","72","motor","","","","","","",""
"604","532777","HierDy5qw5xqtq","sub12","12","8","motor","70","img/motor_4.png","70","motor","4","283","1","0","0","",""
"null","532889","HierDy5qw5xqtq","sub12","12","8","iti","null","img/motor_4.png","70","motor","","","","","","",""
"467","533366","HierDy5qw5xqtq","sub12","12","8","motor","83","img/motor_2.png","83","motor","2","284","1","0","0","",""
"null","533476","HierDy5qw5xqtq","sub12","12","8","iti","null","img/motor_2.png","83","motor","","","","","","",""
"547","534033","HierDy5qw5xqtq","sub12","12","8","motor","75","img/motor_7.png","75","motor","7","285","1","0","0","",""
"null","534145","HierDy5qw5xqtq","sub12","12","8","iti","null","img/motor_7.png","75","motor","","","","","","",""
"661","534816","HierDy5qw5xqtq","sub12","12","8","motor","68","img/motor_3.png","68","motor","3","286","1","0","0","",""
"null","534926","HierDy5qw5xqtq","sub12","12","8","iti","null","img/motor_3.png","68","motor","","","","","","",""
"638","535574","HierDy5qw5xqtq","sub12","12","8","motor","74","img/motor_6.png","74","motor","6","287","1","0","0","",""
"null","535685","HierDy5qw5xqtq","sub12","12","8","iti","null","img/motor_6.png","74","motor","","","","","","",""
"833","536529","HierDy5qw5xqtq","sub12","12","8","motor","70","img/motor_5.png","72","motor","5","288","0","1","0","",""
"474","537014","HierDy5qw5xqtq","sub12","12","8","motorRepeat","72","img/motor_5.png","72","motor","5","288","1","0","0","",""
"null","537125","HierDy5qw5xqtq","sub12","12","8","iti","null","img/motor_5.png","72","motor","","","","","","",""
"588","537723","HierDy5qw5xqtq","sub12","12","8","motor","74","img/motor_6.png","74","motor","6","289","1","0","0","",""
"null","537835","HierDy5qw5xqtq","sub12","12","8","iti","null","img/motor_6.png","74","motor","","","","","","",""
"514","538359","HierDy5qw5xqtq","sub12","12","8","motor","65","img/motor_1.png","65","motor","1","290","1","0","0","",""
"null","538469","HierDy5qw5xqtq","sub12","12","8","iti","null","img/motor_1.png","65","motor","","","","","","",""
"442","538921","HierDy5qw5xqtq","sub12","12","8","motor","76","img/motor_8.png","76","motor","8","291","1","0","0","",""
"null","539033","HierDy5qw5xqtq","sub12","12","8","iti","null","img/motor_8.png","76","motor","","","","","","",""
"605","539649","HierDy5qw5xqtq","sub12","12","8","motor","68","img/motor_3.png","68","motor","3","292","1","0","0","",""
"null","539761","HierDy5qw5xqtq","sub12","12","8","iti","null","img/motor_3.png","68","motor","","","","","","",""
"612","540382","HierDy5qw5xqtq","sub12","12","8","motor","74","img/motor_6.png","74","motor","6","293","1","0","0","",""
"null","540494","HierDy5qw5xqtq","sub12","12","8","iti","null","img/motor_6.png","74","motor","","","","","","",""
"23","540525","HierDy5qw5xqtq","sub12","12","8","motor","74","img/motor_3.png","68","motor","3","294","0","1","0","",""
"727","541262","HierDy5qw5xqtq","sub12","12","8","motorRepeat","68","img/motor_3.png","68","motor","3","294","1","0","0","",""
"null","541373","HierDy5qw5xqtq","sub12","12","8","iti","null","img/motor_3.png","68","motor","","","","","","",""
"454","541838","HierDy5qw5xqtq","sub12","12","8","motor","68","img/motor_3.png","68","motor","3","295","1","0","0","",""
"null","541950","HierDy5qw5xqtq","sub12","12","8","iti","null","img/motor_3.png","68","motor","","","","","","",""
"560","542520","HierDy5qw5xqtq","sub12","12","8","motor","74","img/motor_6.png","74","motor","6","296","1","0","0","",""
"null","542632","HierDy5qw5xqtq","sub12","12","8","iti","null","img/motor_6.png","74","motor","","","","","","",""
"430","543071","HierDy5qw5xqtq","sub12","12","8","motor","75","img/motor_7.png","75","motor","7","297","1","0","0","",""
"null","543182","HierDy5qw5xqtq","sub12","12","8","iti","null","img/motor_7.png","75","motor","","","","","","",""
"496","543688","HierDy5qw5xqtq","sub12","12","8","motor","83","img/motor_2.png","83","motor","2","298","1","0","0","",""
"null","543797","HierDy5qw5xqtq","sub12","12","8","iti","null","img/motor_2.png","83","motor","","","","","","",""
"450","544257","HierDy5qw5xqtq","sub12","12","8","motor","65","img/motor_1.png","65","motor","1","299","1","0","0","",""
"null","544366","HierDy5qw5xqtq","sub12","12","8","iti","null","img/motor_1.png","65","motor","","","","","","",""
"488","544864","HierDy5qw5xqtq","sub12","12","8","motor","72","img/motor_5.png","72","motor","5","300","1","0","0","",""
"null","544975","HierDy5qw5xqtq","sub12","12","8","iti","null","img/motor_5.png","72","motor","","","","","","",""
"450","545435","HierDy5qw5xqtq","sub12","12","8","motor","74","img/motor_6.png","74","motor","6","301","1","0","0","",""
"null","545547","HierDy5qw5xqtq","sub12","12","8","iti","null","img/motor_6.png","74","motor","","","","","","",""
"526","546085","HierDy5qw5xqtq","sub12","12","8","motor","70","img/motor_4.png","70","motor","4","302","1","0","0","",""
"null","546194","HierDy5qw5xqtq","sub12","12","8","iti","null","img/motor_4.png","70","motor","","","","","","",""
"500","546705","HierDy5qw5xqtq","sub12","12","8","motor","65","img/motor_1.png","65","motor","1","303","1","0","0","",""
"null","546816","HierDy5qw5xqtq","sub12","12","8","iti","null","img/motor_1.png","65","motor","","","","","","",""
"477","547302","HierDy5qw5xqtq","sub12","12","8","motor","68","img/motor_3.png","68","motor","3","304","1","0","0","",""
"null","547414","HierDy5qw5xqtq","sub12","12","8","iti","null","img/motor_3.png","68","motor","","","","","","",""
"518","547942","HierDy5qw5xqtq","sub12","12","8","motor","72","img/motor_5.png","72","motor","5","305","1","0","0","",""
"null","548052","HierDy5qw5xqtq","sub12","12","8","iti","null","img/motor_5.png","72","motor","","","","","","",""
"520","548581","HierDy5qw5xqtq","sub12","12","8","motor","75","img/motor_7.png","75","motor","7","306","1","0","0","",""
"null","548693","HierDy5qw5xqtq","sub12","12","8","iti","null","img/motor_7.png","75","motor","","","","","","",""
"566","549269","HierDy5qw5xqtq","sub12","12","8","motor","75","img/motor_7.png","75","motor","7","307","1","0","0","",""
"null","549379","HierDy5qw5xqtq","sub12","12","8","iti","null","img/motor_7.png","75","motor","","","","","","",""
"639","550028","HierDy5qw5xqtq","sub12","12","8","motor","74","img/motor_6.png","74","motor","6","308","1","0","0","",""
"null","550140","HierDy5qw5xqtq","sub12","12","8","iti","null","img/motor_6.png","74","motor","","","","","","",""
"580","550731","HierDy5qw5xqtq","sub12","12","8","motor","83","img/motor_2.png","83","motor","2","309","1","0","0","",""
"null","550842","HierDy5qw5xqtq","sub12","12","8","iti","null","img/motor_2.png","83","motor","","","","","","",""
"495","551345","HierDy5qw5xqtq","sub12","12","8","motor","76","img/motor_8.png","76","motor","8","310","1","0","0","",""
"null","551452","HierDy5qw5xqtq","sub12","12","8","iti","null","img/motor_8.png","76","motor","","","","","","",""
"490","551951","HierDy5qw5xqtq","sub12","12","8","motor","72","img/motor_5.png","72","motor","5","311","1","0","0","",""
"null","552059","HierDy5qw5xqtq","sub12","12","8","iti","null","img/motor_5.png","72","motor","","","","","","",""
"492","552560","HierDy5qw5xqtq","sub12","12","8","motor","76","img/motor_8.png","76","motor","8","312","1","0","0","",""
"null","552669","HierDy5qw5xqtq","sub12","12","8","iti","null","img/motor_8.png","76","motor","","","","","","",""
"445","553123","HierDy5qw5xqtq","sub12","12","8","motor","74","img/motor_6.png","74","motor","6","313","1","0","0","",""
"null","553231","HierDy5qw5xqtq","sub12","12","8","iti","null","img/motor_6.png","74","motor","","","","","","",""
"520","553760","HierDy5qw5xqtq","sub12","12","8","motor","83","img/motor_2.png","83","motor","2","314","1","0","0","",""
"null","553872","HierDy5qw5xqtq","sub12","12","8","iti","null","img/motor_2.png","83","motor","","","","","","",""
"536","554416","HierDy5qw5xqtq","sub12","12","8","motor","72","img/motor_5.png","72","motor","5","315","1","0","0","",""
"null","554524","HierDy5qw5xqtq","sub12","12","8","iti","null","img/motor_5.png","72","motor","","","","","","",""
"495","555027","HierDy5qw5xqtq","sub12","12","8","motor","76","img/motor_8.png","76","motor","8","316","1","0","0","",""
"null","555135","HierDy5qw5xqtq","sub12","12","8","iti","null","img/motor_8.png","76","motor","","","","","","",""
"507","555650","HierDy5qw5xqtq","sub12","12","8","motor","70","img/motor_4.png","70","motor","4","317","1","0","0","",""
"null","555761","HierDy5qw5xqtq","sub12","12","8","iti","null","img/motor_4.png","70","motor","","","","","","",""
"408","556178","HierDy5qw5xqtq","sub12","12","8","motor","65","img/motor_1.png","65","motor","1","318","1","0","0","",""
"null","556287","HierDy5qw5xqtq","sub12","12","8","iti","null","img/motor_1.png","65","motor","","","","","","",""
"449","556743","HierDy5qw5xqtq","sub12","12","8","motor","70","img/motor_4.png","70","motor","4","319","1","0","0","",""
"null","556852","HierDy5qw5xqtq","sub12","12","8","iti","null","img/motor_4.png","70","motor","","","","","","",""
"761","557625","HierDy5qw5xqtq","sub12","12","8","motor","65","img/motor_1.png","65","motor","1","320","1","0","0","",""
"null","557737","HierDy5qw5xqtq","sub12","12","8","iti","null","img/motor_1.png","65","motor","","","","","","",""
"496","558242","HierDy5qw5xqtq","sub12","12","8","motor","70","img/motor_4.png","70","motor","4","321","1","0","0","",""
"null","558354","HierDy5qw5xqtq","sub12","12","8","iti","null","img/motor_4.png","70","motor","","","","","","",""
"515","558879","HierDy5qw5xqtq","sub12","12","8","motor","75","img/motor_7.png","75","motor","7","322","1","0","0","",""
"null","558991","HierDy5qw5xqtq","sub12","12","8","iti","null","img/motor_7.png","75","motor","","","","","","",""
"471","559471","HierDy5qw5xqtq","sub12","12","8","motor","72","img/motor_5.png","72","motor","5","323","1","0","0","",""
"null","559583","HierDy5qw5xqtq","sub12","12","8","iti","null","img/motor_5.png","72","motor","","","","","","",""
"459","560052","HierDy5qw5xqtq","sub12","12","8","motor","65","img/motor_1.png","65","motor","1","324","1","0","0","",""
"null","560161","HierDy5qw5xqtq","sub12","12","8","iti","null","img/motor_1.png","65","motor","","","","","","",""
"574","560744","HierDy5qw5xqtq","sub12","12","8","motor","74","img/motor_6.png","74","motor","6","325","1","0","0","",""
"null","560852","HierDy5qw5xqtq","sub12","12","8","iti","null","img/motor_6.png","74","motor","","","","","","",""
"672","561535","HierDy5qw5xqtq","sub12","12","8","motor","68","img/motor_3.png","68","motor","3","326","1","0","0","",""
"null","561645","HierDy5qw5xqtq","sub12","12","8","iti","null","img/motor_3.png","68","motor","","","","","","",""
"488","562141","HierDy5qw5xqtq","sub12","12","8","motor","65","img/motor_1.png","65","motor","1","327","1","0","0","",""
"null","562251","HierDy5qw5xqtq","sub12","12","8","iti","null","img/motor_1.png","65","motor","","","","","","",""
"610","562872","HierDy5qw5xqtq","sub12","12","8","motor","72","img/motor_5.png","72","motor","5","328","1","0","0","",""
"null","562983","HierDy5qw5xqtq","sub12","12","8","iti","null","img/motor_5.png","72","motor","","","","","","",""
"620","563614","HierDy5qw5xqtq","sub12","12","8","motor","68","img/motor_3.png","68","motor","3","329","1","0","0","",""
"null","563725","HierDy5qw5xqtq","sub12","12","8","iti","null","img/motor_3.png","68","motor","","","","","","",""
"476","564211","HierDy5qw5xqtq","sub12","12","8","motor","75","img/motor_7.png","75","motor","7","330","1","0","0","",""
"null","564322","HierDy5qw5xqtq","sub12","12","8","iti","null","img/motor_7.png","75","motor","","","","","","",""
"413","564746","HierDy5qw5xqtq","sub12","12","8","motor","65","img/motor_1.png","65","motor","1","331","1","0","0","",""
"null","564857","HierDy5qw5xqtq","sub12","12","8","iti","null","img/motor_1.png","65","motor","","","","","","",""
"562","565429","HierDy5qw5xqtq","sub12","12","8","motor","75","img/motor_7.png","75","motor","7","332","1","0","0","",""
"null","565539","HierDy5qw5xqtq","sub12","12","8","iti","null","img/motor_7.png","75","motor","","","","","","",""
"423","565972","HierDy5qw5xqtq","sub12","12","8","motor","76","img/motor_8.png","76","motor","8","333","1","0","0","",""
"null","566084","HierDy5qw5xqtq","sub12","12","8","iti","null","img/motor_8.png","76","motor","","","","","","",""
"339","566433","HierDy5qw5xqtq","sub12","12","8","motor","75","img/motor_8.png","76","motor","8","334","0","1","0","",""
"345","566788","HierDy5qw5xqtq","sub12","12","8","motorRepeat","76","img/motor_8.png","76","motor","8","334","1","0","0","",""
"null","566900","HierDy5qw5xqtq","sub12","12","8","iti","null","img/motor_8.png","76","motor","","","","","","",""
"572","567480","HierDy5qw5xqtq","sub12","12","8","motor","70","img/motor_4.png","70","motor","4","335","1","0","0","",""
"null","567592","HierDy5qw5xqtq","sub12","12","8","iti","null","img/motor_4.png","70","motor","","","","","","",""
"583","568185","HierDy5qw5xqtq","sub12","12","8","motor","68","img/motor_3.png","68","motor","3","336","1","0","0","",""
"null","568297","HierDy5qw5xqtq","sub12","12","8","iti","null","img/motor_3.png","68","motor","","","","","","",""
"469","568776","HierDy5qw5xqtq","sub12","12","8","motor","65","img/motor_1.png","65","motor","1","337","1","0","0","",""
"null","568888","HierDy5qw5xqtq","sub12","12","8","iti","null","img/motor_1.png","65","motor","","","","","","",""
"530","569429","HierDy5qw5xqtq","sub12","12","8","motor","83","img/motor_2.png","83","motor","2","338","1","0","0","",""
"null","569538","HierDy5qw5xqtq","sub12","12","8","iti","null","img/motor_2.png","83","motor","","","","","","",""
"401","569950","HierDy5qw5xqtq","sub12","12","8","motor","83","img/motor_2.png","83","motor","2","339","1","0","0","",""
"null","570062","HierDy5qw5xqtq","sub12","12","8","iti","null","img/motor_2.png","83","motor","","","","","","",""
"585","570657","HierDy5qw5xqtq","sub12","12","8","motor","72","img/motor_5.png","72","motor","5","340","1","0","0","",""
"null","570769","HierDy5qw5xqtq","sub12","12","8","iti","null","img/motor_5.png","72","motor","","","","","","",""
"391","571170","HierDy5qw5xqtq","sub12","12","8","motor","83","img/motor_2.png","83","motor","2","341","1","0","0","",""
"null","571281","HierDy5qw5xqtq","sub12","12","8","iti","null","img/motor_2.png","83","motor","","","","","","",""
"535","571826","HierDy5qw5xqtq","sub12","12","8","motor","68","img/motor_3.png","68","motor","3","342","1","0","0","",""
"null","571938","HierDy5qw5xqtq","sub12","12","8","iti","null","img/motor_3.png","68","motor","","","","","","",""
"356","572303","HierDy5qw5xqtq","sub12","12","8","motor","70","img/motor_4.png","70","motor","4","343","1","0","0","",""
"null","572413","HierDy5qw5xqtq","sub12","12","8","iti","null","img/motor_4.png","70","motor","","","","","","",""
"382","572806","HierDy5qw5xqtq","sub12","12","8","motor","70","img/motor_4.png","70","motor","4","344","1","0","0","",""
"null","572916","HierDy5qw5xqtq","sub12","12","8","iti","null","img/motor_4.png","70","motor","","","","","","",""
"603","573530","HierDy5qw5xqtq","sub12","12","8","motor","76","img/motor_8.png","76","motor","8","345","1","0","0","",""
"null","573642","HierDy5qw5xqtq","sub12","12","8","iti","null","img/motor_8.png","76","motor","","","","","","",""
"392","574044","HierDy5qw5xqtq","sub12","12","8","motor","65","img/motor_1.png","65","motor","1","346","1","0","0","",""
"null","574157","HierDy5qw5xqtq","sub12","12","8","iti","null","img/motor_1.png","65","motor","","","","","","",""
"621","574789","HierDy5qw5xqtq","sub12","12","8","motor","74","img/motor_6.png","74","motor","6","347","1","0","0","",""
"null","574899","HierDy5qw5xqtq","sub12","12","8","iti","null","img/motor_6.png","74","motor","","","","","","",""
"566","575476","HierDy5qw5xqtq","sub12","12","8","motor","83","img/motor_2.png","83","motor","2","348","1","0","0","",""
"null","575589","HierDy5qw5xqtq","sub12","12","8","iti","null","img/motor_2.png","83","motor","","","","","","",""
"505","576105","HierDy5qw5xqtq","sub12","12","8","motor","76","img/motor_8.png","76","motor","8","349","1","0","0","",""
"null","576216","HierDy5qw5xqtq","sub12","12","8","iti","null","img/motor_8.png","76","motor","","","","","","",""
"633","576858","HierDy5qw5xqtq","sub12","12","8","motor","75","img/motor_7.png","75","motor","7","350","1","0","0","",""
"null","576969","HierDy5qw5xqtq","sub12","12","8","iti","null","img/motor_7.png","75","motor","","","","","","",""
"328","577306","HierDy5qw5xqtq","sub12","12","8","motor","75","img/motor_7.png","75","motor","7","351","1","0","0","",""
"null","577418","HierDy5qw5xqtq","sub12","12","8","iti","null","img/motor_7.png","75","motor","","","","","","",""
"472","577900","HierDy5qw5xqtq","sub12","12","8","motor","72","img/motor_5.png","72","motor","5","352","1","0","0","",""
"null","578012","HierDy5qw5xqtq","sub12","12","8","iti","null","img/motor_5.png","72","motor","","","","","","",""
"560","578582","HierDy5qw5xqtq","sub12","12","8","motor","75","img/motor_7.png","75","motor","7","353","1","0","0","",""
"null","578695","HierDy5qw5xqtq","sub12","12","8","iti","null","img/motor_7.png","75","motor","","","","","","",""
"695","579402","HierDy5qw5xqtq","sub12","12","8","motor","72","img/motor_5.png","72","motor","5","354","1","0","0","",""
"null","579513","HierDy5qw5xqtq","sub12","12","8","iti","null","img/motor_5.png","72","motor","","","","","","",""
"585","580108","HierDy5qw5xqtq","sub12","12","8","motor","68","img/motor_3.png","68","motor","3","355","1","0","0","",""
"null","580220","HierDy5qw5xqtq","sub12","12","8","iti","null","img/motor_3.png","68","motor","","","","","","",""
"359","580590","HierDy5qw5xqtq","sub12","12","8","motor","83","img/motor_2.png","83","motor","2","356","1","0","0","",""
"null","580702","HierDy5qw5xqtq","sub12","12","8","iti","null","img/motor_2.png","83","motor","","","","","","",""
"540","581251","HierDy5qw5xqtq","sub12","12","8","motor","74","img/motor_6.png","74","motor","6","357","1","0","0","",""
"null","581363","HierDy5qw5xqtq","sub12","12","8","iti","null","img/motor_6.png","74","motor","","","","","","",""
"568","581942","HierDy5qw5xqtq","sub12","12","8","motor","65","img/motor_1.png","65","motor","1","358","1","0","0","",""
"null","582050","HierDy5qw5xqtq","sub12","12","8","iti","null","img/motor_1.png","65","motor","","","","","","",""
"561","582623","HierDy5qw5xqtq","sub12","12","8","motor","68","img/motor_3.png","68","motor","3","359","1","0","0","",""
"null","582736","HierDy5qw5xqtq","sub12","12","8","iti","null","img/motor_3.png","68","motor","","","","","","",""
"450","583196","HierDy5qw5xqtq","sub12","12","8","motor","65","img/motor_1.png","65","motor","1","360","1","0","0","",""
"null","583307","HierDy5qw5xqtq","sub12","12","8","iti","null","img/motor_1.png","65","motor","","","","","","",""
"420","583737","HierDy5qw5xqtq","sub12","12","8","motor","70","img/motor_4.png","70","motor","4","361","1","0","0","",""
"null","583848","HierDy5qw5xqtq","sub12","12","8","iti","null","img/motor_4.png","70","motor","","","","","","",""
"405","584264","HierDy5qw5xqtq","sub12","12","8","motor","65","img/motor_1.png","65","motor","1","362","1","0","0","",""
"null","584374","HierDy5qw5xqtq","sub12","12","8","iti","null","img/motor_1.png","65","motor","","","","","","",""
"462","584847","HierDy5qw5xqtq","sub12","12","8","motor","83","img/motor_2.png","83","motor","2","363","1","0","0","",""
"null","584957","HierDy5qw5xqtq","sub12","12","8","iti","null","img/motor_2.png","83","motor","","","","","","",""
"470","585434","HierDy5qw5xqtq","sub12","12","8","motor","72","img/motor_5.png","72","motor","5","364","1","0","0","",""
"null","585543","HierDy5qw5xqtq","sub12","12","8","iti","null","img/motor_5.png","72","motor","","","","","","",""
"515","586067","HierDy5qw5xqtq","sub12","12","8","motor","83","img/motor_2.png","83","motor","2","365","1","0","0","",""
"null","586178","HierDy5qw5xqtq","sub12","12","8","iti","null","img/motor_2.png","83","motor","","","","","","",""
"409","586596","HierDy5qw5xqtq","sub12","12","8","motor","70","img/motor_4.png","70","motor","4","366","1","0","0","",""
"null","586707","HierDy5qw5xqtq","sub12","12","8","iti","null","img/motor_4.png","70","motor","","","","","","",""
"396","587112","HierDy5qw5xqtq","sub12","12","8","motor","74","img/motor_5.png","72","motor","5","367","0","1","0","",""
"222","587342","HierDy5qw5xqtq","sub12","12","8","motorRepeat","72","img/motor_5.png","72","motor","5","367","1","0","0","",""
"null","587451","HierDy5qw5xqtq","sub12","12","8","iti","null","img/motor_5.png","72","motor","","","","","","",""
"812","588272","HierDy5qw5xqtq","sub12","12","8","motor","68","img/motor_3.png","68","motor","3","368","1","0","0","",""
"null","588384","HierDy5qw5xqtq","sub12","12","8","iti","null","img/motor_3.png","68","motor","","","","","","",""
"455","588845","HierDy5qw5xqtq","sub12","12","8","motor","70","img/motor_4.png","70","motor","4","369","1","0","0","",""
"null","588955","HierDy5qw5xqtq","sub12","12","8","iti","null","img/motor_4.png","70","motor","","","","","","",""
"365","589331","HierDy5qw5xqtq","sub12","12","8","motor","70","img/motor_4.png","70","motor","4","370","1","0","0","",""
"null","589442","HierDy5qw5xqtq","sub12","12","8","iti","null","img/motor_4.png","70","motor","","","","","","",""
"497","589946","HierDy5qw5xqtq","sub12","12","8","motor","83","img/motor_2.png","83","motor","2","371","1","0","0","",""
"null","590055","HierDy5qw5xqtq","sub12","12","8","iti","null","img/motor_2.png","83","motor","","","","","","",""
"415","590478","HierDy5qw5xqtq","sub12","12","8","motor","83","img/motor_2.png","83","motor","2","372","1","0","0","",""
"null","590589","HierDy5qw5xqtq","sub12","12","8","iti","null","img/motor_2.png","83","motor","","","","","","",""
"582","591182","HierDy5qw5xqtq","sub12","12","8","motor","74","img/motor_6.png","74","motor","6","373","1","0","0","",""
"null","591290","HierDy5qw5xqtq","sub12","12","8","iti","null","img/motor_6.png","74","motor","","","","","","",""
"419","591720","HierDy5qw5xqtq","sub12","12","8","motor","65","img/motor_1.png","65","motor","1","374","1","0","0","",""
"null","591831","HierDy5qw5xqtq","sub12","12","8","iti","null","img/motor_1.png","65","motor","","","","","","",""
"626","592469","HierDy5qw5xqtq","sub12","12","8","motor","68","img/motor_3.png","68","motor","3","375","1","0","0","",""
"null","592579","HierDy5qw5xqtq","sub12","12","8","iti","null","img/motor_3.png","68","motor","","","","","","",""
"556","593146","HierDy5qw5xqtq","sub12","12","8","motor","72","img/motor_5.png","72","motor","5","376","1","0","0","",""
"null","593255","HierDy5qw5xqtq","sub12","12","8","iti","null","img/motor_5.png","72","motor","","","","","","",""
"422","593686","HierDy5qw5xqtq","sub12","12","8","motor","76","img/motor_8.png","76","motor","8","377","1","0","0","",""
"null","593794","HierDy5qw5xqtq","sub12","12","8","iti","null","img/motor_8.png","76","motor","","","","","","",""
"496","594299","HierDy5qw5xqtq","sub12","12","8","motor","65","img/motor_1.png","65","motor","1","378","1","0","0","",""
"null","594411","HierDy5qw5xqtq","sub12","12","8","iti","null","img/motor_1.png","65","motor","","","","","","",""
"473","594895","HierDy5qw5xqtq","sub12","12","8","motor","75","img/motor_7.png","75","motor","7","379","1","0","0","",""
"null","595006","HierDy5qw5xqtq","sub12","12","8","iti","null","img/motor_7.png","75","motor","","","","","","",""
"409","595426","HierDy5qw5xqtq","sub12","12","8","motor","65","img/motor_1.png","65","motor","1","380","1","0","0","",""
"null","595534","HierDy5qw5xqtq","sub12","12","8","iti","null","img/motor_1.png","65","motor","","","","","","",""
"488","596033","HierDy5qw5xqtq","sub12","12","8","motor","76","img/motor_8.png","76","motor","8","381","1","0","0","",""
"null","596145","HierDy5qw5xqtq","sub12","12","8","iti","null","img/motor_8.png","76","motor","","","","","","",""
"358","596514","HierDy5qw5xqtq","sub12","12","8","motor","76","img/motor_8.png","76","motor","8","382","1","0","0","",""
"null","596625","HierDy5qw5xqtq","sub12","12","8","iti","null","img/motor_8.png","76","motor","","","","","","",""
"535","597172","HierDy5qw5xqtq","sub12","12","8","motor","74","img/motor_6.png","74","motor","6","383","1","0","0","",""
"null","597283","HierDy5qw5xqtq","sub12","12","8","iti","null","img/motor_6.png","74","motor","","","","","","",""
"434","597729","HierDy5qw5xqtq","sub12","12","8","motor","72","img/motor_5.png","72","motor","5","384","1","0","0","",""
"null","597841","HierDy5qw5xqtq","sub12","12","8","iti","null","img/motor_5.png","72","motor","","","","","","",""
"394","598246","HierDy5qw5xqtq","sub12","12","8","motor","65","img/motor_1.png","65","motor","1","385","1","0","0","",""
"null","598356","HierDy5qw5xqtq","sub12","12","8","iti","null","img/motor_1.png","65","motor","","","","","","",""
"546","598914","HierDy5qw5xqtq","sub12","12","8","motor","83","img/motor_2.png","83","motor","2","386","1","0","0","",""
"null","599026","HierDy5qw5xqtq","sub12","12","8","iti","null","img/motor_2.png","83","motor","","","","","","",""
"539","599575","HierDy5qw5xqtq","sub12","12","8","motor","74","img/motor_6.png","74","motor","6","387","1","0","0","",""
"null","599687","HierDy5qw5xqtq","sub12","12","8","iti","null","img/motor_6.png","74","motor","","","","","","",""
"398","600094","HierDy5qw5xqtq","sub12","12","8","motor","76","img/motor_8.png","76","motor","8","388","1","0","0","",""
"null","600205","HierDy5qw5xqtq","sub12","12","8","iti","null","img/motor_8.png","76","motor","","","","","","",""
"559","600774","HierDy5qw5xqtq","sub12","12","8","motor","83","img/motor_2.png","83","motor","2","389","1","0","0","",""
"null","600886","HierDy5qw5xqtq","sub12","12","8","iti","null","img/motor_2.png","83","motor","","","","","","",""
"465","601363","HierDy5qw5xqtq","sub12","12","8","motor","76","img/motor_8.png","76","motor","8","390","1","0","0","",""
"null","601475","HierDy5qw5xqtq","sub12","12","8","iti","null","img/motor_8.png","76","motor","","","","","","",""
"416","601901","HierDy5qw5xqtq","sub12","12","8","motor","76","img/motor_8.png","76","motor","8","391","1","0","0","",""
"null","602014","HierDy5qw5xqtq","sub12","12","8","iti","null","img/motor_8.png","76","motor","","","","","","",""
"464","602486","HierDy5qw5xqtq","sub12","12","8","motor","72","img/motor_5.png","72","motor","5","392","1","0","0","",""
"null","602597","HierDy5qw5xqtq","sub12","12","8","iti","null","img/motor_5.png","72","motor","","","","","","",""
"526","603134","HierDy5qw5xqtq","sub12","12","8","motor","75","img/motor_7.png","75","motor","7","393","1","0","0","",""
"null","603246","HierDy5qw5xqtq","sub12","12","8","iti","null","img/motor_7.png","75","motor","","","","","","",""
"503","603761","HierDy5qw5xqtq","sub12","12","8","motor","65","img/motor_1.png","65","motor","1","394","1","0","0","",""
"null","603872","HierDy5qw5xqtq","sub12","12","8","iti","null","img/motor_1.png","65","motor","","","","","","",""
"410","604287","HierDy5qw5xqtq","sub12","12","8","motor","83","img/motor_1.png","65","motor","1","395","0","1","0","",""
"398","604695","HierDy5qw5xqtq","sub12","12","8","motorRepeat","65","img/motor_1.png","65","motor","1","395","1","0","0","",""
"null","604806","HierDy5qw5xqtq","sub12","12","8","iti","null","img/motor_1.png","65","motor","","","","","","",""
"711","605528","HierDy5qw5xqtq","sub12","12","8","motor","68","img/motor_3.png","68","motor","3","396","1","0","0","",""
"null","605639","HierDy5qw5xqtq","sub12","12","8","iti","null","img/motor_3.png","68","motor","","","","","","",""
"587","606234","HierDy5qw5xqtq","sub12","12","8","motor","74","img/motor_6.png","74","motor","6","397","1","0","0","",""
"null","606342","HierDy5qw5xqtq","sub12","12","8","iti","null","img/motor_6.png","74","motor","","","","","","",""
"856","607207","HierDy5qw5xqtq","sub12","12","8","motor","68","img/motor_3.png","68","motor","3","398","1","0","0","",""
"null","607319","HierDy5qw5xqtq","sub12","12","8","iti","null","img/motor_3.png","68","motor","","","","","","",""
"513","607840","HierDy5qw5xqtq","sub12","12","8","motor","75","img/motor_7.png","75","motor","7","399","1","0","0","",""
"null","607949","HierDy5qw5xqtq","sub12","12","8","iti","null","img/motor_7.png","75","motor","","","","","","",""
"627","608586","HierDy5qw5xqtq","sub12","12","8","motor","76","img/motor_8.png","76","motor","8","400","1","0","0","",""
"null","608695","HierDy5qw5xqtq","sub12","12","8","iti","null","img/motor_8.png","76","motor","","","","","","",""
"579","609283","HierDy5qw5xqtq","sub12","12","8","motor","74","img/motor_6.png","74","motor","6","401","1","0","0","",""
"null","609392","HierDy5qw5xqtq","sub12","12","8","iti","null","img/motor_6.png","74","motor","","","","","","",""
"561","609963","HierDy5qw5xqtq","sub12","12","8","motor","70","img/motor_4.png","70","motor","4","402","1","0","0","",""
"null","610075","HierDy5qw5xqtq","sub12","12","8","iti","null","img/motor_4.png","70","motor","","","","","","",""
"426","610511","HierDy5qw5xqtq","sub12","12","8","motor","65","img/motor_1.png","65","motor","1","403","1","0","0","",""
"null","610622","HierDy5qw5xqtq","sub12","12","8","iti","null","img/motor_1.png","65","motor","","","","","","",""
"527","611160","HierDy5qw5xqtq","sub12","12","8","motor","74","img/motor_6.png","74","motor","6","404","1","0","0","",""
"null","611272","HierDy5qw5xqtq","sub12","12","8","iti","null","img/motor_6.png","74","motor","","","","","","",""
"617","611898","HierDy5qw5xqtq","sub12","12","8","motor","83","img/motor_2.png","83","motor","2","405","1","0","0","",""
"null","612009","HierDy5qw5xqtq","sub12","12","8","iti","null","img/motor_2.png","83","motor","","","","","","",""
"495","612514","HierDy5qw5xqtq","sub12","12","8","motor","65","img/motor_1.png","65","motor","1","406","1","0","0","",""
"null","612623","HierDy5qw5xqtq","sub12","12","8","iti","null","img/motor_1.png","65","motor","","","","","","",""
"437","613071","HierDy5qw5xqtq","sub12","12","8","motor","70","img/motor_4.png","70","motor","4","407","1","0","0","",""
"null","613182","HierDy5qw5xqtq","sub12","12","8","iti","null","img/motor_4.png","70","motor","","","","","","",""
"596","613789","HierDy5qw5xqtq","sub12","12","8","motor","72","img/motor_5.png","72","motor","5","408","1","0","0","",""
"null","613901","HierDy5qw5xqtq","sub12","12","8","iti","null","img/motor_5.png","72","motor","","","","","","",""
"648","614557","HierDy5qw5xqtq","sub12","12","8","motor","65","img/motor_1.png","65","motor","1","409","1","0","0","",""
