"rt","time_elapsed","subject","subID","group","day","trialType","phase","key_press","stim","stimNum","corrresp","hierarchy","trialNum","corr","responses"
"1167","1169","HierDy9a4chq9t","sub14","02","07","","","","","","","","","",""
"","3514","HierDy9a4chq9t","sub14","02","07","fullscreen","","","","","","","","",""
"648.4000000059605","4163","HierDy9a4chq9t","sub14","02","07","","prac","","","","","","","",""
"401.2999999821186","4566","HierDy9a4chq9t","sub14","02","07","","","32","","","","","","",""
"402.69999998807907","4969","HierDy9a4chq9t","sub14","02","07","","prac","","","","","","","",""
"1087.5","6058","HierDy9a4chq9t","sub14","02","07","rl","test","72","img/o_t_check.png","5","72","color,shape,pattern","1","1",""
"null","7062","HierDy9a4chq9t","sub14","02","07","feedback","test","null","","","na","","1","",""
"1021.5999999940395","8085","HierDy9a4chq9t","sub14","02","07","rl","test","70","img/p_d_diag.png","4","70","color,shape,pattern","2","1",""
"null","9086","HierDy9a4chq9t","sub14","02","07","feedback","test","null","","","na","","2","",""
"657.6999999880791","9745","HierDy9a4chq9t","sub14","02","07","rl","test","65","img/p_t_check.png","1","65","color,shape,pattern","3","1",""
"null","10749","HierDy9a4chq9t","sub14","02","07","feedback","test","null","","","na","","3","",""
"729.5999999940395","11479","HierDy9a4chq9t","sub14","02","07","rl","test","68","img/p_d_check.png","3","68","color,shape,pattern","4","1",""
"null","12484","HierDy9a4chq9t","sub14","02","07","feedback","test","null","","","na","","4","",""
"602.2999999821186","13087","HierDy9a4chq9t","sub14","02","07","rl","test","76","img/o_d_diag.png","8","76","color,shape,pattern","5","1",""
"null","14090","HierDy9a4chq9t","sub14","02","07","feedback","test","null","","","na","","5","",""
"605.2000000178814","14696","HierDy9a4chq9t","sub14","02","07","rl","test","74","img/o_t_diag.png","6","74","color,shape,pattern","6","1",""
"null","15698","HierDy9a4chq9t","sub14","02","07","feedback","test","null","","","na","","6","",""
"820.7000000178814","16519","HierDy9a4chq9t","sub14","02","07","rl","test","83","img/p_t_diag.png","2","83","color,shape,pattern","7","1",""
"null","17524","HierDy9a4chq9t","sub14","02","07","feedback","test","null","","","na","","7","",""
"1083.3999999761581","18608","HierDy9a4chq9t","sub14","02","07","rl","test","75","img/o_d_check.png","7","75","color,shape,pattern","8","1",""
"null","19611","HierDy9a4chq9t","sub14","02","07","feedback","test","null","","","na","","8","",""
"637.1999999880791","20249","HierDy9a4chq9t","sub14","02","07","rl","test","74","img/o_t_diag.png","6","74","color,shape,pattern","9","1",""
"null","21252","HierDy9a4chq9t","sub14","02","07","feedback","test","null","","","na","","9","",""
"673.0999999940395","21927","HierDy9a4chq9t","sub14","02","07","rl","test","65","img/p_t_check.png","1","65","color,shape,pattern","10","1",""
"null","22932","HierDy9a4chq9t","sub14","02","07","feedback","test","null","","","na","","10","",""
"607.5","23541","HierDy9a4chq9t","sub14","02","07","rl","test","83","img/p_t_diag.png","2","83","color,shape,pattern","11","1",""
"null","24545","HierDy9a4chq9t","sub14","02","07","feedback","test","null","","","na","","11","",""
"780.3000000119209","25327","HierDy9a4chq9t","sub14","02","07","rl","test","72","img/o_t_check.png","5","72","color,shape,pattern","12","1",""
"null","26333","HierDy9a4chq9t","sub14","02","07","feedback","test","null","","","na","","12","",""
"677.3000000119209","27012","HierDy9a4chq9t","sub14","02","07","rl","test","83","img/p_t_diag.png","2","83","color,shape,pattern","13","1",""
"null","28014","HierDy9a4chq9t","sub14","02","07","feedback","test","null","","","na","","13","",""
"1846.8999999761581","29863","HierDy9a4chq9t","sub14","02","07","rl","test","70","img/p_d_diag.png","4","70","color,shape,pattern","14","1",""
"null","30866","HierDy9a4chq9t","sub14","02","07","feedback","test","null","","","na","","14","",""
"653.9000000059605","31522","HierDy9a4chq9t","sub14","02","07","rl","test","75","img/o_d_check.png","7","75","color,shape,pattern","15","1",""
"null","32527","HierDy9a4chq9t","sub14","02","07","feedback","test","null","","","na","","15","",""
"1107.6000000238419","33636","HierDy9a4chq9t","sub14","02","07","rl","test","76","img/o_d_diag.png","8","76","color,shape,pattern","16","1",""
"null","34642","HierDy9a4chq9t","sub14","02","07","feedback","test","null","","","na","","16","",""
"794.5","35438","HierDy9a4chq9t","sub14","02","07","rl","test","68","img/p_d_check.png","3","68","color,shape,pattern","17","1",""
"null","36443","HierDy9a4chq9t","sub14","02","07","feedback","test","null","","","na","","17","",""
"516.4000000059605","36961","HierDy9a4chq9t","sub14","02","07","rl","test","68","img/p_d_check.png","3","68","color,shape,pattern","18","1",""
"null","37966","HierDy9a4chq9t","sub14","02","07","feedback","test","null","","","na","","18","",""
"1118.0999999940395","39086","HierDy9a4chq9t","sub14","02","07","rl","test","70","img/p_d_diag.png","4","70","color,shape,pattern","19","1",""
"null","40088","HierDy9a4chq9t","sub14","02","07","feedback","test","null","","","na","","19","",""
"580.1999999880791","40670","HierDy9a4chq9t","sub14","02","07","rl","test","72","img/o_t_check.png","5","72","color,shape,pattern","20","1",""
"null","41672","HierDy9a4chq9t","sub14","02","07","feedback","test","null","","","na","","20","",""
"508.2999999821186","42182","HierDy9a4chq9t","sub14","02","07","rl","test","74","img/o_t_diag.png","6","74","color,shape,pattern","21","1",""
"null","43189","HierDy9a4chq9t","sub14","02","07","feedback","test","null","","","na","","21","",""
"1628.5","44819","HierDy9a4chq9t","sub14","02","07","rl","test","76","img/o_d_diag.png","8","76","color,shape,pattern","22","1",""
"null","45824","HierDy9a4chq9t","sub14","02","07","feedback","test","null","","","na","","22","",""
"1183.0999999940395","47009","HierDy9a4chq9t","sub14","02","07","rl","test","76","img/o_d_diag.png","8","76","color,shape,pattern","23","1",""
"null","48014","HierDy9a4chq9t","sub14","02","07","feedback","test","null","","","na","","23","",""
"777.3000000119209","48793","HierDy9a4chq9t","sub14","02","07","rl","test","65","img/p_t_check.png","1","65","color,shape,pattern","24","1",""
"null","49795","HierDy9a4chq9t","sub14","02","07","feedback","test","null","","","na","","24","",""
"601.2999999821186","50398","HierDy9a4chq9t","sub14","02","07","rl","test","68","img/o_d_check.png","7","75","color,shape,pattern","25","0",""
"null","51401","HierDy9a4chq9t","sub14","02","07","feedback","test","null","","","na","","25","",""
"774.1000000238419","52177","HierDy9a4chq9t","sub14","02","07","rl","test","72","img/p_t_check.png","1","65","color,shape,pattern","26","0",""
"null","53182","HierDy9a4chq9t","sub14","02","07","feedback","test","null","","","na","","26","",""
"1393.9000000059605","54578","HierDy9a4chq9t","sub14","02","07","rl","test","83","img/p_t_diag.png","2","83","color,shape,pattern","27","1",""
"null","55582","HierDy9a4chq9t","sub14","02","07","feedback","test","null","","","na","","27","",""
"1328.4000000059605","56912","HierDy9a4chq9t","sub14","02","07","rl","test","75","img/o_d_check.png","7","75","color,shape,pattern","28","1",""
"null","57918","HierDy9a4chq9t","sub14","02","07","feedback","test","null","","","na","","28","",""
"756.5","58676","HierDy9a4chq9t","sub14","02","07","rl","test","74","img/o_t_diag.png","6","74","color,shape,pattern","29","1",""
"null","59679","HierDy9a4chq9t","sub14","02","07","feedback","test","null","","","na","","29","",""
"787.2999999821186","60468","HierDy9a4chq9t","sub14","02","07","rl","test","68","img/p_d_check.png","3","68","color,shape,pattern","30","1",""
"null","61473","HierDy9a4chq9t","sub14","02","07","feedback","test","null","","","na","","30","",""
"1379.5","62854","HierDy9a4chq9t","sub14","02","07","rl","test","72","img/o_t_check.png","5","72","color,shape,pattern","31","1",""
"null","63860","HierDy9a4chq9t","sub14","02","07","feedback","test","null","","","na","","31","",""
"1343.9000000059605","65205","HierDy9a4chq9t","sub14","02","07","rl","test","70","img/p_d_diag.png","4","70","color,shape,pattern","32","1",""
"null","66207","HierDy9a4chq9t","sub14","02","07","feedback","test","null","","","na","","32","",""
"561.7999999821186","66771","HierDy9a4chq9t","sub14","02","07","rl","test","76","img/o_d_diag.png","8","76","color,shape,pattern","33","1",""
"null","67778","HierDy9a4chq9t","sub14","02","07","feedback","test","null","","","na","","33","",""
"758","68537","HierDy9a4chq9t","sub14","02","07","rl","test","83","img/p_t_diag.png","2","83","color,shape,pattern","34","1",""
"null","69540","HierDy9a4chq9t","sub14","02","07","feedback","test","null","","","na","","34","",""
"659.9000000059605","70201","HierDy9a4chq9t","sub14","02","07","rl","test","65","img/p_t_check.png","1","65","color,shape,pattern","35","1",""
"null","71204","HierDy9a4chq9t","sub14","02","07","feedback","test","null","","","na","","35","",""
"607","71812","HierDy9a4chq9t","sub14","02","07","rl","test","68","img/p_d_check.png","3","68","color,shape,pattern","36","1",""
"null","72817","HierDy9a4chq9t","sub14","02","07","feedback","test","null","","","na","","36","",""
"620","73439","HierDy9a4chq9t","sub14","02","07","rl","test","70","img/p_d_diag.png","4","70","color,shape,pattern","37","1",""
"null","74445","HierDy9a4chq9t","sub14","02","07","feedback","test","null","","","na","","37","",""
"461.09999999403954","74908","HierDy9a4chq9t","sub14","02","07","rl","test","70","img/p_d_diag.png","4","70","color,shape,pattern","38","1",""
"null","75913","HierDy9a4chq9t","sub14","02","07","feedback","test","null","","","na","","38","",""
"750.1999999880791","76665","HierDy9a4chq9t","sub14","02","07","rl","test","75","img/o_d_check.png","7","75","color,shape,pattern","39","1",""
"null","77667","HierDy9a4chq9t","sub14","02","07","feedback","test","null","","","na","","39","",""
"674.5999999940395","78343","HierDy9a4chq9t","sub14","02","07","rl","test","68","img/p_d_check.png","3","68","color,shape,pattern","40","1",""
"null","79346","HierDy9a4chq9t","sub14","02","07","feedback","test","null","","","na","","40","",""
"1231.0999999940395","80579","HierDy9a4chq9t","sub14","02","07","rl","test","72","img/o_t_check.png","5","72","color,shape,pattern","41","1",""
"null","81583","HierDy9a4chq9t","sub14","02","07","feedback","test","null","","","na","","41","",""
"928.1999999880791","82513","HierDy9a4chq9t","sub14","02","07","rl","test","75","img/o_d_check.png","7","75","color,shape,pattern","42","1",""
"null","83515","HierDy9a4chq9t","sub14","02","07","feedback","test","null","","","na","","42","",""
"605.5999999940395","84122","HierDy9a4chq9t","sub14","02","07","rl","test","74","img/o_t_diag.png","6","74","color,shape,pattern","43","1",""
"null","85123","HierDy9a4chq9t","sub14","02","07","feedback","test","null","","","na","","43","",""
"534.4000000059605","85658","HierDy9a4chq9t","sub14","02","07","rl","test","74","img/o_t_diag.png","6","74","color,shape,pattern","44","1",""
"null","86663","HierDy9a4chq9t","sub14","02","07","feedback","test","null","","","na","","44","",""
"384.09999999403954","87049","HierDy9a4chq9t","sub14","02","07","rl","test","74","img/o_d_diag.png","8","76","color,shape,pattern","45","0",""
"null","88050","HierDy9a4chq9t","sub14","02","07","feedback","test","null","","","na","","45","",""
"708.8000000119209","88761","HierDy9a4chq9t","sub14","02","07","rl","test","74","img/o_t_diag.png","6","74","color,shape,pattern","46","1",""
"null","89763","HierDy9a4chq9t","sub14","02","07","feedback","test","null","","","na","","46","",""
"669.5","90434","HierDy9a4chq9t","sub14","02","07","rl","test","72","img/o_t_check.png","5","72","color,shape,pattern","47","1",""
"null","91437","HierDy9a4chq9t","sub14","02","07","feedback","test","null","","","na","","47","",""
"664.2999999821186","92103","HierDy9a4chq9t","sub14","02","07","rl","test","83","img/p_t_diag.png","2","83","color,shape,pattern","48","1",""
"null","93104","HierDy9a4chq9t","sub14","02","07","feedback","test","null","","","na","","48","",""
"664.4000000059605","93770","HierDy9a4chq9t","sub14","02","07","rl","test","68","img/p_d_check.png","3","68","color,shape,pattern","49","1",""
"null","94774","HierDy9a4chq9t","sub14","02","07","feedback","test","null","","","na","","49","",""
"652.8000000119209","95429","HierDy9a4chq9t","sub14","02","07","rl","test","65","img/p_t_check.png","1","65","color,shape,pattern","50","1",""
"null","96431","HierDy9a4chq9t","sub14","02","07","feedback","test","null","","","na","","50","",""
"623","97055","HierDy9a4chq9t","sub14","02","07","rl","test","83","img/p_t_diag.png","2","83","color,shape,pattern","51","1",""
"null","98059","HierDy9a4chq9t","sub14","02","07","feedback","test","null","","","na","","51","",""
"671.9000000059605","98732","HierDy9a4chq9t","sub14","02","07","rl","test","65","img/p_t_check.png","1","65","color,shape,pattern","52","1",""
"null","99738","HierDy9a4chq9t","sub14","02","07","feedback","test","null","","","na","","52","",""
"958.2000000178814","100697","HierDy9a4chq9t","sub14","02","07","rl","test","70","img/p_d_diag.png","4","70","color,shape,pattern","53","1",""
"null","101700","HierDy9a4chq9t","sub14","02","07","feedback","test","null","","","na","","53","",""
"627.2000000178814","102328","HierDy9a4chq9t","sub14","02","07","rl","test","74","img/o_t_diag.png","6","74","color,shape,pattern","54","1",""
"null","103332","HierDy9a4chq9t","sub14","02","07","feedback","test","null","","","na","","54","",""
"726.6999999880791","104060","HierDy9a4chq9t","sub14","02","07","rl","test","75","img/o_d_check.png","7","75","color,shape,pattern","55","1",""
"null","105065","HierDy9a4chq9t","sub14","02","07","feedback","test","null","","","na","","55","",""
"708.8000000119209","105776","HierDy9a4chq9t","sub14","02","07","rl","test","72","img/o_t_check.png","5","72","color,shape,pattern","56","1",""
"null","106778","HierDy9a4chq9t","sub14","02","07","feedback","test","null","","","na","","56","",""
"686.0999999940395","107465","HierDy9a4chq9t","sub14","02","07","rl","test","76","img/o_d_diag.png","8","76","color,shape,pattern","57","1",""
"null","108470","HierDy9a4chq9t","sub14","02","07","feedback","test","null","","","na","","57","",""
"645.2000000178814","109116","HierDy9a4chq9t","sub14","02","07","rl","test","83","img/p_t_diag.png","2","83","color,shape,pattern","58","1",""
"null","110118","HierDy9a4chq9t","sub14","02","07","feedback","test","null","","","na","","58","",""
"888.8000000119209","111008","HierDy9a4chq9t","sub14","02","07","rl","test","75","img/o_d_check.png","7","75","color,shape,pattern","59","1",""
"null","112011","HierDy9a4chq9t","sub14","02","07","feedback","test","null","","","na","","59","",""
"653.6999999880791","112666","HierDy9a4chq9t","sub14","02","07","rl","test","72","img/o_t_check.png","5","72","color,shape,pattern","60","1",""
"null","113672","HierDy9a4chq9t","sub14","02","07","feedback","test","null","","","na","","60","",""
"1634.2999999821186","115309","HierDy9a4chq9t","sub14","02","07","rl","test","70","img/p_d_diag.png","4","70","color,shape,pattern","61","1",""
"null","116314","HierDy9a4chq9t","sub14","02","07","feedback","test","null","","","na","","61","",""
"885.2000000178814","117200","HierDy9a4chq9t","sub14","02","07","rl","test","76","img/o_d_diag.png","8","76","color,shape,pattern","62","1",""
"null","118206","HierDy9a4chq9t","sub14","02","07","feedback","test","null","","","na","","62","",""
"1451.300000011921","119658","HierDy9a4chq9t","sub14","02","07","rl","test","65","img/p_t_check.png","1","65","color,shape,pattern","63","1",""
"null","120664","HierDy9a4chq9t","sub14","02","07","feedback","test","null","","","na","","63","",""
"1096.7000000178814","121762","HierDy9a4chq9t","sub14","02","07","rl","test","68","img/p_d_check.png","3","68","color,shape,pattern","64","1",""
"null","122766","HierDy9a4chq9t","sub14","02","07","feedback","test","null","","","na","","64","",""
"2061.699999988079","124829","HierDy9a4chq9t","sub14","02","07","rl","test","76","img/o_d_diag.png","8","76","color,shape,pattern","65","1",""
"null","125835","HierDy9a4chq9t","sub14","02","07","feedback","test","null","","","na","","65","",""
"975.6000000238419","126812","HierDy9a4chq9t","sub14","02","07","rl","test","68","img/p_d_check.png","3","68","color,shape,pattern","66","1",""
"null","127818","HierDy9a4chq9t","sub14","02","07","feedback","test","null","","","na","","66","",""
"652.5","128472","HierDy9a4chq9t","sub14","02","07","rl","test","74","img/o_t_diag.png","6","74","color,shape,pattern","67","1",""
"null","129473","HierDy9a4chq9t","sub14","02","07","feedback","test","null","","","na","","67","",""
"649.0999999940395","130123","HierDy9a4chq9t","sub14","02","07","rl","test","83","img/p_t_diag.png","2","83","color,shape,pattern","68","1",""
"null","131129","HierDy9a4chq9t","sub14","02","07","feedback","test","null","","","na","","68","",""
"725.9000000059605","131856","HierDy9a4chq9t","sub14","02","07","rl","test","65","img/p_t_check.png","1","65","color,shape,pattern","69","1",""
"null","132859","HierDy9a4chq9t","sub14","02","07","feedback","test","null","","","na","","69","",""
"695.7999999821186","133557","HierDy9a4chq9t","sub14","02","07","rl","test","70","img/p_d_diag.png","4","70","color,shape,pattern","70","1",""
"null","134560","HierDy9a4chq9t","sub14","02","07","feedback","test","null","","","na","","70","",""
"815.9000000059605","135378","HierDy9a4chq9t","sub14","02","07","rl","test","75","img/o_d_check.png","7","75","color,shape,pattern","71","1",""
"null","136383","HierDy9a4chq9t","sub14","02","07","feedback","test","null","","","na","","71","",""
"938.9000000059605","137323","HierDy9a4chq9t","sub14","02","07","rl","test","76","img/o_d_diag.png","8","76","color,shape,pattern","72","1",""
"null","138326","HierDy9a4chq9t","sub14","02","07","feedback","test","null","","","na","","72","",""
"547.2000000178814","138874","HierDy9a4chq9t","sub14","02","07","rl","test","83","img/p_t_diag.png","2","83","color,shape,pattern","73","1",""
"null","139877","HierDy9a4chq9t","sub14","02","07","feedback","test","null","","","na","","73","",""
"534.0999999940395","140412","HierDy9a4chq9t","sub14","02","07","rl","test","65","img/o_t_check.png","5","72","color,shape,pattern","74","0",""
"null","141418","HierDy9a4chq9t","sub14","02","07","feedback","test","null","","","na","","74","",""
"592.8000000119209","142012","HierDy9a4chq9t","sub14","02","07","rl","test","72","img/o_t_check.png","5","72","color,shape,pattern","75","1",""
"null","143019","HierDy9a4chq9t","sub14","02","07","feedback","test","null","","","na","","75","",""
"571.3000000119209","143593","HierDy9a4chq9t","sub14","02","07","rl","test","65","img/p_t_check.png","1","65","color,shape,pattern","76","1",""
"null","144600","HierDy9a4chq9t","sub14","02","07","feedback","test","null","","","na","","76","",""
"525.5","145127","HierDy9a4chq9t","sub14","02","07","rl","test","74","img/o_t_diag.png","6","74","color,shape,pattern","77","1",""
"null","146131","HierDy9a4chq9t","sub14","02","07","feedback","test","null","","","na","","77","",""
"888.0999999940395","147021","HierDy9a4chq9t","sub14","02","07","rl","test","70","img/p_d_diag.png","4","70","color,shape,pattern","78","1",""
"null","148027","HierDy9a4chq9t","sub14","02","07","feedback","test","null","","","na","","78","",""
"869.2999999821186","148898","HierDy9a4chq9t","sub14","02","07","rl","test","68","img/p_d_check.png","3","68","color,shape,pattern","79","1",""
"null","149900","HierDy9a4chq9t","sub14","02","07","feedback","test","null","","","na","","79","",""
"2187.5999999940395","152089","HierDy9a4chq9t","sub14","02","07","rl","test","72","img/o_t_check.png","5","72","color,shape,pattern","80","1",""
"null","153091","HierDy9a4chq9t","sub14","02","07","feedback","test","null","","","na","","80","",""
"null","155592","HierDy9a4chq9t","sub14","02","07","rl","test","null","img/o_d_check.png","7","75","color,shape,pattern","81","0",""
"null","156594","HierDy9a4chq9t","sub14","02","07","feedback","test","null","","","na","","81","",""
"689.7999999821186","157286","HierDy9a4chq9t","sub14","02","07","rl","test","70","img/p_d_diag.png","4","70","color,shape,pattern","82","1",""
"null","158293","HierDy9a4chq9t","sub14","02","07","feedback","test","null","","","na","","82","",""
"622.3999999761581","158917","HierDy9a4chq9t","sub14","02","07","rl","test","74","img/o_t_diag.png","6","74","color,shape,pattern","83","1",""
"null","159919","HierDy9a4chq9t","sub14","02","07","feedback","test","null","","","na","","83","",""
"635.0999999940395","160555","HierDy9a4chq9t","sub14","02","07","rl","test","75","img/o_d_check.png","7","75","color,shape,pattern","84","1",""
"null","161561","HierDy9a4chq9t","sub14","02","07","feedback","test","null","","","na","","84","",""
"577.6999999880791","162141","HierDy9a4chq9t","sub14","02","07","rl","test","83","img/p_t_diag.png","2","83","color,shape,pattern","85","1",""
"null","163147","HierDy9a4chq9t","sub14","02","07","feedback","test","null","","","na","","85","",""
"1005","164154","HierDy9a4chq9t","sub14","02","07","rl","test","76","img/o_d_diag.png","8","76","color,shape,pattern","86","1",""
"null","165159","HierDy9a4chq9t","sub14","02","07","feedback","test","null","","","na","","86","",""
"806.2999999821186","165967","HierDy9a4chq9t","sub14","02","07","rl","test","65","img/p_t_check.png","1","65","color,shape,pattern","87","1",""
"null","166972","HierDy9a4chq9t","sub14","02","07","feedback","test","null","","","na","","87","",""
"544.2000000178814","167517","HierDy9a4chq9t","sub14","02","07","rl","test","68","img/p_d_check.png","3","68","color,shape,pattern","88","1",""
"null","168523","HierDy9a4chq9t","sub14","02","07","feedback","test","null","","","na","","88","",""
"547.0999999940395","169072","HierDy9a4chq9t","sub14","02","07","rl","test","65","img/p_t_check.png","1","65","color,shape,pattern","89","1",""
"null","170076","HierDy9a4chq9t","sub14","02","07","feedback","test","null","","","na","","89","",""
"592.1000000238419","170669","HierDy9a4chq9t","sub14","02","07","rl","test","70","img/p_d_diag.png","4","70","color,shape,pattern","90","1",""
"null","171672","HierDy9a4chq9t","sub14","02","07","feedback","test","null","","","na","","90","",""
"616.3000000119209","172290","HierDy9a4chq9t","sub14","02","07","rl","test","83","img/p_t_diag.png","2","83","color,shape,pattern","91","1",""
"null","173292","HierDy9a4chq9t","sub14","02","07","feedback","test","null","","","na","","91","",""
"443.40000000596046","173737","HierDy9a4chq9t","sub14","02","07","rl","test","83","img/p_t_diag.png","2","83","color,shape,pattern","92","1",""
"null","174741","HierDy9a4chq9t","sub14","02","07","feedback","test","null","","","na","","92","",""
"809.5","175551","HierDy9a4chq9t","sub14","02","07","rl","test","76","img/o_d_diag.png","8","76","color,shape,pattern","93","1",""
"null","176556","HierDy9a4chq9t","sub14","02","07","feedback","test","null","","","na","","93","",""
"576.5999999940395","177134","HierDy9a4chq9t","sub14","02","07","rl","test","74","img/o_t_diag.png","6","74","color,shape,pattern","94","1",""
"null","178139","HierDy9a4chq9t","sub14","02","07","feedback","test","null","","","na","","94","",""
"510.7000000178814","178651","HierDy9a4chq9t","sub14","02","07","rl","test","72","img/o_t_check.png","5","72","color,shape,pattern","95","1",""
"null","179653","HierDy9a4chq9t","sub14","02","07","feedback","test","null","","","na","","95","",""
"527.3999999761581","180182","HierDy9a4chq9t","sub14","02","07","rl","test","74","img/o_t_diag.png","6","74","color,shape,pattern","96","1",""
"null","181186","HierDy9a4chq9t","sub14","02","07","feedback","test","null","","","na","","96","",""
"593.1999999880791","181781","HierDy9a4chq9t","sub14","02","07","rl","test","75","img/o_d_check.png","7","75","color,shape,pattern","97","1",""
"null","182785","HierDy9a4chq9t","sub14","02","07","feedback","test","null","","","na","","97","",""
"639.0999999940395","183425","HierDy9a4chq9t","sub14","02","07","rl","test","76","img/o_d_diag.png","8","76","color,shape,pattern","98","1",""
"null","184430","HierDy9a4chq9t","sub14","02","07","feedback","test","null","","","na","","98","",""
"796.1999999880791","185228","HierDy9a4chq9t","sub14","02","07","rl","test","68","img/p_d_check.png","3","68","color,shape,pattern","99","1",""
"null","186230","HierDy9a4chq9t","sub14","02","07","feedback","test","null","","","na","","99","",""
"574.7999999821186","186807","HierDy9a4chq9t","sub14","02","07","rl","test","68","img/p_d_check.png","3","68","color,shape,pattern","100","1",""
"null","187812","HierDy9a4chq9t","sub14","02","07","feedback","test","null","","","na","","100","",""
"788.2999999821186","188602","HierDy9a4chq9t","sub14","02","07","rl","test","75","img/o_d_check.png","7","75","color,shape,pattern","101","1",""
"null","189603","HierDy9a4chq9t","sub14","02","07","feedback","test","null","","","na","","101","",""
"607.6999999880791","190213","HierDy9a4chq9t","sub14","02","07","rl","test","72","img/o_t_check.png","5","72","color,shape,pattern","102","1",""
"null","191218","HierDy9a4chq9t","sub14","02","07","feedback","test","null","","","na","","102","",""
"694.4000000059605","191914","HierDy9a4chq9t","sub14","02","07","rl","test","65","img/p_t_check.png","1","65","color,shape,pattern","103","1",""
"null","192916","HierDy9a4chq9t","sub14","02","07","feedback","test","null","","","na","","103","",""
"759.2000000178814","193676","HierDy9a4chq9t","sub14","02","07","rl","test","75","img/o_d_check.png","7","75","color,shape,pattern","104","1",""
"null","194679","HierDy9a4chq9t","sub14","02","07","feedback","test","null","","","na","","104","",""
"683.2000000178814","195363","HierDy9a4chq9t","sub14","02","07","rl","test","70","img/p_d_diag.png","4","70","color,shape,pattern","105","1",""
"null","196369","HierDy9a4chq9t","sub14","02","07","feedback","test","null","","","na","","105","",""
"581.5999999940395","196952","HierDy9a4chq9t","sub14","02","07","rl","test","74","img/o_t_diag.png","6","74","color,shape,pattern","106","1",""
"null","197958","HierDy9a4chq9t","sub14","02","07","feedback","test","null","","","na","","106","",""
"801.9000000059605","198762","HierDy9a4chq9t","sub14","02","07","rl","test","83","img/p_t_diag.png","2","83","color,shape,pattern","107","1",""
"null","199766","HierDy9a4chq9t","sub14","02","07","feedback","test","null","","","na","","107","",""
"599.0999999940395","200367","HierDy9a4chq9t","sub14","02","07","rl","test","65","img/p_t_check.png","1","65","color,shape,pattern","108","1",""
"null","201372","HierDy9a4chq9t","sub14","02","07","feedback","test","null","","","na","","108","",""
"585.5999999940395","201960","HierDy9a4chq9t","sub14","02","07","rl","test","70","img/p_d_diag.png","4","70","color,shape,pattern","109","1",""
"null","202966","HierDy9a4chq9t","sub14","02","07","feedback","test","null","","","na","","109","",""
"683","203651","HierDy9a4chq9t","sub14","02","07","rl","test","72","img/o_t_check.png","5","72","color,shape,pattern","110","1",""
"null","204656","HierDy9a4chq9t","sub14","02","07","feedback","test","null","","","na","","110","",""
"772.5999999940395","205431","HierDy9a4chq9t","sub14","02","07","rl","test","76","img/o_d_diag.png","8","76","color,shape,pattern","111","1",""
"null","206433","HierDy9a4chq9t","sub14","02","07","feedback","test","null","","","na","","111","",""
"690.6999999880791","207125","HierDy9a4chq9t","sub14","02","07","rl","test","68","img/p_d_check.png","3","68","color,shape,pattern","112","1",""
"null","208130","HierDy9a4chq9t","sub14","02","07","feedback","test","null","","","na","","112","",""
"633.3000000119209","208765","HierDy9a4chq9t","sub14","02","07","rl","test","72","img/o_t_check.png","5","72","color,shape,pattern","113","1",""
"null","209771","HierDy9a4chq9t","sub14","02","07","feedback","test","null","","","na","","113","",""
"634","210407","HierDy9a4chq9t","sub14","02","07","rl","test","68","img/p_d_check.png","3","68","color,shape,pattern","114","1",""
"null","211412","HierDy9a4chq9t","sub14","02","07","feedback","test","null","","","na","","114","",""
"759.5","212173","HierDy9a4chq9t","sub14","02","07","rl","test","74","img/o_t_diag.png","6","74","color,shape,pattern","115","1",""
"null","213177","HierDy9a4chq9t","sub14","02","07","feedback","test","null","","","na","","115","",""
"564.8000000119209","213743","HierDy9a4chq9t","sub14","02","07","rl","test","76","img/o_d_diag.png","8","76","color,shape,pattern","116","1",""
"null","214745","HierDy9a4chq9t","sub14","02","07","feedback","test","null","","","na","","116","",""
"506.7999999821186","215253","HierDy9a4chq9t","sub14","02","07","rl","test","83","img/p_t_diag.png","2","83","color,shape,pattern","117","1",""
"null","216257","HierDy9a4chq9t","sub14","02","07","feedback","test","null","","","na","","117","",""
"654.9000000059605","216914","HierDy9a4chq9t","sub14","02","07","rl","test","75","img/o_d_check.png","7","75","color,shape,pattern","118","1",""
"null","217916","HierDy9a4chq9t","sub14","02","07","feedback","test","null","","","na","","118","",""
"911.6999999880791","218830","HierDy9a4chq9t","sub14","02","07","rl","test","65","img/o_t_check.png","5","72","color,shape,pattern","119","0",""
"null","219835","HierDy9a4chq9t","sub14","02","07","feedback","test","null","","","na","","119","",""
"1041.800000011921","220878","HierDy9a4chq9t","sub14","02","07","rl","test","70","img/p_d_diag.png","4","70","color,shape,pattern","120","1",""
"null","221884","HierDy9a4chq9t","sub14","02","07","feedback","test","null","","","na","","120","",""
"681.8000000119209","222567","HierDy9a4chq9t","sub14","02","07","rl","test","65","img/p_t_check.png","1","65","color,shape,pattern","121","1",""
"null","223569","HierDy9a4chq9t","sub14","02","07","feedback","test","null","","","na","","121","",""
"585.2000000178814","224156","HierDy9a4chq9t","sub14","02","07","rl","test","65","img/p_t_check.png","1","65","color,shape,pattern","122","1",""
"null","225162","HierDy9a4chq9t","sub14","02","07","feedback","test","null","","","na","","122","",""
"530.3999999761581","225695","HierDy9a4chq9t","sub14","02","07","rl","test","70","img/p_d_diag.png","4","70","color,shape,pattern","123","1",""
"null","226696","HierDy9a4chq9t","sub14","02","07","feedback","test","null","","","na","","123","",""
"714.5999999940395","227412","HierDy9a4chq9t","sub14","02","07","rl","test","76","img/o_d_diag.png","8","76","color,shape,pattern","124","1",""
"null","228417","HierDy9a4chq9t","sub14","02","07","feedback","test","null","","","na","","124","",""
"797.1000000238419","229216","HierDy9a4chq9t","sub14","02","07","rl","test","75","img/o_d_check.png","7","75","color,shape,pattern","125","1",""
"null","230218","HierDy9a4chq9t","sub14","02","07","feedback","test","null","","","na","","125","",""
"536.2999999821186","230756","HierDy9a4chq9t","sub14","02","07","rl","test","83","img/p_t_diag.png","2","83","color,shape,pattern","126","1",""
"null","231762","HierDy9a4chq9t","sub14","02","07","feedback","test","null","","","na","","126","",""
"521.8000000119209","232285","HierDy9a4chq9t","sub14","02","07","rl","test","74","img/o_t_diag.png","6","74","color,shape,pattern","127","1",""
"null","233288","HierDy9a4chq9t","sub14","02","07","feedback","test","null","","","na","","127","",""
"564.4000000059605","233854","HierDy9a4chq9t","sub14","02","07","rl","test","68","img/p_d_check.png","3","68","color,shape,pattern","128","1",""
"null","234859","HierDy9a4chq9t","sub14","02","07","feedback","test","null","","","na","","128","",""
"587","235448","HierDy9a4chq9t","sub14","02","07","rl","test","68","img/p_d_check.png","3","68","color,shape,pattern","129","1",""
"null","236450","HierDy9a4chq9t","sub14","02","07","feedback","test","null","","","na","","129","",""
"644.6999999880791","237097","HierDy9a4chq9t","sub14","02","07","rl","test","76","img/o_d_diag.png","8","76","color,shape,pattern","130","1",""
"null","238102","HierDy9a4chq9t","sub14","02","07","feedback","test","null","","","na","","130","",""
"604.6999999880791","238708","HierDy9a4chq9t","sub14","02","07","rl","test","74","img/o_t_diag.png","6","74","color,shape,pattern","131","1",""
"null","239712","HierDy9a4chq9t","sub14","02","07","feedback","test","null","","","na","","131","",""
"673.7000000178814","240387","HierDy9a4chq9t","sub14","02","07","rl","test","72","img/o_t_check.png","5","72","color,shape,pattern","132","1",""
"null","241393","HierDy9a4chq9t","sub14","02","07","feedback","test","null","","","na","","132","",""
"608.7999999821186","242004","HierDy9a4chq9t","sub14","02","07","rl","test","65","img/p_t_check.png","1","65","color,shape,pattern","133","1",""
"null","243007","HierDy9a4chq9t","sub14","02","07","feedback","test","null","","","na","","133","",""
"653.6000000238419","243662","HierDy9a4chq9t","sub14","02","07","rl","test","75","img/o_d_check.png","7","75","color,shape,pattern","134","1",""
"null","244667","HierDy9a4chq9t","sub14","02","07","feedback","test","null","","","na","","134","",""
"1270.5","245939","HierDy9a4chq9t","sub14","02","07","rl","test","72","img/p_t_check.png","1","65","color,shape,pattern","135","0",""
"null","246944","HierDy9a4chq9t","sub14","02","07","feedback","test","null","","","na","","135","",""
"581.5999999940395","247528","HierDy9a4chq9t","sub14","02","07","rl","test","83","img/p_t_diag.png","2","83","color,shape,pattern","136","1",""
"null","248529","HierDy9a4chq9t","sub14","02","07","feedback","test","null","","","na","","136","",""
"743.2000000178814","249274","HierDy9a4chq9t","sub14","02","07","rl","test","70","img/p_d_diag.png","4","70","color,shape,pattern","137","1",""
"null","250279","HierDy9a4chq9t","sub14","02","07","feedback","test","null","","","na","","137","",""
"693.4000000059605","250973","HierDy9a4chq9t","sub14","02","07","rl","test","75","img/o_d_check.png","7","75","color,shape,pattern","138","1",""
"null","251976","HierDy9a4chq9t","sub14","02","07","feedback","test","null","","","na","","138","",""
"811.2000000178814","252788","HierDy9a4chq9t","sub14","02","07","rl","test","70","img/p_d_diag.png","4","70","color,shape,pattern","139","1",""
"null","253793","HierDy9a4chq9t","sub14","02","07","feedback","test","null","","","na","","139","",""
"565.6999999880791","254360","HierDy9a4chq9t","sub14","02","07","rl","test","72","img/o_t_check.png","5","72","color,shape,pattern","140","1",""
"null","255362","HierDy9a4chq9t","sub14","02","07","feedback","test","null","","","na","","140","",""
"572.9000000059605","255937","HierDy9a4chq9t","sub14","02","07","rl","test","68","img/p_d_check.png","3","68","color,shape,pattern","141","1",""
"null","256941","HierDy9a4chq9t","sub14","02","07","feedback","test","null","","","na","","141","",""
"666.9000000059605","257610","HierDy9a4chq9t","sub14","02","07","rl","test","83","img/p_t_diag.png","2","83","color,shape,pattern","142","1",""
"null","258615","HierDy9a4chq9t","sub14","02","07","feedback","test","null","","","na","","142","",""
"729.4000000059605","259346","HierDy9a4chq9t","sub14","02","07","rl","test","76","img/o_d_diag.png","8","76","color,shape,pattern","143","1",""
"null","260347","HierDy9a4chq9t","sub14","02","07","feedback","test","null","","","na","","143","",""
"812.1999999880791","261161","HierDy9a4chq9t","sub14","02","07","rl","test","68","img/p_d_check.png","3","68","color,shape,pattern","144","1",""
"null","262164","HierDy9a4chq9t","sub14","02","07","feedback","test","null","","","na","","144","",""
"627.2999999821186","262792","HierDy9a4chq9t","sub14","02","07","rl","test","75","img/o_d_check.png","7","75","color,shape,pattern","145","1",""
"null","263797","HierDy9a4chq9t","sub14","02","07","feedback","test","null","","","na","","145","",""
"492.40000000596046","264291","HierDy9a4chq9t","sub14","02","07","rl","test","74","img/o_t_diag.png","6","74","color,shape,pattern","146","1",""
"null","265297","HierDy9a4chq9t","sub14","02","07","feedback","test","null","","","na","","146","",""
"390.39999997615814","265690","HierDy9a4chq9t","sub14","02","07","rl","test","83","img/p_t_diag.png","2","83","color,shape,pattern","147","1",""
"null","266691","HierDy9a4chq9t","sub14","02","07","feedback","test","null","","","na","","147","",""
"635.0999999940395","267328","HierDy9a4chq9t","sub14","02","07","rl","test","72","img/o_t_check.png","5","72","color,shape,pattern","148","1",""
"null","268331","HierDy9a4chq9t","sub14","02","07","feedback","test","null","","","na","","148","",""
"698","269030","HierDy9a4chq9t","sub14","02","07","rl","test","83","img/o_t_diag.png","6","74","color,shape,pattern","149","0",""
"null","270032","HierDy9a4chq9t","sub14","02","07","feedback","test","null","","","na","","149","",""
"1479.5999999940395","271513","HierDy9a4chq9t","sub14","02","07","rl","test","65","img/p_t_check.png","1","65","color,shape,pattern","150","1",""
"null","272519","HierDy9a4chq9t","sub14","02","07","feedback","test","null","","","na","","150","",""
"539.3999999761581","273060","HierDy9a4chq9t","sub14","02","07","rl","test","65","img/p_t_check.png","1","65","color,shape,pattern","151","1",""
"null","274066","HierDy9a4chq9t","sub14","02","07","feedback","test","null","","","na","","151","",""
"738.4000000059605","274806","HierDy9a4chq9t","sub14","02","07","rl","test","76","img/o_d_diag.png","8","76","color,shape,pattern","152","1",""
"null","275810","HierDy9a4chq9t","sub14","02","07","feedback","test","null","","","na","","152","",""
"770.8000000119209","276583","HierDy9a4chq9t","sub14","02","07","rl","test","70","img/p_d_diag.png","4","70","color,shape,pattern","153","1",""
"null","277585","HierDy9a4chq9t","sub14","02","07","feedback","test","null","","","na","","153","",""
"588.1999999880791","278175","HierDy9a4chq9t","sub14","02","07","rl","test","74","img/o_t_diag.png","6","74","color,shape,pattern","154","1",""
"null","279181","HierDy9a4chq9t","sub14","02","07","feedback","test","null","","","na","","154","",""
"826.1999999880791","280009","HierDy9a4chq9t","sub14","02","07","rl","test","68","img/o_d_check.png","7","75","color,shape,pattern","155","0",""
"null","281011","HierDy9a4chq9t","sub14","02","07","feedback","test","null","","","na","","155","",""
"1220.5999999940395","282234","HierDy9a4chq9t","sub14","02","07","rl","test","68","img/p_d_check.png","3","68","color,shape,pattern","156","1",""
"null","283240","HierDy9a4chq9t","sub14","02","07","feedback","test","null","","","na","","156","",""
"633.2999999821186","283875","HierDy9a4chq9t","sub14","02","07","rl","test","70","img/p_d_diag.png","4","70","color,shape,pattern","157","1",""
"null","284876","HierDy9a4chq9t","sub14","02","07","feedback","test","null","","","na","","157","",""
"721.7000000178814","285600","HierDy9a4chq9t","sub14","02","07","rl","test","76","img/o_d_diag.png","8","76","color,shape,pattern","158","1",""
"null","286602","HierDy9a4chq9t","sub14","02","07","feedback","test","null","","","na","","158","",""
"579","287183","HierDy9a4chq9t","sub14","02","07","rl","test","72","img/o_t_check.png","5","72","color,shape,pattern","159","1",""
"null","288189","HierDy9a4chq9t","sub14","02","07","feedback","test","null","","","na","","159","",""
"573.1999999880791","288763","HierDy9a4chq9t","sub14","02","07","rl","test","72","img/o_t_check.png","5","72","color,shape,pattern","160","1",""
"null","289770","HierDy9a4chq9t","sub14","02","07","feedback","test","null","","","na","","160","",""
"809.2999999821186","290581","HierDy9a4chq9t","sub14","02","07","rl","test","83","img/p_t_diag.png","2","83","color,shape,pattern","161","1",""
"null","291582","HierDy9a4chq9t","sub14","02","07","feedback","test","null","","","na","","161","",""
"845","292428","HierDy9a4chq9t","sub14","02","07","rl","test","75","img/o_d_check.png","7","75","color,shape,pattern","162","1",""
"null","293434","HierDy9a4chq9t","sub14","02","07","feedback","test","null","","","na","","162","",""
"632.8999999761581","294069","HierDy9a4chq9t","sub14","02","07","rl","test","83","img/p_t_diag.png","2","83","color,shape,pattern","163","1",""
"null","295070","HierDy9a4chq9t","sub14","02","07","feedback","test","null","","","na","","163","",""
"591.1999999880791","295663","HierDy9a4chq9t","sub14","02","07","rl","test","68","img/p_d_check.png","3","68","color,shape,pattern","164","1",""
"null","296665","HierDy9a4chq9t","sub14","02","07","feedback","test","null","","","na","","164","",""
"555.0999999940395","297222","HierDy9a4chq9t","sub14","02","07","rl","test","74","img/o_t_diag.png","6","74","color,shape,pattern","165","1",""
"null","298225","HierDy9a4chq9t","sub14","02","07","feedback","test","null","","","na","","165","",""
"671.0999999940395","298898","HierDy9a4chq9t","sub14","02","07","rl","test","65","img/p_t_check.png","1","65","color,shape,pattern","166","1",""
"null","299903","HierDy9a4chq9t","sub14","02","07","feedback","test","null","","","na","","166","",""
"1226.0999999940395","301131","HierDy9a4chq9t","sub14","02","07","rl","test","70","img/p_d_diag.png","4","70","color,shape,pattern","167","1",""
"null","302135","HierDy9a4chq9t","sub14","02","07","feedback","test","null","","","na","","167","",""
"568.8000000119209","302706","HierDy9a4chq9t","sub14","02","07","rl","test","70","img/p_d_diag.png","4","70","color,shape,pattern","168","1",""
"null","303709","HierDy9a4chq9t","sub14","02","07","feedback","test","null","","","na","","168","",""
"777.5","304488","HierDy9a4chq9t","sub14","02","07","rl","test","76","img/o_d_diag.png","8","76","color,shape,pattern","169","1",""
"null","305491","HierDy9a4chq9t","sub14","02","07","feedback","test","null","","","na","","169","",""
"1051.0999999940395","306543","HierDy9a4chq9t","sub14","02","07","rl","test","83","img/p_t_diag.png","2","83","color,shape,pattern","170","1",""
"null","307547","HierDy9a4chq9t","sub14","02","07","feedback","test","null","","","na","","170","",""
"1819.9000000059605","309368","HierDy9a4chq9t","sub14","02","07","rl","test","74","img/o_t_diag.png","6","74","color,shape,pattern","171","1",""
"null","310371","HierDy9a4chq9t","sub14","02","07","feedback","test","null","","","na","","171","",""
"1024.699999988079","311397","HierDy9a4chq9t","sub14","02","07","rl","test","76","img/o_d_diag.png","8","76","color,shape,pattern","172","1",""
"null","312402","HierDy9a4chq9t","sub14","02","07","feedback","test","null","","","na","","172","",""
"936.6999999880791","313340","HierDy9a4chq9t","sub14","02","07","rl","test","72","img/o_t_check.png","5","72","color,shape,pattern","173","1",""
"null","314342","HierDy9a4chq9t","sub14","02","07","feedback","test","null","","","na","","173","",""
"642.2000000178814","314986","HierDy9a4chq9t","sub14","02","07","rl","test","75","img/o_d_check.png","7","75","color,shape,pattern","174","1",""
"null","315988","HierDy9a4chq9t","sub14","02","07","feedback","test","null","","","na","","174","",""
"779.2000000178814","316769","HierDy9a4chq9t","sub14","02","07","rl","test","65","img/p_t_check.png","1","65","color,shape,pattern","175","1",""
"null","317771","HierDy9a4chq9t","sub14","02","07","feedback","test","null","","","na","","175","",""
"598.5","318372","HierDy9a4chq9t","sub14","02","07","rl","test","74","img/o_t_diag.png","6","74","color,shape,pattern","176","1",""
"null","319378","HierDy9a4chq9t","sub14","02","07","feedback","test","null","","","na","","176","",""
"676.3000000119209","320056","HierDy9a4chq9t","sub14","02","07","rl","test","65","img/p_t_check.png","1","65","color,shape,pattern","177","1",""
"null","321060","HierDy9a4chq9t","sub14","02","07","feedback","test","null","","","na","","177","",""
"736.4000000059605","321798","HierDy9a4chq9t","sub14","02","07","rl","test","75","img/o_d_check.png","7","75","color,shape,pattern","178","1",""
"null","322802","HierDy9a4chq9t","sub14","02","07","feedback","test","null","","","na","","178","",""
"1180.699999988079","323983","HierDy9a4chq9t","sub14","02","07","rl","test","68","img/p_d_check.png","3","68","color,shape,pattern","179","1",""
"null","324989","HierDy9a4chq9t","sub14","02","07","feedback","test","null","","","na","","179","",""
"665.2999999821186","325656","HierDy9a4chq9t","sub14","02","07","rl","test","83","img/p_t_diag.png","2","83","color,shape,pattern","180","1",""
"null","326662","HierDy9a4chq9t","sub14","02","07","feedback","test","null","","","na","","180","",""
"550.0999999940395","327214","HierDy9a4chq9t","sub14","02","07","rl","test","68","img/p_d_diag.png","4","70","color,shape,pattern","181","0",""
"null","328216","HierDy9a4chq9t","sub14","02","07","feedback","test","null","","","na","","181","",""
"1235.5","329452","HierDy9a4chq9t","sub14","02","07","rl","test","72","img/o_t_check.png","5","72","color,shape,pattern","182","1",""
"null","330456","HierDy9a4chq9t","sub14","02","07","feedback","test","null","","","na","","182","",""
"835.5","331292","HierDy9a4chq9t","sub14","02","07","rl","test","68","img/p_d_check.png","3","68","color,shape,pattern","183","1",""
"null","332293","HierDy9a4chq9t","sub14","02","07","feedback","test","null","","","na","","183","",""
"697.1999999880791","332991","HierDy9a4chq9t","sub14","02","07","rl","test","76","img/o_d_diag.png","8","76","color,shape,pattern","184","1",""
"null","333993","HierDy9a4chq9t","sub14","02","07","feedback","test","null","","","na","","184","",""
"618.5","334613","HierDy9a4chq9t","sub14","02","07","rl","test","76","img/o_d_diag.png","8","76","color,shape,pattern","185","1",""
"null","335620","HierDy9a4chq9t","sub14","02","07","feedback","test","null","","","na","","185","",""
"711.9000000059605","336334","HierDy9a4chq9t","sub14","02","07","rl","test","83","img/p_t_diag.png","2","83","color,shape,pattern","186","1",""
"null","337340","HierDy9a4chq9t","sub14","02","07","feedback","test","null","","","na","","186","",""
"640.4000000059605","337983","HierDy9a4chq9t","sub14","02","07","rl","test","72","img/o_t_check.png","5","72","color,shape,pattern","187","1",""
"null","338987","HierDy9a4chq9t","sub14","02","07","feedback","test","null","","","na","","187","",""
"739.5999999940395","339729","HierDy9a4chq9t","sub14","02","07","rl","test","70","img/p_d_diag.png","4","70","color,shape,pattern","188","1",""
"null","340730","HierDy9a4chq9t","sub14","02","07","feedback","test","null","","","na","","188","",""
"607.0999999940395","341339","HierDy9a4chq9t","sub14","02","07","rl","test","83","img/o_t_check.png","5","72","color,shape,pattern","189","0",""
"null","342342","HierDy9a4chq9t","sub14","02","07","feedback","test","null","","","na","","189","",""
"584.5999999940395","342927","HierDy9a4chq9t","sub14","02","07","rl","test","74","img/o_t_diag.png","6","74","color,shape,pattern","190","1",""
"null","343932","HierDy9a4chq9t","sub14","02","07","feedback","test","null","","","na","","190","",""
"623","344557","HierDy9a4chq9t","sub14","02","07","rl","test","68","img/p_d_check.png","3","68","color,shape,pattern","191","1",""
"null","345561","HierDy9a4chq9t","sub14","02","07","feedback","test","null","","","na","","191","",""
"692.3000000119209","346255","HierDy9a4chq9t","sub14","02","07","rl","test","74","img/p_t_check.png","1","65","color,shape,pattern","192","0",""
"null","347256","HierDy9a4chq9t","sub14","02","07","feedback","test","null","","","na","","192","",""
"706.9000000059605","347964","HierDy9a4chq9t","sub14","02","07","rl","test","68","img/o_d_check.png","7","75","color,shape,pattern","193","0",""
"null","348968","HierDy9a4chq9t","sub14","02","07","feedback","test","null","","","na","","193","",""
"2255.5999999940395","351224","HierDy9a4chq9t","sub14","02","07","rl","test","68","img/p_d_check.png","3","68","color,shape,pattern","194","1",""
"null","352226","HierDy9a4chq9t","sub14","02","07","feedback","test","null","","","na","","194","",""
"729.0999999940395","352957","HierDy9a4chq9t","sub14","02","07","rl","test","65","img/p_t_check.png","1","65","color,shape,pattern","195","1",""
"null","353958","HierDy9a4chq9t","sub14","02","07","feedback","test","null","","","na","","195","",""
"543.7999999821186","354502","HierDy9a4chq9t","sub14","02","07","rl","test","74","img/o_t_diag.png","6","74","color,shape,pattern","196","1",""
"null","355504","HierDy9a4chq9t","sub14","02","07","feedback","test","null","","","na","","196","",""
"1183.4000000059605","356688","HierDy9a4chq9t","sub14","02","07","rl","test","76","img/o_d_diag.png","8","76","color,shape,pattern","197","1",""
"null","357690","HierDy9a4chq9t","sub14","02","07","feedback","test","null","","","na","","197","",""
"773.3000000119209","358465","HierDy9a4chq9t","sub14","02","07","rl","test","70","img/p_d_diag.png","4","70","color,shape,pattern","198","1",""
"null","359466","HierDy9a4chq9t","sub14","02","07","feedback","test","null","","","na","","198","",""
"772.7000000178814","360239","HierDy9a4chq9t","sub14","02","07","rl","test","83","img/p_t_diag.png","2","83","color,shape,pattern","199","1",""
"null","361240","HierDy9a4chq9t","sub14","02","07","feedback","test","null","","","na","","199","",""
"968.9000000059605","362210","HierDy9a4chq9t","sub14","02","07","rl","test","75","img/o_d_check.png","7","75","color,shape,pattern","200","1",""
"null","363215","HierDy9a4chq9t","sub14","02","07","feedback","test","null","","","na","","200","",""
"611.4000000059605","363827","HierDy9a4chq9t","sub14","02","07","rl","test","74","img/p_t_diag.png","2","83","color,shape,pattern","201","0",""
"null","364833","HierDy9a4chq9t","sub14","02","07","feedback","test","null","","","na","","201","",""
"723.5","365558","HierDy9a4chq9t","sub14","02","07","rl","test","70","img/p_d_diag.png","4","70","color,shape,pattern","202","1",""
"null","366564","HierDy9a4chq9t","sub14","02","07","feedback","test","null","","","na","","202","",""
"496.09999999403954","367061","HierDy9a4chq9t","sub14","02","07","rl","test","68","img/p_d_check.png","3","68","color,shape,pattern","203","1",""
"null","368066","HierDy9a4chq9t","sub14","02","07","feedback","test","null","","","na","","203","",""
"638.6999999880791","368705","HierDy9a4chq9t","sub14","02","07","rl","test","72","img/o_t_check.png","5","72","color,shape,pattern","204","1",""
"null","369708","HierDy9a4chq9t","sub14","02","07","feedback","test","null","","","na","","204","",""
"618.1999999880791","370327","HierDy9a4chq9t","sub14","02","07","rl","test","76","img/o_d_diag.png","8","76","color,shape,pattern","205","1",""
"null","371334","HierDy9a4chq9t","sub14","02","07","feedback","test","null","","","na","","205","",""
"580","371915","HierDy9a4chq9t","sub14","02","07","rl","test","83","img/p_t_check.png","1","65","color,shape,pattern","206","0",""
"null","372920","HierDy9a4chq9t","sub14","02","07","feedback","test","null","","","na","","206","",""
"838.2999999821186","373760","HierDy9a4chq9t","sub14","02","07","rl","test","70","img/p_d_diag.png","4","70","color,shape,pattern","207","1",""
"null","374764","HierDy9a4chq9t","sub14","02","07","feedback","test","null","","","na","","207","",""
"707.5","375473","HierDy9a4chq9t","sub14","02","07","rl","test","75","img/o_d_check.png","7","75","color,shape,pattern","208","1",""
"null","376476","HierDy9a4chq9t","sub14","02","07","feedback","test","null","","","na","","208","",""
"539.1999999880791","377017","HierDy9a4chq9t","sub14","02","07","rl","test","75","img/o_d_check.png","7","75","color,shape,pattern","209","1",""
"null","378020","HierDy9a4chq9t","sub14","02","07","feedback","test","null","","","na","","209","",""
"526.6999999880791","378548","HierDy9a4chq9t","sub14","02","07","rl","test","74","img/o_t_diag.png","6","74","color,shape,pattern","210","1",""
"null","379549","HierDy9a4chq9t","sub14","02","07","feedback","test","null","","","na","","210","",""
"710.5999999940395","380262","HierDy9a4chq9t","sub14","02","07","rl","test","74","img/o_t_diag.png","6","74","color,shape,pattern","211","1",""
"null","381264","HierDy9a4chq9t","sub14","02","07","feedback","test","null","","","na","","211","",""
"637.7999999821186","381903","HierDy9a4chq9t","sub14","02","07","rl","test","75","img/o_d_diag.png","8","76","color,shape,pattern","212","0",""
"null","382909","HierDy9a4chq9t","sub14","02","07","feedback","test","null","","","na","","212","",""
"630.8000000119209","383541","HierDy9a4chq9t","sub14","02","07","rl","test","68","img/p_d_check.png","3","68","color,shape,pattern","213","1",""
"null","384546","HierDy9a4chq9t","sub14","02","07","feedback","test","null","","","na","","213","",""
"1806.300000011921","386354","HierDy9a4chq9t","sub14","02","07","rl","test","83","img/p_t_diag.png","2","83","color,shape,pattern","214","1",""
"null","387360","HierDy9a4chq9t","sub14","02","07","feedback","test","null","","","na","","214","",""
"803.5","388165","HierDy9a4chq9t","sub14","02","07","rl","test","72","img/o_t_check.png","5","72","color,shape,pattern","215","1",""
"null","389167","HierDy9a4chq9t","sub14","02","07","feedback","test","null","","","na","","215","",""
"634.8000000119209","389804","HierDy9a4chq9t","sub14","02","07","rl","test","76","img/o_d_diag.png","8","76","color,shape,pattern","216","1",""
"null","390809","HierDy9a4chq9t","sub14","02","07","feedback","test","null","","","na","","216","",""
"489.19999998807907","391300","HierDy9a4chq9t","sub14","02","07","rl","test","74","img/o_t_check.png","5","72","color,shape,pattern","217","0",""
"null","392302","HierDy9a4chq9t","sub14","02","07","feedback","test","null","","","na","","217","",""
"544.6000000238419","392848","HierDy9a4chq9t","sub14","02","07","rl","test","83","img/p_t_check.png","1","65","color,shape,pattern","218","0",""
"null","393852","HierDy9a4chq9t","sub14","02","07","feedback","test","null","","","na","","218","",""
"null","396355","HierDy9a4chq9t","sub14","02","07","rl","test","null","img/p_d_check.png","3","68","color,shape,pattern","219","0",""
"null","397361","HierDy9a4chq9t","sub14","02","07","feedback","test","null","","","na","","219","",""
"530.2999999821186","397893","HierDy9a4chq9t","sub14","02","07","rl","test","74","img/o_t_diag.png","6","74","color,shape,pattern","220","1",""
"null","398896","HierDy9a4chq9t","sub14","02","07","feedback","test","null","","","na","","220","",""
"841.8000000119209","399740","HierDy9a4chq9t","sub14","02","07","rl","test","70","img/p_d_diag.png","4","70","color,shape,pattern","221","1",""
"null","400742","HierDy9a4chq9t","sub14","02","07","feedback","test","null","","","na","","221","",""
"710.0999999940395","401453","HierDy9a4chq9t","sub14","02","07","rl","test","75","img/o_d_check.png","7","75","color,shape,pattern","222","1",""
"null","402455","HierDy9a4chq9t","sub14","02","07","feedback","test","null","","","na","","222","",""
"1156.199999988079","403613","HierDy9a4chq9t","sub14","02","07","rl","test","65","img/p_t_check.png","1","65","color,shape,pattern","223","1",""
"null","404618","HierDy9a4chq9t","sub14","02","07","feedback","test","null","","","na","","223","",""
"662.2999999821186","405282","HierDy9a4chq9t","sub14","02","07","rl","test","70","img/p_d_diag.png","4","70","color,shape,pattern","224","1",""
"null","406288","HierDy9a4chq9t","sub14","02","07","feedback","test","null","","","na","","224","",""
"602.6000000238419","406892","HierDy9a4chq9t","sub14","02","07","rl","test","83","img/p_t_diag.png","2","83","color,shape,pattern","225","1",""
"null","407897","HierDy9a4chq9t","sub14","02","07","feedback","test","null","","","na","","225","",""
"665.5999999940395","408565","HierDy9a4chq9t","sub14","02","07","rl","test","76","img/o_d_diag.png","8","76","color,shape,pattern","226","1",""
"null","409570","HierDy9a4chq9t","sub14","02","07","feedback","test","null","","","na","","226","",""
"649.5","410220","HierDy9a4chq9t","sub14","02","07","rl","test","83","img/p_t_diag.png","2","83","color,shape,pattern","227","1",""
"null","411225","HierDy9a4chq9t","sub14","02","07","feedback","test","null","","","na","","227","",""
"775.3000000119209","412002","HierDy9a4chq9t","sub14","02","07","rl","test","68","img/p_d_check.png","3","68","color,shape,pattern","228","1",""
"null","413006","HierDy9a4chq9t","sub14","02","07","feedback","test","null","","","na","","228","",""
"561.0999999940395","413569","HierDy9a4chq9t","sub14","02","07","rl","test","72","img/o_t_check.png","5","72","color,shape,pattern","229","1",""
"null","414573","HierDy9a4chq9t","sub14","02","07","feedback","test","null","","","na","","229","",""
"792.3999999761581","415367","HierDy9a4chq9t","sub14","02","07","rl","test","65","img/p_t_check.png","1","65","color,shape,pattern","230","1",""
"null","416374","HierDy9a4chq9t","sub14","02","07","feedback","test","null","","","na","","230","",""
"465.5","416841","HierDy9a4chq9t","sub14","02","07","rl","test","65","img/p_t_check.png","1","65","color,shape,pattern","231","1",""
"null","417847","HierDy9a4chq9t","sub14","02","07","feedback","test","null","","","na","","231","",""
"682.5999999940395","418532","HierDy9a4chq9t","sub14","02","07","rl","test","75","img/o_d_check.png","7","75","color,shape,pattern","232","1",""
"null","419535","HierDy9a4chq9t","sub14","02","07","feedback","test","null","","","na","","232","",""
"676.7999999821186","420213","HierDy9a4chq9t","sub14","02","07","rl","test","72","img/o_t_check.png","5","72","color,shape,pattern","233","1",""
"null","421214","HierDy9a4chq9t","sub14","02","07","feedback","test","null","","","na","","233","",""
"664.5999999940395","421880","HierDy9a4chq9t","sub14","02","07","rl","test","74","img/o_t_diag.png","6","74","color,shape,pattern","234","1",""
"null","422882","HierDy9a4chq9t","sub14","02","07","feedback","test","null","","","na","","234","",""
"495","423379","HierDy9a4chq9t","sub14","02","07","rl","test","83","img/p_t_diag.png","2","83","color,shape,pattern","235","1",""
"null","424381","HierDy9a4chq9t","sub14","02","07","feedback","test","null","","","na","","235","",""
"1679.1000000238419","426062","HierDy9a4chq9t","sub14","02","07","rl","test","75","img/o_d_check.png","7","75","color,shape,pattern","236","1",""
"null","427067","HierDy9a4chq9t","sub14","02","07","feedback","test","null","","","na","","236","",""
"560.4000000059605","427629","HierDy9a4chq9t","sub14","02","07","rl","test","74","img/o_t_diag.png","6","74","color,shape,pattern","237","1",""
"null","428631","HierDy9a4chq9t","sub14","02","07","feedback","test","null","","","na","","237","",""
"721.4000000059605","429354","HierDy9a4chq9t","sub14","02","07","rl","test","72","img/o_t_check.png","5","72","color,shape,pattern","238","1",""
"null","430357","HierDy9a4chq9t","sub14","02","07","feedback","test","null","","","na","","238","",""
"1468.4000000059605","431828","HierDy9a4chq9t","sub14","02","07","rl","test","70","img/p_d_diag.png","4","70","color,shape,pattern","239","1",""
"null","432833","HierDy9a4chq9t","sub14","02","07","feedback","test","null","","","na","","239","",""
"678.5","433513","HierDy9a4chq9t","sub14","02","07","rl","test","68","img/p_d_check.png","3","68","color,shape,pattern","240","1",""
"null","434515","HierDy9a4chq9t","sub14","02","07","feedback","test","null","","","na","","240","",""
"677.6999999880791","435195","HierDy9a4chq9t","sub14","02","07","rl","test","76","img/o_d_diag.png","8","76","color,shape,pattern","241","1",""
"null","436196","HierDy9a4chq9t","sub14","02","07","feedback","test","null","","","na","","241","",""
"532.2000000178814","436730","HierDy9a4chq9t","sub14","02","07","rl","test","75","img/o_d_check.png","7","75","color,shape,pattern","242","1",""
"null","437732","HierDy9a4chq9t","sub14","02","07","feedback","test","null","","","na","","242","",""
"604.2000000178814","438338","HierDy9a4chq9t","sub14","02","07","rl","test","68","img/p_d_check.png","3","68","color,shape,pattern","243","1",""
"null","439345","HierDy9a4chq9t","sub14","02","07","feedback","test","null","","","na","","243","",""
"569.5","439916","HierDy9a4chq9t","sub14","02","07","rl","test","74","img/o_t_diag.png","6","74","color,shape,pattern","244","1",""
"null","440922","HierDy9a4chq9t","sub14","02","07","feedback","test","null","","","na","","244","",""
"718.1999999880791","441641","HierDy9a4chq9t","sub14","02","07","rl","test","70","img/p_d_diag.png","4","70","color,shape,pattern","245","1",""
"null","442645","HierDy9a4chq9t","sub14","02","07","feedback","test","null","","","na","","245","",""
"615.2000000178814","443262","HierDy9a4chq9t","sub14","02","07","rl","test","65","img/p_t_check.png","1","65","color,shape,pattern","246","1",""
"null","444264","HierDy9a4chq9t","sub14","02","07","feedback","test","null","","","na","","246","",""
"668.7000000178814","444934","HierDy9a4chq9t","sub14","02","07","rl","test","72","img/o_t_check.png","5","72","color,shape,pattern","247","1",""
"null","445941","HierDy9a4chq9t","sub14","02","07","feedback","test","null","","","na","","247","",""
"647.3999999761581","446590","HierDy9a4chq9t","sub14","02","07","rl","test","83","img/p_t_diag.png","2","83","color,shape,pattern","248","1",""
"null","447597","HierDy9a4chq9t","sub14","02","07","feedback","test","null","","","na","","248","",""
"1775.9000000059605","449381","HierDy9a4chq9t","sub14","02","07","","","","","","","","","","{""Q0"":""6""}"
"1693.7999999821186","451078","HierDy9a4chq9t","sub14","02","07","","","","","","","","","","{""Q0"":""""}"
"710.5999999940395","451789","HierDy9a4chq9t","sub14","02","07","","","","","","","","","",""
