"rt","time_elapsed","subject","subID","group","day","trialType","phase","key_press","stim","stimNum","corrresp","hierarchy","trialNum","corr","responses"
"7031","7035","HierDyk48nrs4m","sub01 ","01 ","4","","","","","","","","","",""
"","10125","HierDyk48nrs4m","sub01 ","01 ","4","fullscreen","","","","","","","","",""
"801","10927","HierDyk48nrs4m","sub01 ","01 ","4","","prac","","","","","","","",""
"343","11272","HierDyk48nrs4m","sub01 ","01 ","4","","","32","","","","","","",""
"675","11948","HierDyk48nrs4m","sub01 ","01 ","4","","prac","","","","","","","",""
"802.9999999999982","12754","HierDyk48nrs4m","sub01 ","01 ","4","rl","test","76","img/b_s_stripes.png","4","70","color,shape,pattern","1","0",""
"null","13757","HierDyk48nrs4m","sub01 ","01 ","4","feedback","test","null","","","na","","1","",""
"788.9999999999982","14548","HierDyk48nrs4m","sub01 ","01 ","4","rl","test","83","img/r_c_stripes.png","6","74","color,shape,pattern","2","0",""
"null","15551","HierDyk48nrs4m","sub01 ","01 ","4","feedback","test","null","","","na","","2","",""
"729","16281","HierDyk48nrs4m","sub01 ","01 ","4","rl","test","65","img/r_c_dots.png","5","72","color,shape,pattern","3","0",""
"null","17283","HierDyk48nrs4m","sub01 ","01 ","4","feedback","test","null","","","na","","3","",""
"1871","19155","HierDyk48nrs4m","sub01 ","01 ","4","rl","test","68","img/b_c_stripes.png","2","83","color,shape,pattern","4","0",""
"null","20158","HierDyk48nrs4m","sub01 ","01 ","4","feedback","test","null","","","na","","4","",""
"837","20996","HierDyk48nrs4m","sub01 ","01 ","4","rl","test","65","img/b_c_dots.png","1","65","color,shape,pattern","5","1",""
"null","21998","HierDyk48nrs4m","sub01 ","01 ","4","feedback","test","null","","","na","","5","",""
"1276","23276","HierDyk48nrs4m","sub01 ","01 ","4","rl","test","75","img/r_s_dots.png","7","75","color,shape,pattern","6","1",""
"null","24279","HierDyk48nrs4m","sub01 ","01 ","4","feedback","test","null","","","na","","6","",""
"715","24995","HierDyk48nrs4m","sub01 ","01 ","4","rl","test","83","img/b_c_stripes.png","2","83","color,shape,pattern","7","1",""
"null","25998","HierDyk48nrs4m","sub01 ","01 ","4","feedback","test","null","","","na","","7","",""
"1117","27116","HierDyk48nrs4m","sub01 ","01 ","4","rl","test","68","img/b_s_dots.png","3","68","color,shape,pattern","8","1",""
"null","28119","HierDyk48nrs4m","sub01 ","01 ","4","feedback","test","null","","","na","","8","",""
"765","28885","HierDyk48nrs4m","sub01 ","01 ","4","rl","test","76","img/r_s_stripes.png","8","76","color,shape,pattern","9","1",""
"null","29888","HierDyk48nrs4m","sub01 ","01 ","4","feedback","test","null","","","na","","9","",""
"534.0000000000036","30423","HierDyk48nrs4m","sub01 ","01 ","4","rl","test","76","img/r_s_stripes.png","8","76","color,shape,pattern","10","1",""
"null","31426","HierDyk48nrs4m","sub01 ","01 ","4","feedback","test","null","","","na","","10","",""
"1026","32453","HierDyk48nrs4m","sub01 ","01 ","4","rl","test","72","img/r_c_dots.png","5","72","color,shape,pattern","11","1",""
"null","33455","HierDyk48nrs4m","sub01 ","01 ","4","feedback","test","null","","","na","","11","",""
"828.0000000000073","34285","HierDyk48nrs4m","sub01 ","01 ","4","rl","test","70","img/b_s_stripes.png","4","70","color,shape,pattern","12","1",""
"null","35288","HierDyk48nrs4m","sub01 ","01 ","4","feedback","test","null","","","na","","12","",""
"989","36279","HierDyk48nrs4m","sub01 ","01 ","4","rl","test","68","img/b_s_dots.png","3","68","color,shape,pattern","13","1",""
"null","37281","HierDyk48nrs4m","sub01 ","01 ","4","feedback","test","null","","","na","","13","",""
"1037","38320","HierDyk48nrs4m","sub01 ","01 ","4","rl","test","75","img/r_s_dots.png","7","75","color,shape,pattern","14","1",""
"null","39322","HierDyk48nrs4m","sub01 ","01 ","4","feedback","test","null","","","na","","14","",""
"624","39948","HierDyk48nrs4m","sub01 ","01 ","4","rl","test","83","img/r_c_stripes.png","6","74","color,shape,pattern","15","0",""
"null","40951","HierDyk48nrs4m","sub01 ","01 ","4","feedback","test","null","","","na","","15","",""
"674","41626","HierDyk48nrs4m","sub01 ","01 ","4","rl","test","65","img/b_c_dots.png","1","65","color,shape,pattern","16","1",""
"null","42629","HierDyk48nrs4m","sub01 ","01 ","4","feedback","test","null","","","na","","16","",""
"510","43141","HierDyk48nrs4m","sub01 ","01 ","4","rl","test","74","img/r_c_stripes.png","6","74","color,shape,pattern","17","1",""
"null","44144","HierDyk48nrs4m","sub01 ","01 ","4","feedback","test","null","","","na","","17","",""
"1063","45208","HierDyk48nrs4m","sub01 ","01 ","4","rl","test","76","img/b_s_stripes.png","4","70","color,shape,pattern","18","0",""
"null","46211","HierDyk48nrs4m","sub01 ","01 ","4","feedback","test","null","","","na","","18","",""
"1578.0000000000073","47791","HierDyk48nrs4m","sub01 ","01 ","4","rl","test","83","img/b_c_stripes.png","2","83","color,shape,pattern","19","1",""
"null","48792","HierDyk48nrs4m","sub01 ","01 ","4","feedback","test","null","","","na","","19","",""
"732.9999999999927","49526","HierDyk48nrs4m","sub01 ","01 ","4","rl","test","65","img/b_c_dots.png","1","65","color,shape,pattern","20","1",""
"null","50529","HierDyk48nrs4m","sub01 ","01 ","4","feedback","test","null","","","na","","20","",""
"1105","51636","HierDyk48nrs4m","sub01 ","01 ","4","rl","test","72","img/r_c_dots.png","5","72","color,shape,pattern","21","1",""
"null","52637","HierDyk48nrs4m","sub01 ","01 ","4","feedback","test","null","","","na","","21","",""
"986","53625","HierDyk48nrs4m","sub01 ","01 ","4","rl","test","68","img/b_s_dots.png","3","68","color,shape,pattern","22","1",""
"null","54627","HierDyk48nrs4m","sub01 ","01 ","4","feedback","test","null","","","na","","22","",""
"833","55461","HierDyk48nrs4m","sub01 ","01 ","4","rl","test","76","img/r_s_dots.png","7","75","color,shape,pattern","23","0",""
"null","56464","HierDyk48nrs4m","sub01 ","01 ","4","feedback","test","null","","","na","","23","",""
"534","57000","HierDyk48nrs4m","sub01 ","01 ","4","rl","test","76","img/r_s_stripes.png","8","76","color,shape,pattern","24","1",""
"null","58002","HierDyk48nrs4m","sub01 ","01 ","4","feedback","test","null","","","na","","24","",""
"504","58508","HierDyk48nrs4m","sub01 ","01 ","4","rl","test","76","img/r_s_stripes.png","8","76","color,shape,pattern","25","1",""
"null","59510","HierDyk48nrs4m","sub01 ","01 ","4","feedback","test","null","","","na","","25","",""
"764","60276","HierDyk48nrs4m","sub01 ","01 ","4","rl","test","83","img/b_c_stripes.png","2","83","color,shape,pattern","26","1",""
"null","61278","HierDyk48nrs4m","sub01 ","01 ","4","feedback","test","null","","","na","","26","",""
"694.0000000000073","61973","HierDyk48nrs4m","sub01 ","01 ","4","rl","test","76","img/r_s_stripes.png","8","76","color,shape,pattern","27","1",""
"null","62976","HierDyk48nrs4m","sub01 ","01 ","4","feedback","test","null","","","na","","27","",""
"1587","64564","HierDyk48nrs4m","sub01 ","01 ","4","rl","test","68","img/b_s_dots.png","3","68","color,shape,pattern","28","1",""
"null","65566","HierDyk48nrs4m","sub01 ","01 ","4","feedback","test","null","","","na","","28","",""
"637","66205","HierDyk48nrs4m","sub01 ","01 ","4","rl","test","70","img/b_s_stripes.png","4","70","color,shape,pattern","29","1",""
"null","67208","HierDyk48nrs4m","sub01 ","01 ","4","feedback","test","null","","","na","","29","",""
"1101","68311","HierDyk48nrs4m","sub01 ","01 ","4","rl","test","75","img/r_s_dots.png","7","75","color,shape,pattern","30","1",""
"null","69314","HierDyk48nrs4m","sub01 ","01 ","4","feedback","test","null","","","na","","30","",""
"863","70178","HierDyk48nrs4m","sub01 ","01 ","4","rl","test","74","img/r_c_stripes.png","6","74","color,shape,pattern","31","1",""
"null","71181","HierDyk48nrs4m","sub01 ","01 ","4","feedback","test","null","","","na","","31","",""
"694","71877","HierDyk48nrs4m","sub01 ","01 ","4","rl","test","65","img/b_c_dots.png","1","65","color,shape,pattern","32","1",""
"null","72878","HierDyk48nrs4m","sub01 ","01 ","4","feedback","test","null","","","na","","32","",""
"815","73693","HierDyk48nrs4m","sub01 ","01 ","4","rl","test","68","img/r_s_dots.png","7","75","color,shape,pattern","33","0",""
"null","74695","HierDyk48nrs4m","sub01 ","01 ","4","feedback","test","null","","","na","","33","",""
"890","75586","HierDyk48nrs4m","sub01 ","01 ","4","rl","test","74","img/r_c_dots.png","5","72","color,shape,pattern","34","0",""
"null","76588","HierDyk48nrs4m","sub01 ","01 ","4","feedback","test","null","","","na","","34","",""
"682","77271","HierDyk48nrs4m","sub01 ","01 ","4","rl","test","65","img/b_c_dots.png","1","65","color,shape,pattern","35","1",""
"null","78273","HierDyk48nrs4m","sub01 ","01 ","4","feedback","test","null","","","na","","35","",""
"1137","79411","HierDyk48nrs4m","sub01 ","01 ","4","rl","test","74","img/r_c_stripes.png","6","74","color,shape,pattern","36","1",""
"null","80414","HierDyk48nrs4m","sub01 ","01 ","4","feedback","test","null","","","na","","36","",""
"815","81230","HierDyk48nrs4m","sub01 ","01 ","4","rl","test","70","img/b_s_stripes.png","4","70","color,shape,pattern","37","1",""
"null","82233","HierDyk48nrs4m","sub01 ","01 ","4","feedback","test","null","","","na","","37","",""
"820","83054","HierDyk48nrs4m","sub01 ","01 ","4","rl","test","72","img/r_c_dots.png","5","72","color,shape,pattern","38","1",""
"null","84056","HierDyk48nrs4m","sub01 ","01 ","4","feedback","test","null","","","na","","38","",""
"759","84816","HierDyk48nrs4m","sub01 ","01 ","4","rl","test","70","img/b_s_stripes.png","4","70","color,shape,pattern","39","1",""
"null","85818","HierDyk48nrs4m","sub01 ","01 ","4","feedback","test","null","","","na","","39","",""
"1227","87046","HierDyk48nrs4m","sub01 ","01 ","4","rl","test","83","img/b_c_stripes.png","2","83","color,shape,pattern","40","1",""
"null","88048","HierDyk48nrs4m","sub01 ","01 ","4","feedback","test","null","","","na","","40","",""
"836.0000000000146","88886","HierDyk48nrs4m","sub01 ","01 ","4","rl","test","70","img/b_s_dots.png","3","68","color,shape,pattern","41","0",""
"null","89888","HierDyk48nrs4m","sub01 ","01 ","4","feedback","test","null","","","na","","41","",""
"590","90481","HierDyk48nrs4m","sub01 ","01 ","4","rl","test","76","img/r_s_stripes.png","8","76","color,shape,pattern","42","1",""
"null","91484","HierDyk48nrs4m","sub01 ","01 ","4","feedback","test","null","","","na","","42","",""
"728","92213","HierDyk48nrs4m","sub01 ","01 ","4","rl","test","75","img/r_s_dots.png","7","75","color,shape,pattern","43","1",""
"null","93215","HierDyk48nrs4m","sub01 ","01 ","4","feedback","test","null","","","na","","43","",""
"866","94083","HierDyk48nrs4m","sub01 ","01 ","4","rl","test","74","img/r_c_stripes.png","6","74","color,shape,pattern","44","1",""
"null","95084","HierDyk48nrs4m","sub01 ","01 ","4","feedback","test","null","","","na","","44","",""
"641","95727","HierDyk48nrs4m","sub01 ","01 ","4","rl","test","65","img/b_c_dots.png","1","65","color,shape,pattern","45","1",""
"null","96729","HierDyk48nrs4m","sub01 ","01 ","4","feedback","test","null","","","na","","45","",""
"474","97204","HierDyk48nrs4m","sub01 ","01 ","4","rl","test","65","img/b_c_dots.png","1","65","color,shape,pattern","46","1",""
"null","98206","HierDyk48nrs4m","sub01 ","01 ","4","feedback","test","null","","","na","","46","",""
"674","98882","HierDyk48nrs4m","sub01 ","01 ","4","rl","test","72","img/r_c_dots.png","5","72","color,shape,pattern","47","1",""
"null","99883","HierDyk48nrs4m","sub01 ","01 ","4","feedback","test","null","","","na","","47","",""
"891.0000000000146","100776","HierDyk48nrs4m","sub01 ","01 ","4","rl","test","68","img/b_s_dots.png","3","68","color,shape,pattern","48","1",""
"null","101779","HierDyk48nrs4m","sub01 ","01 ","4","feedback","test","null","","","na","","48","",""
"1346","103126","HierDyk48nrs4m","sub01 ","01 ","4","rl","test","83","img/b_c_stripes.png","2","83","color,shape,pattern","49","1",""
"null","104128","HierDyk48nrs4m","sub01 ","01 ","4","feedback","test","null","","","na","","49","",""
"504.99999999998545","104635","HierDyk48nrs4m","sub01 ","01 ","4","rl","test","70","img/b_s_dots.png","3","68","color,shape,pattern","50","0",""
"null","105637","HierDyk48nrs4m","sub01 ","01 ","4","feedback","test","null","","","na","","50","",""
"622.9999999999854","106262","HierDyk48nrs4m","sub01 ","01 ","4","rl","test","72","img/r_c_dots.png","5","72","color,shape,pattern","51","1",""
"null","107265","HierDyk48nrs4m","sub01 ","01 ","4","feedback","test","null","","","na","","51","",""
"839","108104","HierDyk48nrs4m","sub01 ","01 ","4","rl","test","83","img/b_c_stripes.png","2","83","color,shape,pattern","52","1",""
"null","109107","HierDyk48nrs4m","sub01 ","01 ","4","feedback","test","null","","","na","","52","",""
"879","109988","HierDyk48nrs4m","sub01 ","01 ","4","rl","test","70","img/b_s_stripes.png","4","70","color,shape,pattern","53","1",""
"null","110991","HierDyk48nrs4m","sub01 ","01 ","4","feedback","test","null","","","na","","53","",""
"604","111596","HierDyk48nrs4m","sub01 ","01 ","4","rl","test","76","img/r_s_stripes.png","8","76","color,shape,pattern","54","1",""
"null","112597","HierDyk48nrs4m","sub01 ","01 ","4","feedback","test","null","","","na","","54","",""
"835","113432","HierDyk48nrs4m","sub01 ","01 ","4","rl","test","74","img/r_c_stripes.png","6","74","color,shape,pattern","55","1",""
"null","114435","HierDyk48nrs4m","sub01 ","01 ","4","feedback","test","null","","","na","","55","",""
"694.0000000000146","115130","HierDyk48nrs4m","sub01 ","01 ","4","rl","test","74","img/r_c_stripes.png","6","74","color,shape,pattern","56","1",""
"null","116131","HierDyk48nrs4m","sub01 ","01 ","4","feedback","test","null","","","na","","56","",""
"664","116797","HierDyk48nrs4m","sub01 ","01 ","4","rl","test","83","img/b_c_stripes.png","2","83","color,shape,pattern","57","1",""
"null","117800","HierDyk48nrs4m","sub01 ","01 ","4","feedback","test","null","","","na","","57","",""
"1066","118868","HierDyk48nrs4m","sub01 ","01 ","4","rl","test","68","img/r_s_dots.png","7","75","color,shape,pattern","58","0",""
"null","119870","HierDyk48nrs4m","sub01 ","01 ","4","feedback","test","null","","","na","","58","",""
"643","120514","HierDyk48nrs4m","sub01 ","01 ","4","rl","test","70","img/b_s_stripes.png","4","70","color,shape,pattern","59","1",""
"null","121516","HierDyk48nrs4m","sub01 ","01 ","4","feedback","test","null","","","na","","59","",""
"750","122268","HierDyk48nrs4m","sub01 ","01 ","4","rl","test","68","img/b_s_dots.png","3","68","color,shape,pattern","60","1",""
"null","123271","HierDyk48nrs4m","sub01 ","01 ","4","feedback","test","null","","","na","","60","",""
"581.9999999999854","123855","HierDyk48nrs4m","sub01 ","01 ","4","rl","test","83","img/b_c_dots.png","1","65","color,shape,pattern","61","0",""
"null","124857","HierDyk48nrs4m","sub01 ","01 ","4","feedback","test","null","","","na","","61","",""
"784","125642","HierDyk48nrs4m","sub01 ","01 ","4","rl","test","76","img/r_s_stripes.png","8","76","color,shape,pattern","62","1",""
"null","126645","HierDyk48nrs4m","sub01 ","01 ","4","feedback","test","null","","","na","","62","",""
"670.0000000000146","127317","HierDyk48nrs4m","sub01 ","01 ","4","rl","test","83","img/b_c_dots.png","1","65","color,shape,pattern","63","0",""
"null","128320","HierDyk48nrs4m","sub01 ","01 ","4","feedback","test","null","","","na","","63","",""
"987","129309","HierDyk48nrs4m","sub01 ","01 ","4","rl","test","72","img/r_c_dots.png","5","72","color,shape,pattern","64","1",""
"null","130311","HierDyk48nrs4m","sub01 ","01 ","4","feedback","test","null","","","na","","64","",""
"1443","131756","HierDyk48nrs4m","sub01 ","01 ","4","rl","test","75","img/r_s_dots.png","7","75","color,shape,pattern","65","1",""
"null","132758","HierDyk48nrs4m","sub01 ","01 ","4","feedback","test","null","","","na","","65","",""
"601.0000000000291","133360","HierDyk48nrs4m","sub01 ","01 ","4","rl","test","68","img/b_s_dots.png","3","68","color,shape,pattern","66","1",""
"null","134363","HierDyk48nrs4m","sub01 ","01 ","4","feedback","test","null","","","na","","66","",""
"680","135045","HierDyk48nrs4m","sub01 ","01 ","4","rl","test","65","img/r_c_dots.png","5","72","color,shape,pattern","67","0",""
"null","136048","HierDyk48nrs4m","sub01 ","01 ","4","feedback","test","null","","","na","","67","",""
"770","136820","HierDyk48nrs4m","sub01 ","01 ","4","rl","test","83","img/b_c_stripes.png","2","83","color,shape,pattern","68","1",""
"null","137823","HierDyk48nrs4m","sub01 ","01 ","4","feedback","test","null","","","na","","68","",""
"925.9999999999709","138750","HierDyk48nrs4m","sub01 ","01 ","4","rl","test","76","img/r_s_dots.png","7","75","color,shape,pattern","69","0",""
"null","139753","HierDyk48nrs4m","sub01 ","01 ","4","feedback","test","null","","","na","","69","",""
"797","140551","HierDyk48nrs4m","sub01 ","01 ","4","rl","test","72","img/r_c_stripes.png","6","74","color,shape,pattern","70","0",""
"null","141553","HierDyk48nrs4m","sub01 ","01 ","4","feedback","test","null","","","na","","70","",""
"947","142502","HierDyk48nrs4m","sub01 ","01 ","4","rl","test","76","img/b_s_stripes.png","4","70","color,shape,pattern","71","0",""
"null","143504","HierDyk48nrs4m","sub01 ","01 ","4","feedback","test","null","","","na","","71","",""
"1993","145498","HierDyk48nrs4m","sub01 ","01 ","4","rl","test","72","img/r_c_dots.png","5","72","color,shape,pattern","72","1",""
"null","146500","HierDyk48nrs4m","sub01 ","01 ","4","feedback","test","null","","","na","","72","",""
"803","147305","HierDyk48nrs4m","sub01 ","01 ","4","rl","test","76","img/r_s_stripes.png","8","76","color,shape,pattern","73","1",""
"null","148308","HierDyk48nrs4m","sub01 ","01 ","4","feedback","test","null","","","na","","73","",""
"632","148941","HierDyk48nrs4m","sub01 ","01 ","4","rl","test","76","img/r_s_stripes.png","8","76","color,shape,pattern","74","1",""
"null","149944","HierDyk48nrs4m","sub01 ","01 ","4","feedback","test","null","","","na","","74","",""
"593","150538","HierDyk48nrs4m","sub01 ","01 ","4","rl","test","70","img/b_s_stripes.png","4","70","color,shape,pattern","75","1",""
"null","151541","HierDyk48nrs4m","sub01 ","01 ","4","feedback","test","null","","","na","","75","",""
"1430","152972","HierDyk48nrs4m","sub01 ","01 ","4","rl","test","75","img/r_c_stripes.png","6","74","color,shape,pattern","76","0",""
"null","153974","HierDyk48nrs4m","sub01 ","01 ","4","feedback","test","null","","","na","","76","",""
"955","154930","HierDyk48nrs4m","sub01 ","01 ","4","rl","test","75","img/r_s_dots.png","7","75","color,shape,pattern","77","1",""
"null","155933","HierDyk48nrs4m","sub01 ","01 ","4","feedback","test","null","","","na","","77","",""
"653","156588","HierDyk48nrs4m","sub01 ","01 ","4","rl","test","72","img/b_c_dots.png","1","65","color,shape,pattern","78","0",""
"null","157590","HierDyk48nrs4m","sub01 ","01 ","4","feedback","test","null","","","na","","78","",""
"1301.999999999971","158894","HierDyk48nrs4m","sub01 ","01 ","4","rl","test","68","img/b_s_dots.png","3","68","color,shape,pattern","79","1",""
"null","159897","HierDyk48nrs4m","sub01 ","01 ","4","feedback","test","null","","","na","","79","",""
"1860","161758","HierDyk48nrs4m","sub01 ","01 ","4","rl","test","83","img/b_c_stripes.png","2","83","color,shape,pattern","80","1",""
"null","162761","HierDyk48nrs4m","sub01 ","01 ","4","feedback","test","null","","","na","","80","",""
"642","163404","HierDyk48nrs4m","sub01 ","01 ","4","rl","test","76","img/r_s_stripes.png","8","76","color,shape,pattern","81","1",""
"null","164407","HierDyk48nrs4m","sub01 ","01 ","4","feedback","test","null","","","na","","81","",""
"817","165225","HierDyk48nrs4m","sub01 ","01 ","4","rl","test","65","img/r_c_dots.png","5","72","color,shape,pattern","82","0",""
"null","166228","HierDyk48nrs4m","sub01 ","01 ","4","feedback","test","null","","","na","","82","",""
"565.9999999999709","166795","HierDyk48nrs4m","sub01 ","01 ","4","rl","test","65","img/b_c_dots.png","1","65","color,shape,pattern","83","1",""
"null","167797","HierDyk48nrs4m","sub01 ","01 ","4","feedback","test","null","","","na","","83","",""
"1084","168883","HierDyk48nrs4m","sub01 ","01 ","4","rl","test","70","img/b_s_stripes.png","4","70","color,shape,pattern","84","1",""
"null","169886","HierDyk48nrs4m","sub01 ","01 ","4","feedback","test","null","","","na","","84","",""
"1050","170937","HierDyk48nrs4m","sub01 ","01 ","4","rl","test","83","img/b_c_stripes.png","2","83","color,shape,pattern","85","1",""
"null","171940","HierDyk48nrs4m","sub01 ","01 ","4","feedback","test","null","","","na","","85","",""
"856","172797","HierDyk48nrs4m","sub01 ","01 ","4","rl","test","74","img/r_c_stripes.png","6","74","color,shape,pattern","86","1",""
"null","173800","HierDyk48nrs4m","sub01 ","01 ","4","feedback","test","null","","","na","","86","",""
"1500","175300","HierDyk48nrs4m","sub01 ","01 ","4","rl","test","68","img/b_s_dots.png","3","68","color,shape,pattern","87","1",""
"null","176303","HierDyk48nrs4m","sub01 ","01 ","4","feedback","test","null","","","na","","87","",""
"1701","178005","HierDyk48nrs4m","sub01 ","01 ","4","rl","test","72","img/r_c_stripes.png","6","74","color,shape,pattern","88","0",""
"null","179008","HierDyk48nrs4m","sub01 ","01 ","4","feedback","test","null","","","na","","88","",""
"2095","181104","HierDyk48nrs4m","sub01 ","01 ","4","rl","test","68","img/r_s_dots.png","7","75","color,shape,pattern","89","0",""
"null","182106","HierDyk48nrs4m","sub01 ","01 ","4","feedback","test","null","","","na","","89","",""
"666","182775","HierDyk48nrs4m","sub01 ","01 ","4","rl","test","68","img/b_s_dots.png","3","68","color,shape,pattern","90","1",""
"null","183778","HierDyk48nrs4m","sub01 ","01 ","4","feedback","test","null","","","na","","90","",""
"1090","184870","HierDyk48nrs4m","sub01 ","01 ","4","rl","test","83","img/b_c_stripes.png","2","83","color,shape,pattern","91","1",""
"null","185873","HierDyk48nrs4m","sub01 ","01 ","4","feedback","test","null","","","na","","91","",""
"1165","187039","HierDyk48nrs4m","sub01 ","01 ","4","rl","test","76","img/r_s_stripes.png","8","76","color,shape,pattern","92","1",""
"null","188041","HierDyk48nrs4m","sub01 ","01 ","4","feedback","test","null","","","na","","92","",""
"939","188981","HierDyk48nrs4m","sub01 ","01 ","4","rl","test","75","img/r_s_dots.png","7","75","color,shape,pattern","93","1",""
"null","189983","HierDyk48nrs4m","sub01 ","01 ","4","feedback","test","null","","","na","","93","",""
"1530","191514","HierDyk48nrs4m","sub01 ","01 ","4","rl","test","75","img/r_s_dots.png","7","75","color,shape,pattern","94","1",""
"null","192517","HierDyk48nrs4m","sub01 ","01 ","4","feedback","test","null","","","na","","94","",""
"1405","193924","HierDyk48nrs4m","sub01 ","01 ","4","rl","test","74","img/r_c_dots.png","5","72","color,shape,pattern","95","0",""
"null","194925","HierDyk48nrs4m","sub01 ","01 ","4","feedback","test","null","","","na","","95","",""
"1591","196517","HierDyk48nrs4m","sub01 ","01 ","4","rl","test","70","img/b_s_stripes.png","4","70","color,shape,pattern","96","1",""
"null","197520","HierDyk48nrs4m","sub01 ","01 ","4","feedback","test","null","","","na","","96","",""
"2069","199590","HierDyk48nrs4m","sub01 ","01 ","4","rl","test","83","img/b_c_dots.png","1","65","color,shape,pattern","97","0",""
"null","200592","HierDyk48nrs4m","sub01 ","01 ","4","feedback","test","null","","","na","","97","",""
"812","201405","HierDyk48nrs4m","sub01 ","01 ","4","rl","test","72","img/r_c_dots.png","5","72","color,shape,pattern","98","1",""
"null","202407","HierDyk48nrs4m","sub01 ","01 ","4","feedback","test","null","","","na","","98","",""
"924","203332","HierDyk48nrs4m","sub01 ","01 ","4","rl","test","75","img/b_s_dots.png","3","68","color,shape,pattern","99","0",""
"null","204335","HierDyk48nrs4m","sub01 ","01 ","4","feedback","test","null","","","na","","99","",""
"1373","205709","HierDyk48nrs4m","sub01 ","01 ","4","rl","test","83","img/b_c_dots.png","1","65","color,shape,pattern","100","0",""
"null","206710","HierDyk48nrs4m","sub01 ","01 ","4","feedback","test","null","","","na","","100","",""
"1364","208076","HierDyk48nrs4m","sub01 ","01 ","4","rl","test","68","img/b_s_dots.png","3","68","color,shape,pattern","101","1",""
"null","209079","HierDyk48nrs4m","sub01 ","01 ","4","feedback","test","null","","","na","","101","",""
"1530","210610","HierDyk48nrs4m","sub01 ","01 ","4","rl","test","74","img/r_c_stripes.png","6","74","color,shape,pattern","102","1",""
"null","211612","HierDyk48nrs4m","sub01 ","01 ","4","feedback","test","null","","","na","","102","",""
"979","212593","HierDyk48nrs4m","sub01 ","01 ","4","rl","test","70","img/b_s_stripes.png","4","70","color,shape,pattern","103","1",""
"null","213595","HierDyk48nrs4m","sub01 ","01 ","4","feedback","test","null","","","na","","103","",""
"578.9999999999709","214176","HierDyk48nrs4m","sub01 ","01 ","4","rl","test","70","img/b_s_stripes.png","4","70","color,shape,pattern","104","1",""
"null","215178","HierDyk48nrs4m","sub01 ","01 ","4","feedback","test","null","","","na","","104","",""
"956","216136","HierDyk48nrs4m","sub01 ","01 ","4","rl","test","83","img/b_c_stripes.png","2","83","color,shape,pattern","105","1",""
"null","217138","HierDyk48nrs4m","sub01 ","01 ","4","feedback","test","null","","","na","","105","",""
"712","217853","HierDyk48nrs4m","sub01 ","01 ","4","rl","test","65","img/b_c_dots.png","1","65","color,shape,pattern","106","1",""
"null","218855","HierDyk48nrs4m","sub01 ","01 ","4","feedback","test","null","","","na","","106","",""
"590","219447","HierDyk48nrs4m","sub01 ","01 ","4","rl","test","70","img/r_s_stripes.png","8","76","color,shape,pattern","107","0",""
"null","220448","HierDyk48nrs4m","sub01 ","01 ","4","feedback","test","null","","","na","","107","",""
"907","221356","HierDyk48nrs4m","sub01 ","01 ","4","rl","test","76","img/r_s_stripes.png","8","76","color,shape,pattern","108","1",""
"null","222359","HierDyk48nrs4m","sub01 ","01 ","4","feedback","test","null","","","na","","108","",""
"null","224862","HierDyk48nrs4m","sub01 ","01 ","4","rl","test","null","img/r_s_dots.png","7","75","color,shape,pattern","109","0",""
"null","225864","HierDyk48nrs4m","sub01 ","01 ","4","feedback","test","null","","","na","","109","",""
"577.9999999999709","226443","HierDyk48nrs4m","sub01 ","01 ","4","rl","test","83","img/b_c_stripes.png","2","83","color,shape,pattern","110","1",""
"null","227446","HierDyk48nrs4m","sub01 ","01 ","4","feedback","test","null","","","na","","110","",""
"894.0000000000291","228341","HierDyk48nrs4m","sub01 ","01 ","4","rl","test","74","img/r_c_stripes.png","6","74","color,shape,pattern","111","1",""
"null","229343","HierDyk48nrs4m","sub01 ","01 ","4","feedback","test","null","","","na","","111","",""
"657.0000000000291","230001","HierDyk48nrs4m","sub01 ","01 ","4","rl","test","70","img/b_s_stripes.png","4","70","color,shape,pattern","112","1",""
"null","231004","HierDyk48nrs4m","sub01 ","01 ","4","feedback","test","null","","","na","","112","",""
"715","231720","HierDyk48nrs4m","sub01 ","01 ","4","rl","test","72","img/r_c_dots.png","5","72","color,shape,pattern","113","1",""
"null","232723","HierDyk48nrs4m","sub01 ","01 ","4","feedback","test","null","","","na","","113","",""
"924","233649","HierDyk48nrs4m","sub01 ","01 ","4","rl","test","68","img/b_s_dots.png","3","68","color,shape,pattern","114","1",""
"null","234652","HierDyk48nrs4m","sub01 ","01 ","4","feedback","test","null","","","na","","114","",""
"1334","235987","HierDyk48nrs4m","sub01 ","01 ","4","rl","test","74","img/r_c_stripes.png","6","74","color,shape,pattern","115","1",""
"null","236990","HierDyk48nrs4m","sub01 ","01 ","4","feedback","test","null","","","na","","115","",""
"1012","238003","HierDyk48nrs4m","sub01 ","01 ","4","rl","test","75","img/r_s_dots.png","7","75","color,shape,pattern","116","1",""
"null","239005","HierDyk48nrs4m","sub01 ","01 ","4","feedback","test","null","","","na","","116","",""
"1354","240361","HierDyk48nrs4m","sub01 ","01 ","4","rl","test","65","img/b_c_dots.png","1","65","color,shape,pattern","117","1",""
"null","241364","HierDyk48nrs4m","sub01 ","01 ","4","feedback","test","null","","","na","","117","",""
"612.0000000000291","241978","HierDyk48nrs4m","sub01 ","01 ","4","rl","test","70","img/r_s_stripes.png","8","76","color,shape,pattern","118","0",""
"null","242981","HierDyk48nrs4m","sub01 ","01 ","4","feedback","test","null","","","na","","118","",""
"1451","244434","HierDyk48nrs4m","sub01 ","01 ","4","rl","test","74","img/b_c_stripes.png","2","83","color,shape,pattern","119","0",""
"null","245436","HierDyk48nrs4m","sub01 ","01 ","4","feedback","test","null","","","na","","119","",""
"820.0000000000291","246258","HierDyk48nrs4m","sub01 ","01 ","4","rl","test","76","img/r_s_stripes.png","8","76","color,shape,pattern","120","1",""
"null","247260","HierDyk48nrs4m","sub01 ","01 ","4","feedback","test","null","","","na","","120","",""
"931","248191","HierDyk48nrs4m","sub01 ","01 ","4","rl","test","72","img/r_c_dots.png","5","72","color,shape,pattern","121","1",""
"null","249194","HierDyk48nrs4m","sub01 ","01 ","4","feedback","test","null","","","na","","121","",""
"1255","250450","HierDyk48nrs4m","sub01 ","01 ","4","rl","test","83","img/b_c_stripes.png","2","83","color,shape,pattern","122","1",""
"null","251453","HierDyk48nrs4m","sub01 ","01 ","4","feedback","test","null","","","na","","122","",""
"1520","252975","HierDyk48nrs4m","sub01 ","01 ","4","rl","test","76","img/r_s_dots.png","7","75","color,shape,pattern","123","0",""
"null","253977","HierDyk48nrs4m","sub01 ","01 ","4","feedback","test","null","","","na","","123","",""
"833.0000000000291","254812","HierDyk48nrs4m","sub01 ","01 ","4","rl","test","68","img/b_s_dots.png","3","68","color,shape,pattern","124","1",""
"null","255815","HierDyk48nrs4m","sub01 ","01 ","4","feedback","test","null","","","na","","124","",""
"1277.0000000000582","257093","HierDyk48nrs4m","sub01 ","01 ","4","rl","test","74","img/r_c_dots.png","5","72","color,shape,pattern","125","0",""
"null","258095","HierDyk48nrs4m","sub01 ","01 ","4","feedback","test","null","","","na","","125","",""
"901","258997","HierDyk48nrs4m","sub01 ","01 ","4","rl","test","76","img/b_s_stripes.png","4","70","color,shape,pattern","126","0",""
"null","260000","HierDyk48nrs4m","sub01 ","01 ","4","feedback","test","null","","","na","","126","",""
"1328.999999999971","261331","HierDyk48nrs4m","sub01 ","01 ","4","rl","test","74","img/r_c_stripes.png","6","74","color,shape,pattern","127","1",""
"null","262333","HierDyk48nrs4m","sub01 ","01 ","4","feedback","test","null","","","na","","127","",""
"2206","264541","HierDyk48nrs4m","sub01 ","01 ","4","rl","test","83","img/b_c_dots.png","1","65","color,shape,pattern","128","0",""
"null","265544","HierDyk48nrs4m","sub01 ","01 ","4","feedback","test","null","","","na","","128","",""
"1364.0000000000582","266910","HierDyk48nrs4m","sub01 ","01 ","4","rl","test","75","img/r_s_dots.png","7","75","color,shape,pattern","129","1",""
"null","267912","HierDyk48nrs4m","sub01 ","01 ","4","feedback","test","null","","","na","","129","",""
"1990","269903","HierDyk48nrs4m","sub01 ","01 ","4","rl","test","72","img/b_c_dots.png","1","65","color,shape,pattern","130","0",""
"null","270906","HierDyk48nrs4m","sub01 ","01 ","4","feedback","test","null","","","na","","130","",""
"1194","272101","HierDyk48nrs4m","sub01 ","01 ","4","rl","test","70","img/b_s_stripes.png","4","70","color,shape,pattern","131","1",""
"null","273104","HierDyk48nrs4m","sub01 ","01 ","4","feedback","test","null","","","na","","131","",""
"1144","274250","HierDyk48nrs4m","sub01 ","01 ","4","rl","test","83","img/r_c_stripes.png","6","74","color,shape,pattern","132","0",""
"null","275253","HierDyk48nrs4m","sub01 ","01 ","4","feedback","test","null","","","na","","132","",""
"1411","276665","HierDyk48nrs4m","sub01 ","01 ","4","rl","test","68","img/b_s_dots.png","3","68","color,shape,pattern","133","1",""
"null","277667","HierDyk48nrs4m","sub01 ","01 ","4","feedback","test","null","","","na","","133","",""
"878","278545","HierDyk48nrs4m","sub01 ","01 ","4","rl","test","76","img/r_s_stripes.png","8","76","color,shape,pattern","134","1",""
"null","279547","HierDyk48nrs4m","sub01 ","01 ","4","feedback","test","null","","","na","","134","",""
"1995","281544","HierDyk48nrs4m","sub01 ","01 ","4","rl","test","83","img/b_c_stripes.png","2","83","color,shape,pattern","135","1",""
"null","282547","HierDyk48nrs4m","sub01 ","01 ","4","feedback","test","null","","","na","","135","",""
"880","283428","HierDyk48nrs4m","sub01 ","01 ","4","rl","test","65","img/r_c_dots.png","5","72","color,shape,pattern","136","0",""
"null","284430","HierDyk48nrs4m","sub01 ","01 ","4","feedback","test","null","","","na","","136","",""
"990.0000000000582","285421","HierDyk48nrs4m","sub01 ","01 ","4","rl","test","72","img/r_c_dots.png","5","72","color,shape,pattern","137","1",""
"null","286424","HierDyk48nrs4m","sub01 ","01 ","4","feedback","test","null","","","na","","137","",""
"1713","288138","HierDyk48nrs4m","sub01 ","01 ","4","rl","test","83","img/b_c_stripes.png","2","83","color,shape,pattern","138","1",""
"null","289141","HierDyk48nrs4m","sub01 ","01 ","4","feedback","test","null","","","na","","138","",""
"971","290113","HierDyk48nrs4m","sub01 ","01 ","4","rl","test","74","img/r_c_stripes.png","6","74","color,shape,pattern","139","1",""
"null","291116","HierDyk48nrs4m","sub01 ","01 ","4","feedback","test","null","","","na","","139","",""
"723","291840","HierDyk48nrs4m","sub01 ","01 ","4","rl","test","65","img/b_c_dots.png","1","65","color,shape,pattern","140","1",""
"null","292842","HierDyk48nrs4m","sub01 ","01 ","4","feedback","test","null","","","na","","140","",""
"1014","293857","HierDyk48nrs4m","sub01 ","01 ","4","rl","test","68","img/b_s_dots.png","3","68","color,shape,pattern","141","1",""
"null","294859","HierDyk48nrs4m","sub01 ","01 ","4","feedback","test","null","","","na","","141","",""
"718.9999999999418","295580","HierDyk48nrs4m","sub01 ","01 ","4","rl","test","75","img/r_s_dots.png","7","75","color,shape,pattern","142","1",""
"null","296582","HierDyk48nrs4m","sub01 ","01 ","4","feedback","test","null","","","na","","142","",""
"805","297389","HierDyk48nrs4m","sub01 ","01 ","4","rl","test","76","img/b_s_stripes.png","4","70","color,shape,pattern","143","0",""
"null","298391","HierDyk48nrs4m","sub01 ","01 ","4","feedback","test","null","","","na","","143","",""
"1351","299744","HierDyk48nrs4m","sub01 ","01 ","4","rl","test","74","img/b_c_stripes.png","2","83","color,shape,pattern","144","0",""
"null","300746","HierDyk48nrs4m","sub01 ","01 ","4","feedback","test","null","","","na","","144","",""
"868.9999999999418","301616","HierDyk48nrs4m","sub01 ","01 ","4","rl","test","70","img/b_s_stripes.png","4","70","color,shape,pattern","145","1",""
"null","302619","HierDyk48nrs4m","sub01 ","01 ","4","feedback","test","null","","","na","","145","",""
"1055","303676","HierDyk48nrs4m","sub01 ","01 ","4","rl","test","75","img/r_s_dots.png","7","75","color,shape,pattern","146","1",""
"null","304678","HierDyk48nrs4m","sub01 ","01 ","4","feedback","test","null","","","na","","146","",""
"1013","305691","HierDyk48nrs4m","sub01 ","01 ","4","rl","test","76","img/r_s_stripes.png","8","76","color,shape,pattern","147","1",""
"null","306694","HierDyk48nrs4m","sub01 ","01 ","4","feedback","test","null","","","na","","147","",""
"1670","308366","HierDyk48nrs4m","sub01 ","01 ","4","rl","test","76","img/r_s_stripes.png","8","76","color,shape,pattern","148","1",""
"null","309369","HierDyk48nrs4m","sub01 ","01 ","4","feedback","test","null","","","na","","148","",""
"1101","310471","HierDyk48nrs4m","sub01 ","01 ","4","rl","test","72","img/r_c_dots.png","5","72","color,shape,pattern","149","1",""
"null","311474","HierDyk48nrs4m","sub01 ","01 ","4","feedback","test","null","","","na","","149","",""
"616","312091","HierDyk48nrs4m","sub01 ","01 ","4","rl","test","65","img/b_c_dots.png","1","65","color,shape,pattern","150","1",""
"null","313093","HierDyk48nrs4m","sub01 ","01 ","4","feedback","test","null","","","na","","150","",""
"730","313824","HierDyk48nrs4m","sub01 ","01 ","4","rl","test","68","img/b_s_dots.png","3","68","color,shape,pattern","151","1",""
"null","314827","HierDyk48nrs4m","sub01 ","01 ","4","feedback","test","null","","","na","","151","",""
"888","315716","HierDyk48nrs4m","sub01 ","01 ","4","rl","test","75","img/r_s_dots.png","7","75","color,shape,pattern","152","1",""
"null","316719","HierDyk48nrs4m","sub01 ","01 ","4","feedback","test","null","","","na","","152","",""
"702","317422","HierDyk48nrs4m","sub01 ","01 ","4","rl","test","74","img/r_c_stripes.png","6","74","color,shape,pattern","153","1",""
"null","318425","HierDyk48nrs4m","sub01 ","01 ","4","feedback","test","null","","","na","","153","",""
"2021","320447","HierDyk48nrs4m","sub01 ","01 ","4","rl","test","68","img/b_s_dots.png","3","68","color,shape,pattern","154","1",""
"null","321450","HierDyk48nrs4m","sub01 ","01 ","4","feedback","test","null","","","na","","154","",""
"534.0000000000582","321985","HierDyk48nrs4m","sub01 ","01 ","4","rl","test","83","img/b_c_stripes.png","2","83","color,shape,pattern","155","1",""
"null","322988","HierDyk48nrs4m","sub01 ","01 ","4","feedback","test","null","","","na","","155","",""
"1074","324063","HierDyk48nrs4m","sub01 ","01 ","4","rl","test","72","img/r_c_dots.png","5","72","color,shape,pattern","156","1",""
"null","325066","HierDyk48nrs4m","sub01 ","01 ","4","feedback","test","null","","","na","","156","",""
"763","325831","HierDyk48nrs4m","sub01 ","01 ","4","rl","test","74","img/r_c_stripes.png","6","74","color,shape,pattern","157","1",""
"null","326833","HierDyk48nrs4m","sub01 ","01 ","4","feedback","test","null","","","na","","157","",""
"625","327459","HierDyk48nrs4m","sub01 ","01 ","4","rl","test","83","img/b_c_dots.png","1","65","color,shape,pattern","158","0",""
"null","328462","HierDyk48nrs4m","sub01 ","01 ","4","feedback","test","null","","","na","","158","",""
"1026","329489","HierDyk48nrs4m","sub01 ","01 ","4","rl","test","68","img/b_s_dots.png","3","68","color,shape,pattern","159","1",""
"null","330491","HierDyk48nrs4m","sub01 ","01 ","4","feedback","test","null","","","na","","159","",""
"583","331075","HierDyk48nrs4m","sub01 ","01 ","4","rl","test","70","img/b_s_stripes.png","4","70","color,shape,pattern","160","1",""
"null","332078","HierDyk48nrs4m","sub01 ","01 ","4","feedback","test","null","","","na","","160","",""
"571","332650","HierDyk48nrs4m","sub01 ","01 ","4","rl","test","70","img/b_s_stripes.png","4","70","color,shape,pattern","161","1",""
"null","333653","HierDyk48nrs4m","sub01 ","01 ","4","feedback","test","null","","","na","","161","",""
"633","334287","HierDyk48nrs4m","sub01 ","01 ","4","rl","test","76","img/r_s_stripes.png","8","76","color,shape,pattern","162","1",""
"null","335290","HierDyk48nrs4m","sub01 ","01 ","4","feedback","test","null","","","na","","162","",""
"1231","336522","HierDyk48nrs4m","sub01 ","01 ","4","rl","test","65","img/b_c_dots.png","1","65","color,shape,pattern","163","1",""
"null","337525","HierDyk48nrs4m","sub01 ","01 ","4","feedback","test","null","","","na","","163","",""
"720","338246","HierDyk48nrs4m","sub01 ","01 ","4","rl","test","83","img/b_c_stripes.png","2","83","color,shape,pattern","164","1",""
"null","339248","HierDyk48nrs4m","sub01 ","01 ","4","feedback","test","null","","","na","","164","",""
"792","340042","HierDyk48nrs4m","sub01 ","01 ","4","rl","test","76","img/r_s_stripes.png","8","76","color,shape,pattern","165","1",""
"null","341044","HierDyk48nrs4m","sub01 ","01 ","4","feedback","test","null","","","na","","165","",""
"637","341683","HierDyk48nrs4m","sub01 ","01 ","4","rl","test","68","img/r_c_stripes.png","6","74","color,shape,pattern","166","0",""
"null","342685","HierDyk48nrs4m","sub01 ","01 ","4","feedback","test","null","","","na","","166","",""
"1144","343830","HierDyk48nrs4m","sub01 ","01 ","4","rl","test","75","img/r_s_dots.png","7","75","color,shape,pattern","167","1",""
"null","344832","HierDyk48nrs4m","sub01 ","01 ","4","feedback","test","null","","","na","","167","",""
"617","345451","HierDyk48nrs4m","sub01 ","01 ","4","rl","test","72","img/r_c_dots.png","5","72","color,shape,pattern","168","1",""
"null","346453","HierDyk48nrs4m","sub01 ","01 ","4","feedback","test","null","","","na","","168","",""
"1065","347519","HierDyk48nrs4m","sub01 ","01 ","4","rl","test","75","img/r_s_dots.png","7","75","color,shape,pattern","169","1",""
"null","348522","HierDyk48nrs4m","sub01 ","01 ","4","feedback","test","null","","","na","","169","",""
"726","349249","HierDyk48nrs4m","sub01 ","01 ","4","rl","test","65","img/b_c_dots.png","1","65","color,shape,pattern","170","1",""
"null","350250","HierDyk48nrs4m","sub01 ","01 ","4","feedback","test","null","","","na","","170","",""
"579","350830","HierDyk48nrs4m","sub01 ","01 ","4","rl","test","70","img/r_s_stripes.png","8","76","color,shape,pattern","171","0",""
"null","351831","HierDyk48nrs4m","sub01 ","01 ","4","feedback","test","null","","","na","","171","",""
"674","352506","HierDyk48nrs4m","sub01 ","01 ","4","rl","test","76","img/b_s_stripes.png","4","70","color,shape,pattern","172","0",""
"null","353508","HierDyk48nrs4m","sub01 ","01 ","4","feedback","test","null","","","na","","172","",""
"1111","354621","HierDyk48nrs4m","sub01 ","01 ","4","rl","test","83","img/b_c_stripes.png","2","83","color,shape,pattern","173","1",""
"null","355623","HierDyk48nrs4m","sub01 ","01 ","4","feedback","test","null","","","na","","173","",""
"819","356443","HierDyk48nrs4m","sub01 ","01 ","4","rl","test","68","img/b_s_dots.png","3","68","color,shape,pattern","174","1",""
"null","357445","HierDyk48nrs4m","sub01 ","01 ","4","feedback","test","null","","","na","","174","",""
"929","358376","HierDyk48nrs4m","sub01 ","01 ","4","rl","test","72","img/r_c_dots.png","5","72","color,shape,pattern","175","1",""
"null","359378","HierDyk48nrs4m","sub01 ","01 ","4","feedback","test","null","","","na","","175","",""
"1083.9999999999418","360463","HierDyk48nrs4m","sub01 ","01 ","4","rl","test","68","img/b_s_dots.png","3","68","color,shape,pattern","176","1",""
"null","361465","HierDyk48nrs4m","sub01 ","01 ","4","feedback","test","null","","","na","","176","",""
"724","362190","HierDyk48nrs4m","sub01 ","01 ","4","rl","test","83","img/b_c_stripes.png","2","83","color,shape,pattern","177","1",""
"null","363192","HierDyk48nrs4m","sub01 ","01 ","4","feedback","test","null","","","na","","177","",""
"671","363864","HierDyk48nrs4m","sub01 ","01 ","4","rl","test","65","img/b_c_dots.png","1","65","color,shape,pattern","178","1",""
"null","364866","HierDyk48nrs4m","sub01 ","01 ","4","feedback","test","null","","","na","","178","",""
"603","365471","HierDyk48nrs4m","sub01 ","01 ","4","rl","test","74","img/r_c_stripes.png","6","74","color,shape,pattern","179","1",""
"null","366473","HierDyk48nrs4m","sub01 ","01 ","4","feedback","test","null","","","na","","179","",""
"537","367012","HierDyk48nrs4m","sub01 ","01 ","4","rl","test","74","img/r_c_stripes.png","6","74","color,shape,pattern","180","1",""
"null","368014","HierDyk48nrs4m","sub01 ","01 ","4","feedback","test","null","","","na","","180","",""
"611","368626","HierDyk48nrs4m","sub01 ","01 ","4","rl","test","76","img/r_s_stripes.png","8","76","color,shape,pattern","181","1",""
"null","369628","HierDyk48nrs4m","sub01 ","01 ","4","feedback","test","null","","","na","","181","",""
"753.9999999999418","370382","HierDyk48nrs4m","sub01 ","01 ","4","rl","test","75","img/r_s_dots.png","7","75","color,shape,pattern","182","1",""
"null","371385","HierDyk48nrs4m","sub01 ","01 ","4","feedback","test","null","","","na","","182","",""
"676","372063","HierDyk48nrs4m","sub01 ","01 ","4","rl","test","72","img/r_c_dots.png","5","72","color,shape,pattern","183","1",""
"null","373065","HierDyk48nrs4m","sub01 ","01 ","4","feedback","test","null","","","na","","183","",""
"730","373797","HierDyk48nrs4m","sub01 ","01 ","4","rl","test","70","img/b_s_stripes.png","4","70","color,shape,pattern","184","1",""
"null","374799","HierDyk48nrs4m","sub01 ","01 ","4","feedback","test","null","","","na","","184","",""
"664","375465","HierDyk48nrs4m","sub01 ","01 ","4","rl","test","76","img/r_s_stripes.png","8","76","color,shape,pattern","185","1",""
"null","376467","HierDyk48nrs4m","sub01 ","01 ","4","feedback","test","null","","","na","","185","",""
"520","376988","HierDyk48nrs4m","sub01 ","01 ","4","rl","test","70","img/b_s_stripes.png","4","70","color,shape,pattern","186","1",""
"null","377991","HierDyk48nrs4m","sub01 ","01 ","4","feedback","test","null","","","na","","186","",""
"755","378748","HierDyk48nrs4m","sub01 ","01 ","4","rl","test","68","img/b_s_dots.png","3","68","color,shape,pattern","187","1",""
"null","379750","HierDyk48nrs4m","sub01 ","01 ","4","feedback","test","null","","","na","","187","",""
"625","380376","HierDyk48nrs4m","sub01 ","01 ","4","rl","test","72","img/r_c_dots.png","5","72","color,shape,pattern","188","1",""
"null","381379","HierDyk48nrs4m","sub01 ","01 ","4","feedback","test","null","","","na","","188","",""
"543","381924","HierDyk48nrs4m","sub01 ","01 ","4","rl","test","70","img/b_s_stripes.png","4","70","color,shape,pattern","189","1",""
"null","382926","HierDyk48nrs4m","sub01 ","01 ","4","feedback","test","null","","","na","","189","",""
"696","383624","HierDyk48nrs4m","sub01 ","01 ","4","rl","test","74","img/r_c_stripes.png","6","74","color,shape,pattern","190","1",""
"null","384626","HierDyk48nrs4m","sub01 ","01 ","4","feedback","test","null","","","na","","190","",""
"672","385299","HierDyk48nrs4m","sub01 ","01 ","4","rl","test","83","img/b_c_stripes.png","2","83","color,shape,pattern","191","1",""
"null","386301","HierDyk48nrs4m","sub01 ","01 ","4","feedback","test","null","","","na","","191","",""
"526","386829","HierDyk48nrs4m","sub01 ","01 ","4","rl","test","83","img/b_c_stripes.png","2","83","color,shape,pattern","192","1",""
"null","387831","HierDyk48nrs4m","sub01 ","01 ","4","feedback","test","null","","","na","","192","",""
"682","388514","HierDyk48nrs4m","sub01 ","01 ","4","rl","test","65","img/b_c_dots.png","1","65","color,shape,pattern","193","1",""
"null","389517","HierDyk48nrs4m","sub01 ","01 ","4","feedback","test","null","","","na","","193","",""
"739","390257","HierDyk48nrs4m","sub01 ","01 ","4","rl","test","72","img/r_c_dots.png","5","72","color,shape,pattern","194","1",""
"null","391260","HierDyk48nrs4m","sub01 ","01 ","4","feedback","test","null","","","na","","194","",""
"1077","392338","HierDyk48nrs4m","sub01 ","01 ","4","rl","test","68","img/r_s_dots.png","7","75","color,shape,pattern","195","0",""
"null","393341","HierDyk48nrs4m","sub01 ","01 ","4","feedback","test","null","","","na","","195","",""
"818.9999999999418","394162","HierDyk48nrs4m","sub01 ","01 ","4","rl","test","76","img/r_s_stripes.png","8","76","color,shape,pattern","196","1",""
"null","395164","HierDyk48nrs4m","sub01 ","01 ","4","feedback","test","null","","","na","","196","",""
"599","395764","HierDyk48nrs4m","sub01 ","01 ","4","rl","test","65","img/b_c_dots.png","1","65","color,shape,pattern","197","1",""
"null","396766","HierDyk48nrs4m","sub01 ","01 ","4","feedback","test","null","","","na","","197","",""
"933","397700","HierDyk48nrs4m","sub01 ","01 ","4","rl","test","74","img/r_c_stripes.png","6","74","color,shape,pattern","198","1",""
"null","398702","HierDyk48nrs4m","sub01 ","01 ","4","feedback","test","null","","","na","","198","",""
"1008","399712","HierDyk48nrs4m","sub01 ","01 ","4","rl","test","68","img/b_s_dots.png","3","68","color,shape,pattern","199","1",""
"null","400713","HierDyk48nrs4m","sub01 ","01 ","4","feedback","test","null","","","na","","199","",""
"542","401256","HierDyk48nrs4m","sub01 ","01 ","4","rl","test","68","img/r_s_dots.png","7","75","color,shape,pattern","200","0",""
"null","402259","HierDyk48nrs4m","sub01 ","01 ","4","feedback","test","null","","","na","","200","",""
"1681","403941","HierDyk48nrs4m","sub01 ","01 ","4","rl","test","75","img/r_s_dots.png","7","75","color,shape,pattern","201","1",""
"null","404943","HierDyk48nrs4m","sub01 ","01 ","4","feedback","test","null","","","na","","201","",""
"572","405518","HierDyk48nrs4m","sub01 ","01 ","4","rl","test","68","img/b_s_dots.png","3","68","color,shape,pattern","202","1",""
"null","406520","HierDyk48nrs4m","sub01 ","01 ","4","feedback","test","null","","","na","","202","",""
"614","407136","HierDyk48nrs4m","sub01 ","01 ","4","rl","test","70","img/b_s_stripes.png","4","70","color,shape,pattern","203","1",""
"null","408138","HierDyk48nrs4m","sub01 ","01 ","4","feedback","test","null","","","na","","203","",""
"641","408780","HierDyk48nrs4m","sub01 ","01 ","4","rl","test","83","img/b_c_dots.png","1","65","color,shape,pattern","204","0",""
"null","409783","HierDyk48nrs4m","sub01 ","01 ","4","feedback","test","null","","","na","","204","",""
"629","410413","HierDyk48nrs4m","sub01 ","01 ","4","rl","test","70","img/r_s_stripes.png","8","76","color,shape,pattern","205","0",""
"null","411415","HierDyk48nrs4m","sub01 ","01 ","4","feedback","test","null","","","na","","205","",""
"1414","412831","HierDyk48nrs4m","sub01 ","01 ","4","rl","test","74","img/r_c_stripes.png","6","74","color,shape,pattern","206","1",""
"null","413834","HierDyk48nrs4m","sub01 ","01 ","4","feedback","test","null","","","na","","206","",""
"693.9999999999418","414529","HierDyk48nrs4m","sub01 ","01 ","4","rl","test","83","img/b_c_stripes.png","2","83","color,shape,pattern","207","1",""
"null","415530","HierDyk48nrs4m","sub01 ","01 ","4","feedback","test","null","","","na","","207","",""
"819.9999999999418","416352","HierDyk48nrs4m","sub01 ","01 ","4","rl","test","65","img/r_c_dots.png","5","72","color,shape,pattern","208","0",""
"null","417354","HierDyk48nrs4m","sub01 ","01 ","4","feedback","test","null","","","na","","208","",""
"644","418000","HierDyk48nrs4m","sub01 ","01 ","4","rl","test","70","img/b_s_stripes.png","4","70","color,shape,pattern","209","1",""
"null","419003","HierDyk48nrs4m","sub01 ","01 ","4","feedback","test","null","","","na","","209","",""
"536","419540","HierDyk48nrs4m","sub01 ","01 ","4","rl","test","72","img/r_c_dots.png","5","72","color,shape,pattern","210","1",""
"null","420542","HierDyk48nrs4m","sub01 ","01 ","4","feedback","test","null","","","na","","210","",""
"582","421125","HierDyk48nrs4m","sub01 ","01 ","4","rl","test","65","img/b_c_dots.png","1","65","color,shape,pattern","211","1",""
"null","422128","HierDyk48nrs4m","sub01 ","01 ","4","feedback","test","null","","","na","","211","",""
"723","422852","HierDyk48nrs4m","sub01 ","01 ","4","rl","test","74","img/r_c_stripes.png","6","74","color,shape,pattern","212","1",""
"null","423854","HierDyk48nrs4m","sub01 ","01 ","4","feedback","test","null","","","na","","212","",""
"1217","425072","HierDyk48nrs4m","sub01 ","01 ","4","rl","test","68","img/b_s_dots.png","3","68","color,shape,pattern","213","1",""
"null","426075","HierDyk48nrs4m","sub01 ","01 ","4","feedback","test","null","","","na","","213","",""
"516.0000000000582","426592","HierDyk48nrs4m","sub01 ","01 ","4","rl","test","74","img/r_s_dots.png","7","75","color,shape,pattern","214","0",""
"null","427594","HierDyk48nrs4m","sub01 ","01 ","4","feedback","test","null","","","na","","214","",""
"579","428175","HierDyk48nrs4m","sub01 ","01 ","4","rl","test","76","img/r_s_stripes.png","8","76","color,shape,pattern","215","1",""
"null","429178","HierDyk48nrs4m","sub01 ","01 ","4","feedback","test","null","","","na","","215","",""
"812","429991","HierDyk48nrs4m","sub01 ","01 ","4","rl","test","83","img/b_c_stripes.png","2","83","color,shape,pattern","216","1",""
"null","430994","HierDyk48nrs4m","sub01 ","01 ","4","feedback","test","null","","","na","","216","",""
"750","431745","HierDyk48nrs4m","sub01 ","01 ","4","rl","test","68","img/b_s_dots.png","3","68","color,shape,pattern","217","1",""
"null","432748","HierDyk48nrs4m","sub01 ","01 ","4","feedback","test","null","","","na","","217","",""
"629","433379","HierDyk48nrs4m","sub01 ","01 ","4","rl","test","83","img/b_c_stripes.png","2","83","color,shape,pattern","218","1",""
"null","434381","HierDyk48nrs4m","sub01 ","01 ","4","feedback","test","null","","","na","","218","",""
"928.9999999999418","435312","HierDyk48nrs4m","sub01 ","01 ","4","rl","test","74","img/r_s_dots.png","7","75","color,shape,pattern","219","0",""
"null","436314","HierDyk48nrs4m","sub01 ","01 ","4","feedback","test","null","","","na","","219","",""
"534","436849","HierDyk48nrs4m","sub01 ","01 ","4","rl","test","75","img/r_s_dots.png","7","75","color,shape,pattern","220","1",""
"null","437851","HierDyk48nrs4m","sub01 ","01 ","4","feedback","test","null","","","na","","220","",""
"974","438826","HierDyk48nrs4m","sub01 ","01 ","4","rl","test","70","img/b_s_stripes.png","4","70","color,shape,pattern","221","1",""
"null","439828","HierDyk48nrs4m","sub01 ","01 ","4","feedback","test","null","","","na","","221","",""
"566.0000000000582","440395","HierDyk48nrs4m","sub01 ","01 ","4","rl","test","76","img/r_s_stripes.png","8","76","color,shape,pattern","222","1",""
"null","441397","HierDyk48nrs4m","sub01 ","01 ","4","feedback","test","null","","","na","","222","",""
"1234.0000000000582","442633","HierDyk48nrs4m","sub01 ","01 ","4","rl","test","72","img/r_c_dots.png","5","72","color,shape,pattern","223","1",""
"null","443635","HierDyk48nrs4m","sub01 ","01 ","4","feedback","test","null","","","na","","223","",""
"937","444574","HierDyk48nrs4m","sub01 ","01 ","4","rl","test","70","img/b_s_stripes.png","4","70","color,shape,pattern","224","1",""
"null","445576","HierDyk48nrs4m","sub01 ","01 ","4","feedback","test","null","","","na","","224","",""
"915","446492","HierDyk48nrs4m","sub01 ","01 ","4","rl","test","65","img/b_c_dots.png","1","65","color,shape,pattern","225","1",""
"null","447495","HierDyk48nrs4m","sub01 ","01 ","4","feedback","test","null","","","na","","225","",""
"730","448227","HierDyk48nrs4m","sub01 ","01 ","4","rl","test","76","img/r_s_stripes.png","8","76","color,shape,pattern","226","1",""
"null","449229","HierDyk48nrs4m","sub01 ","01 ","4","feedback","test","null","","","na","","226","",""
"1404","450635","HierDyk48nrs4m","sub01 ","01 ","4","rl","test","83","img/r_c_stripes.png","6","74","color,shape,pattern","227","0",""
"null","451637","HierDyk48nrs4m","sub01 ","01 ","4","feedback","test","null","","","na","","227","",""
"1170","452808","HierDyk48nrs4m","sub01 ","01 ","4","rl","test","65","img/b_c_dots.png","1","65","color,shape,pattern","228","1",""
"null","453810","HierDyk48nrs4m","sub01 ","01 ","4","feedback","test","null","","","na","","228","",""
"639","454451","HierDyk48nrs4m","sub01 ","01 ","4","rl","test","68","img/b_s_dots.png","3","68","color,shape,pattern","229","1",""
"null","455453","HierDyk48nrs4m","sub01 ","01 ","4","feedback","test","null","","","na","","229","",""
"1498","456954","HierDyk48nrs4m","sub01 ","01 ","4","rl","test","68","img/b_s_dots.png","3","68","color,shape,pattern","230","1",""
"null","457956","HierDyk48nrs4m","sub01 ","01 ","4","feedback","test","null","","","na","","230","",""
"699","458657","HierDyk48nrs4m","sub01 ","01 ","4","rl","test","72","img/r_c_dots.png","5","72","color,shape,pattern","231","1",""
"null","459660","HierDyk48nrs4m","sub01 ","01 ","4","feedback","test","null","","","na","","231","",""
"1876","461538","HierDyk48nrs4m","sub01 ","01 ","4","rl","test","68","img/r_c_stripes.png","6","74","color,shape,pattern","232","0",""
"null","462540","HierDyk48nrs4m","sub01 ","01 ","4","feedback","test","null","","","na","","232","",""
"670","463212","HierDyk48nrs4m","sub01 ","01 ","4","rl","test","83","img/b_c_stripes.png","2","83","color,shape,pattern","233","1",""
"null","464215","HierDyk48nrs4m","sub01 ","01 ","4","feedback","test","null","","","na","","233","",""
"755","464971","HierDyk48nrs4m","sub01 ","01 ","4","rl","test","70","img/b_s_stripes.png","4","70","color,shape,pattern","234","1",""
"null","465974","HierDyk48nrs4m","sub01 ","01 ","4","feedback","test","null","","","na","","234","",""
"1801.0000000000582","467776","HierDyk48nrs4m","sub01 ","01 ","4","rl","test","75","img/r_s_dots.png","7","75","color,shape,pattern","235","1",""
"null","468779","HierDyk48nrs4m","sub01 ","01 ","4","feedback","test","null","","","na","","235","",""
"597.0000000000582","469377","HierDyk48nrs4m","sub01 ","01 ","4","rl","test","74","img/r_c_stripes.png","6","74","color,shape,pattern","236","1",""
"null","470379","HierDyk48nrs4m","sub01 ","01 ","4","feedback","test","null","","","na","","236","",""
"1581","471962","HierDyk48nrs4m","sub01 ","01 ","4","rl","test","72","img/r_c_dots.png","5","72","color,shape,pattern","237","1",""
"null","472965","HierDyk48nrs4m","sub01 ","01 ","4","feedback","test","null","","","na","","237","",""
"714.9999999999418","473681","HierDyk48nrs4m","sub01 ","01 ","4","rl","test","74","img/r_c_stripes.png","6","74","color,shape,pattern","238","1",""
"null","474683","HierDyk48nrs4m","sub01 ","01 ","4","feedback","test","null","","","na","","238","",""
"1267","475951","HierDyk48nrs4m","sub01 ","01 ","4","rl","test","65","img/b_c_dots.png","1","65","color,shape,pattern","239","1",""
"null","476953","HierDyk48nrs4m","sub01 ","01 ","4","feedback","test","null","","","na","","239","",""
"728.9999999999418","477683","HierDyk48nrs4m","sub01 ","01 ","4","rl","test","70","img/r_s_stripes.png","8","76","color,shape,pattern","240","0",""
"null","478684","HierDyk48nrs4m","sub01 ","01 ","4","feedback","test","null","","","na","","240","",""
"1161","479847","HierDyk48nrs4m","sub01 ","01 ","4","rl","test","83","img/b_c_stripes.png","2","83","color,shape,pattern","241","1",""
"null","480850","HierDyk48nrs4m","sub01 ","01 ","4","feedback","test","null","","","na","","241","",""
"1087","481938","HierDyk48nrs4m","sub01 ","01 ","4","rl","test","74","img/b_c_stripes.png","2","83","color,shape,pattern","242","0",""
"null","482940","HierDyk48nrs4m","sub01 ","01 ","4","feedback","test","null","","","na","","242","",""
"803.9999999999418","483746","HierDyk48nrs4m","sub01 ","01 ","4","rl","test","76","img/r_s_stripes.png","8","76","color,shape,pattern","243","1",""
"null","484747","HierDyk48nrs4m","sub01 ","01 ","4","feedback","test","null","","","na","","243","",""
"1629.0000000000582","486377","HierDyk48nrs4m","sub01 ","01 ","4","rl","test","75","img/r_s_dots.png","7","75","color,shape,pattern","244","1",""
"null","487378","HierDyk48nrs4m","sub01 ","01 ","4","feedback","test","null","","","na","","244","",""
"794","488173","HierDyk48nrs4m","sub01 ","01 ","4","rl","test","68","img/b_s_dots.png","3","68","color,shape,pattern","245","1",""
"null","489176","HierDyk48nrs4m","sub01 ","01 ","4","feedback","test","null","","","na","","245","",""
"860.0000000000582","490038","HierDyk48nrs4m","sub01 ","01 ","4","rl","test","72","img/b_c_dots.png","1","65","color,shape,pattern","246","0",""
"null","491040","HierDyk48nrs4m","sub01 ","01 ","4","feedback","test","null","","","na","","246","",""
"606","491648","HierDyk48nrs4m","sub01 ","01 ","4","rl","test","70","img/b_s_stripes.png","4","70","color,shape,pattern","247","1",""
"null","492649","HierDyk48nrs4m","sub01 ","01 ","4","feedback","test","null","","","na","","247","",""
"757","493407","HierDyk48nrs4m","sub01 ","01 ","4","rl","test","72","img/r_c_dots.png","5","72","color,shape,pattern","248","1",""
"null","494410","HierDyk48nrs4m","sub01 ","01 ","4","feedback","test","null","","","na","","248","",""
"4345","498798","HierDyk48nrs4m","sub01 ","01 ","4","","","","","","","","","","{""Q0"":""5""}"
"382","499188","HierDyk48nrs4m","sub01 ","01 ","4","","","","","","","","","","{""Q0"":""""}"
"1819","501008","HierDyk48nrs4m","sub01 ","01 ","4","","","","","","","","","",""
