"rt","time_elapsed","subject","subID","group","day","trialType","phase","key_press","stim","stimNum","corrresp","hierarchy","trialNum","corr","responses"
"763763","763748","HierDypqe0s0vj","sub05","05","6","","","","","","","","","",""
"","775035","HierDypqe0s0vj","sub05","05","6","fullscreen","","","","","","","","",""
"1507","776544","HierDypqe0s0vj","sub05","05","6","","prac","","","","","","","",""
"1033","777581","HierDypqe0s0vj","sub05","05","6","","","32","","","","","","",""
"2187.9999999998836","779771","HierDypqe0s0vj","sub05","05","6","","prac","","","","","","","",""
"1057","780835","HierDypqe0s0vj","sub05","05","6","rl","test","83","img/p_c_diag.png","2","83","pattern,shape,color","1","1",""
"null","781839","HierDypqe0s0vj","sub05","05","6","feedback","test","null","","","na","","1","",""
"1009","782849","HierDypqe0s0vj","sub05","05","6","rl","test","75","img/b_d_dots.png","7","75","pattern,shape,color","2","1",""
"null","783852","HierDypqe0s0vj","sub05","05","6","feedback","test","null","","","na","","2","",""
"1564","785418","HierDypqe0s0vj","sub05","05","6","rl","test","72","img/b_c_dots.png","5","72","pattern,shape,color","3","1",""
"null","786421","HierDypqe0s0vj","sub05","05","6","feedback","test","null","","","na","","3","",""
"887","787311","HierDypqe0s0vj","sub05","05","6","rl","test","65","img/b_c_diag.png","1","65","pattern,shape,color","4","1",""
"null","788314","HierDypqe0s0vj","sub05","05","6","feedback","test","null","","","na","","4","",""
"747.0000000001164","789063","HierDypqe0s0vj","sub05","05","6","rl","test","70","img/p_d_diag.png","4","70","pattern,shape,color","5","1",""
"null","790066","HierDypqe0s0vj","sub05","05","6","feedback","test","null","","","na","","5","",""
"1480","791547","HierDypqe0s0vj","sub05","05","6","rl","test","74","img/p_c_dots.png","6","74","pattern,shape,color","6","1",""
"null","792551","HierDypqe0s0vj","sub05","05","6","feedback","test","null","","","na","","6","",""
"1060","793612","HierDypqe0s0vj","sub05","05","6","rl","test","68","img/b_d_diag.png","3","68","pattern,shape,color","7","1",""
"null","794615","HierDypqe0s0vj","sub05","05","6","feedback","test","null","","","na","","7","",""
"1469","796086","HierDypqe0s0vj","sub05","05","6","rl","test","74","img/p_c_dots.png","6","74","pattern,shape,color","8","1",""
"null","797090","HierDypqe0s0vj","sub05","05","6","feedback","test","null","","","na","","8","",""
"900","797991","HierDypqe0s0vj","sub05","05","6","rl","test","65","img/b_c_diag.png","1","65","pattern,shape,color","9","1",""
"null","798995","HierDypqe0s0vj","sub05","05","6","feedback","test","null","","","na","","9","",""
"1273","800271","HierDypqe0s0vj","sub05","05","6","rl","test","76","img/p_d_dots.png","8","76","pattern,shape,color","10","1",""
"null","801274","HierDypqe0s0vj","sub05","05","6","feedback","test","null","","","na","","10","",""
"603","801880","HierDypqe0s0vj","sub05","05","6","rl","test","76","img/p_d_dots.png","8","76","pattern,shape,color","11","1",""
"null","802883","HierDypqe0s0vj","sub05","05","6","feedback","test","null","","","na","","11","",""
"819","803703","HierDypqe0s0vj","sub05","05","6","rl","test","68","img/b_d_diag.png","3","68","pattern,shape,color","12","1",""
"null","804707","HierDypqe0s0vj","sub05","05","6","feedback","test","null","","","na","","12","",""
"752","805462","HierDypqe0s0vj","sub05","05","6","rl","test","72","img/b_c_dots.png","5","72","pattern,shape,color","13","1",""
"null","806465","HierDypqe0s0vj","sub05","05","6","feedback","test","null","","","na","","13","",""
"1815","808281","HierDypqe0s0vj","sub05","05","6","rl","test","83","img/p_c_diag.png","2","83","pattern,shape,color","14","1",""
"null","809284","HierDypqe0s0vj","sub05","05","6","feedback","test","null","","","na","","14","",""
"856","810143","HierDypqe0s0vj","sub05","05","6","rl","test","72","img/b_c_dots.png","5","72","pattern,shape,color","15","1",""
"null","811146","HierDypqe0s0vj","sub05","05","6","feedback","test","null","","","na","","15","",""
"1595","812743","HierDypqe0s0vj","sub05","05","6","rl","test","75","img/b_d_dots.png","7","75","pattern,shape,color","16","1",""
"null","813747","HierDypqe0s0vj","sub05","05","6","feedback","test","null","","","na","","16","",""
"918","814667","HierDypqe0s0vj","sub05","05","6","rl","test","70","img/p_d_diag.png","4","70","pattern,shape,color","17","1",""
"null","815671","HierDypqe0s0vj","sub05","05","6","feedback","test","null","","","na","","17","",""
"1058","816731","HierDypqe0s0vj","sub05","05","6","rl","test","83","img/p_c_diag.png","2","83","pattern,shape,color","18","1",""
"null","817735","HierDypqe0s0vj","sub05","05","6","feedback","test","null","","","na","","18","",""
"874.0000000001164","818611","HierDypqe0s0vj","sub05","05","6","rl","test","68","img/b_d_diag.png","3","68","pattern,shape,color","19","1",""
"null","819614","HierDypqe0s0vj","sub05","05","6","feedback","test","null","","","na","","19","",""
"961.0000000001164","820577","HierDypqe0s0vj","sub05","05","6","rl","test","76","img/p_d_dots.png","8","76","pattern,shape,color","20","1",""
"null","821581","HierDypqe0s0vj","sub05","05","6","feedback","test","null","","","na","","20","",""
"1348","822932","HierDypqe0s0vj","sub05","05","6","rl","test","74","img/p_c_dots.png","6","74","pattern,shape,color","21","1",""
"null","823935","HierDypqe0s0vj","sub05","05","6","feedback","test","null","","","na","","21","",""
"1347","825284","HierDypqe0s0vj","sub05","05","6","rl","test","75","img/b_d_dots.png","7","75","pattern,shape,color","22","1",""
"null","826287","HierDypqe0s0vj","sub05","05","6","feedback","test","null","","","na","","22","",""
"1547","827836","HierDypqe0s0vj","sub05","05","6","rl","test","65","img/b_c_diag.png","1","65","pattern,shape,color","23","1",""
"null","828839","HierDypqe0s0vj","sub05","05","6","feedback","test","null","","","na","","23","",""
"2340","831181","HierDypqe0s0vj","sub05","05","6","rl","test","76","img/p_d_dots.png","8","76","pattern,shape,color","24","1",""
"null","832185","HierDypqe0s0vj","sub05","05","6","feedback","test","null","","","na","","24","",""
"870","833056","HierDypqe0s0vj","sub05","05","6","rl","test","70","img/p_d_diag.png","4","70","pattern,shape,color","25","1",""
"null","834059","HierDypqe0s0vj","sub05","05","6","feedback","test","null","","","na","","25","",""
"960","835022","HierDypqe0s0vj","sub05","05","6","rl","test","65","img/b_c_diag.png","1","65","pattern,shape,color","26","1",""
"null","836025","HierDypqe0s0vj","sub05","05","6","feedback","test","null","","","na","","26","",""
"1194","837221","HierDypqe0s0vj","sub05","05","6","rl","test","72","img/b_c_dots.png","5","72","pattern,shape,color","27","1",""
"null","838225","HierDypqe0s0vj","sub05","05","6","feedback","test","null","","","na","","27","",""
"1071.0000000001164","839298","HierDypqe0s0vj","sub05","05","6","rl","test","83","img/p_c_diag.png","2","83","pattern,shape,color","28","1",""
"null","840302","HierDypqe0s0vj","sub05","05","6","feedback","test","null","","","na","","28","",""
"603","840908","HierDypqe0s0vj","sub05","05","6","rl","test","83","img/p_c_diag.png","2","83","pattern,shape,color","29","1",""
"null","841910","HierDypqe0s0vj","sub05","05","6","feedback","test","null","","","na","","29","",""
"698","842611","HierDypqe0s0vj","sub05","05","6","rl","test","68","img/b_d_diag.png","3","68","pattern,shape,color","30","1",""
"null","843613","HierDypqe0s0vj","sub05","05","6","feedback","test","null","","","na","","30","",""
"581","844195","HierDypqe0s0vj","sub05","05","6","rl","test","70","img/p_d_diag.png","4","70","pattern,shape,color","31","1",""
"null","845197","HierDypqe0s0vj","sub05","05","6","feedback","test","null","","","na","","31","",""
"1242","846441","HierDypqe0s0vj","sub05","05","6","rl","test","74","img/p_c_dots.png","6","74","pattern,shape,color","32","1",""
"null","847444","HierDypqe0s0vj","sub05","05","6","feedback","test","null","","","na","","32","",""
"1466","848912","HierDypqe0s0vj","sub05","05","6","rl","test","70","img/p_d_diag.png","4","70","pattern,shape,color","33","1",""
"null","849915","HierDypqe0s0vj","sub05","05","6","feedback","test","null","","","na","","33","",""
"1438","851354","HierDypqe0s0vj","sub05","05","6","rl","test","72","img/b_c_dots.png","5","72","pattern,shape,color","34","1",""
"null","852358","HierDypqe0s0vj","sub05","05","6","feedback","test","null","","","na","","34","",""
"1141","853501","HierDypqe0s0vj","sub05","05","6","rl","test","75","img/b_d_dots.png","7","75","pattern,shape,color","35","1",""
"null","854505","HierDypqe0s0vj","sub05","05","6","feedback","test","null","","","na","","35","",""
"684","855191","HierDypqe0s0vj","sub05","05","6","rl","test","75","img/b_d_dots.png","7","75","pattern,shape,color","36","1",""
"null","856194","HierDypqe0s0vj","sub05","05","6","feedback","test","null","","","na","","36","",""
"1723","857919","HierDypqe0s0vj","sub05","05","6","rl","test","74","img/p_c_dots.png","6","74","pattern,shape,color","37","1",""
"null","858922","HierDypqe0s0vj","sub05","05","6","feedback","test","null","","","na","","37","",""
"977","859901","HierDypqe0s0vj","sub05","05","6","rl","test","76","img/p_d_dots.png","8","76","pattern,shape,color","38","1",""
"null","860904","HierDypqe0s0vj","sub05","05","6","feedback","test","null","","","na","","38","",""
"1018","861924","HierDypqe0s0vj","sub05","05","6","rl","test","68","img/b_d_diag.png","3","68","pattern,shape,color","39","1",""
"null","862928","HierDypqe0s0vj","sub05","05","6","feedback","test","null","","","na","","39","",""
"1474.0000000001164","864404","HierDypqe0s0vj","sub05","05","6","rl","test","65","img/b_c_diag.png","1","65","pattern,shape,color","40","1",""
"null","865407","HierDypqe0s0vj","sub05","05","6","feedback","test","null","","","na","","40","",""
"1110.9999999998836","866520","HierDypqe0s0vj","sub05","05","6","rl","test","76","img/p_d_dots.png","8","76","pattern,shape,color","41","1",""
"null","867523","HierDypqe0s0vj","sub05","05","6","feedback","test","null","","","na","","41","",""
"1914","869439","HierDypqe0s0vj","sub05","05","6","rl","test","72","img/b_c_dots.png","5","72","pattern,shape,color","42","1",""
"null","870442","HierDypqe0s0vj","sub05","05","6","feedback","test","null","","","na","","42","",""
"739","871184","HierDypqe0s0vj","sub05","05","6","rl","test","68","img/b_d_diag.png","3","68","pattern,shape,color","43","1",""
"null","872188","HierDypqe0s0vj","sub05","05","6","feedback","test","null","","","na","","43","",""
"1180","873370","HierDypqe0s0vj","sub05","05","6","rl","test","83","img/p_c_diag.png","2","83","pattern,shape,color","44","1",""
"null","874374","HierDypqe0s0vj","sub05","05","6","feedback","test","null","","","na","","44","",""
"1081.0000000001164","875457","HierDypqe0s0vj","sub05","05","6","rl","test","75","img/b_d_dots.png","7","75","pattern,shape,color","45","1",""
"null","876460","HierDypqe0s0vj","sub05","05","6","feedback","test","null","","","na","","45","",""
"962","877425","HierDypqe0s0vj","sub05","05","6","rl","test","65","img/b_c_diag.png","1","65","pattern,shape,color","46","1",""
"null","878429","HierDypqe0s0vj","sub05","05","6","feedback","test","null","","","na","","46","",""
"880","879311","HierDypqe0s0vj","sub05","05","6","rl","test","74","img/p_c_dots.png","6","74","pattern,shape,color","47","1",""
"null","880314","HierDypqe0s0vj","sub05","05","6","feedback","test","null","","","na","","47","",""
"711","881027","HierDypqe0s0vj","sub05","05","6","rl","test","70","img/p_d_diag.png","4","70","pattern,shape,color","48","1",""
"null","882030","HierDypqe0s0vj","sub05","05","6","feedback","test","null","","","na","","48","",""
"1213","883245","HierDypqe0s0vj","sub05","05","6","rl","test","74","img/p_c_dots.png","6","74","pattern,shape,color","49","1",""
"null","884248","HierDypqe0s0vj","sub05","05","6","feedback","test","null","","","na","","49","",""
"1128.9999999998836","885379","HierDypqe0s0vj","sub05","05","6","rl","test","65","img/b_c_diag.png","1","65","pattern,shape,color","50","1",""
"null","886382","HierDypqe0s0vj","sub05","05","6","feedback","test","null","","","na","","50","",""
"744","887128","HierDypqe0s0vj","sub05","05","6","rl","test","68","img/b_d_diag.png","3","68","pattern,shape,color","51","1",""
"null","888131","HierDypqe0s0vj","sub05","05","6","feedback","test","null","","","na","","51","",""
"1263","889396","HierDypqe0s0vj","sub05","05","6","rl","test","75","img/b_d_dots.png","7","75","pattern,shape,color","52","1",""
"null","890399","HierDypqe0s0vj","sub05","05","6","feedback","test","null","","","na","","52","",""
"1369","891770","HierDypqe0s0vj","sub05","05","6","rl","test","76","img/p_d_dots.png","8","76","pattern,shape,color","53","1",""
"null","892773","HierDypqe0s0vj","sub05","05","6","feedback","test","null","","","na","","53","",""
"992","893766","HierDypqe0s0vj","sub05","05","6","rl","test","70","img/p_d_diag.png","4","70","pattern,shape,color","54","1",""
"null","894768","HierDypqe0s0vj","sub05","05","6","feedback","test","null","","","na","","54","",""
"1835","896605","HierDypqe0s0vj","sub05","05","6","rl","test","83","img/p_c_diag.png","2","83","pattern,shape,color","55","1",""
"null","897608","HierDypqe0s0vj","sub05","05","6","feedback","test","null","","","na","","55","",""
"1355","898964","HierDypqe0s0vj","sub05","05","6","rl","test","76","img/p_d_dots.png","8","76","pattern,shape,color","56","1",""
"null","899967","HierDypqe0s0vj","sub05","05","6","feedback","test","null","","","na","","56","",""
"1499","901468","HierDypqe0s0vj","sub05","05","6","rl","test","72","img/b_c_dots.png","5","72","pattern,shape,color","57","1",""
"null","902470","HierDypqe0s0vj","sub05","05","6","feedback","test","null","","","na","","57","",""
"523","902996","HierDypqe0s0vj","sub05","05","6","rl","test","72","img/b_c_dots.png","5","72","pattern,shape,color","58","1",""
"null","903999","HierDypqe0s0vj","sub05","05","6","feedback","test","null","","","na","","58","",""
"1385","905386","HierDypqe0s0vj","sub05","05","6","rl","test","83","img/p_d_diag.png","4","70","pattern,shape,color","59","0",""
"null","906389","HierDypqe0s0vj","sub05","05","6","feedback","test","null","","","na","","59","",""
"2250","908642","HierDypqe0s0vj","sub05","05","6","rl","test","75","img/b_d_dots.png","7","75","pattern,shape,color","60","1",""
"null","909646","HierDypqe0s0vj","sub05","05","6","feedback","test","null","","","na","","60","",""
"1354","911002","HierDypqe0s0vj","sub05","05","6","rl","test","74","img/p_c_dots.png","6","74","pattern,shape,color","61","1",""
"null","912006","HierDypqe0s0vj","sub05","05","6","feedback","test","null","","","na","","61","",""
"1545.0000000001164","913553","HierDypqe0s0vj","sub05","05","6","rl","test","83","img/p_c_diag.png","2","83","pattern,shape,color","62","1",""
"null","914556","HierDypqe0s0vj","sub05","05","6","feedback","test","null","","","na","","62","",""
"863.9999999998836","915422","HierDypqe0s0vj","sub05","05","6","rl","test","65","img/b_c_diag.png","1","65","pattern,shape,color","63","1",""
"null","916425","HierDypqe0s0vj","sub05","05","6","feedback","test","null","","","na","","63","",""
"840","917267","HierDypqe0s0vj","sub05","05","6","rl","test","68","img/b_d_diag.png","3","68","pattern,shape,color","64","1",""
"null","918270","HierDypqe0s0vj","sub05","05","6","feedback","test","null","","","na","","64","",""
"919","919192","HierDypqe0s0vj","sub05","05","6","rl","test","68","img/b_d_diag.png","3","68","pattern,shape,color","65","1",""
"null","920196","HierDypqe0s0vj","sub05","05","6","feedback","test","null","","","na","","65","",""
"1586.0000000001164","921784","HierDypqe0s0vj","sub05","05","6","rl","test","76","img/p_d_dots.png","8","76","pattern,shape,color","66","1",""
"null","922787","HierDypqe0s0vj","sub05","05","6","feedback","test","null","","","na","","66","",""
"1421","924210","HierDypqe0s0vj","sub05","05","6","rl","test","65","img/b_c_diag.png","1","65","pattern,shape,color","67","1",""
"null","925213","HierDypqe0s0vj","sub05","05","6","feedback","test","null","","","na","","67","",""
"800","926015","HierDypqe0s0vj","sub05","05","6","rl","test","70","img/p_d_diag.png","4","70","pattern,shape,color","68","1",""
"null","927018","HierDypqe0s0vj","sub05","05","6","feedback","test","null","","","na","","68","",""
"1102","928123","HierDypqe0s0vj","sub05","05","6","rl","test","72","img/b_c_dots.png","5","72","pattern,shape,color","69","1",""
"null","929126","HierDypqe0s0vj","sub05","05","6","feedback","test","null","","","na","","69","",""
"1195","930323","HierDypqe0s0vj","sub05","05","6","rl","test","75","img/b_d_dots.png","7","75","pattern,shape,color","70","1",""
"null","931327","HierDypqe0s0vj","sub05","05","6","feedback","test","null","","","na","","70","",""
"851","932180","HierDypqe0s0vj","sub05","05","6","rl","test","76","img/p_d_dots.png","8","76","pattern,shape,color","71","1",""
"null","933183","HierDypqe0s0vj","sub05","05","6","feedback","test","null","","","na","","71","",""
"2097","935281","HierDypqe0s0vj","sub05","05","6","rl","test","75","img/b_d_dots.png","7","75","pattern,shape,color","72","1",""
"null","936284","HierDypqe0s0vj","sub05","05","6","feedback","test","null","","","na","","72","",""
"1297","937583","HierDypqe0s0vj","sub05","05","6","rl","test","83","img/p_c_diag.png","2","83","pattern,shape,color","73","1",""
"null","938587","HierDypqe0s0vj","sub05","05","6","feedback","test","null","","","na","","73","",""
"1328","939916","HierDypqe0s0vj","sub05","05","6","rl","test","74","img/p_c_dots.png","6","74","pattern,shape,color","74","1",""
"null","940919","HierDypqe0s0vj","sub05","05","6","feedback","test","null","","","na","","74","",""
"2064","942985","HierDypqe0s0vj","sub05","05","6","rl","test","72","img/b_c_dots.png","5","72","pattern,shape,color","75","1",""
"null","943988","HierDypqe0s0vj","sub05","05","6","feedback","test","null","","","na","","75","",""
"890","944881","HierDypqe0s0vj","sub05","05","6","rl","test","83","img/p_c_diag.png","2","83","pattern,shape,color","76","1",""
"null","945884","HierDypqe0s0vj","sub05","05","6","feedback","test","null","","","na","","76","",""
"795","946681","HierDypqe0s0vj","sub05","05","6","rl","test","70","img/p_d_diag.png","4","70","pattern,shape,color","77","1",""
"null","947685","HierDypqe0s0vj","sub05","05","6","feedback","test","null","","","na","","77","",""
"974","948660","HierDypqe0s0vj","sub05","05","6","rl","test","74","img/p_c_dots.png","6","74","pattern,shape,color","78","1",""
"null","949664","HierDypqe0s0vj","sub05","05","6","feedback","test","null","","","na","","78","",""
"839.0000000001164","950505","HierDypqe0s0vj","sub05","05","6","rl","test","68","img/b_d_diag.png","3","68","pattern,shape,color","79","1",""
"null","951508","HierDypqe0s0vj","sub05","05","6","feedback","test","null","","","na","","79","",""
"956","952466","HierDypqe0s0vj","sub05","05","6","rl","test","75","img/b_d_dots.png","7","75","pattern,shape,color","80","1",""
"null","953470","HierDypqe0s0vj","sub05","05","6","feedback","test","null","","","na","","80","",""
"743","954215","HierDypqe0s0vj","sub05","05","6","rl","test","65","img/b_c_diag.png","1","65","pattern,shape,color","81","1",""
"null","955218","HierDypqe0s0vj","sub05","05","6","feedback","test","null","","","na","","81","",""
"1175.9999999998836","956396","HierDypqe0s0vj","sub05","05","6","rl","test","70","img/p_d_diag.png","4","70","pattern,shape,color","82","1",""
"null","957399","HierDypqe0s0vj","sub05","05","6","feedback","test","null","","","na","","82","",""
"1535","958936","HierDypqe0s0vj","sub05","05","6","rl","test","65","img/b_c_diag.png","1","65","pattern,shape,color","83","1",""
"null","959939","HierDypqe0s0vj","sub05","05","6","feedback","test","null","","","na","","83","",""
"533","960474","HierDypqe0s0vj","sub05","05","6","rl","test","65","img/b_c_diag.png","1","65","pattern,shape,color","84","1",""
"null","961477","HierDypqe0s0vj","sub05","05","6","feedback","test","null","","","na","","84","",""
"1398","962877","HierDypqe0s0vj","sub05","05","6","rl","test","74","img/p_c_dots.png","6","74","pattern,shape,color","85","1",""
"null","963880","HierDypqe0s0vj","sub05","05","6","feedback","test","null","","","na","","85","",""
"924","964806","HierDypqe0s0vj","sub05","05","6","rl","test","76","img/p_d_dots.png","8","76","pattern,shape,color","86","1",""
"null","965809","HierDypqe0s0vj","sub05","05","6","feedback","test","null","","","na","","86","",""
"null","968312","HierDypqe0s0vj","sub05","05","6","rl","test","null","img/b_c_dots.png","5","72","pattern,shape,color","87","0",""
"null","969316","HierDypqe0s0vj","sub05","05","6","feedback","test","null","","","na","","87","",""
"1741","971059","HierDypqe0s0vj","sub05","05","6","rl","test","83","img/p_c_diag.png","2","83","pattern,shape,color","88","1",""
"null","972062","HierDypqe0s0vj","sub05","05","6","feedback","test","null","","","na","","88","",""
"979","973043","HierDypqe0s0vj","sub05","05","6","rl","test","68","img/b_d_diag.png","3","68","pattern,shape,color","89","1",""
"null","974046","HierDypqe0s0vj","sub05","05","6","feedback","test","null","","","na","","89","",""
"1023.0000000001164","975071","HierDypqe0s0vj","sub05","05","6","rl","test","72","img/b_c_dots.png","5","72","pattern,shape,color","90","1",""
"null","976074","HierDypqe0s0vj","sub05","05","6","feedback","test","null","","","na","","90","",""
"1048.9999999998836","977125","HierDypqe0s0vj","sub05","05","6","rl","test","75","img/b_d_dots.png","7","75","pattern,shape,color","91","1",""
"null","978127","HierDypqe0s0vj","sub05","05","6","feedback","test","null","","","na","","91","",""
"1729.9999999998836","979859","HierDypqe0s0vj","sub05","05","6","rl","test","76","img/p_d_dots.png","8","76","pattern,shape,color","92","1",""
"null","980861","HierDypqe0s0vj","sub05","05","6","feedback","test","null","","","na","","92","",""
"1008","981871","HierDypqe0s0vj","sub05","05","6","rl","test","68","img/b_d_diag.png","3","68","pattern,shape,color","93","1",""
"null","982874","HierDypqe0s0vj","sub05","05","6","feedback","test","null","","","na","","93","",""
"1183","984059","HierDypqe0s0vj","sub05","05","6","rl","test","74","img/p_c_dots.png","6","74","pattern,shape,color","94","1",""
"null","985062","HierDypqe0s0vj","sub05","05","6","feedback","test","null","","","na","","94","",""
"616","985679","HierDypqe0s0vj","sub05","05","6","rl","test","70","img/p_d_diag.png","4","70","pattern,shape,color","95","1",""
"null","986682","HierDypqe0s0vj","sub05","05","6","feedback","test","null","","","na","","95","",""
"1613","988296","HierDypqe0s0vj","sub05","05","6","rl","test","83","img/p_c_diag.png","2","83","pattern,shape,color","96","1",""
"null","989298","HierDypqe0s0vj","sub05","05","6","feedback","test","null","","","na","","96","",""
"1987","991286","HierDypqe0s0vj","sub05","05","6","rl","test","74","img/p_c_dots.png","6","74","pattern,shape,color","97","1",""
"null","992288","HierDypqe0s0vj","sub05","05","6","feedback","test","null","","","na","","97","",""
"1002","993292","HierDypqe0s0vj","sub05","05","6","rl","test","68","img/b_d_diag.png","3","68","pattern,shape,color","98","1",""
"null","994294","HierDypqe0s0vj","sub05","05","6","feedback","test","null","","","na","","98","",""
"1638","995934","HierDypqe0s0vj","sub05","05","6","rl","test","65","img/b_c_diag.png","1","65","pattern,shape,color","99","1",""
"null","996937","HierDypqe0s0vj","sub05","05","6","feedback","test","null","","","na","","99","",""
"1400","998338","HierDypqe0s0vj","sub05","05","6","rl","test","83","img/p_c_diag.png","2","83","pattern,shape,color","100","1",""
"null","999341","HierDypqe0s0vj","sub05","05","6","feedback","test","null","","","na","","100","",""
"630","999973","HierDypqe0s0vj","sub05","05","6","rl","test","83","img/p_c_diag.png","2","83","pattern,shape,color","101","1",""
"null","1000976","HierDypqe0s0vj","sub05","05","6","feedback","test","null","","","na","","101","",""
"904","1001881","HierDypqe0s0vj","sub05","05","6","rl","test","70","img/p_d_diag.png","4","70","pattern,shape,color","102","1",""
"null","1002883","HierDypqe0s0vj","sub05","05","6","feedback","test","null","","","na","","102","",""
"1147","1004032","HierDypqe0s0vj","sub05","05","6","rl","test","75","img/b_d_dots.png","7","75","pattern,shape,color","103","1",""
"null","1005034","HierDypqe0s0vj","sub05","05","6","feedback","test","null","","","na","","103","",""
"2236","1007272","HierDypqe0s0vj","sub05","05","6","rl","test","72","img/b_c_dots.png","5","72","pattern,shape,color","104","1",""
"null","1008275","HierDypqe0s0vj","sub05","05","6","feedback","test","null","","","na","","104","",""
"815","1009091","HierDypqe0s0vj","sub05","05","6","rl","test","76","img/p_d_dots.png","8","76","pattern,shape,color","105","1",""
"null","1010094","HierDypqe0s0vj","sub05","05","6","feedback","test","null","","","na","","105","",""
"1709.9999999998836","1011805","HierDypqe0s0vj","sub05","05","6","rl","test","72","img/b_c_dots.png","5","72","pattern,shape,color","106","1",""
"null","1012808","HierDypqe0s0vj","sub05","05","6","feedback","test","null","","","na","","106","",""
"2394","1015204","HierDypqe0s0vj","sub05","05","6","rl","test","65","img/b_c_diag.png","1","65","pattern,shape,color","107","1",""
"null","1016207","HierDypqe0s0vj","sub05","05","6","feedback","test","null","","","na","","107","",""
"1092","1017301","HierDypqe0s0vj","sub05","05","6","rl","test","68","img/b_d_diag.png","3","68","pattern,shape,color","108","1",""
"null","1018304","HierDypqe0s0vj","sub05","05","6","feedback","test","null","","","na","","108","",""
"1060","1019366","HierDypqe0s0vj","sub05","05","6","rl","test","75","img/b_d_dots.png","7","75","pattern,shape,color","109","1",""
"null","1020369","HierDypqe0s0vj","sub05","05","6","feedback","test","null","","","na","","109","",""
"2473","1022845","HierDypqe0s0vj","sub05","05","6","rl","test","76","img/p_d_dots.png","8","76","pattern,shape,color","110","1",""
"null","1023849","HierDypqe0s0vj","sub05","05","6","feedback","test","null","","","na","","110","",""
"null","1026352","HierDypqe0s0vj","sub05","05","6","rl","test","null","img/p_c_dots.png","6","74","pattern,shape,color","111","0",""
"null","1027355","HierDypqe0s0vj","sub05","05","6","feedback","test","null","","","na","","111","",""
"585.9999999997672","1027943","HierDypqe0s0vj","sub05","05","6","rl","test","74","img/p_c_dots.png","6","74","pattern,shape,color","112","1",""
"null","1028946","HierDypqe0s0vj","sub05","05","6","feedback","test","null","","","na","","112","",""
"1011","1029959","HierDypqe0s0vj","sub05","05","6","rl","test","70","img/p_d_diag.png","4","70","pattern,shape,color","113","1",""
"null","1030962","HierDypqe0s0vj","sub05","05","6","feedback","test","null","","","na","","113","",""
"1882.9999999997672","1032846","HierDypqe0s0vj","sub05","05","6","rl","test","65","img/b_c_diag.png","1","65","pattern,shape,color","114","1",""
"null","1033850","HierDypqe0s0vj","sub05","05","6","feedback","test","null","","","na","","114","",""
"910.0000000001164","1034762","HierDypqe0s0vj","sub05","05","6","rl","test","70","img/p_d_diag.png","4","70","pattern,shape,color","115","1",""
"null","1035765","HierDypqe0s0vj","sub05","05","6","feedback","test","null","","","na","","115","",""
"null","1038268","HierDypqe0s0vj","sub05","05","6","rl","test","null","img/p_c_diag.png","2","83","pattern,shape,color","116","0",""
"null","1039271","HierDypqe0s0vj","sub05","05","6","feedback","test","null","","","na","","116","",""
"1406.9999999998836","1040680","HierDypqe0s0vj","sub05","05","6","rl","test","68","img/b_d_diag.png","3","68","pattern,shape,color","117","1",""
"null","1041682","HierDypqe0s0vj","sub05","05","6","feedback","test","null","","","na","","117","",""
"1739.9999999997672","1043424","HierDypqe0s0vj","sub05","05","6","rl","test","76","img/p_d_dots.png","8","76","pattern,shape,color","118","1",""
"null","1044428","HierDypqe0s0vj","sub05","05","6","feedback","test","null","","","na","","118","",""
"1714","1046144","HierDypqe0s0vj","sub05","05","6","rl","test","75","img/b_d_dots.png","7","75","pattern,shape,color","119","1",""
"null","1047147","HierDypqe0s0vj","sub05","05","6","feedback","test","null","","","na","","119","",""
"1884","1049034","HierDypqe0s0vj","sub05","05","6","rl","test","72","img/b_c_dots.png","5","72","pattern,shape,color","120","1",""
"null","1050037","HierDypqe0s0vj","sub05","05","6","feedback","test","null","","","na","","120","",""
"null","1052540","HierDypqe0s0vj","sub05","05","6","rl","test","null","img/p_d_dots.png","8","76","pattern,shape,color","121","0",""
"null","1053544","HierDypqe0s0vj","sub05","05","6","feedback","test","null","","","na","","121","",""
"1318","1054864","HierDypqe0s0vj","sub05","05","6","rl","test","72","img/b_c_dots.png","5","72","pattern,shape,color","122","1",""
"null","1055867","HierDypqe0s0vj","sub05","05","6","feedback","test","null","","","na","","122","",""
"1572","1057441","HierDypqe0s0vj","sub05","05","6","rl","test","74","img/p_c_dots.png","6","74","pattern,shape,color","123","1",""
"null","1058444","HierDypqe0s0vj","sub05","05","6","feedback","test","null","","","na","","123","",""
"1759","1060205","HierDypqe0s0vj","sub05","05","6","rl","test","76","img/p_d_diag.png","4","70","pattern,shape,color","124","0",""
"null","1061208","HierDypqe0s0vj","sub05","05","6","feedback","test","null","","","na","","124","",""
"2163","1063373","HierDypqe0s0vj","sub05","05","6","rl","test","75","img/b_d_dots.png","7","75","pattern,shape,color","125","1",""
"null","1064376","HierDypqe0s0vj","sub05","05","6","feedback","test","null","","","na","","125","",""
"2029","1066408","HierDypqe0s0vj","sub05","05","6","rl","test","65","img/b_c_diag.png","1","65","pattern,shape,color","126","1",""
"null","1067411","HierDypqe0s0vj","sub05","05","6","feedback","test","null","","","na","","126","",""
"null","1069914","HierDypqe0s0vj","sub05","05","6","rl","test","null","img/b_d_diag.png","3","68","pattern,shape,color","127","0",""
"null","1070917","HierDypqe0s0vj","sub05","05","6","feedback","test","null","","","na","","127","",""
"1576","1072495","HierDypqe0s0vj","sub05","05","6","rl","test","74","img/b_d_dots.png","7","75","pattern,shape,color","128","0",""
"null","1073498","HierDypqe0s0vj","sub05","05","6","feedback","test","null","","","na","","128","",""
"2300","1075800","HierDypqe0s0vj","sub05","05","6","rl","test","83","img/p_c_diag.png","2","83","pattern,shape,color","129","1",""
"null","1076803","HierDypqe0s0vj","sub05","05","6","feedback","test","null","","","na","","129","",""
"824","1077630","HierDypqe0s0vj","sub05","05","6","rl","test","65","img/b_c_diag.png","1","65","pattern,shape,color","130","1",""
"null","1078634","HierDypqe0s0vj","sub05","05","6","feedback","test","null","","","na","","130","",""
"882.9999999997672","1079519","HierDypqe0s0vj","sub05","05","6","rl","test","70","img/p_d_diag.png","4","70","pattern,shape,color","131","1",""
"null","1080522","HierDypqe0s0vj","sub05","05","6","feedback","test","null","","","na","","131","",""
"1834","1082358","HierDypqe0s0vj","sub05","05","6","rl","test","68","img/b_d_diag.png","3","68","pattern,shape,color","132","1",""
"null","1083361","HierDypqe0s0vj","sub05","05","6","feedback","test","null","","","na","","132","",""
"1838","1085200","HierDypqe0s0vj","sub05","05","6","rl","test","76","img/p_d_dots.png","8","76","pattern,shape,color","133","1",""
"null","1086204","HierDypqe0s0vj","sub05","05","6","feedback","test","null","","","na","","133","",""
"1590","1087796","HierDypqe0s0vj","sub05","05","6","rl","test","83","img/p_c_diag.png","2","83","pattern,shape,color","134","1",""
"null","1088799","HierDypqe0s0vj","sub05","05","6","feedback","test","null","","","na","","134","",""
"null","1091302","HierDypqe0s0vj","sub05","05","6","rl","test","null","img/b_c_dots.png","5","72","pattern,shape,color","135","0",""
"null","1092306","HierDypqe0s0vj","sub05","05","6","feedback","test","null","","","na","","135","",""
"639","1092947","HierDypqe0s0vj","sub05","05","6","rl","test","74","img/b_c_dots.png","5","72","pattern,shape,color","136","0",""
"null","1093950","HierDypqe0s0vj","sub05","05","6","feedback","test","null","","","na","","136","",""
"1952","1095905","HierDypqe0s0vj","sub05","05","6","rl","test","74","img/p_c_dots.png","6","74","pattern,shape,color","137","1",""
"null","1096908","HierDypqe0s0vj","sub05","05","6","feedback","test","null","","","na","","137","",""
"2114","1099025","HierDypqe0s0vj","sub05","05","6","rl","test","65","img/b_c_diag.png","1","65","pattern,shape,color","138","1",""
"null","1100028","HierDypqe0s0vj","sub05","05","6","feedback","test","null","","","na","","138","",""
"2140","1102171","HierDypqe0s0vj","sub05","05","6","rl","test","76","img/p_c_dots.png","6","74","pattern,shape,color","139","0",""
"null","1103174","HierDypqe0s0vj","sub05","05","6","feedback","test","null","","","na","","139","",""
"1137","1104313","HierDypqe0s0vj","sub05","05","6","rl","test","76","img/p_d_dots.png","8","76","pattern,shape,color","140","1",""
"null","1105317","HierDypqe0s0vj","sub05","05","6","feedback","test","null","","","na","","140","",""
"1935.9999999997672","1107254","HierDypqe0s0vj","sub05","05","6","rl","test","68","img/b_d_diag.png","3","68","pattern,shape,color","141","1",""
"null","1108257","HierDypqe0s0vj","sub05","05","6","feedback","test","null","","","na","","141","",""
"1428","1109687","HierDypqe0s0vj","sub05","05","6","rl","test","70","img/p_d_diag.png","4","70","pattern,shape,color","142","1",""
"null","1110691","HierDypqe0s0vj","sub05","05","6","feedback","test","null","","","na","","142","",""
"2347.999999999767","1113041","HierDypqe0s0vj","sub05","05","6","rl","test","75","img/b_d_dots.png","7","75","pattern,shape,color","143","1",""
"null","1114045","HierDypqe0s0vj","sub05","05","6","feedback","test","null","","","na","","143","",""
"1479","1115525","HierDypqe0s0vj","sub05","05","6","rl","test","65","img/b_c_diag.png","1","65","pattern,shape,color","144","1",""
"null","1116528","HierDypqe0s0vj","sub05","05","6","feedback","test","null","","","na","","144","",""
"1781","1118312","HierDypqe0s0vj","sub05","05","6","rl","test","68","img/b_d_diag.png","3","68","pattern,shape,color","145","1",""
"null","1119316","HierDypqe0s0vj","sub05","05","6","feedback","test","null","","","na","","145","",""
"1327","1120645","HierDypqe0s0vj","sub05","05","6","rl","test","83","img/p_c_diag.png","2","83","pattern,shape,color","146","1",""
"null","1121648","HierDypqe0s0vj","sub05","05","6","feedback","test","null","","","na","","146","",""
"867","1122517","HierDypqe0s0vj","sub05","05","6","rl","test","83","img/p_c_diag.png","2","83","pattern,shape,color","147","1",""
"null","1123520","HierDypqe0s0vj","sub05","05","6","feedback","test","null","","","na","","147","",""
"null","1126024","HierDypqe0s0vj","sub05","05","6","rl","test","null","img/p_d_dots.png","8","76","pattern,shape,color","148","0",""
"null","1127027","HierDypqe0s0vj","sub05","05","6","feedback","test","null","","","na","","148","",""
"668.9999999997672","1127698","HierDypqe0s0vj","sub05","05","6","rl","test","75","img/b_d_dots.png","7","75","pattern,shape,color","149","1",""
"null","1128701","HierDypqe0s0vj","sub05","05","6","feedback","test","null","","","na","","149","",""
"1277.9999999997672","1129981","HierDypqe0s0vj","sub05","05","6","rl","test","65","img/p_c_diag.png","2","83","pattern,shape,color","150","0",""
"null","1130984","HierDypqe0s0vj","sub05","05","6","feedback","test","null","","","na","","150","",""
"1209","1132195","HierDypqe0s0vj","sub05","05","6","rl","test","72","img/b_c_dots.png","5","72","pattern,shape,color","151","1",""
"null","1133199","HierDypqe0s0vj","sub05","05","6","feedback","test","null","","","na","","151","",""
"689","1133890","HierDypqe0s0vj","sub05","05","6","rl","test","70","img/p_d_diag.png","4","70","pattern,shape,color","152","1",""
"null","1134894","HierDypqe0s0vj","sub05","05","6","feedback","test","null","","","na","","152","",""
"1236","1136132","HierDypqe0s0vj","sub05","05","6","rl","test","74","img/p_c_dots.png","6","74","pattern,shape,color","153","1",""
"null","1137136","HierDypqe0s0vj","sub05","05","6","feedback","test","null","","","na","","153","",""
"1250","1138388","HierDypqe0s0vj","sub05","05","6","rl","test","68","img/b_d_diag.png","3","68","pattern,shape,color","154","1",""
"null","1139391","HierDypqe0s0vj","sub05","05","6","feedback","test","null","","","na","","154","",""
"865","1140259","HierDypqe0s0vj","sub05","05","6","rl","test","70","img/p_d_diag.png","4","70","pattern,shape,color","155","1",""
"null","1141262","HierDypqe0s0vj","sub05","05","6","feedback","test","null","","","na","","155","",""
"1928","1143192","HierDypqe0s0vj","sub05","05","6","rl","test","75","img/b_c_dots.png","5","72","pattern,shape,color","156","0",""
"null","1144195","HierDypqe0s0vj","sub05","05","6","feedback","test","null","","","na","","156","",""
"1069","1145266","HierDypqe0s0vj","sub05","05","6","rl","test","74","img/p_c_dots.png","6","74","pattern,shape,color","157","1",""
"null","1146269","HierDypqe0s0vj","sub05","05","6","feedback","test","null","","","na","","157","",""
"1663","1147934","HierDypqe0s0vj","sub05","05","6","rl","test","75","img/b_d_dots.png","7","75","pattern,shape,color","158","1",""
"null","1148937","HierDypqe0s0vj","sub05","05","6","feedback","test","null","","","na","","158","",""
"1499","1150439","HierDypqe0s0vj","sub05","05","6","rl","test","65","img/b_c_diag.png","1","65","pattern,shape,color","159","1",""
"null","1151442","HierDypqe0s0vj","sub05","05","6","feedback","test","null","","","na","","159","",""
"1281","1152725","HierDypqe0s0vj","sub05","05","6","rl","test","75","img/b_d_dots.png","7","75","pattern,shape,color","160","1",""
"null","1153729","HierDypqe0s0vj","sub05","05","6","feedback","test","null","","","na","","160","",""
"873.9999999997672","1154605","HierDypqe0s0vj","sub05","05","6","rl","test","76","img/p_d_dots.png","8","76","pattern,shape,color","161","1",""
"null","1155608","HierDypqe0s0vj","sub05","05","6","feedback","test","null","","","na","","161","",""
"864","1156475","HierDypqe0s0vj","sub05","05","6","rl","test","76","img/p_d_dots.png","8","76","pattern,shape,color","162","1",""
"null","1157478","HierDypqe0s0vj","sub05","05","6","feedback","test","null","","","na","","162","",""
"893","1158373","HierDypqe0s0vj","sub05","05","6","rl","test","72","img/b_c_dots.png","5","72","pattern,shape,color","163","1",""
"null","1159377","HierDypqe0s0vj","sub05","05","6","feedback","test","null","","","na","","163","",""
"831","1160210","HierDypqe0s0vj","sub05","05","6","rl","test","83","img/b_c_diag.png","1","65","pattern,shape,color","164","0",""
"null","1161214","HierDypqe0s0vj","sub05","05","6","feedback","test","null","","","na","","164","",""
"610","1161826","HierDypqe0s0vj","sub05","05","6","rl","test","83","img/p_c_diag.png","2","83","pattern,shape,color","165","1",""
"null","1162830","HierDypqe0s0vj","sub05","05","6","feedback","test","null","","","na","","165","",""
"790","1163622","HierDypqe0s0vj","sub05","05","6","rl","test","68","img/p_d_diag.png","4","70","pattern,shape,color","166","0",""
"null","1164626","HierDypqe0s0vj","sub05","05","6","feedback","test","null","","","na","","166","",""
"694","1165323","HierDypqe0s0vj","sub05","05","6","rl","test","68","img/b_d_diag.png","3","68","pattern,shape,color","167","1",""
"null","1166326","HierDypqe0s0vj","sub05","05","6","feedback","test","null","","","na","","167","",""
"1145","1167473","HierDypqe0s0vj","sub05","05","6","rl","test","74","img/p_c_dots.png","6","74","pattern,shape,color","168","1",""
"null","1168477","HierDypqe0s0vj","sub05","05","6","feedback","test","null","","","na","","168","",""
"949","1169428","HierDypqe0s0vj","sub05","05","6","rl","test","68","img/b_d_diag.png","3","68","pattern,shape,color","169","1",""
"null","1170432","HierDypqe0s0vj","sub05","05","6","feedback","test","null","","","na","","169","",""
"925","1171359","HierDypqe0s0vj","sub05","05","6","rl","test","72","img/b_c_dots.png","5","72","pattern,shape,color","170","1",""
"null","1172362","HierDypqe0s0vj","sub05","05","6","feedback","test","null","","","na","","170","",""
"1317","1173682","HierDypqe0s0vj","sub05","05","6","rl","test","74","img/p_c_dots.png","6","74","pattern,shape,color","171","1",""
"null","1174686","HierDypqe0s0vj","sub05","05","6","feedback","test","null","","","na","","171","",""
"850","1175538","HierDypqe0s0vj","sub05","05","6","rl","test","75","img/b_d_dots.png","7","75","pattern,shape,color","172","1",""
"null","1176542","HierDypqe0s0vj","sub05","05","6","feedback","test","null","","","na","","172","",""
"953","1177497","HierDypqe0s0vj","sub05","05","6","rl","test","83","img/p_c_diag.png","2","83","pattern,shape,color","173","1",""
"null","1178501","HierDypqe0s0vj","sub05","05","6","feedback","test","null","","","na","","173","",""
"1646","1180149","HierDypqe0s0vj","sub05","05","6","rl","test","65","img/b_c_diag.png","1","65","pattern,shape,color","174","1",""
"null","1181151","HierDypqe0s0vj","sub05","05","6","feedback","test","null","","","na","","174","",""
"752","1181904","HierDypqe0s0vj","sub05","05","6","rl","test","65","img/b_c_diag.png","1","65","pattern,shape,color","175","1",""
"null","1182907","HierDypqe0s0vj","sub05","05","6","feedback","test","null","","","na","","175","",""
"1586","1184495","HierDypqe0s0vj","sub05","05","6","rl","test","76","img/p_d_dots.png","8","76","pattern,shape,color","176","1",""
"null","1185497","HierDypqe0s0vj","sub05","05","6","feedback","test","null","","","na","","176","",""
"1807","1187306","HierDypqe0s0vj","sub05","05","6","rl","test","83","img/p_c_diag.png","2","83","pattern,shape,color","177","1",""
"null","1188309","HierDypqe0s0vj","sub05","05","6","feedback","test","null","","","na","","177","",""
"1157","1189468","HierDypqe0s0vj","sub05","05","6","rl","test","70","img/p_d_diag.png","4","70","pattern,shape,color","178","1",""
"null","1190471","HierDypqe0s0vj","sub05","05","6","feedback","test","null","","","na","","178","",""
"556.0000000002328","1191029","HierDypqe0s0vj","sub05","05","6","rl","test","70","img/p_d_diag.png","4","70","pattern,shape,color","179","1",""
"null","1192032","HierDypqe0s0vj","sub05","05","6","feedback","test","null","","","na","","179","",""
"1173","1193207","HierDypqe0s0vj","sub05","05","6","rl","test","76","img/p_d_dots.png","8","76","pattern,shape,color","180","1",""
"null","1194211","HierDypqe0s0vj","sub05","05","6","feedback","test","null","","","na","","180","",""
"1720.0000000002328","1195933","HierDypqe0s0vj","sub05","05","6","rl","test","83","img/b_c_diag.png","1","65","pattern,shape,color","181","0",""
"null","1196936","HierDypqe0s0vj","sub05","05","6","feedback","test","null","","","na","","181","",""
"1474","1198411","HierDypqe0s0vj","sub05","05","6","rl","test","75","img/b_d_dots.png","7","75","pattern,shape,color","182","1",""
"null","1199415","HierDypqe0s0vj","sub05","05","6","feedback","test","null","","","na","","182","",""
"1255","1200672","HierDypqe0s0vj","sub05","05","6","rl","test","72","img/b_c_dots.png","5","72","pattern,shape,color","183","1",""
"null","1201675","HierDypqe0s0vj","sub05","05","6","feedback","test","null","","","na","","183","",""
"1202","1202878","HierDypqe0s0vj","sub05","05","6","rl","test","68","img/b_d_diag.png","3","68","pattern,shape,color","184","1",""
"null","1203881","HierDypqe0s0vj","sub05","05","6","feedback","test","null","","","na","","184","",""
"1904","1205788","HierDypqe0s0vj","sub05","05","6","rl","test","74","img/p_c_dots.png","6","74","pattern,shape,color","185","1",""
"null","1206791","HierDypqe0s0vj","sub05","05","6","feedback","test","null","","","na","","185","",""
"1062","1207855","HierDypqe0s0vj","sub05","05","6","rl","test","76","img/p_d_dots.png","8","76","pattern,shape,color","186","1",""
"null","1208858","HierDypqe0s0vj","sub05","05","6","feedback","test","null","","","na","","186","",""
"1567","1210427","HierDypqe0s0vj","sub05","05","6","rl","test","75","img/b_d_dots.png","7","75","pattern,shape,color","187","1",""
"null","1211430","HierDypqe0s0vj","sub05","05","6","feedback","test","null","","","na","","187","",""
"986","1212417","HierDypqe0s0vj","sub05","05","6","rl","test","70","img/p_d_diag.png","4","70","pattern,shape,color","188","1",""
"null","1213421","HierDypqe0s0vj","sub05","05","6","feedback","test","null","","","na","","188","",""
"1802","1215225","HierDypqe0s0vj","sub05","05","6","rl","test","72","img/p_c_dots.png","6","74","pattern,shape,color","189","0",""
"null","1216228","HierDypqe0s0vj","sub05","05","6","feedback","test","null","","","na","","189","",""
"516.9999999997672","1216748","HierDypqe0s0vj","sub05","05","6","rl","test","72","img/b_c_dots.png","5","72","pattern,shape,color","190","1",""
"null","1217752","HierDypqe0s0vj","sub05","05","6","feedback","test","null","","","na","","190","",""
"1235","1218989","HierDypqe0s0vj","sub05","05","6","rl","test","83","img/p_c_diag.png","2","83","pattern,shape,color","191","1",""
"null","1219992","HierDypqe0s0vj","sub05","05","6","feedback","test","null","","","na","","191","",""
"745","1220739","HierDypqe0s0vj","sub05","05","6","rl","test","68","img/b_d_diag.png","3","68","pattern,shape,color","192","1",""
"null","1221743","HierDypqe0s0vj","sub05","05","6","feedback","test","null","","","na","","192","",""
"2059","1223803","HierDypqe0s0vj","sub05","05","6","rl","test","83","img/p_c_diag.png","2","83","pattern,shape,color","193","1",""
"null","1224807","HierDypqe0s0vj","sub05","05","6","feedback","test","null","","","na","","193","",""
"730.0000000002328","1225539","HierDypqe0s0vj","sub05","05","6","rl","test","68","img/b_d_diag.png","3","68","pattern,shape,color","194","1",""
"null","1226542","HierDypqe0s0vj","sub05","05","6","feedback","test","null","","","na","","194","",""
"1130","1227674","HierDypqe0s0vj","sub05","05","6","rl","test","72","img/b_c_dots.png","5","72","pattern,shape,color","195","1",""
"null","1228677","HierDypqe0s0vj","sub05","05","6","feedback","test","null","","","na","","195","",""
"1685","1230364","HierDypqe0s0vj","sub05","05","6","rl","test","65","img/b_c_diag.png","1","65","pattern,shape,color","196","1",""
"null","1231367","HierDypqe0s0vj","sub05","05","6","feedback","test","null","","","na","","196","",""
"1570","1232940","HierDypqe0s0vj","sub05","05","6","rl","test","76","img/p_d_dots.png","8","76","pattern,shape,color","197","1",""
"null","1233943","HierDypqe0s0vj","sub05","05","6","feedback","test","null","","","na","","197","",""
"705","1234650","HierDypqe0s0vj","sub05","05","6","rl","test","75","img/b_d_dots.png","7","75","pattern,shape,color","198","1",""
"null","1235654","HierDypqe0s0vj","sub05","05","6","feedback","test","null","","","na","","198","",""
"1322","1236977","HierDypqe0s0vj","sub05","05","6","rl","test","74","img/p_c_dots.png","6","74","pattern,shape,color","199","1",""
"null","1237981","HierDypqe0s0vj","sub05","05","6","feedback","test","null","","","na","","199","",""
"685","1238669","HierDypqe0s0vj","sub05","05","6","rl","test","70","img/p_d_diag.png","4","70","pattern,shape,color","200","1",""
"null","1239672","HierDypqe0s0vj","sub05","05","6","feedback","test","null","","","na","","200","",""
"1443.0000000002328","1241116","HierDypqe0s0vj","sub05","05","6","rl","test","75","img/b_d_dots.png","7","75","pattern,shape,color","201","1",""
"null","1242119","HierDypqe0s0vj","sub05","05","6","feedback","test","null","","","na","","201","",""
"820","1242940","HierDypqe0s0vj","sub05","05","6","rl","test","68","img/b_d_diag.png","3","68","pattern,shape,color","202","1",""
"null","1243942","HierDypqe0s0vj","sub05","05","6","feedback","test","null","","","na","","202","",""
"1090","1245033","HierDypqe0s0vj","sub05","05","6","rl","test","76","img/p_d_dots.png","8","76","pattern,shape,color","203","1",""
"null","1246036","HierDypqe0s0vj","sub05","05","6","feedback","test","null","","","na","","203","",""
"1194","1247231","HierDypqe0s0vj","sub05","05","6","rl","test","72","img/b_c_dots.png","5","72","pattern,shape,color","204","1",""
"null","1248234","HierDypqe0s0vj","sub05","05","6","feedback","test","null","","","na","","204","",""
"1148","1249384","HierDypqe0s0vj","sub05","05","6","rl","test","65","img/b_c_diag.png","1","65","pattern,shape,color","205","1",""
"null","1250387","HierDypqe0s0vj","sub05","05","6","feedback","test","null","","","na","","205","",""
"2020","1252410","HierDypqe0s0vj","sub05","05","6","rl","test","83","img/p_c_diag.png","2","83","pattern,shape,color","206","1",""
"null","1253413","HierDypqe0s0vj","sub05","05","6","feedback","test","null","","","na","","206","",""
"1155","1254571","HierDypqe0s0vj","sub05","05","6","rl","test","70","img/p_d_diag.png","4","70","pattern,shape,color","207","1",""
"null","1255574","HierDypqe0s0vj","sub05","05","6","feedback","test","null","","","na","","207","",""
"1223.9999999997672","1256801","HierDypqe0s0vj","sub05","05","6","rl","test","70","img/p_d_diag.png","4","70","pattern,shape,color","208","1",""
"null","1257804","HierDypqe0s0vj","sub05","05","6","feedback","test","null","","","na","","208","",""
"1901","1259708","HierDypqe0s0vj","sub05","05","6","rl","test","74","img/p_c_dots.png","6","74","pattern,shape,color","209","1",""
"null","1260711","HierDypqe0s0vj","sub05","05","6","feedback","test","null","","","na","","209","",""
"2245","1262959","HierDypqe0s0vj","sub05","05","6","rl","test","83","img/p_c_diag.png","2","83","pattern,shape,color","210","1",""
"null","1263962","HierDypqe0s0vj","sub05","05","6","feedback","test","null","","","na","","210","",""
"726","1264691","HierDypqe0s0vj","sub05","05","6","rl","test","65","img/b_c_diag.png","1","65","pattern,shape,color","211","1",""
"null","1265694","HierDypqe0s0vj","sub05","05","6","feedback","test","null","","","na","","211","",""
"885","1266581","HierDypqe0s0vj","sub05","05","6","rl","test","74","img/p_c_dots.png","6","74","pattern,shape,color","212","1",""
"null","1267585","HierDypqe0s0vj","sub05","05","6","feedback","test","null","","","na","","212","",""
"907","1268495","HierDypqe0s0vj","sub05","05","6","rl","test","68","img/b_d_diag.png","3","68","pattern,shape,color","213","1",""
"null","1269498","HierDypqe0s0vj","sub05","05","6","feedback","test","null","","","na","","213","",""
"979","1270479","HierDypqe0s0vj","sub05","05","6","rl","test","75","img/b_d_dots.png","7","75","pattern,shape,color","214","1",""
"null","1271483","HierDypqe0s0vj","sub05","05","6","feedback","test","null","","","na","","214","",""
"1175","1272660","HierDypqe0s0vj","sub05","05","6","rl","test","76","img/p_d_dots.png","8","76","pattern,shape,color","215","1",""
"null","1273663","HierDypqe0s0vj","sub05","05","6","feedback","test","null","","","na","","215","",""
"2258","1275924","HierDypqe0s0vj","sub05","05","6","rl","test","72","img/b_c_dots.png","5","72","pattern,shape,color","216","1",""
"null","1276927","HierDypqe0s0vj","sub05","05","6","feedback","test","null","","","na","","216","",""
"1346","1278275","HierDypqe0s0vj","sub05","05","6","rl","test","83","img/p_c_diag.png","2","83","pattern,shape,color","217","1",""
"null","1279278","HierDypqe0s0vj","sub05","05","6","feedback","test","null","","","na","","217","",""
"1817","1281097","HierDypqe0s0vj","sub05","05","6","rl","test","72","img/b_c_dots.png","5","72","pattern,shape,color","218","1",""
"null","1282100","HierDypqe0s0vj","sub05","05","6","feedback","test","null","","","na","","218","",""
"1535","1283638","HierDypqe0s0vj","sub05","05","6","rl","test","65","img/b_c_diag.png","1","65","pattern,shape,color","219","1",""
"null","1284642","HierDypqe0s0vj","sub05","05","6","feedback","test","null","","","na","","219","",""
"1325.9999999997672","1285971","HierDypqe0s0vj","sub05","05","6","rl","test","76","img/p_d_dots.png","8","76","pattern,shape,color","220","1",""
"null","1286974","HierDypqe0s0vj","sub05","05","6","feedback","test","null","","","na","","220","",""
"1945","1288921","HierDypqe0s0vj","sub05","05","6","rl","test","74","img/p_c_dots.png","6","74","pattern,shape,color","221","1",""
"null","1289925","HierDypqe0s0vj","sub05","05","6","feedback","test","null","","","na","","221","",""
"1002","1290929","HierDypqe0s0vj","sub05","05","6","rl","test","70","img/p_d_diag.png","4","70","pattern,shape,color","222","1",""
"null","1291932","HierDypqe0s0vj","sub05","05","6","feedback","test","null","","","na","","222","",""
"1079","1293014","HierDypqe0s0vj","sub05","05","6","rl","test","70","img/p_d_diag.png","4","70","pattern,shape,color","223","1",""
"null","1294017","HierDypqe0s0vj","sub05","05","6","feedback","test","null","","","na","","223","",""
"1240","1295260","HierDypqe0s0vj","sub05","05","6","rl","test","75","img/b_d_dots.png","7","75","pattern,shape,color","224","1",""
"null","1296264","HierDypqe0s0vj","sub05","05","6","feedback","test","null","","","na","","224","",""
"1505","1297771","HierDypqe0s0vj","sub05","05","6","rl","test","76","img/p_d_dots.png","8","76","pattern,shape,color","225","1",""
"null","1298774","HierDypqe0s0vj","sub05","05","6","feedback","test","null","","","na","","225","",""
"1780","1300556","HierDypqe0s0vj","sub05","05","6","rl","test","68","img/b_d_diag.png","3","68","pattern,shape,color","226","1",""
"null","1301560","HierDypqe0s0vj","sub05","05","6","feedback","test","null","","","na","","226","",""
"1560","1303122","HierDypqe0s0vj","sub05","05","6","rl","test","75","img/b_d_dots.png","7","75","pattern,shape,color","227","1",""
"null","1304126","HierDypqe0s0vj","sub05","05","6","feedback","test","null","","","na","","227","",""
"2230","1306358","HierDypqe0s0vj","sub05","05","6","rl","test","74","img/p_c_dots.png","6","74","pattern,shape,color","228","1",""
"null","1307362","HierDypqe0s0vj","sub05","05","6","feedback","test","null","","","na","","228","",""
"738","1308102","HierDypqe0s0vj","sub05","05","6","rl","test","68","img/b_d_diag.png","3","68","pattern,shape,color","229","1",""
"null","1309106","HierDypqe0s0vj","sub05","05","6","feedback","test","null","","","na","","229","",""
"1344","1310452","HierDypqe0s0vj","sub05","05","6","rl","test","65","img/b_c_diag.png","1","65","pattern,shape,color","230","1",""
"null","1311456","HierDypqe0s0vj","sub05","05","6","feedback","test","null","","","na","","230","",""
"1133","1312591","HierDypqe0s0vj","sub05","05","6","rl","test","83","img/p_c_diag.png","2","83","pattern,shape,color","231","1",""
"null","1313594","HierDypqe0s0vj","sub05","05","6","feedback","test","null","","","na","","231","",""
"1334.9999999997672","1314931","HierDypqe0s0vj","sub05","05","6","rl","test","74","img/p_c_dots.png","6","74","pattern,shape,color","232","1",""
"null","1315935","HierDypqe0s0vj","sub05","05","6","feedback","test","null","","","na","","232","",""
"768","1316705","HierDypqe0s0vj","sub05","05","6","rl","test","72","img/b_c_dots.png","5","72","pattern,shape,color","233","1",""
"null","1317708","HierDypqe0s0vj","sub05","05","6","feedback","test","null","","","na","","233","",""
"847.0000000002328","1318557","HierDypqe0s0vj","sub05","05","6","rl","test","72","img/b_c_dots.png","5","72","pattern,shape,color","234","1",""
"null","1319561","HierDypqe0s0vj","sub05","05","6","feedback","test","null","","","na","","234","",""
"1000","1320563","HierDypqe0s0vj","sub05","05","6","rl","test","68","img/b_d_diag.png","3","68","pattern,shape,color","235","1",""
"null","1321567","HierDypqe0s0vj","sub05","05","6","feedback","test","null","","","na","","235","",""
"958","1322527","HierDypqe0s0vj","sub05","05","6","rl","test","72","img/b_c_dots.png","5","72","pattern,shape,color","236","1",""
"null","1323530","HierDypqe0s0vj","sub05","05","6","feedback","test","null","","","na","","236","",""
"1650.0000000002328","1325182","HierDypqe0s0vj","sub05","05","6","rl","test","65","img/b_c_diag.png","1","65","pattern,shape,color","237","1",""
"null","1326185","HierDypqe0s0vj","sub05","05","6","feedback","test","null","","","na","","237","",""
"1413","1327601","HierDypqe0s0vj","sub05","05","6","rl","test","70","img/p_d_diag.png","4","70","pattern,shape,color","238","1",""
"null","1328605","HierDypqe0s0vj","sub05","05","6","feedback","test","null","","","na","","238","",""
"1137","1329745","HierDypqe0s0vj","sub05","05","6","rl","test","83","img/p_c_diag.png","2","83","pattern,shape,color","239","1",""
"null","1330748","HierDypqe0s0vj","sub05","05","6","feedback","test","null","","","na","","239","",""
"1973","1332724","HierDypqe0s0vj","sub05","05","6","rl","test","76","img/p_d_dots.png","8","76","pattern,shape,color","240","1",""
"null","1333727","HierDypqe0s0vj","sub05","05","6","feedback","test","null","","","na","","240","",""
"1066","1334795","HierDypqe0s0vj","sub05","05","6","rl","test","75","img/b_d_dots.png","7","75","pattern,shape,color","241","1",""
"null","1335799","HierDypqe0s0vj","sub05","05","6","feedback","test","null","","","na","","241","",""
"1890","1337691","HierDypqe0s0vj","sub05","05","6","rl","test","76","img/p_d_dots.png","8","76","pattern,shape,color","242","1",""
"null","1338693","HierDypqe0s0vj","sub05","05","6","feedback","test","null","","","na","","242","",""
"1034.0000000002328","1339730","HierDypqe0s0vj","sub05","05","6","rl","test","70","img/p_d_diag.png","4","70","pattern,shape,color","243","1",""
"null","1340733","HierDypqe0s0vj","sub05","05","6","feedback","test","null","","","na","","243","",""
"1137","1341872","HierDypqe0s0vj","sub05","05","6","rl","test","75","img/b_d_dots.png","7","75","pattern,shape,color","244","1",""
"null","1342876","HierDypqe0s0vj","sub05","05","6","feedback","test","null","","","na","","244","",""
"1864","1344743","HierDypqe0s0vj","sub05","05","6","rl","test","65","img/b_c_diag.png","1","65","pattern,shape,color","245","1",""
"null","1345747","HierDypqe0s0vj","sub05","05","6","feedback","test","null","","","na","","245","",""
"1128.9999999997672","1346878","HierDypqe0s0vj","sub05","05","6","rl","test","68","img/b_d_diag.png","3","68","pattern,shape,color","246","1",""
"null","1347881","HierDypqe0s0vj","sub05","05","6","feedback","test","null","","","na","","246","",""
"1190.9999999997672","1349075","HierDypqe0s0vj","sub05","05","6","rl","test","74","img/p_c_dots.png","6","74","pattern,shape,color","247","1",""
"null","1350079","HierDypqe0s0vj","sub05","05","6","feedback","test","null","","","na","","247","",""
"2398","1352478","HierDypqe0s0vj","sub05","05","6","rl","test","83","img/p_c_diag.png","2","83","pattern,shape,color","248","1",""
"null","1353482","HierDypqe0s0vj","sub05","05","6","feedback","test","null","","","na","","248","",""
"13207","1366732","HierDypqe0s0vj","sub05","05","6","","","","","","","","","","{""Q0"":""4""}"
"11114","1377851","HierDypqe0s0vj","sub05","05","6","","","","","","","","","","{""Q0"":""same strategies as before""}"
"1825","1379676","HierDypqe0s0vj","sub05","05","6","","","","","","","","","",""
