"rt","time_elapsed","subject","subID","group","day","trialType","key_press","stim","corrresp","phase","stimNum","trialNum","corr","repeatTrial","motorSwitch","hierarchy","responses"
"11961","11986","HierDywxjna16s","sub03","03","8","","","","","","","","","","","",""
"","13700","HierDywxjna16s","sub03","03","8","fullscreen","","","","","","","","","","",""
"30276","44845","HierDywxjna16s","sub03","03","8","","","","","","","","","","","",""
"1344","46199","HierDywxjna16s","sub03","03","8","motor","76","img/motor_8.png","76","motor","8","1","1","0","0","",""
"null","46310","HierDywxjna16s","sub03","03","8","iti","null","img/motor_8.png","76","motor","","","","","","",""
"508","46828","HierDywxjna16s","sub03","03","8","motor","72","img/motor_5.png","72","motor","5","2","1","0","0","",""
"null","46940","HierDywxjna16s","sub03","03","8","iti","null","img/motor_5.png","72","motor","","","","","","",""
"519","47467","HierDywxjna16s","sub03","03","8","motor","70","img/motor_4.png","70","motor","4","3","1","0","0","",""
"null","47579","HierDywxjna16s","sub03","03","8","iti","null","img/motor_4.png","70","motor","","","","","","",""
"484","48072","HierDywxjna16s","sub03","03","8","motor","65","img/motor_1.png","65","motor","1","4","1","0","0","",""
"null","48185","HierDywxjna16s","sub03","03","8","iti","null","img/motor_1.png","65","motor","","","","","","",""
"561","48755","HierDywxjna16s","sub03","03","8","motor","74","img/motor_6.png","74","motor","6","5","1","0","0","",""
"null","48866","HierDywxjna16s","sub03","03","8","iti","null","img/motor_6.png","74","motor","","","","","","",""
"425","49301","HierDywxjna16s","sub03","03","8","motor","75","img/motor_7.png","75","motor","7","6","1","0","0","",""
"null","49412","HierDywxjna16s","sub03","03","8","iti","null","img/motor_7.png","75","motor","","","","","","",""
"441","49863","HierDywxjna16s","sub03","03","8","motor","74","img/motor_6.png","74","motor","6","7","1","0","0","",""
"null","49974","HierDywxjna16s","sub03","03","8","iti","null","img/motor_6.png","74","motor","","","","","","",""
"473","50456","HierDywxjna16s","sub03","03","8","motor","70","img/motor_4.png","70","motor","4","8","1","0","0","",""
"null","50567","HierDywxjna16s","sub03","03","8","iti","null","img/motor_4.png","70","motor","","","","","","",""
"501","51078","HierDywxjna16s","sub03","03","8","motor","75","img/motor_7.png","75","motor","7","9","1","0","0","",""
"null","51187","HierDywxjna16s","sub03","03","8","iti","null","img/motor_7.png","75","motor","","","","","","",""
"413","51611","HierDywxjna16s","sub03","03","8","motor","76","img/motor_8.png","76","motor","8","10","1","0","0","",""
"null","51721","HierDywxjna16s","sub03","03","8","iti","null","img/motor_8.png","76","motor","","","","","","",""
"548","52278","HierDywxjna16s","sub03","03","8","motor","70","img/motor_4.png","70","motor","4","11","1","0","0","",""
"null","52389","HierDywxjna16s","sub03","03","8","iti","null","img/motor_4.png","70","motor","","","","","","",""
"453","52855","HierDywxjna16s","sub03","03","8","motor","74","img/motor_6.png","74","motor","6","12","1","0","0","",""
"null","52969","HierDywxjna16s","sub03","03","8","iti","null","img/motor_6.png","74","motor","","","","","","",""
"423","53403","HierDywxjna16s","sub03","03","8","motor","72","img/motor_5.png","72","motor","5","13","1","0","0","",""
"null","53514","HierDywxjna16s","sub03","03","8","iti","null","img/motor_5.png","72","motor","","","","","","",""
"421","53946","HierDywxjna16s","sub03","03","8","motor","75","img/motor_7.png","75","motor","7","14","1","0","0","",""
"null","54058","HierDywxjna16s","sub03","03","8","iti","null","img/motor_7.png","75","motor","","","","","","",""
"604","54672","HierDywxjna16s","sub03","03","8","motor","83","img/motor_2.png","83","motor","2","15","1","0","0","",""
"14","54782","HierDywxjna16s","sub03","03","8","iti","68","img/motor_2.png","83","motor","","","","","","",""
"748","55537","HierDywxjna16s","sub03","03","8","motor","75","img/motor_7.png","75","motor","7","16","1","0","0","",""
"null","55646","HierDywxjna16s","sub03","03","8","iti","null","img/motor_7.png","75","motor","","","","","","",""
"665","56322","HierDywxjna16s","sub03","03","8","motor","83","img/motor_2.png","83","motor","2","17","1","0","0","",""
"null","56433","HierDywxjna16s","sub03","03","8","iti","null","img/motor_2.png","83","motor","","","","","","",""
"459","56905","HierDywxjna16s","sub03","03","8","motor","72","img/motor_5.png","72","motor","5","18","1","0","0","",""
"null","57017","HierDywxjna16s","sub03","03","8","iti","null","img/motor_5.png","72","motor","","","","","","",""
"515","57543","HierDywxjna16s","sub03","03","8","motor","83","img/motor_2.png","83","motor","2","19","1","0","0","",""
"null","57653","HierDywxjna16s","sub03","03","8","iti","null","img/motor_2.png","83","motor","","","","","","",""
"405","58069","HierDywxjna16s","sub03","03","8","motor","76","img/motor_8.png","76","motor","8","20","1","0","0","",""
"null","58182","HierDywxjna16s","sub03","03","8","iti","null","img/motor_8.png","76","motor","","","","","","",""
"434","58624","HierDywxjna16s","sub03","03","8","motor","76","img/motor_8.png","76","motor","8","21","1","0","0","",""
"null","58737","HierDywxjna16s","sub03","03","8","iti","null","img/motor_8.png","76","motor","","","","","","",""
"415","59163","HierDywxjna16s","sub03","03","8","motor","72","img/motor_5.png","72","motor","5","22","1","0","0","",""
"null","59272","HierDywxjna16s","sub03","03","8","iti","null","img/motor_5.png","72","motor","","","","","","",""
"458","59739","HierDywxjna16s","sub03","03","8","motor","75","img/motor_7.png","75","motor","7","23","1","0","0","",""
"null","59851","HierDywxjna16s","sub03","03","8","iti","null","img/motor_7.png","75","motor","","","","","","",""
"297","60158","HierDywxjna16s","sub03","03","8","motor","74","img/motor_6.png","74","motor","6","24","1","0","0","",""
"null","60266","HierDywxjna16s","sub03","03","8","iti","null","img/motor_6.png","74","motor","","","","","","",""
"343","60618","HierDywxjna16s","sub03","03","8","motor","76","img/motor_8.png","76","motor","8","25","1","0","0","",""
"null","60728","HierDywxjna16s","sub03","03","8","iti","null","img/motor_8.png","76","motor","","","","","","",""
"525","61262","HierDywxjna16s","sub03","03","8","motor","74","img/motor_6.png","74","motor","6","26","1","0","0","",""
"null","61370","HierDywxjna16s","sub03","03","8","iti","null","img/motor_6.png","74","motor","","","","","","",""
"298","61677","HierDywxjna16s","sub03","03","8","motor","75","img/motor_7.png","75","motor","7","27","1","0","0","",""
"null","61785","HierDywxjna16s","sub03","03","8","iti","null","img/motor_7.png","75","motor","","","","","","",""
"542","62336","HierDywxjna16s","sub03","03","8","motor","70","img/motor_4.png","70","motor","4","28","1","0","0","",""
"null","62446","HierDywxjna16s","sub03","03","8","iti","null","img/motor_4.png","70","motor","","","","","","",""
"509","62964","HierDywxjna16s","sub03","03","8","motor","65","img/motor_1.png","65","motor","1","29","1","0","0","",""
"null","63073","HierDywxjna16s","sub03","03","8","iti","null","img/motor_1.png","65","motor","","","","","","",""
"629","63712","HierDywxjna16s","sub03","03","8","motor","75","img/motor_7.png","75","motor","7","30","1","0","0","",""
"null","63822","HierDywxjna16s","sub03","03","8","iti","null","img/motor_7.png","75","motor","","","","","","",""
"392","64223","HierDywxjna16s","sub03","03","8","motor","76","img/motor_8.png","76","motor","8","31","1","0","0","",""
"null","64334","HierDywxjna16s","sub03","03","8","iti","null","img/motor_8.png","76","motor","","","","","","",""
"500","64843","HierDywxjna16s","sub03","03","8","motor","65","img/motor_1.png","65","motor","1","32","1","0","0","",""
"null","64953","HierDywxjna16s","sub03","03","8","iti","null","img/motor_1.png","65","motor","","","","","","",""
"431","65394","HierDywxjna16s","sub03","03","8","motor","76","img/motor_8.png","76","motor","8","33","1","0","0","",""
"null","65503","HierDywxjna16s","sub03","03","8","iti","null","img/motor_8.png","76","motor","","","","","","",""
"471","65983","HierDywxjna16s","sub03","03","8","motor","70","img/motor_4.png","70","motor","4","34","1","0","0","",""
"null","66094","HierDywxjna16s","sub03","03","8","iti","null","img/motor_4.png","70","motor","","","","","","",""
"476","66579","HierDywxjna16s","sub03","03","8","motor","74","img/motor_6.png","74","motor","6","35","1","0","0","",""
"null","66690","HierDywxjna16s","sub03","03","8","iti","null","img/motor_6.png","74","motor","","","","","","",""
"412","67110","HierDywxjna16s","sub03","03","8","motor","74","img/motor_6.png","74","motor","6","36","1","0","0","",""
"null","67220","HierDywxjna16s","sub03","03","8","iti","null","img/motor_6.png","74","motor","","","","","","",""
"469","67697","HierDywxjna16s","sub03","03","8","motor","65","img/motor_1.png","65","motor","1","37","1","0","0","",""
"null","67808","HierDywxjna16s","sub03","03","8","iti","null","img/motor_1.png","65","motor","","","","","","",""
"519","68336","HierDywxjna16s","sub03","03","8","motor","75","img/motor_7.png","75","motor","7","38","1","0","0","",""
"null","68446","HierDywxjna16s","sub03","03","8","iti","null","img/motor_7.png","75","motor","","","","","","",""
"493","68948","HierDywxjna16s","sub03","03","8","motor","70","img/motor_4.png","70","motor","4","39","1","0","0","",""
"null","69058","HierDywxjna16s","sub03","03","8","iti","null","img/motor_4.png","70","motor","","","","","","",""
"608","69677","HierDywxjna16s","sub03","03","8","motor","83","img/motor_2.png","83","motor","2","40","1","0","0","",""
"null","69786","HierDywxjna16s","sub03","03","8","iti","null","img/motor_2.png","83","motor","","","","","","",""
"489","70284","HierDywxjna16s","sub03","03","8","motor","68","img/motor_3.png","68","motor","3","41","1","0","0","",""
"null","70392","HierDywxjna16s","sub03","03","8","iti","null","img/motor_3.png","68","motor","","","","","","",""
"466","70868","HierDywxjna16s","sub03","03","8","motor","72","img/motor_5.png","72","motor","5","42","1","0","0","",""
"null","70978","HierDywxjna16s","sub03","03","8","iti","null","img/motor_5.png","72","motor","","","","","","",""
"415","71403","HierDywxjna16s","sub03","03","8","motor","76","img/motor_8.png","76","motor","8","43","1","0","0","",""
"null","71514","HierDywxjna16s","sub03","03","8","iti","null","img/motor_8.png","76","motor","","","","","","",""
"424","71948","HierDywxjna16s","sub03","03","8","motor","72","img/motor_5.png","72","motor","5","44","1","0","0","",""
"null","72058","HierDywxjna16s","sub03","03","8","iti","null","img/motor_5.png","72","motor","","","","","","",""
"440","72505","HierDywxjna16s","sub03","03","8","motor","65","img/motor_1.png","65","motor","1","45","1","0","0","",""
"null","72616","HierDywxjna16s","sub03","03","8","iti","null","img/motor_1.png","65","motor","","","","","","",""
"427","73051","HierDywxjna16s","sub03","03","8","motor","76","img/motor_8.png","76","motor","8","46","1","0","0","",""
"null","73162","HierDywxjna16s","sub03","03","8","iti","null","img/motor_8.png","76","motor","","","","","","",""
"537","73710","HierDywxjna16s","sub03","03","8","motor","83","img/motor_2.png","83","motor","2","47","1","0","0","",""
"null","73820","HierDywxjna16s","sub03","03","8","iti","null","img/motor_2.png","83","motor","","","","","","",""
"498","74328","HierDywxjna16s","sub03","03","8","motor","75","img/motor_7.png","75","motor","7","48","1","0","0","",""
"null","74437","HierDywxjna16s","sub03","03","8","iti","null","img/motor_7.png","75","motor","","","","","","",""
"409","74855","HierDywxjna16s","sub03","03","8","motor","75","img/motor_7.png","75","motor","7","49","1","0","0","",""
"null","74965","HierDywxjna16s","sub03","03","8","iti","null","img/motor_7.png","75","motor","","","","","","",""
"506","75481","HierDywxjna16s","sub03","03","8","motor","74","img/motor_6.png","74","motor","6","50","1","0","0","",""
"null","75591","HierDywxjna16s","sub03","03","8","iti","null","img/motor_6.png","74","motor","","","","","","",""
"387","75987","HierDywxjna16s","sub03","03","8","motor","75","img/motor_7.png","75","motor","7","51","1","0","0","",""
"null","76096","HierDywxjna16s","sub03","03","8","iti","null","img/motor_7.png","75","motor","","","","","","",""
"635","76740","HierDywxjna16s","sub03","03","8","motor","68","img/motor_3.png","68","motor","3","52","1","0","0","",""
"null","76850","HierDywxjna16s","sub03","03","8","iti","null","img/motor_3.png","68","motor","","","","","","",""
"353","77212","HierDywxjna16s","sub03","03","8","motor","70","img/motor_4.png","70","motor","4","53","1","0","0","",""
"null","77323","HierDywxjna16s","sub03","03","8","iti","null","img/motor_4.png","70","motor","","","","","","",""
"360","77694","HierDywxjna16s","sub03","03","8","motor","70","img/motor_4.png","70","motor","4","54","1","0","0","",""
"null","77806","HierDywxjna16s","sub03","03","8","iti","null","img/motor_4.png","70","motor","","","","","","",""
"482","78298","HierDywxjna16s","sub03","03","8","motor","83","img/motor_2.png","83","motor","2","55","1","0","0","",""
"null","78409","HierDywxjna16s","sub03","03","8","iti","null","img/motor_2.png","83","motor","","","","","","",""
"545","78962","HierDywxjna16s","sub03","03","8","motor","74","img/motor_6.png","74","motor","6","56","1","0","0","",""
"null","79073","HierDywxjna16s","sub03","03","8","iti","null","img/motor_6.png","74","motor","","","","","","",""
"589","79672","HierDywxjna16s","sub03","03","8","motor","83","img/motor_2.png","83","motor","2","57","1","0","0","",""
"null","79784","HierDywxjna16s","sub03","03","8","iti","null","img/motor_2.png","83","motor","","","","","","",""
"457","80249","HierDywxjna16s","sub03","03","8","motor","65","img/motor_1.png","65","motor","1","58","1","0","0","",""
"null","80360","HierDywxjna16s","sub03","03","8","iti","null","img/motor_1.png","65","motor","","","","","","",""
"709","81079","HierDywxjna16s","sub03","03","8","motor","70","img/motor_3.png","68","motor","3","59","0","1","0","",""
"407","81491","HierDywxjna16s","sub03","03","8","motorRepeat","68","img/motor_3.png","68","motor","3","59","1","0","0","",""
"null","81601","HierDywxjna16s","sub03","03","8","iti","null","img/motor_3.png","68","motor","","","","","","",""
"544","82154","HierDywxjna16s","sub03","03","8","motor","76","img/motor_8.png","76","motor","8","60","1","0","0","",""
"null","82264","HierDywxjna16s","sub03","03","8","iti","null","img/motor_8.png","76","motor","","","","","","",""
"491","82764","HierDywxjna16s","sub03","03","8","motor","75","img/motor_7.png","75","motor","7","61","1","0","0","",""
"null","82875","HierDywxjna16s","sub03","03","8","iti","null","img/motor_7.png","75","motor","","","","","","",""
"613","83496","HierDywxjna16s","sub03","03","8","motor","83","img/motor_2.png","83","motor","2","62","1","0","0","",""
"null","83604","HierDywxjna16s","sub03","03","8","iti","null","img/motor_2.png","83","motor","","","","","","",""
"509","84123","HierDywxjna16s","sub03","03","8","motor","68","img/motor_3.png","68","motor","3","63","1","0","0","",""
"null","84233","HierDywxjna16s","sub03","03","8","iti","null","img/motor_3.png","68","motor","","","","","","",""
"417","84660","HierDywxjna16s","sub03","03","8","motor","76","img/motor_8.png","76","motor","8","64","1","0","0","",""
"null","84771","HierDywxjna16s","sub03","03","8","iti","null","img/motor_8.png","76","motor","","","","","","",""
"700","85480","HierDywxjna16s","sub03","03","8","motor","68","img/motor_3.png","68","motor","3","65","1","0","0","",""
"null","85591","HierDywxjna16s","sub03","03","8","iti","null","img/motor_3.png","68","motor","","","","","","",""
"524","86123","HierDywxjna16s","sub03","03","8","motor","74","img/motor_6.png","74","motor","6","66","1","0","0","",""
"null","86232","HierDywxjna16s","sub03","03","8","iti","null","img/motor_6.png","74","motor","","","","","","",""
"559","86799","HierDywxjna16s","sub03","03","8","motor","70","img/motor_4.png","70","motor","4","67","1","0","0","",""
"null","86909","HierDywxjna16s","sub03","03","8","iti","null","img/motor_4.png","70","motor","","","","","","",""
"646","87563","HierDywxjna16s","sub03","03","8","motor","76","img/motor_8.png","76","motor","8","68","1","0","0","",""
"null","87673","HierDywxjna16s","sub03","03","8","iti","null","img/motor_8.png","76","motor","","","","","","",""
"423","88105","HierDywxjna16s","sub03","03","8","motor","72","img/motor_5.png","72","motor","5","69","1","0","0","",""
"null","88217","HierDywxjna16s","sub03","03","8","iti","null","img/motor_5.png","72","motor","","","","","","",""
"673","88899","HierDywxjna16s","sub03","03","8","motor","65","img/motor_1.png","65","motor","1","70","1","0","0","",""
"null","89010","HierDywxjna16s","sub03","03","8","iti","null","img/motor_1.png","65","motor","","","","","","",""
"614","89633","HierDywxjna16s","sub03","03","8","motor","72","img/motor_5.png","72","motor","5","71","1","0","0","",""
"null","89743","HierDywxjna16s","sub03","03","8","iti","null","img/motor_5.png","72","motor","","","","","","",""
"471","90224","HierDywxjna16s","sub03","03","8","motor","74","img/motor_6.png","74","motor","6","72","1","0","0","",""
"null","90333","HierDywxjna16s","sub03","03","8","iti","null","img/motor_6.png","74","motor","","","","","","",""
"675","91016","HierDywxjna16s","sub03","03","8","motor","68","img/motor_3.png","68","motor","3","73","1","0","0","",""
"null","91126","HierDywxjna16s","sub03","03","8","iti","null","img/motor_3.png","68","motor","","","","","","",""
"445","91581","HierDywxjna16s","sub03","03","8","motor","83","img/motor_2.png","83","motor","2","74","1","0","0","",""
"null","91691","HierDywxjna16s","sub03","03","8","iti","null","img/motor_2.png","83","motor","","","","","","",""
"398","92098","HierDywxjna16s","sub03","03","8","motor","70","img/motor_4.png","70","motor","4","75","1","0","0","",""
"null","92206","HierDywxjna16s","sub03","03","8","iti","null","img/motor_4.png","70","motor","","","","","","",""
"548","92763","HierDywxjna16s","sub03","03","8","motor","83","img/motor_2.png","83","motor","2","76","1","0","0","",""
"null","92870","HierDywxjna16s","sub03","03","8","iti","null","img/motor_2.png","83","motor","","","","","","",""
"466","93348","HierDywxjna16s","sub03","03","8","motor","65","img/motor_1.png","65","motor","1","77","1","0","0","",""
"null","93455","HierDywxjna16s","sub03","03","8","iti","null","img/motor_1.png","65","motor","","","","","","",""
"385","93848","HierDywxjna16s","sub03","03","8","motor","76","img/motor_8.png","76","motor","8","78","1","0","0","",""
"null","93959","HierDywxjna16s","sub03","03","8","iti","null","img/motor_8.png","76","motor","","","","","","",""
"462","94431","HierDywxjna16s","sub03","03","8","motor","65","img/motor_1.png","65","motor","1","79","1","0","0","",""
"null","94542","HierDywxjna16s","sub03","03","8","iti","null","img/motor_1.png","65","motor","","","","","","",""
"372","94924","HierDywxjna16s","sub03","03","8","motor","70","img/motor_4.png","70","motor","4","80","1","0","0","",""
"null","95033","HierDywxjna16s","sub03","03","8","iti","null","img/motor_4.png","70","motor","","","","","","",""
"413","95454","HierDywxjna16s","sub03","03","8","motor","65","img/motor_1.png","65","motor","1","81","1","0","0","",""
"null","95565","HierDywxjna16s","sub03","03","8","iti","null","img/motor_1.png","65","motor","","","","","","",""
"706","96279","HierDywxjna16s","sub03","03","8","motor","75","img/motor_7.png","75","motor","7","82","1","0","0","",""
"null","96390","HierDywxjna16s","sub03","03","8","iti","null","img/motor_7.png","75","motor","","","","","","",""
"372","96771","HierDywxjna16s","sub03","03","8","motor","75","img/motor_7.png","75","motor","7","83","1","0","0","",""
"null","96883","HierDywxjna16s","sub03","03","8","iti","null","img/motor_7.png","75","motor","","","","","","",""
"432","97323","HierDywxjna16s","sub03","03","8","motor","65","img/motor_1.png","65","motor","1","84","1","0","0","",""
"null","97431","HierDywxjna16s","sub03","03","8","iti","null","img/motor_1.png","65","motor","","","","","","",""
"627","98065","HierDywxjna16s","sub03","03","8","motor","83","img/motor_2.png","83","motor","2","85","1","0","0","",""
"null","98174","HierDywxjna16s","sub03","03","8","iti","null","img/motor_2.png","83","motor","","","","","","",""
"511","98695","HierDywxjna16s","sub03","03","8","motor","68","img/motor_3.png","68","motor","3","86","1","0","0","",""
"null","98805","HierDywxjna16s","sub03","03","8","iti","null","img/motor_3.png","68","motor","","","","","","",""
"548","99364","HierDywxjna16s","sub03","03","8","motor","72","img/motor_5.png","72","motor","5","87","1","0","0","",""
"null","99475","HierDywxjna16s","sub03","03","8","iti","null","img/motor_5.png","72","motor","","","","","","",""
"559","100043","HierDywxjna16s","sub03","03","8","motor","74","img/motor_6.png","74","motor","6","88","1","0","0","",""
"null","100155","HierDywxjna16s","sub03","03","8","iti","null","img/motor_6.png","74","motor","","","","","","",""
"459","100622","HierDywxjna16s","sub03","03","8","motor","76","img/motor_8.png","76","motor","8","89","1","0","0","",""
"null","100730","HierDywxjna16s","sub03","03","8","iti","null","img/motor_8.png","76","motor","","","","","","",""
"576","101316","HierDywxjna16s","sub03","03","8","motor","83","img/motor_2.png","83","motor","2","90","1","0","0","",""
"null","101425","HierDywxjna16s","sub03","03","8","iti","null","img/motor_2.png","83","motor","","","","","","",""
"480","101916","HierDywxjna16s","sub03","03","8","motor","72","img/motor_5.png","72","motor","5","91","1","0","0","",""
"null","102028","HierDywxjna16s","sub03","03","8","iti","null","img/motor_5.png","72","motor","","","","","","",""
"862","102899","HierDywxjna16s","sub03","03","8","motor","68","img/motor_3.png","68","motor","3","92","1","0","0","",""
"null","103009","HierDywxjna16s","sub03","03","8","iti","null","img/motor_3.png","68","motor","","","","","","",""
"493","103511","HierDywxjna16s","sub03","03","8","motor","83","img/motor_2.png","83","motor","2","93","1","0","0","",""
"null","103623","HierDywxjna16s","sub03","03","8","iti","null","img/motor_2.png","83","motor","","","","","","",""
"538","104170","HierDywxjna16s","sub03","03","8","motor","72","img/motor_5.png","72","motor","5","94","1","0","0","",""
"null","104281","HierDywxjna16s","sub03","03","8","iti","null","img/motor_5.png","72","motor","","","","","","",""
"376","104666","HierDywxjna16s","sub03","03","8","motor","76","img/motor_8.png","76","motor","8","95","1","0","0","",""
"null","104775","HierDywxjna16s","sub03","03","8","iti","null","img/motor_8.png","76","motor","","","","","","",""
"421","105207","HierDywxjna16s","sub03","03","8","motor","65","img/motor_1.png","65","motor","1","96","1","0","0","",""
"null","105318","HierDywxjna16s","sub03","03","8","iti","null","img/motor_1.png","65","motor","","","","","","",""
"500","105828","HierDywxjna16s","sub03","03","8","motor","72","img/motor_5.png","72","motor","5","97","1","0","0","",""
"null","105937","HierDywxjna16s","sub03","03","8","iti","null","img/motor_5.png","72","motor","","","","","","",""
"539","106486","HierDywxjna16s","sub03","03","8","motor","83","img/motor_2.png","83","motor","2","98","1","0","0","",""
"null","106596","HierDywxjna16s","sub03","03","8","iti","null","img/motor_2.png","83","motor","","","","","","",""
"456","107061","HierDywxjna16s","sub03","03","8","motor","83","img/motor_2.png","83","motor","2","99","1","0","0","",""
"null","107172","HierDywxjna16s","sub03","03","8","iti","null","img/motor_2.png","83","motor","","","","","","",""
"414","107595","HierDywxjna16s","sub03","03","8","motor","76","img/motor_8.png","76","motor","8","100","1","0","0","",""
"null","107706","HierDywxjna16s","sub03","03","8","iti","null","img/motor_8.png","76","motor","","","","","","",""
"430","108145","HierDywxjna16s","sub03","03","8","motor","75","img/motor_7.png","75","motor","7","101","1","0","0","",""
"null","108253","HierDywxjna16s","sub03","03","8","iti","null","img/motor_7.png","75","motor","","","","","","",""
"501","108763","HierDywxjna16s","sub03","03","8","motor","65","img/motor_1.png","65","motor","1","102","1","0","0","",""
"null","108874","HierDywxjna16s","sub03","03","8","iti","null","img/motor_1.png","65","motor","","","","","","",""
"413","109296","HierDywxjna16s","sub03","03","8","motor","75","img/motor_8.png","76","motor","8","103","0","1","0","",""
"360","109665","HierDywxjna16s","sub03","03","8","motorRepeat","76","img/motor_8.png","76","motor","8","103","1","0","0","",""
"null","109776","HierDywxjna16s","sub03","03","8","iti","null","img/motor_8.png","76","motor","","","","","","",""
"488","110274","HierDywxjna16s","sub03","03","8","motor","83","img/motor_2.png","83","motor","2","104","1","0","0","",""
"null","110384","HierDywxjna16s","sub03","03","8","iti","null","img/motor_2.png","83","motor","","","","","","",""
"537","110930","HierDywxjna16s","sub03","03","8","motor","70","img/motor_4.png","70","motor","4","105","1","0","0","",""
"null","111041","HierDywxjna16s","sub03","03","8","iti","null","img/motor_4.png","70","motor","","","","","","",""
"458","111506","HierDywxjna16s","sub03","03","8","motor","76","img/motor_8.png","76","motor","8","106","1","0","0","",""
"null","111618","HierDywxjna16s","sub03","03","8","iti","null","img/motor_8.png","76","motor","","","","","","",""
"348","111974","HierDywxjna16s","sub03","03","8","motor","76","img/motor_8.png","76","motor","8","107","1","0","0","",""
"null","112086","HierDywxjna16s","sub03","03","8","iti","null","img/motor_8.png","76","motor","","","","","","",""
"511","112607","HierDywxjna16s","sub03","03","8","motor","83","img/motor_2.png","83","motor","2","108","1","0","0","",""
"null","112718","HierDywxjna16s","sub03","03","8","iti","null","img/motor_2.png","83","motor","","","","","","",""
"398","113124","HierDywxjna16s","sub03","03","8","motor","76","img/motor_8.png","76","motor","8","109","1","0","0","",""
"null","113233","HierDywxjna16s","sub03","03","8","iti","null","img/motor_8.png","76","motor","","","","","","",""
"415","113659","HierDywxjna16s","sub03","03","8","motor","65","img/motor_1.png","65","motor","1","110","1","0","0","",""
"null","113767","HierDywxjna16s","sub03","03","8","iti","null","img/motor_1.png","65","motor","","","","","","",""
"536","114311","HierDywxjna16s","sub03","03","8","motor","70","img/motor_4.png","70","motor","4","111","1","0","0","",""
"null","114421","HierDywxjna16s","sub03","03","8","iti","null","img/motor_4.png","70","motor","","","","","","",""
"453","114884","HierDywxjna16s","sub03","03","8","motor","72","img/motor_5.png","72","motor","5","112","1","0","0","",""
"null","114993","HierDywxjna16s","sub03","03","8","iti","null","img/motor_5.png","72","motor","","","","","","",""
"661","115664","HierDywxjna16s","sub03","03","8","motor","75","img/motor_7.png","75","motor","7","113","1","0","0","",""
"null","115773","HierDywxjna16s","sub03","03","8","iti","null","img/motor_7.png","75","motor","","","","","","",""
"564","116347","HierDywxjna16s","sub03","03","8","motor","83","img/motor_2.png","83","motor","2","114","1","0","0","",""
"null","116456","HierDywxjna16s","sub03","03","8","iti","null","img/motor_2.png","83","motor","","","","","","",""
"474","116939","HierDywxjna16s","sub03","03","8","motor","65","img/motor_1.png","65","motor","1","115","1","0","0","",""
"null","117052","HierDywxjna16s","sub03","03","8","iti","null","img/motor_1.png","65","motor","","","","","","",""
"762","117825","HierDywxjna16s","sub03","03","8","motor","74","img/motor_6.png","74","motor","6","116","1","0","0","",""
"null","117936","HierDywxjna16s","sub03","03","8","iti","null","img/motor_6.png","74","motor","","","","","","",""
"405","118351","HierDywxjna16s","sub03","03","8","motor","74","img/motor_6.png","74","motor","6","117","1","0","0","",""
"null","118462","HierDywxjna16s","sub03","03","8","iti","null","img/motor_6.png","74","motor","","","","","","",""
"590","119062","HierDywxjna16s","sub03","03","8","motor","65","img/motor_1.png","65","motor","1","118","1","0","0","",""
"null","119173","HierDywxjna16s","sub03","03","8","iti","null","img/motor_1.png","65","motor","","","","","","",""
"615","119799","HierDywxjna16s","sub03","03","8","motor","70","img/motor_4.png","70","motor","4","119","1","0","0","",""
"null","119908","HierDywxjna16s","sub03","03","8","iti","null","img/motor_4.png","70","motor","","","","","","",""
"453","120371","HierDywxjna16s","sub03","03","8","motor","68","img/motor_3.png","68","motor","3","120","1","0","0","",""
"null","120483","HierDywxjna16s","sub03","03","8","iti","null","img/motor_3.png","68","motor","","","","","","",""
"572","121066","HierDywxjna16s","sub03","03","8","motor","75","img/motor_7.png","75","motor","7","121","1","0","0","",""
"null","121174","HierDywxjna16s","sub03","03","8","iti","null","img/motor_7.png","75","motor","","","","","","",""
"624","121810","HierDywxjna16s","sub03","03","8","motor","70","img/motor_4.png","70","motor","4","122","1","0","0","",""
"null","121921","HierDywxjna16s","sub03","03","8","iti","null","img/motor_4.png","70","motor","","","","","","",""
"362","122294","HierDywxjna16s","sub03","03","8","motor","70","img/motor_4.png","70","motor","4","123","1","0","0","",""
"null","122405","HierDywxjna16s","sub03","03","8","iti","null","img/motor_4.png","70","motor","","","","","","",""
"529","122944","HierDywxjna16s","sub03","03","8","motor","72","img/motor_5.png","72","motor","5","124","1","0","0","",""
"null","123057","HierDywxjna16s","sub03","03","8","iti","null","img/motor_5.png","72","motor","","","","","","",""
"723","123789","HierDywxjna16s","sub03","03","8","motor","68","img/motor_3.png","68","motor","3","125","1","0","0","",""
"null","123901","HierDywxjna16s","sub03","03","8","iti","null","img/motor_3.png","68","motor","","","","","","",""
"436","124346","HierDywxjna16s","sub03","03","8","motor","76","img/motor_8.png","76","motor","8","126","1","0","0","",""
"null","124458","HierDywxjna16s","sub03","03","8","iti","null","img/motor_8.png","76","motor","","","","","","",""
"674","125140","HierDywxjna16s","sub03","03","8","motor","70","img/motor_4.png","70","motor","4","127","1","0","0","",""
"null","125248","HierDywxjna16s","sub03","03","8","iti","null","img/motor_4.png","70","motor","","","","","","",""
"734","125991","HierDywxjna16s","sub03","03","8","motor","72","img/motor_5.png","72","motor","5","128","1","0","0","",""
"null","126102","HierDywxjna16s","sub03","03","8","iti","null","img/motor_5.png","72","motor","","","","","","",""
"484","126596","HierDywxjna16s","sub03","03","8","motor","76","img/motor_8.png","76","motor","8","129","1","0","0","",""
"null","126707","HierDywxjna16s","sub03","03","8","iti","null","img/motor_8.png","76","motor","","","","","","",""
"692","127409","HierDywxjna16s","sub03","03","8","motor","68","img/motor_3.png","68","motor","3","130","1","0","0","",""
"null","127519","HierDywxjna16s","sub03","03","8","iti","null","img/motor_3.png","68","motor","","","","","","",""
"421","127948","HierDywxjna16s","sub03","03","8","motor","83","img/motor_2.png","83","motor","2","131","1","0","0","",""
"null","128061","HierDywxjna16s","sub03","03","8","iti","null","img/motor_2.png","83","motor","","","","","","",""
"617","128687","HierDywxjna16s","sub03","03","8","motor","70","img/motor_4.png","70","motor","4","132","1","0","0","",""
"null","128799","HierDywxjna16s","sub03","03","8","iti","null","img/motor_4.png","70","motor","","","","","","",""
"351","129159","HierDywxjna16s","sub03","03","8","motor","65","img/motor_1.png","65","motor","1","133","1","0","0","",""
"null","129270","HierDywxjna16s","sub03","03","8","iti","null","img/motor_1.png","65","motor","","","","","","",""
"563","129844","HierDywxjna16s","sub03","03","8","motor","83","img/motor_2.png","83","motor","2","134","1","0","0","",""
"null","129956","HierDywxjna16s","sub03","03","8","iti","null","img/motor_2.png","83","motor","","","","","","",""
"434","130398","HierDywxjna16s","sub03","03","8","motor","83","img/motor_2.png","83","motor","2","135","1","0","0","",""
"null","130510","HierDywxjna16s","sub03","03","8","iti","null","img/motor_2.png","83","motor","","","","","","",""
"417","130935","HierDywxjna16s","sub03","03","8","motor","65","img/motor_1.png","65","motor","1","136","1","0","0","",""
"null","131046","HierDywxjna16s","sub03","03","8","iti","null","img/motor_1.png","65","motor","","","","","","",""
"361","131417","HierDywxjna16s","sub03","03","8","motor","65","img/motor_1.png","65","motor","1","137","1","0","0","",""
"null","131526","HierDywxjna16s","sub03","03","8","iti","null","img/motor_1.png","65","motor","","","","","","",""
"625","132160","HierDywxjna16s","sub03","03","8","motor","68","img/motor_3.png","68","motor","3","138","1","0","0","",""
"null","132272","HierDywxjna16s","sub03","03","8","iti","null","img/motor_3.png","68","motor","","","","","","",""
"470","132750","HierDywxjna16s","sub03","03","8","motor","76","img/motor_8.png","76","motor","8","139","1","0","0","",""
"null","132859","HierDywxjna16s","sub03","03","8","iti","null","img/motor_8.png","76","motor","","","","","","",""
"546","133415","HierDywxjna16s","sub03","03","8","motor","75","img/motor_7.png","75","motor","7","140","1","0","0","",""
"null","133523","HierDywxjna16s","sub03","03","8","iti","null","img/motor_7.png","75","motor","","","","","","",""
"635","134168","HierDywxjna16s","sub03","03","8","motor","83","img/motor_2.png","83","motor","2","141","1","0","0","",""
"null","134279","HierDywxjna16s","sub03","03","8","iti","null","img/motor_2.png","83","motor","","","","","","",""
"417","134706","HierDywxjna16s","sub03","03","8","motor","65","img/motor_1.png","65","motor","1","142","1","0","0","",""
"null","134816","HierDywxjna16s","sub03","03","8","iti","null","img/motor_1.png","65","motor","","","","","","",""
"537","135362","HierDywxjna16s","sub03","03","8","motor","70","img/motor_4.png","70","motor","4","143","1","0","0","",""
"null","135473","HierDywxjna16s","sub03","03","8","iti","null","img/motor_4.png","70","motor","","","","","","",""
"451","135934","HierDywxjna16s","sub03","03","8","motor","72","img/motor_5.png","72","motor","5","144","1","0","0","",""
"null","136042","HierDywxjna16s","sub03","03","8","iti","null","img/motor_5.png","72","motor","","","","","","",""
"403","136455","HierDywxjna16s","sub03","03","8","motor","74","img/motor_6.png","74","motor","6","145","1","0","0","",""
"null","136566","HierDywxjna16s","sub03","03","8","iti","null","img/motor_6.png","74","motor","","","","","","",""
"606","137181","HierDywxjna16s","sub03","03","8","motor","68","img/motor_3.png","68","motor","3","146","1","0","0","",""
"null","137292","HierDywxjna16s","sub03","03","8","iti","null","img/motor_3.png","68","motor","","","","","","",""
"509","137811","HierDywxjna16s","sub03","03","8","motor","72","img/motor_5.png","72","motor","5","147","1","0","0","",""
"null","137920","HierDywxjna16s","sub03","03","8","iti","null","img/motor_5.png","72","motor","","","","","","",""
"579","138508","HierDywxjna16s","sub03","03","8","motor","83","img/motor_2.png","83","motor","2","148","1","0","0","",""
"null","138619","HierDywxjna16s","sub03","03","8","iti","null","img/motor_2.png","83","motor","","","","","","",""
"763","139392","HierDywxjna16s","sub03","03","8","motor","75","img/motor_7.png","75","motor","7","149","1","0","0","",""
"null","139500","HierDywxjna16s","sub03","03","8","iti","null","img/motor_7.png","75","motor","","","","","","",""
"369","139879","HierDywxjna16s","sub03","03","8","motor","72","img/motor_5.png","72","motor","5","150","1","0","0","",""
"null","139988","HierDywxjna16s","sub03","03","8","iti","null","img/motor_5.png","72","motor","","","","","","",""
"521","140517","HierDywxjna16s","sub03","03","8","motor","70","img/motor_4.png","70","motor","4","151","1","0","0","",""
"null","140627","HierDywxjna16s","sub03","03","8","iti","null","img/motor_4.png","70","motor","","","","","","",""
"380","141017","HierDywxjna16s","sub03","03","8","motor","76","img/motor_8.png","76","motor","8","152","1","0","0","",""
"null","141129","HierDywxjna16s","sub03","03","8","iti","null","img/motor_8.png","76","motor","","","","","","",""
"436","141574","HierDywxjna16s","sub03","03","8","motor","65","img/motor_1.png","65","motor","1","153","1","0","0","",""
"null","141685","HierDywxjna16s","sub03","03","8","iti","null","img/motor_1.png","65","motor","","","","","","",""
"663","142358","HierDywxjna16s","sub03","03","8","motor","74","img/motor_6.png","74","motor","6","154","1","0","0","",""
"null","142469","HierDywxjna16s","sub03","03","8","iti","null","img/motor_6.png","74","motor","","","","","","",""
"361","142840","HierDywxjna16s","sub03","03","8","motor","75","img/motor_8.png","76","motor","8","155","0","1","0","",""
"306","143155","HierDywxjna16s","sub03","03","8","motorRepeat","76","img/motor_8.png","76","motor","8","155","1","0","0","",""
"null","143265","HierDywxjna16s","sub03","03","8","iti","null","img/motor_8.png","76","motor","","","","","","",""
"402","143680","HierDywxjna16s","sub03","03","8","motor","72","img/motor_5.png","72","motor","5","156","1","0","0","",""
"null","143790","HierDywxjna16s","sub03","03","8","iti","null","img/motor_5.png","72","motor","","","","","","",""
"406","144205","HierDywxjna16s","sub03","03","8","motor","72","img/motor_5.png","72","motor","5","157","1","0","0","",""
"null","144315","HierDywxjna16s","sub03","03","8","iti","null","img/motor_5.png","72","motor","","","","","","",""
"497","144822","HierDywxjna16s","sub03","03","8","motor","70","img/motor_4.png","70","motor","4","158","1","0","0","",""
"null","144933","HierDywxjna16s","sub03","03","8","iti","null","img/motor_4.png","70","motor","","","","","","",""
"607","145550","HierDywxjna16s","sub03","03","8","motor","74","img/motor_6.png","74","motor","6","159","1","0","0","",""
"null","145660","HierDywxjna16s","sub03","03","8","iti","null","img/motor_6.png","74","motor","","","","","","",""
"329","145997","HierDywxjna16s","sub03","03","8","motor","75","img/motor_7.png","75","motor","7","160","1","0","0","",""
"null","146108","HierDywxjna16s","sub03","03","8","iti","null","img/motor_7.png","75","motor","","","","","","",""
"497","146615","HierDywxjna16s","sub03","03","8","motor","65","img/motor_1.png","65","motor","1","161","1","0","0","",""
"null","146727","HierDywxjna16s","sub03","03","8","iti","null","img/motor_1.png","65","motor","","","","","","",""
"590","147327","HierDywxjna16s","sub03","03","8","motor","75","img/motor_7.png","75","motor","7","162","1","0","0","",""
"null","147435","HierDywxjna16s","sub03","03","8","iti","null","img/motor_7.png","75","motor","","","","","","",""
"388","147833","HierDywxjna16s","sub03","03","8","motor","76","img/motor_8.png","76","motor","8","163","1","0","0","",""
"null","147942","HierDywxjna16s","sub03","03","8","iti","null","img/motor_8.png","76","motor","","","","","","",""
"790","148743","HierDywxjna16s","sub03","03","8","motor","68","img/motor_3.png","68","motor","3","164","1","0","0","",""
"null","148854","HierDywxjna16s","sub03","03","8","iti","null","img/motor_3.png","68","motor","","","","","","",""
"732","149594","HierDywxjna16s","sub03","03","8","motor","75","img/motor_7.png","75","motor","7","165","1","0","0","",""
"null","149705","HierDywxjna16s","sub03","03","8","iti","null","img/motor_7.png","75","motor","","","","","","",""
"635","150349","HierDywxjna16s","sub03","03","8","motor","83","img/motor_2.png","83","motor","2","166","1","0","0","",""
"null","150461","HierDywxjna16s","sub03","03","8","iti","null","img/motor_2.png","83","motor","","","","","","",""
"477","150948","HierDywxjna16s","sub03","03","8","motor","74","img/motor_6.png","74","motor","6","167","1","0","0","",""
"null","151059","HierDywxjna16s","sub03","03","8","iti","null","img/motor_6.png","74","motor","","","","","","",""
"602","151673","HierDywxjna16s","sub03","03","8","motor","68","img/motor_3.png","68","motor","3","168","1","0","0","",""
"null","151784","HierDywxjna16s","sub03","03","8","iti","null","img/motor_3.png","68","motor","","","","","","",""
"385","152179","HierDywxjna16s","sub03","03","8","motor","70","img/motor_5.png","72","motor","5","169","0","1","0","",""
"322","152509","HierDywxjna16s","sub03","03","8","motorRepeat","72","img/motor_5.png","72","motor","5","169","1","0","0","",""
"null","152621","HierDywxjna16s","sub03","03","8","iti","null","img/motor_5.png","72","motor","","","","","","",""
"493","153126","HierDywxjna16s","sub03","03","8","motor","74","img/motor_6.png","74","motor","6","170","1","0","0","",""
"null","153238","HierDywxjna16s","sub03","03","8","iti","null","img/motor_6.png","74","motor","","","","","","",""
"815","154064","HierDywxjna16s","sub03","03","8","motor","83","img/motor_2.png","83","motor","2","171","1","0","0","",""
"null","154175","HierDywxjna16s","sub03","03","8","iti","null","img/motor_2.png","83","motor","","","","","","",""
"454","154641","HierDywxjna16s","sub03","03","8","motor","76","img/motor_8.png","76","motor","8","172","1","0","0","",""
"null","154750","HierDywxjna16s","sub03","03","8","iti","null","img/motor_8.png","76","motor","","","","","","",""
"576","155337","HierDywxjna16s","sub03","03","8","motor","83","img/motor_2.png","83","motor","2","173","1","0","0","",""
"null","155448","HierDywxjna16s","sub03","03","8","iti","null","img/motor_2.png","83","motor","","","","","","",""
"487","155943","HierDywxjna16s","sub03","03","8","motor","70","img/motor_4.png","70","motor","4","174","1","0","0","",""
"null","156054","HierDywxjna16s","sub03","03","8","iti","null","img/motor_4.png","70","motor","","","","","","",""
"435","156499","HierDywxjna16s","sub03","03","8","motor","76","img/motor_8.png","76","motor","8","175","1","0","0","",""
"null","156609","HierDywxjna16s","sub03","03","8","iti","null","img/motor_8.png","76","motor","","","","","","",""
"444","157062","HierDywxjna16s","sub03","03","8","motor","65","img/motor_1.png","65","motor","1","176","1","0","0","",""
"null","157173","HierDywxjna16s","sub03","03","8","iti","null","img/motor_1.png","65","motor","","","","","","",""
"575","157756","HierDywxjna16s","sub03","03","8","motor","72","img/motor_6.png","74","motor","6","177","0","1","0","",""
"320","158086","HierDywxjna16s","sub03","03","8","motorRepeat","74","img/motor_6.png","74","motor","6","177","1","0","0","",""
"null","158198","HierDywxjna16s","sub03","03","8","iti","null","img/motor_6.png","74","motor","","","","","","",""
"657","158865","HierDywxjna16s","sub03","03","8","motor","68","img/motor_3.png","68","motor","3","178","1","0","0","",""
"null","158976","HierDywxjna16s","sub03","03","8","iti","null","img/motor_3.png","68","motor","","","","","","",""
"521","159504","HierDywxjna16s","sub03","03","8","motor","65","img/motor_1.png","65","motor","1","179","1","0","0","",""
"null","159613","HierDywxjna16s","sub03","03","8","iti","null","img/motor_1.png","65","motor","","","","","","",""
"582","160205","HierDywxjna16s","sub03","03","8","motor","70","img/motor_3.png","68","motor","3","180","0","1","0","",""
"268","160484","HierDywxjna16s","sub03","03","8","motorRepeat","68","img/motor_3.png","68","motor","3","180","1","0","0","",""
"null","160593","HierDywxjna16s","sub03","03","8","iti","null","img/motor_3.png","68","motor","","","","","","",""
"547","161150","HierDywxjna16s","sub03","03","8","motor","65","img/motor_1.png","65","motor","1","181","1","0","0","",""
"null","161258","HierDywxjna16s","sub03","03","8","iti","null","img/motor_1.png","65","motor","","","","","","",""
"497","161765","HierDywxjna16s","sub03","03","8","motor","76","img/motor_8.png","76","motor","8","182","1","0","0","",""
"null","161873","HierDywxjna16s","sub03","03","8","iti","null","img/motor_8.png","76","motor","","","","","","",""
"480","162363","HierDywxjna16s","sub03","03","8","motor","72","img/motor_5.png","72","motor","5","183","1","0","0","",""
"null","162474","HierDywxjna16s","sub03","03","8","iti","null","img/motor_5.png","72","motor","","","","","","",""
"538","163020","HierDywxjna16s","sub03","03","8","motor","74","img/motor_6.png","74","motor","6","184","1","0","0","",""
"null","163130","HierDywxjna16s","sub03","03","8","iti","null","img/motor_6.png","74","motor","","","","","","",""
"534","163672","HierDywxjna16s","sub03","03","8","motor","70","img/motor_4.png","70","motor","4","185","1","0","0","",""
"null","163783","HierDywxjna16s","sub03","03","8","iti","null","img/motor_4.png","70","motor","","","","","","",""
"491","164284","HierDywxjna16s","sub03","03","8","motor","68","img/motor_3.png","68","motor","3","186","1","0","0","",""
"null","164396","HierDywxjna16s","sub03","03","8","iti","null","img/motor_3.png","68","motor","","","","","","",""
"492","164898","HierDywxjna16s","sub03","03","8","motor","65","img/motor_1.png","65","motor","1","187","1","0","0","",""
"null","165008","HierDywxjna16s","sub03","03","8","iti","null","img/motor_1.png","65","motor","","","","","","",""
"651","165670","HierDywxjna16s","sub03","03","8","motor","68","img/motor_3.png","68","motor","3","188","1","0","0","",""
"null","165782","HierDywxjna16s","sub03","03","8","iti","null","img/motor_3.png","68","motor","","","","","","",""
"461","166251","HierDywxjna16s","sub03","03","8","motor","76","img/motor_8.png","76","motor","8","189","1","0","0","",""
"null","166361","HierDywxjna16s","sub03","03","8","iti","null","img/motor_8.png","76","motor","","","","","","",""
"574","166946","HierDywxjna16s","sub03","03","8","motor","74","img/motor_6.png","74","motor","6","190","1","0","0","",""
"null","167056","HierDywxjna16s","sub03","03","8","iti","null","img/motor_6.png","74","motor","","","","","","",""
"418","167485","HierDywxjna16s","sub03","03","8","motor","76","img/motor_8.png","76","motor","8","191","1","0","0","",""
"null","167596","HierDywxjna16s","sub03","03","8","iti","null","img/motor_8.png","76","motor","","","","","","",""
"418","168022","HierDywxjna16s","sub03","03","8","motor","65","img/motor_1.png","65","motor","1","192","1","0","0","",""
"null","168133","HierDywxjna16s","sub03","03","8","iti","null","img/motor_1.png","65","motor","","","","","","",""
"494","168637","HierDywxjna16s","sub03","03","8","motor","72","img/motor_5.png","72","motor","5","193","1","0","0","",""
"null","168747","HierDywxjna16s","sub03","03","8","iti","null","img/motor_5.png","72","motor","","","","","","",""
"543","169301","HierDywxjna16s","sub03","03","8","motor","75","img/motor_7.png","75","motor","7","194","1","0","0","",""
"null","169412","HierDywxjna16s","sub03","03","8","iti","null","img/motor_7.png","75","motor","","","","","","",""
"425","169847","HierDywxjna16s","sub03","03","8","motor","76","img/motor_8.png","76","motor","8","195","1","0","0","",""
"null","169959","HierDywxjna16s","sub03","03","8","iti","null","img/motor_8.png","76","motor","","","","","","",""
"707","170677","HierDywxjna16s","sub03","03","8","motor","75","img/motor_7.png","75","motor","7","196","1","0","0","",""
"null","170786","HierDywxjna16s","sub03","03","8","iti","null","img/motor_7.png","75","motor","","","","","","",""
"460","171254","HierDywxjna16s","sub03","03","8","motor","65","img/motor_1.png","65","motor","1","197","1","0","0","",""
"null","171364","HierDywxjna16s","sub03","03","8","iti","null","img/motor_1.png","65","motor","","","","","","",""
"551","171926","HierDywxjna16s","sub03","03","8","motor","75","img/motor_7.png","75","motor","7","198","1","0","0","",""
"null","172037","HierDywxjna16s","sub03","03","8","iti","null","img/motor_7.png","75","motor","","","","","","",""
"427","172472","HierDywxjna16s","sub03","03","8","motor","75","img/motor_7.png","75","motor","7","199","1","0","0","",""
"null","172584","HierDywxjna16s","sub03","03","8","iti","null","img/motor_7.png","75","motor","","","","","","",""
"632","173225","HierDywxjna16s","sub03","03","8","motor","68","img/motor_3.png","68","motor","3","200","1","0","0","",""
"null","173337","HierDywxjna16s","sub03","03","8","iti","null","img/motor_3.png","68","motor","","","","","","",""
"446","173793","HierDywxjna16s","sub03","03","8","motor","65","img/motor_1.png","65","motor","1","201","1","0","0","",""
"null","173903","HierDywxjna16s","sub03","03","8","iti","null","img/motor_1.png","65","motor","","","","","","",""
"511","174425","HierDywxjna16s","sub03","03","8","motor","70","img/motor_4.png","70","motor","4","202","1","0","0","",""
"null","174533","HierDywxjna16s","sub03","03","8","iti","null","img/motor_4.png","70","motor","","","","","","",""
"545","175087","HierDywxjna16s","sub03","03","8","motor","74","img/motor_6.png","74","motor","6","203","1","0","0","",""
"null","175196","HierDywxjna16s","sub03","03","8","iti","null","img/motor_6.png","74","motor","","","","","","",""
"509","175717","HierDywxjna16s","sub03","03","8","motor","70","img/motor_4.png","70","motor","4","204","1","0","0","",""
"null","175827","HierDywxjna16s","sub03","03","8","iti","null","img/motor_4.png","70","motor","","","","","","",""
"385","176221","HierDywxjna16s","sub03","03","8","motor","65","img/motor_1.png","65","motor","1","205","1","0","0","",""
"null","176333","HierDywxjna16s","sub03","03","8","iti","null","img/motor_1.png","65","motor","","","","","","",""
"571","176915","HierDywxjna16s","sub03","03","8","motor","75","img/motor_7.png","75","motor","7","206","1","0","0","",""
"null","177028","HierDywxjna16s","sub03","03","8","iti","null","img/motor_7.png","75","motor","","","","","","",""
"403","177439","HierDywxjna16s","sub03","03","8","motor","72","img/motor_5.png","72","motor","5","207","1","0","0","",""
"null","177550","HierDywxjna16s","sub03","03","8","iti","null","img/motor_5.png","72","motor","","","","","","",""
"409","177968","HierDywxjna16s","sub03","03","8","motor","75","img/motor_7.png","75","motor","7","208","1","0","0","",""
"null","178077","HierDywxjna16s","sub03","03","8","iti","null","img/motor_7.png","75","motor","","","","","","",""
"351","178439","HierDywxjna16s","sub03","03","8","motor","76","img/motor_8.png","76","motor","8","209","1","0","0","",""
"null","178551","HierDywxjna16s","sub03","03","8","iti","null","img/motor_8.png","76","motor","","","","","","",""
"415","178977","HierDywxjna16s","sub03","03","8","motor","75","img/motor_7.png","75","motor","7","210","1","0","0","",""
"null","179088","HierDywxjna16s","sub03","03","8","iti","null","img/motor_7.png","75","motor","","","","","","",""
"360","179458","HierDywxjna16s","sub03","03","8","motor","72","img/motor_5.png","72","motor","5","211","1","0","0","",""
"null","179568","HierDywxjna16s","sub03","03","8","iti","null","img/motor_5.png","72","motor","","","","","","",""
"473","180051","HierDywxjna16s","sub03","03","8","motor","70","img/motor_4.png","70","motor","4","212","1","0","0","",""
"null","180162","HierDywxjna16s","sub03","03","8","iti","null","img/motor_4.png","70","motor","","","","","","",""
"581","180753","HierDywxjna16s","sub03","03","8","motor","74","img/motor_6.png","74","motor","6","213","1","0","0","",""
"null","180863","HierDywxjna16s","sub03","03","8","iti","null","img/motor_6.png","74","motor","","","","","","",""
"361","181235","HierDywxjna16s","sub03","03","8","motor","72","img/motor_5.png","72","motor","5","214","1","0","0","",""
"null","181346","HierDywxjna16s","sub03","03","8","iti","null","img/motor_5.png","72","motor","","","","","","",""
"335","181691","HierDywxjna16s","sub03","03","8","motor","76","img/motor_8.png","76","motor","8","215","1","0","0","",""
"null","181805","HierDywxjna16s","sub03","03","8","iti","null","img/motor_8.png","76","motor","","","","","","",""
"549","182365","HierDywxjna16s","sub03","03","8","motor","72","img/motor_5.png","72","motor","5","216","1","0","0","",""
"null","182476","HierDywxjna16s","sub03","03","8","iti","null","img/motor_5.png","72","motor","","","","","","",""
"524","183011","HierDywxjna16s","sub03","03","8","motor","70","img/motor_4.png","70","motor","4","217","1","0","0","",""
"null","183124","HierDywxjna16s","sub03","03","8","iti","null","img/motor_4.png","70","motor","","","","","","",""
"364","183497","HierDywxjna16s","sub03","03","8","motor","65","img/motor_1.png","65","motor","1","218","1","0","0","",""
"null","183609","HierDywxjna16s","sub03","03","8","iti","null","img/motor_1.png","65","motor","","","","","","",""
"441","184061","HierDywxjna16s","sub03","03","8","motor","76","img/motor_8.png","76","motor","8","219","1","0","0","",""
"null","184172","HierDywxjna16s","sub03","03","8","iti","null","img/motor_8.png","76","motor","","","","","","",""
"365","184548","HierDywxjna16s","sub03","03","8","motor","65","img/motor_1.png","65","motor","1","220","1","0","0","",""
"null","184658","HierDywxjna16s","sub03","03","8","iti","null","img/motor_1.png","65","motor","","","","","","",""
"486","185155","HierDywxjna16s","sub03","03","8","motor","83","img/motor_2.png","83","motor","2","221","1","0","0","",""
"null","185268","HierDywxjna16s","sub03","03","8","iti","null","img/motor_2.png","83","motor","","","","","","",""
"463","185743","HierDywxjna16s","sub03","03","8","motor","83","img/motor_2.png","83","motor","2","222","1","0","0","",""
"null","185855","HierDywxjna16s","sub03","03","8","iti","null","img/motor_2.png","83","motor","","","","","","",""
"704","186571","HierDywxjna16s","sub03","03","8","motor","74","img/motor_6.png","74","motor","6","223","1","0","0","",""
"null","186683","HierDywxjna16s","sub03","03","8","iti","null","img/motor_6.png","74","motor","","","","","","",""
"765","187457","HierDywxjna16s","sub03","03","8","motor","68","img/motor_3.png","68","motor","3","224","1","0","0","",""
"null","187571","HierDywxjna16s","sub03","03","8","iti","null","img/motor_3.png","68","motor","","","","","","",""
"479","188061","HierDywxjna16s","sub03","03","8","motor","76","img/motor_8.png","76","motor","8","225","1","0","0","",""
"null","188172","HierDywxjna16s","sub03","03","8","iti","null","img/motor_8.png","76","motor","","","","","","",""
"529","188713","HierDywxjna16s","sub03","03","8","motor","74","img/motor_6.png","74","motor","6","226","1","0","0","",""
"null","188824","HierDywxjna16s","sub03","03","8","iti","null","img/motor_6.png","74","motor","","","","","","",""
"632","189466","HierDywxjna16s","sub03","03","8","motor","83","img/motor_2.png","83","motor","2","227","1","0","0","",""
"null","189578","HierDywxjna16s","sub03","03","8","iti","null","img/motor_2.png","83","motor","","","","","","",""
"500","190087","HierDywxjna16s","sub03","03","8","motor","68","img/motor_3.png","68","motor","3","228","1","0","0","",""
"null","190197","HierDywxjna16s","sub03","03","8","iti","null","img/motor_3.png","68","motor","","","","","","",""
"443","190651","HierDywxjna16s","sub03","03","8","motor","72","img/motor_5.png","72","motor","5","229","1","0","0","",""
"null","190759","HierDywxjna16s","sub03","03","8","iti","null","img/motor_5.png","72","motor","","","","","","",""
"524","191293","HierDywxjna16s","sub03","03","8","motor","70","img/motor_4.png","70","motor","4","230","1","0","0","",""
"null","191405","HierDywxjna16s","sub03","03","8","iti","null","img/motor_4.png","70","motor","","","","","","",""
"600","192012","HierDywxjna16s","sub03","03","8","motor","74","img/motor_6.png","74","motor","6","231","1","0","0","",""
"null","192123","HierDywxjna16s","sub03","03","8","iti","null","img/motor_6.png","74","motor","","","","","","",""
"531","192664","HierDywxjna16s","sub03","03","8","motor","83","img/motor_2.png","83","motor","2","232","1","0","0","",""
"null","192776","HierDywxjna16s","sub03","03","8","iti","null","img/motor_2.png","83","motor","","","","","","",""
"465","193251","HierDywxjna16s","sub03","03","8","motor","72","img/motor_5.png","72","motor","5","233","1","0","0","",""
"null","193363","HierDywxjna16s","sub03","03","8","iti","null","img/motor_5.png","72","motor","","","","","","",""
"611","193983","HierDywxjna16s","sub03","03","8","motor","68","img/motor_3.png","68","motor","3","234","1","0","0","",""
"null","194095","HierDywxjna16s","sub03","03","8","iti","null","img/motor_3.png","68","motor","","","","","","",""
"638","194743","HierDywxjna16s","sub03","03","8","motor","75","img/motor_7.png","75","motor","7","235","1","0","0","",""
"null","194853","HierDywxjna16s","sub03","03","8","iti","null","img/motor_7.png","75","motor","","","","","","",""
"635","195497","HierDywxjna16s","sub03","03","8","motor","74","img/motor_6.png","74","motor","6","236","1","0","0","",""
"null","195608","HierDywxjna16s","sub03","03","8","iti","null","img/motor_6.png","74","motor","","","","","","",""
"373","195991","HierDywxjna16s","sub03","03","8","motor","76","img/motor_8.png","76","motor","8","237","1","0","0","",""
"null","196102","HierDywxjna16s","sub03","03","8","iti","null","img/motor_8.png","76","motor","","","","","","",""
"808","196919","HierDywxjna16s","sub03","03","8","motor","74","img/motor_6.png","74","motor","6","238","1","0","0","",""
"null","197028","HierDywxjna16s","sub03","03","8","iti","null","img/motor_6.png","74","motor","","","","","","",""
"593","197630","HierDywxjna16s","sub03","03","8","motor","83","img/motor_2.png","83","motor","2","239","1","0","0","",""
"null","197742","HierDywxjna16s","sub03","03","8","iti","null","img/motor_2.png","83","motor","","","","","","",""
"469","198221","HierDywxjna16s","sub03","03","8","motor","74","img/motor_6.png","74","motor","6","240","1","0","0","",""
"null","198332","HierDywxjna16s","sub03","03","8","iti","null","img/motor_6.png","74","motor","","","","","","",""
"557","198899","HierDywxjna16s","sub03","03","8","motor","65","img/motor_1.png","65","motor","1","241","1","0","0","",""
"null","199008","HierDywxjna16s","sub03","03","8","iti","null","img/motor_1.png","65","motor","","","","","","",""
"553","199572","HierDywxjna16s","sub03","03","8","motor","74","img/motor_6.png","74","motor","6","242","1","0","0","",""
"null","199683","HierDywxjna16s","sub03","03","8","iti","null","img/motor_6.png","74","motor","","","","","","",""
"413","200105","HierDywxjna16s","sub03","03","8","motor","65","img/motor_1.png","65","motor","1","243","1","0","0","",""
"null","200217","HierDywxjna16s","sub03","03","8","iti","null","img/motor_1.png","65","motor","","","","","","",""
"683","200909","HierDywxjna16s","sub03","03","8","motor","75","img/motor_7.png","75","motor","7","244","1","0","0","",""
"null","201020","HierDywxjna16s","sub03","03","8","iti","null","img/motor_7.png","75","motor","","","","","","",""
"752","201783","HierDywxjna16s","sub03","03","8","motor","68","img/motor_3.png","68","motor","3","245","1","0","0","",""
"null","201895","HierDywxjna16s","sub03","03","8","iti","null","img/motor_3.png","68","motor","","","","","","",""
"385","202289","HierDywxjna16s","sub03","03","8","motor","68","img/motor_3.png","68","motor","3","246","1","0","0","",""
"null","202402","HierDywxjna16s","sub03","03","8","iti","null","img/motor_3.png","68","motor","","","","","","",""
"629","203042","HierDywxjna16s","sub03","03","8","motor","75","img/motor_7.png","75","motor","7","247","1","0","0","",""
"null","203154","HierDywxjna16s","sub03","03","8","iti","null","img/motor_7.png","75","motor","","","","","","",""
"520","203685","HierDywxjna16s","sub03","03","8","motor","68","img/motor_3.png","68","motor","3","248","1","0","0","",""
"null","203797","HierDywxjna16s","sub03","03","8","iti","null","img/motor_3.png","68","motor","","","","","","",""
"339","204146","HierDywxjna16s","sub03","03","8","motor","68","img/motor_3.png","68","motor","3","249","1","0","0","",""
"null","204258","HierDywxjna16s","sub03","03","8","iti","null","img/motor_3.png","68","motor","","","","","","",""
"495","204762","HierDywxjna16s","sub03","03","8","motor","70","img/motor_4.png","70","motor","4","250","1","0","0","",""
"null","204875","HierDywxjna16s","sub03","03","8","iti","null","img/motor_4.png","70","motor","","","","","","",""
"416","205303","HierDywxjna16s","sub03","03","8","motor","75","img/motor_8.png","76","motor","8","251","0","1","0","",""
"290","205603","HierDywxjna16s","sub03","03","8","motorRepeat","76","img/motor_8.png","76","motor","8","251","1","0","0","",""
"null","205714","HierDywxjna16s","sub03","03","8","iti","null","img/motor_8.png","76","motor","","","","","","",""
"441","206164","HierDywxjna16s","sub03","03","8","motor","75","img/motor_7.png","75","motor","7","252","1","0","0","",""
"null","206276","HierDywxjna16s","sub03","03","8","iti","null","img/motor_7.png","75","motor","","","","","","",""
"511","206796","HierDywxjna16s","sub03","03","8","motor","65","img/motor_1.png","65","motor","1","253","1","0","0","",""
"null","206907","HierDywxjna16s","sub03","03","8","iti","null","img/motor_1.png","65","motor","","","","","","",""
"463","207381","HierDywxjna16s","sub03","03","8","motor","72","img/motor_5.png","72","motor","5","254","1","0","0","",""
"null","207490","HierDywxjna16s","sub03","03","8","iti","null","img/motor_5.png","72","motor","","","","","","",""
"502","208002","HierDywxjna16s","sub03","03","8","motor","83","img/motor_2.png","83","motor","2","255","1","0","0","",""
"null","208114","HierDywxjna16s","sub03","03","8","iti","null","img/motor_2.png","83","motor","","","","","","",""
"520","208642","HierDywxjna16s","sub03","03","8","motor","75","img/motor_7.png","75","motor","7","256","1","0","0","",""
"null","208752","HierDywxjna16s","sub03","03","8","iti","null","img/motor_7.png","75","motor","","","","","","",""
"358","209121","HierDywxjna16s","sub03","03","8","motor","83","img/motor_1.png","65","motor","1","257","0","1","0","",""
"291","209423","HierDywxjna16s","sub03","03","8","motorRepeat","65","img/motor_1.png","65","motor","1","257","1","0","0","",""
"null","209535","HierDywxjna16s","sub03","03","8","iti","null","img/motor_1.png","65","motor","","","","","","",""
"486","210030","HierDywxjna16s","sub03","03","8","motor","70","img/motor_4.png","70","motor","4","258","1","0","0","",""
"null","210141","HierDywxjna16s","sub03","03","8","iti","null","img/motor_4.png","70","motor","","","","","","",""
"647","210798","HierDywxjna16s","sub03","03","8","motor","75","img/motor_7.png","75","motor","7","259","1","0","0","",""
"null","210906","HierDywxjna16s","sub03","03","8","iti","null","img/motor_7.png","75","motor","","","","","","",""
"587","211502","HierDywxjna16s","sub03","03","8","motor","68","img/motor_3.png","68","motor","3","260","1","0","0","",""
"null","211613","HierDywxjna16s","sub03","03","8","iti","null","img/motor_3.png","68","motor","","","","","","",""
"505","212126","HierDywxjna16s","sub03","03","8","motor","74","img/motor_6.png","74","motor","6","261","1","0","0","",""
"null","212237","HierDywxjna16s","sub03","03","8","iti","null","img/motor_6.png","74","motor","","","","","","",""
"453","212701","HierDywxjna16s","sub03","03","8","motor","70","img/motor_4.png","70","motor","4","262","1","0","0","",""
"null","212812","HierDywxjna16s","sub03","03","8","iti","null","img/motor_4.png","70","motor","","","","","","",""
"459","213281","HierDywxjna16s","sub03","03","8","motor","74","img/motor_6.png","74","motor","6","263","1","0","0","",""
"null","213394","HierDywxjna16s","sub03","03","8","iti","null","img/motor_6.png","74","motor","","","","","","",""
"626","214031","HierDywxjna16s","sub03","03","8","motor","70","img/motor_4.png","70","motor","4","264","1","0","0","",""
"null","214142","HierDywxjna16s","sub03","03","8","iti","null","img/motor_4.png","70","motor","","","","","","",""
"406","214558","HierDywxjna16s","sub03","03","8","motor","68","img/motor_3.png","68","motor","3","265","1","0","0","",""
"null","214669","HierDywxjna16s","sub03","03","8","iti","null","img/motor_3.png","68","motor","","","","","","",""
"452","215131","HierDywxjna16s","sub03","03","8","motor","70","img/motor_4.png","70","motor","4","266","1","0","0","",""
"null","215240","HierDywxjna16s","sub03","03","8","iti","null","img/motor_4.png","70","motor","","","","","","",""
"414","215667","HierDywxjna16s","sub03","03","8","motor","65","img/motor_1.png","65","motor","1","267","1","0","0","",""
"null","215779","HierDywxjna16s","sub03","03","8","iti","null","img/motor_1.png","65","motor","","","","","","",""
"599","216389","HierDywxjna16s","sub03","03","8","motor","72","img/motor_5.png","72","motor","5","268","1","0","0","",""
"null","216499","HierDywxjna16s","sub03","03","8","iti","null","img/motor_5.png","72","motor","","","","","","",""
"497","217006","HierDywxjna16s","sub03","03","8","motor","74","img/motor_6.png","74","motor","6","269","1","0","0","",""
"null","217116","HierDywxjna16s","sub03","03","8","iti","null","img/motor_6.png","74","motor","","","","","","",""
"397","217521","HierDywxjna16s","sub03","03","8","motor","75","img/motor_7.png","75","motor","7","270","1","0","0","",""
"null","217630","HierDywxjna16s","sub03","03","8","iti","null","img/motor_7.png","75","motor","","","","","","",""
"410","218052","HierDywxjna16s","sub03","03","8","motor","76","img/motor_8.png","76","motor","8","271","1","0","0","",""
"null","218163","HierDywxjna16s","sub03","03","8","iti","null","img/motor_8.png","76","motor","","","","","","",""
"440","218614","HierDywxjna16s","sub03","03","8","motor","70","img/motor_4.png","70","motor","4","272","1","0","0","",""
"null","218726","HierDywxjna16s","sub03","03","8","iti","null","img/motor_4.png","70","motor","","","","","","",""
"407","219143","HierDywxjna16s","sub03","03","8","motor","70","img/motor_4.png","70","motor","4","273","1","0","0","",""
"null","219252","HierDywxjna16s","sub03","03","8","iti","null","img/motor_4.png","70","motor","","","","","","",""
"380","219643","HierDywxjna16s","sub03","03","8","motor","65","img/motor_1.png","65","motor","1","274","1","0","0","",""
"null","219753","HierDywxjna16s","sub03","03","8","iti","null","img/motor_1.png","65","motor","","","","","","",""
"562","220326","HierDywxjna16s","sub03","03","8","motor","68","img/motor_3.png","68","motor","3","275","1","0","0","",""
"null","220435","HierDywxjna16s","sub03","03","8","iti","null","img/motor_3.png","68","motor","","","","","","",""
"493","220937","HierDywxjna16s","sub03","03","8","motor","75","img/motor_7.png","75","motor","7","276","1","0","0","",""
"null","221048","HierDywxjna16s","sub03","03","8","iti","null","img/motor_7.png","75","motor","","","","","","",""
"381","221438","HierDywxjna16s","sub03","03","8","motor","72","img/motor_5.png","72","motor","5","277","1","0","0","",""
"null","221548","HierDywxjna16s","sub03","03","8","iti","null","img/motor_5.png","72","motor","","","","","","",""
"678","222237","HierDywxjna16s","sub03","03","8","motor","68","img/motor_3.png","68","motor","3","278","1","0","0","",""
"null","222349","HierDywxjna16s","sub03","03","8","iti","null","img/motor_3.png","68","motor","","","","","","",""
"611","222971","HierDywxjna16s","sub03","03","8","motor","74","img/motor_6.png","74","motor","6","279","1","0","0","",""
"null","223081","HierDywxjna16s","sub03","03","8","iti","null","img/motor_6.png","74","motor","","","","","","",""
"414","223505","HierDywxjna16s","sub03","03","8","motor","70","img/motor_4.png","70","motor","4","280","1","0","0","",""
"null","223616","HierDywxjna16s","sub03","03","8","iti","null","img/motor_4.png","70","motor","","","","","","",""
"604","224231","HierDywxjna16s","sub03","03","8","motor","75","img/motor_7.png","75","motor","7","281","1","0","0","",""
"null","224343","HierDywxjna16s","sub03","03","8","iti","null","img/motor_7.png","75","motor","","","","","","",""
"368","224722","HierDywxjna16s","sub03","03","8","motor","70","img/motor_4.png","70","motor","4","282","1","0","0","",""
"null","224832","HierDywxjna16s","sub03","03","8","iti","null","img/motor_4.png","70","motor","","","","","","",""
"647","225487","HierDywxjna16s","sub03","03","8","motor","68","img/motor_3.png","68","motor","3","283","1","0","0","",""
"null","225599","HierDywxjna16s","sub03","03","8","iti","null","img/motor_3.png","68","motor","","","","","","",""
"517","226127","HierDywxjna16s","sub03","03","8","motor","83","img/motor_2.png","83","motor","2","284","1","0","0","",""
"null","226239","HierDywxjna16s","sub03","03","8","iti","null","img/motor_2.png","83","motor","","","","","","",""
"665","226915","HierDywxjna16s","sub03","03","8","motor","74","img/motor_6.png","74","motor","6","285","1","0","0","",""
"null","227026","HierDywxjna16s","sub03","03","8","iti","null","img/motor_6.png","74","motor","","","","","","",""
"343","227381","HierDywxjna16s","sub03","03","8","motor","75","img/motor_7.png","75","motor","7","286","1","0","0","",""
"null","227491","HierDywxjna16s","sub03","03","8","iti","null","img/motor_7.png","75","motor","","","","","","",""
"388","227889","HierDywxjna16s","sub03","03","8","motor","72","img/motor_5.png","72","motor","5","287","1","0","0","",""
"null","228000","HierDywxjna16s","sub03","03","8","iti","null","img/motor_5.png","72","motor","","","","","","",""
"422","228433","HierDywxjna16s","sub03","03","8","motor","72","img/motor_5.png","72","motor","5","288","1","0","0","",""
"null","228544","HierDywxjna16s","sub03","03","8","iti","null","img/motor_5.png","72","motor","","","","","","",""
"344","228898","HierDywxjna16s","sub03","03","8","motor","76","img/motor_8.png","76","motor","8","289","1","0","0","",""
"null","229009","HierDywxjna16s","sub03","03","8","iti","null","img/motor_8.png","76","motor","","","","","","",""
"349","229370","HierDywxjna16s","sub03","03","8","motor","76","img/motor_8.png","76","motor","8","290","1","0","0","",""
"null","229481","HierDywxjna16s","sub03","03","8","iti","null","img/motor_8.png","76","motor","","","","","","",""
"628","230119","HierDywxjna16s","sub03","03","8","motor","68","img/motor_3.png","68","motor","3","291","1","0","0","",""
"null","230230","HierDywxjna16s","sub03","03","8","iti","null","img/motor_3.png","68","motor","","","","","","",""
"442","230682","HierDywxjna16s","sub03","03","8","motor","72","img/motor_5.png","72","motor","5","292","1","0","0","",""
"null","230791","HierDywxjna16s","sub03","03","8","iti","null","img/motor_5.png","72","motor","","","","","","",""
"495","231295","HierDywxjna16s","sub03","03","8","motor","76","img/motor_8.png","76","motor","8","293","1","0","0","",""
"null","231407","HierDywxjna16s","sub03","03","8","iti","null","img/motor_8.png","76","motor","","","","","","",""
"349","231767","HierDywxjna16s","sub03","03","8","motor","76","img/motor_8.png","76","motor","8","294","1","0","0","",""
"null","231878","HierDywxjna16s","sub03","03","8","iti","null","img/motor_8.png","76","motor","","","","","","",""
"518","232407","HierDywxjna16s","sub03","03","8","motor","74","img/motor_6.png","74","motor","6","295","1","0","0","",""
"null","232516","HierDywxjna16s","sub03","03","8","iti","null","img/motor_6.png","74","motor","","","","","","",""
"455","232981","HierDywxjna16s","sub03","03","8","motor","65","img/motor_1.png","65","motor","1","296","1","0","0","",""
"null","233092","HierDywxjna16s","sub03","03","8","iti","null","img/motor_1.png","65","motor","","","","","","",""
"484","233588","HierDywxjna16s","sub03","03","8","motor","83","img/motor_2.png","83","motor","2","297","1","0","0","",""
"null","233701","HierDywxjna16s","sub03","03","8","iti","null","img/motor_2.png","83","motor","","","","","","",""
"468","234178","HierDywxjna16s","sub03","03","8","motor","68","img/motor_3.png","68","motor","3","298","1","0","0","",""
"null","234289","HierDywxjna16s","sub03","03","8","iti","null","img/motor_3.png","68","motor","","","","","","",""
"530","234829","HierDywxjna16s","sub03","03","8","motor","75","img/motor_7.png","75","motor","7","299","1","0","0","",""
"null","234940","HierDywxjna16s","sub03","03","8","iti","null","img/motor_7.png","75","motor","","","","","","",""
"462","235414","HierDywxjna16s","sub03","03","8","motor","68","img/motor_4.png","70","motor","4","300","0","1","0","",""
"304","235729","HierDywxjna16s","sub03","03","8","motorRepeat","70","img/motor_4.png","70","motor","4","300","1","0","0","",""
"null","235839","HierDywxjna16s","sub03","03","8","iti","null","img/motor_4.png","70","motor","","","","","","",""
"386","236236","HierDywxjna16s","sub03","03","8","motor","70","img/motor_5.png","72","motor","5","301","0","1","0","",""
"310","236557","HierDywxjna16s","sub03","03","8","motorRepeat","72","img/motor_5.png","72","motor","5","301","1","0","0","",""
"null","236669","HierDywxjna16s","sub03","03","8","iti","null","img/motor_5.png","72","motor","","","","","","",""
"681","237361","HierDywxjna16s","sub03","03","8","motor","75","img/motor_7.png","75","motor","7","302","1","0","0","",""
"null","237469","HierDywxjna16s","sub03","03","8","iti","null","img/motor_7.png","75","motor","","","","","","",""
"658","238138","HierDywxjna16s","sub03","03","8","motor","68","img/motor_4.png","70","motor","4","303","0","1","0","",""
"339","238489","HierDywxjna16s","sub03","03","8","motorRepeat","70","img/motor_4.png","70","motor","4","303","1","0","0","",""
"null","238601","HierDywxjna16s","sub03","03","8","iti","null","img/motor_4.png","70","motor","","","","","","",""
"782","239393","HierDywxjna16s","sub03","03","8","motor","75","img/motor_7.png","75","motor","7","304","1","0","0","",""
"null","239502","HierDywxjna16s","sub03","03","8","iti","null","img/motor_7.png","75","motor","","","","","","",""
"407","239920","HierDywxjna16s","sub03","03","8","motor","72","img/motor_5.png","72","motor","5","305","1","0","0","",""
"null","240030","HierDywxjna16s","sub03","03","8","iti","null","img/motor_5.png","72","motor","","","","","","",""
"351","240393","HierDywxjna16s","sub03","03","8","motor","72","img/motor_5.png","72","motor","5","306","1","0","0","",""
"null","240503","HierDywxjna16s","sub03","03","8","iti","null","img/motor_5.png","72","motor","","","","","","",""
"430","240941","HierDywxjna16s","sub03","03","8","motor","65","img/motor_1.png","65","motor","1","307","1","0","0","",""
"null","241052","HierDywxjna16s","sub03","03","8","iti","null","img/motor_1.png","65","motor","","","","","","",""
"464","241527","HierDywxjna16s","sub03","03","8","motor","83","img/motor_2.png","83","motor","2","308","1","0","0","",""
"null","241638","HierDywxjna16s","sub03","03","8","iti","null","img/motor_2.png","83","motor","","","","","","",""
"340","241987","HierDywxjna16s","sub03","03","8","motor","68","img/motor_3.png","68","motor","3","309","1","0","0","",""
"null","242100","HierDywxjna16s","sub03","03","8","iti","null","img/motor_3.png","68","motor","","","","","","",""
"391","242501","HierDywxjna16s","sub03","03","8","motor","65","img/motor_1.png","65","motor","1","310","1","0","0","",""
"null","242612","HierDywxjna16s","sub03","03","8","iti","null","img/motor_1.png","65","motor","","","","","","",""
"489","243113","HierDywxjna16s","sub03","03","8","motor","83","img/motor_2.png","83","motor","2","311","1","0","0","",""
"null","243225","HierDywxjna16s","sub03","03","8","iti","null","img/motor_2.png","83","motor","","","","","","",""
"439","243675","HierDywxjna16s","sub03","03","8","motor","68","img/motor_3.png","68","motor","3","312","1","0","0","",""
"null","243787","HierDywxjna16s","sub03","03","8","iti","null","img/motor_3.png","68","motor","","","","","","",""
"508","244304","HierDywxjna16s","sub03","03","8","motor","68","img/motor_3.png","68","motor","3","313","1","0","0","",""
"null","244417","HierDywxjna16s","sub03","03","8","iti","null","img/motor_3.png","68","motor","","","","","","",""
"609","245037","HierDywxjna16s","sub03","03","8","motor","76","img/motor_8.png","76","motor","8","314","1","0","0","",""
"null","245149","HierDywxjna16s","sub03","03","8","iti","null","img/motor_8.png","76","motor","","","","","","",""
"523","245681","HierDywxjna16s","sub03","03","8","motor","70","img/motor_4.png","70","motor","4","315","1","0","0","",""
"null","245791","HierDywxjna16s","sub03","03","8","iti","null","img/motor_4.png","70","motor","","","","","","",""
"485","246288","HierDywxjna16s","sub03","03","8","motor","68","img/motor_3.png","68","motor","3","316","1","0","0","",""
"null","246401","HierDywxjna16s","sub03","03","8","iti","null","img/motor_3.png","68","motor","","","","","","",""
"450","246864","HierDywxjna16s","sub03","03","8","motor","76","img/motor_8.png","76","motor","8","317","1","0","0","",""
"null","246976","HierDywxjna16s","sub03","03","8","iti","null","img/motor_8.png","76","motor","","","","","","",""
"549","247535","HierDywxjna16s","sub03","03","8","motor","70","img/motor_4.png","70","motor","4","318","1","0","0","",""
"null","247646","HierDywxjna16s","sub03","03","8","iti","null","img/motor_4.png","70","motor","","","","","","",""
"517","248175","HierDywxjna16s","sub03","03","8","motor","75","img/motor_7.png","75","motor","7","319","1","0","0","",""
"null","248284","HierDywxjna16s","sub03","03","8","iti","null","img/motor_7.png","75","motor","","","","","","",""
"528","248824","HierDywxjna16s","sub03","03","8","motor","74","img/motor_6.png","74","motor","6","320","1","0","0","",""
"null","248934","HierDywxjna16s","sub03","03","8","iti","null","img/motor_6.png","74","motor","","","","","","",""
"338","249284","HierDywxjna16s","sub03","03","8","motor","72","img/motor_5.png","72","motor","5","321","1","0","0","",""
"null","249396","HierDywxjna16s","sub03","03","8","iti","null","img/motor_5.png","72","motor","","","","","","",""
"423","249830","HierDywxjna16s","sub03","03","8","motor","65","img/motor_1.png","65","motor","1","322","1","0","0","",""
"null","249943","HierDywxjna16s","sub03","03","8","iti","null","img/motor_1.png","65","motor","","","","","","",""
"402","250359","HierDywxjna16s","sub03","03","8","motor","65","img/motor_1.png","65","motor","1","323","1","0","0","",""
"null","250473","HierDywxjna16s","sub03","03","8","iti","null","img/motor_1.png","65","motor","","","","","","",""
"604","251089","HierDywxjna16s","sub03","03","8","motor","74","img/motor_6.png","74","motor","6","324","1","0","0","",""
"null","251202","HierDywxjna16s","sub03","03","8","iti","null","img/motor_6.png","74","motor","","","","","","",""
"348","251562","HierDywxjna16s","sub03","03","8","motor","72","img/motor_5.png","72","motor","5","325","1","0","0","",""
"null","251674","HierDywxjna16s","sub03","03","8","iti","null","img/motor_5.png","72","motor","","","","","","",""
"580","252263","HierDywxjna16s","sub03","03","8","motor","83","img/motor_2.png","83","motor","2","326","1","0","0","",""
"null","252376","HierDywxjna16s","sub03","03","8","iti","null","img/motor_2.png","83","motor","","","","","","",""
"473","252859","HierDywxjna16s","sub03","03","8","motor","70","img/motor_4.png","70","motor","4","327","1","0","0","",""
"null","252970","HierDywxjna16s","sub03","03","8","iti","null","img/motor_4.png","70","motor","","","","","","",""
"403","253385","HierDywxjna16s","sub03","03","8","motor","70","img/motor_4.png","70","motor","4","328","1","0","0","",""
"null","253495","HierDywxjna16s","sub03","03","8","iti","null","img/motor_4.png","70","motor","","","","","","",""
"386","253891","HierDywxjna16s","sub03","03","8","motor","76","img/motor_8.png","76","motor","8","329","1","0","0","",""
"null","254002","HierDywxjna16s","sub03","03","8","iti","null","img/motor_8.png","76","motor","","","","","","",""
"787","254797","HierDywxjna16s","sub03","03","8","motor","68","img/motor_3.png","68","motor","3","330","1","0","0","",""
"null","254909","HierDywxjna16s","sub03","03","8","iti","null","img/motor_3.png","68","motor","","","","","","",""
"554","255474","HierDywxjna16s","sub03","03","8","motor","75","img/motor_7.png","75","motor","7","331","1","0","0","",""
"null","255586","HierDywxjna16s","sub03","03","8","iti","null","img/motor_7.png","75","motor","","","","","","",""
"582","256179","HierDywxjna16s","sub03","03","8","motor","68","img/motor_3.png","68","motor","3","332","1","0","0","",""
"null","256292","HierDywxjna16s","sub03","03","8","iti","null","img/motor_3.png","68","motor","","","","","","",""
"414","256716","HierDywxjna16s","sub03","03","8","motor","68","img/motor_3.png","68","motor","3","333","1","0","0","",""
"null","256826","HierDywxjna16s","sub03","03","8","iti","null","img/motor_3.png","68","motor","","","","","","",""
"438","257276","HierDywxjna16s","sub03","03","8","motor","83","img/motor_2.png","83","motor","2","334","1","0","0","",""
"null","257387","HierDywxjna16s","sub03","03","8","iti","null","img/motor_2.png","83","motor","","","","","","",""
"432","257829","HierDywxjna16s","sub03","03","8","motor","76","img/motor_8.png","76","motor","8","335","1","0","0","",""
"null","257941","HierDywxjna16s","sub03","03","8","iti","null","img/motor_8.png","76","motor","","","","","","",""
"493","258445","HierDywxjna16s","sub03","03","8","motor","70","img/motor_4.png","70","motor","4","336","1","0","0","",""
"null","258556","HierDywxjna16s","sub03","03","8","iti","null","img/motor_4.png","70","motor","","","","","","",""
"474","259041","HierDywxjna16s","sub03","03","8","motor","83","img/motor_2.png","83","motor","2","337","1","0","0","",""
"null","259151","HierDywxjna16s","sub03","03","8","iti","null","img/motor_2.png","83","motor","","","","","","",""
"592","259750","HierDywxjna16s","sub03","03","8","motor","74","img/motor_6.png","74","motor","6","338","1","0","0","",""
"null","259860","HierDywxjna16s","sub03","03","8","iti","null","img/motor_6.png","74","motor","","","","","","",""
"485","260355","HierDywxjna16s","sub03","03","8","motor","72","img/motor_5.png","72","motor","5","339","1","0","0","",""
"null","260468","HierDywxjna16s","sub03","03","8","iti","null","img/motor_5.png","72","motor","","","","","","",""
"625","261103","HierDywxjna16s","sub03","03","8","motor","68","img/motor_3.png","68","motor","3","340","1","0","0","",""
"null","261214","HierDywxjna16s","sub03","03","8","iti","null","img/motor_3.png","68","motor","","","","","","",""
"470","261696","HierDywxjna16s","sub03","03","8","motor","74","img/motor_6.png","74","motor","6","341","1","0","0","",""
"null","261806","HierDywxjna16s","sub03","03","8","iti","null","img/motor_6.png","74","motor","","","","","","",""
"347","262163","HierDywxjna16s","sub03","03","8","motor","74","img/motor_6.png","74","motor","6","342","1","0","0","",""
"null","262275","HierDywxjna16s","sub03","03","8","iti","null","img/motor_6.png","74","motor","","","","","","",""
"375","262660","HierDywxjna16s","sub03","03","8","motor","76","img/motor_8.png","76","motor","8","343","1","0","0","",""
"null","262771","HierDywxjna16s","sub03","03","8","iti","null","img/motor_8.png","76","motor","","","","","","",""
"536","263317","HierDywxjna16s","sub03","03","8","motor","68","img/motor_3.png","68","motor","3","344","1","0","0","",""
"null","263426","HierDywxjna16s","sub03","03","8","iti","null","img/motor_3.png","68","motor","","","","","","",""
"566","264000","HierDywxjna16s","sub03","03","8","motor","72","img/motor_5.png","72","motor","5","345","1","0","0","",""
"null","264112","HierDywxjna16s","sub03","03","8","iti","null","img/motor_5.png","72","motor","","","","","","",""
"480","264602","HierDywxjna16s","sub03","03","8","motor","65","img/motor_1.png","65","motor","1","346","1","0","0","",""
"null","264714","HierDywxjna16s","sub03","03","8","iti","null","img/motor_1.png","65","motor","","","","","","",""
"354","265079","HierDywxjna16s","sub03","03","8","motor","65","img/motor_1.png","65","motor","1","347","1","0","0","",""
"null","265190","HierDywxjna16s","sub03","03","8","iti","null","img/motor_1.png","65","motor","","","","","","",""
"486","265686","HierDywxjna16s","sub03","03","8","motor","83","img/motor_2.png","83","motor","2","348","1","0","0","",""
"null","265797","HierDywxjna16s","sub03","03","8","iti","null","img/motor_2.png","83","motor","","","","","","",""
"370","266177","HierDywxjna16s","sub03","03","8","motor","65","img/motor_1.png","65","motor","1","349","1","0","0","",""
"null","266290","HierDywxjna16s","sub03","03","8","iti","null","img/motor_1.png","65","motor","","","","","","",""
"435","266735","HierDywxjna16s","sub03","03","8","motor","76","img/motor_8.png","76","motor","8","350","1","0","0","",""
"null","266848","HierDywxjna16s","sub03","03","8","iti","null","img/motor_8.png","76","motor","","","","","","",""
"354","267212","HierDywxjna16s","sub03","03","8","motor","72","img/motor_5.png","72","motor","5","351","1","0","0","",""
"null","267325","HierDywxjna16s","sub03","03","8","iti","null","img/motor_5.png","72","motor","","","","","","",""
"544","267880","HierDywxjna16s","sub03","03","8","motor","70","img/motor_4.png","70","motor","4","352","1","0","0","",""
"null","267992","HierDywxjna16s","sub03","03","8","iti","null","img/motor_4.png","70","motor","","","","","","",""
"411","268412","HierDywxjna16s","sub03","03","8","motor","83","img/motor_2.png","83","motor","2","353","1","0","0","",""
"null","268523","HierDywxjna16s","sub03","03","8","iti","null","img/motor_2.png","83","motor","","","","","","",""
"375","268908","HierDywxjna16s","sub03","03","8","motor","68","img/motor_3.png","68","motor","3","354","1","0","0","",""
"null","269017","HierDywxjna16s","sub03","03","8","iti","null","img/motor_3.png","68","motor","","","","","","",""
"457","269484","HierDywxjna16s","sub03","03","8","motor","68","img/motor_3.png","68","motor","3","355","1","0","0","",""
"null","269597","HierDywxjna16s","sub03","03","8","iti","null","img/motor_3.png","68","motor","","","","","","",""
"530","270138","HierDywxjna16s","sub03","03","8","motor","74","img/motor_6.png","74","motor","6","356","1","0","0","",""
"null","270248","HierDywxjna16s","sub03","03","8","iti","null","img/motor_6.png","74","motor","","","","","","",""
"431","270690","HierDywxjna16s","sub03","03","8","motor","68","img/motor_2.png","83","motor","2","357","0","1","0","",""
"212","270912","HierDywxjna16s","sub03","03","8","motorRepeat","83","img/motor_2.png","83","motor","2","357","1","0","0","",""
"null","271022","HierDywxjna16s","sub03","03","8","iti","null","img/motor_2.png","83","motor","","","","","","",""
"485","271516","HierDywxjna16s","sub03","03","8","motor","75","img/motor_7.png","75","motor","7","358","1","0","0","",""
"null","271628","HierDywxjna16s","sub03","03","8","iti","null","img/motor_7.png","75","motor","","","","","","",""
"433","272070","HierDywxjna16s","sub03","03","8","motor","76","img/motor_8.png","76","motor","8","359","1","0","0","",""
"null","272182","HierDywxjna16s","sub03","03","8","iti","null","img/motor_8.png","76","motor","","","","","","",""
"621","272814","HierDywxjna16s","sub03","03","8","motor","68","img/motor_3.png","68","motor","3","360","1","0","0","",""
"null","272926","HierDywxjna16s","sub03","03","8","iti","null","img/motor_3.png","68","motor","","","","","","",""
"555","273489","HierDywxjna16s","sub03","03","8","motor","72","img/motor_5.png","72","motor","5","361","1","0","0","",""
"null","273600","HierDywxjna16s","sub03","03","8","iti","null","img/motor_5.png","72","motor","","","","","","",""
"418","274029","HierDywxjna16s","sub03","03","8","motor","74","img/motor_6.png","74","motor","6","362","1","0","0","",""
"null","274140","HierDywxjna16s","sub03","03","8","iti","null","img/motor_6.png","74","motor","","","","","","",""
"396","274546","HierDywxjna16s","sub03","03","8","motor","76","img/motor_8.png","76","motor","8","363","1","0","0","",""
"null","274658","HierDywxjna16s","sub03","03","8","iti","null","img/motor_8.png","76","motor","","","","","","",""
"480","275149","HierDywxjna16s","sub03","03","8","motor","74","img/motor_6.png","74","motor","6","364","1","0","0","",""
"null","275260","HierDywxjna16s","sub03","03","8","iti","null","img/motor_6.png","74","motor","","","","","","",""
"439","275710","HierDywxjna16s","sub03","03","8","motor","65","img/motor_1.png","65","motor","1","365","1","0","0","",""
"null","275823","HierDywxjna16s","sub03","03","8","iti","null","img/motor_1.png","65","motor","","","","","","",""
"397","276230","HierDywxjna16s","sub03","03","8","motor","70","img/motor_4.png","70","motor","4","366","1","0","0","",""
"null","276339","HierDywxjna16s","sub03","03","8","iti","null","img/motor_4.png","70","motor","","","","","","",""
"483","276834","HierDywxjna16s","sub03","03","8","motor","68","img/motor_3.png","68","motor","3","367","1","0","0","",""
"null","276946","HierDywxjna16s","sub03","03","8","iti","null","img/motor_3.png","68","motor","","","","","","",""
"666","277624","HierDywxjna16s","sub03","03","8","motor","74","img/motor_6.png","74","motor","6","368","1","0","0","",""
"null","277736","HierDywxjna16s","sub03","03","8","iti","null","img/motor_6.png","74","motor","","","","","","",""
"523","278268","HierDywxjna16s","sub03","03","8","motor","83","img/motor_2.png","83","motor","2","369","1","0","0","",""
"null","278381","HierDywxjna16s","sub03","03","8","iti","null","img/motor_2.png","83","motor","","","","","","",""
"536","278928","HierDywxjna16s","sub03","03","8","motor","70","img/motor_4.png","70","motor","4","370","1","0","0","",""
"null","279039","HierDywxjna16s","sub03","03","8","iti","null","img/motor_4.png","70","motor","","","","","","",""
"466","279514","HierDywxjna16s","sub03","03","8","motor","68","img/motor_3.png","68","motor","3","371","1","0","0","",""
"null","279625","HierDywxjna16s","sub03","03","8","iti","null","img/motor_3.png","68","motor","","","","","","",""
"402","280037","HierDywxjna16s","sub03","03","8","motor","65","img/motor_1.png","65","motor","1","372","1","0","0","",""
"null","280150","HierDywxjna16s","sub03","03","8","iti","null","img/motor_1.png","65","motor","","","","","","",""
"395","280554","HierDywxjna16s","sub03","03","8","motor","65","img/motor_1.png","65","motor","1","373","1","0","0","",""
"null","280664","HierDywxjna16s","sub03","03","8","iti","null","img/motor_1.png","65","motor","","","","","","",""
"433","281108","HierDywxjna16s","sub03","03","8","motor","70","img/motor_4.png","70","motor","4","374","1","0","0","",""
"null","281220","HierDywxjna16s","sub03","03","8","iti","null","img/motor_4.png","70","motor","","","","","","",""
"372","281603","HierDywxjna16s","sub03","03","8","motor","68","img/motor_2.png","83","motor","2","375","0","1","0","",""
"259","281872","HierDywxjna16s","sub03","03","8","motorRepeat","83","img/motor_2.png","83","motor","2","375","1","0","0","",""
"null","281985","HierDywxjna16s","sub03","03","8","iti","null","img/motor_2.png","83","motor","","","","","","",""
"543","282539","HierDywxjna16s","sub03","03","8","motor","74","img/motor_6.png","74","motor","6","376","1","0","0","",""
"null","282649","HierDywxjna16s","sub03","03","8","iti","null","img/motor_6.png","74","motor","","","","","","",""
"446","283106","HierDywxjna16s","sub03","03","8","motor","72","img/motor_5.png","72","motor","5","377","1","0","0","",""
"null","283217","HierDywxjna16s","sub03","03","8","iti","null","img/motor_5.png","72","motor","","","","","","",""
"423","283650","HierDywxjna16s","sub03","03","8","motor","65","img/motor_1.png","65","motor","1","378","1","0","0","",""
"null","283759","HierDywxjna16s","sub03","03","8","iti","null","img/motor_1.png","65","motor","","","","","","",""
"495","284263","HierDywxjna16s","sub03","03","8","motor","75","img/motor_6.png","74","motor","6","379","0","1","0","",""
"266","284540","HierDywxjna16s","sub03","03","8","motorRepeat","74","img/motor_6.png","74","motor","6","379","1","0","0","",""
"null","284651","HierDywxjna16s","sub03","03","8","iti","null","img/motor_6.png","74","motor","","","","","","",""
"472","285134","HierDywxjna16s","sub03","03","8","motor","72","img/motor_5.png","72","motor","5","380","1","0","0","",""
"null","285245","HierDywxjna16s","sub03","03","8","iti","null","img/motor_5.png","72","motor","","","","","","",""
"448","285702","HierDywxjna16s","sub03","03","8","motor","75","img/motor_6.png","74","motor","6","381","0","1","0","",""
"292","286002","HierDywxjna16s","sub03","03","8","motorRepeat","74","img/motor_6.png","74","motor","6","381","1","0","0","",""
"null","286114","HierDywxjna16s","sub03","03","8","iti","null","img/motor_6.png","74","motor","","","","","","",""
"531","286657","HierDywxjna16s","sub03","03","8","motor","65","img/motor_1.png","65","motor","1","382","1","0","0","",""
"null","286768","HierDywxjna16s","sub03","03","8","iti","null","img/motor_1.png","65","motor","","","","","","",""
"566","287344","HierDywxjna16s","sub03","03","8","motor","75","img/motor_7.png","75","motor","7","383","1","0","0","",""
"null","287453","HierDywxjna16s","sub03","03","8","iti","null","img/motor_7.png","75","motor","","","","","","",""
"544","288006","HierDywxjna16s","sub03","03","8","motor","70","img/motor_4.png","70","motor","4","384","1","0","0","",""
"null","288118","HierDywxjna16s","sub03","03","8","iti","null","img/motor_4.png","70","motor","","","","","","",""
"535","288666","HierDywxjna16s","sub03","03","8","motor","75","img/motor_7.png","75","motor","7","385","1","0","0","",""
"null","288775","HierDywxjna16s","sub03","03","8","iti","null","img/motor_7.png","75","motor","","","","","","",""
"441","289227","HierDywxjna16s","sub03","03","8","motor","74","img/motor_6.png","74","motor","6","386","1","0","0","",""
"null","289337","HierDywxjna16s","sub03","03","8","iti","null","img/motor_6.png","74","motor","","","","","","",""
"783","290130","HierDywxjna16s","sub03","03","8","motor","68","img/motor_3.png","68","motor","3","387","1","0","0","",""
"null","290241","HierDywxjna16s","sub03","03","8","iti","null","img/motor_3.png","68","motor","","","","","","",""
"398","290647","HierDywxjna16s","sub03","03","8","motor","65","img/motor_1.png","65","motor","1","388","1","0","0","",""
"null","290757","HierDywxjna16s","sub03","03","8","iti","null","img/motor_1.png","65","motor","","","","","","",""
"570","291337","HierDywxjna16s","sub03","03","8","motor","68","img/motor_3.png","68","motor","3","389","1","0","0","",""
"null","291449","HierDywxjna16s","sub03","03","8","iti","null","img/motor_3.png","68","motor","","","","","","",""
"700","292158","HierDywxjna16s","sub03","03","8","motor","74","img/motor_6.png","74","motor","6","390","1","0","0","",""
"null","292268","HierDywxjna16s","sub03","03","8","iti","null","img/motor_6.png","74","motor","","","","","","",""
"668","292946","HierDywxjna16s","sub03","03","8","motor","83","img/motor_2.png","83","motor","2","391","1","0","0","",""
"null","293059","HierDywxjna16s","sub03","03","8","iti","null","img/motor_2.png","83","motor","","","","","","",""
"782","293850","HierDywxjna16s","sub03","03","8","motor","70","img/motor_4.png","70","motor","4","392","1","0","0","",""
"null","293962","HierDywxjna16s","sub03","03","8","iti","null","img/motor_4.png","70","motor","","","","","","",""
"477","294450","HierDywxjna16s","sub03","03","8","motor","76","img/motor_8.png","76","motor","8","393","1","0","0","",""
"null","294562","HierDywxjna16s","sub03","03","8","iti","null","img/motor_8.png","76","motor","","","","","","",""
"699","295273","HierDywxjna16s","sub03","03","8","motor","74","img/motor_6.png","74","motor","6","394","1","0","0","",""
"null","295385","HierDywxjna16s","sub03","03","8","iti","null","img/motor_6.png","74","motor","","","","","","",""
"720","296115","HierDywxjna16s","sub03","03","8","motor","68","img/motor_3.png","68","motor","3","395","1","0","0","",""
"null","296226","HierDywxjna16s","sub03","03","8","iti","null","img/motor_3.png","68","motor","","","","","","",""
"333","296570","HierDywxjna16s","sub03","03","8","motor","83","img/motor_2.png","83","motor","2","396","1","0","0","",""
"null","296682","HierDywxjna16s","sub03","03","8","iti","null","img/motor_2.png","83","motor","","","","","","",""
"575","297266","HierDywxjna16s","sub03","03","8","motor","74","img/motor_6.png","74","motor","6","397","1","0","0","",""
"null","297379","HierDywxjna16s","sub03","03","8","iti","null","img/motor_6.png","74","motor","","","","","","",""
"385","297775","HierDywxjna16s","sub03","03","8","motor","74","img/motor_6.png","74","motor","6","398","1","0","0","",""
"null","297886","HierDywxjna16s","sub03","03","8","iti","null","img/motor_6.png","74","motor","","","","","","",""
"498","298395","HierDywxjna16s","sub03","03","8","motor","72","img/motor_5.png","72","motor","5","399","1","0","0","",""
"null","298504","HierDywxjna16s","sub03","03","8","iti","null","img/motor_5.png","72","motor","","","","","","",""
"336","298851","HierDywxjna16s","sub03","03","8","motor","72","img/motor_5.png","72","motor","5","400","1","0","0","",""
"null","298964","HierDywxjna16s","sub03","03","8","iti","null","img/motor_5.png","72","motor","","","","","","",""
"685","299659","HierDywxjna16s","sub03","03","8","motor","68","img/motor_3.png","68","motor","3","401","1","0","0","",""
"null","299771","HierDywxjna16s","sub03","03","8","iti","null","img/motor_3.png","68","motor","","","","","","",""
"574","300355","HierDywxjna16s","sub03","03","8","motor","70","img/motor_4.png","70","motor","4","402","1","0","0","",""
"null","300467","HierDywxjna16s","sub03","03","8","iti","null","img/motor_4.png","70","motor","","","","","","",""
"596","301075","HierDywxjna16s","sub03","03","8","motor","72","img/motor_5.png","72","motor","5","403","1","0","0","",""
"null","301186","HierDywxjna16s","sub03","03","8","iti","null","img/motor_5.png","72","motor","","","","","","",""
"489","301687","HierDywxjna16s","sub03","03","8","motor","83","img/motor_2.png","83","motor","2","404","1","0","0","",""
"null","301798","HierDywxjna16s","sub03","03","8","iti","null","img/motor_2.png","83","motor","","","","","","",""
"441","302248","HierDywxjna16s","sub03","03","8","motor","65","img/motor_1.png","65","motor","1","405","1","0","0","",""
"null","302361","HierDywxjna16s","sub03","03","8","iti","null","img/motor_1.png","65","motor","","","","","","",""
"489","302861","HierDywxjna16s","sub03","03","8","motor","74","img/motor_6.png","74","motor","6","406","1","0","0","",""
"null","302973","HierDywxjna16s","sub03","03","8","iti","null","img/motor_6.png","74","motor","","","","","","",""
"452","303433","HierDywxjna16s","sub03","03","8","motor","65","img/motor_1.png","65","motor","1","407","1","0","0","",""
"null","303546","HierDywxjna16s","sub03","03","8","iti","null","img/motor_1.png","65","motor","","","","","","",""
"482","304039","HierDywxjna16s","sub03","03","8","motor","83","img/motor_2.png","83","motor","2","408","1","0","0","",""
"null","304152","HierDywxjna16s","sub03","03","8","iti","null","img/motor_2.png","83","motor","","","","","","",""
"382","304543","HierDywxjna16s","sub03","03","8","motor","83","img/motor_2.png","83","motor","2","409","1","0","0","",""
"null","304656","HierDywxjna16s","sub03","03","8","iti","null","img/motor_2.png","83","motor","","","","","","",""
"625","305292","HierDywxjna16s","sub03","03","8","motor","75","img/motor_7.png","75","motor","7","410","1","0","0","",""
"null","305405","HierDywxjna16s","sub03","03","8","iti","null","img/motor_7.png","75","motor","","","","","","",""
"411","305827","HierDywxjna16s","sub03","03","8","motor","75","img/motor_7.png","75","motor","7","411","1","0","0","",""
"null","305940","HierDywxjna16s","sub03","03","8","iti","null","img/motor_7.png","75","motor","","","","","","",""
