"rt","time_elapsed","subject","subID","group","day","trialType","phase","key_press","stim","stimNum","corrresp","hierarchy","trialNum","corr","responses"
"136564.40000003576","136570","HierDy35z7gw4m","sub12","12","03","","","","","","","","","",""
"","143915","HierDy35z7gw4m","sub12","12","03","fullscreen","","","","","","","","",""
"3040","146956","HierDy35z7gw4m","sub12","12","03","","prac","","","","","","","",""
"14534.800000011921","161497","HierDy35z7gw4m","sub12","12","03","","","32","","","","","","",""
"1759.3999999761581","163259","HierDy35z7gw4m","sub12","12","03","","prac","","","","","","","",""
"1295.5","164559","HierDy35z7gw4m","sub12","12","03","rl","test","72","img/r_d_stripes.png","5","72","shape,color,pattern","1","1",""
"null","165575","HierDy35z7gw4m","sub12","12","03","feedback","test","null","","","na","","1","",""
"798.6999999880791","166376","HierDy35z7gw4m","sub12","12","03","rl","test","65","img/r_t_stripes.png","1","65","shape,color,pattern","2","1",""
"null","167399","HierDy35z7gw4m","sub12","12","03","feedback","test","null","","","na","","2","",""
"1030.2000000476837","168431","HierDy35z7gw4m","sub12","12","03","rl","test","70","img/b_t_check.png","4","70","shape,color,pattern","3","1",""
"null","169442","HierDy35z7gw4m","sub12","12","03","feedback","test","null","","","na","","3","",""
"1087.199999988079","170531","HierDy35z7gw4m","sub12","12","03","rl","test","74","img/r_d_check.png","6","74","shape,color,pattern","4","1",""
"null","171547","HierDy35z7gw4m","sub12","12","03","feedback","test","null","","","na","","4","",""
"1037.300000011921","172587","HierDy35z7gw4m","sub12","12","03","rl","test","68","img/b_t_stripes.png","3","68","shape,color,pattern","5","1",""
"null","173608","HierDy35z7gw4m","sub12","12","03","feedback","test","null","","","na","","5","",""
"1756.1000000238419","175367","HierDy35z7gw4m","sub12","12","03","rl","test","83","img/r_t_check.png","2","83","shape,color,pattern","6","1",""
"null","176381","HierDy35z7gw4m","sub12","12","03","feedback","test","null","","","na","","6","",""
"1595.8999999761581","177980","HierDy35z7gw4m","sub12","12","03","rl","test","75","img/b_d_stripes.png","7","75","shape,color,pattern","7","1",""
"null","178997","HierDy35z7gw4m","sub12","12","03","feedback","test","null","","","na","","7","",""
"1291","180290","HierDy35z7gw4m","sub12","12","03","rl","test","68","img/b_t_stripes.png","3","68","shape,color,pattern","8","1",""
"null","181299","HierDy35z7gw4m","sub12","12","03","feedback","test","null","","","na","","8","",""
"1444.5","182745","HierDy35z7gw4m","sub12","12","03","rl","test","76","img/b_d_check.png","8","76","shape,color,pattern","9","1",""
"null","183753","HierDy35z7gw4m","sub12","12","03","feedback","test","null","","","na","","9","",""
"579.1999999880791","184335","HierDy35z7gw4m","sub12","12","03","rl","test","76","img/b_d_check.png","8","76","shape,color,pattern","10","1",""
"null","185351","HierDy35z7gw4m","sub12","12","03","feedback","test","null","","","na","","10","",""
"1673.4000000357628","187027","HierDy35z7gw4m","sub12","12","03","rl","test","83","img/r_t_check.png","2","83","shape,color,pattern","11","1",""
"null","188037","HierDy35z7gw4m","sub12","12","03","feedback","test","null","","","na","","11","",""
"1440.6000000238419","189480","HierDy35z7gw4m","sub12","12","03","rl","test","72","img/r_d_stripes.png","5","72","shape,color,pattern","12","1",""
"null","190493","HierDy35z7gw4m","sub12","12","03","feedback","test","null","","","na","","12","",""
"754.3000000119209","191250","HierDy35z7gw4m","sub12","12","03","rl","test","75","img/b_d_stripes.png","7","75","shape,color,pattern","13","1",""
"null","192260","HierDy35z7gw4m","sub12","12","03","feedback","test","null","","","na","","13","",""
"800.5","193063","HierDy35z7gw4m","sub12","12","03","rl","test","74","img/r_d_check.png","6","74","shape,color,pattern","14","1",""
"null","194082","HierDy35z7gw4m","sub12","12","03","feedback","test","null","","","na","","14","",""
"724.3000000119209","194808","HierDy35z7gw4m","sub12","12","03","rl","test","65","img/r_t_stripes.png","1","65","shape,color,pattern","15","1",""
"null","195818","HierDy35z7gw4m","sub12","12","03","feedback","test","null","","","na","","15","",""
"900.3999999761581","196721","HierDy35z7gw4m","sub12","12","03","rl","test","70","img/b_t_check.png","4","70","shape,color,pattern","16","1",""
"null","197740","HierDy35z7gw4m","sub12","12","03","feedback","test","null","","","na","","16","",""
"980.4000000357628","198721","HierDy35z7gw4m","sub12","12","03","rl","test","76","img/b_d_check.png","8","76","shape,color,pattern","17","1",""
"null","199729","HierDy35z7gw4m","sub12","12","03","feedback","test","null","","","na","","17","",""
"1362.9000000357628","201093","HierDy35z7gw4m","sub12","12","03","rl","test","70","img/b_t_check.png","4","70","shape,color,pattern","18","1",""
"null","202108","HierDy35z7gw4m","sub12","12","03","feedback","test","null","","","na","","18","",""
"1063.5","203174","HierDy35z7gw4m","sub12","12","03","rl","test","83","img/r_t_check.png","2","83","shape,color,pattern","19","1",""
"null","204188","HierDy35z7gw4m","sub12","12","03","feedback","test","null","","","na","","19","",""
"581.3999999761581","204771","HierDy35z7gw4m","sub12","12","03","rl","test","65","img/r_t_stripes.png","1","65","shape,color,pattern","20","1",""
"null","205777","HierDy35z7gw4m","sub12","12","03","feedback","test","null","","","na","","20","",""
"866.4000000357628","206646","HierDy35z7gw4m","sub12","12","03","rl","test","68","img/b_t_stripes.png","3","68","shape,color,pattern","21","1",""
"null","207670","HierDy35z7gw4m","sub12","12","03","feedback","test","null","","","na","","21","",""
"1093.699999988079","208765","HierDy35z7gw4m","sub12","12","03","rl","test","65","img/r_t_stripes.png","1","65","shape,color,pattern","22","1",""
"null","209777","HierDy35z7gw4m","sub12","12","03","feedback","test","null","","","na","","22","",""
"1022.5","210801","HierDy35z7gw4m","sub12","12","03","rl","test","72","img/r_d_stripes.png","5","72","shape,color,pattern","23","1",""
"null","211818","HierDy35z7gw4m","sub12","12","03","feedback","test","null","","","na","","23","",""
"1076.699999988079","212896","HierDy35z7gw4m","sub12","12","03","rl","test","68","img/b_t_stripes.png","3","68","shape,color,pattern","24","1",""
"null","213907","HierDy35z7gw4m","sub12","12","03","feedback","test","null","","","na","","24","",""
"1280.800000011921","215189","HierDy35z7gw4m","sub12","12","03","rl","test","75","img/b_d_stripes.png","7","75","shape,color,pattern","25","1",""
"null","216207","HierDy35z7gw4m","sub12","12","03","feedback","test","null","","","na","","25","",""
"691","216900","HierDy35z7gw4m","sub12","12","03","rl","test","75","img/b_d_stripes.png","7","75","shape,color,pattern","26","1",""
"null","217915","HierDy35z7gw4m","sub12","12","03","feedback","test","null","","","na","","26","",""
"726.2999999523163","218649","HierDy35z7gw4m","sub12","12","03","rl","test","72","img/r_d_stripes.png","5","72","shape,color,pattern","27","1",""
"null","219671","HierDy35z7gw4m","sub12","12","03","feedback","test","null","","","na","","27","",""
"648.8999999761581","220322","HierDy35z7gw4m","sub12","12","03","rl","test","74","img/r_d_check.png","6","74","shape,color,pattern","28","1",""
"null","221329","HierDy35z7gw4m","sub12","12","03","feedback","test","null","","","na","","28","",""
"543.3000000119209","221873","HierDy35z7gw4m","sub12","12","03","rl","test","74","img/r_d_check.png","6","74","shape,color,pattern","29","1",""
"null","222884","HierDy35z7gw4m","sub12","12","03","feedback","test","null","","","na","","29","",""
"1055.5","223941","HierDy35z7gw4m","sub12","12","03","rl","test","70","img/b_t_check.png","4","70","shape,color,pattern","30","1",""
"null","224944","HierDy35z7gw4m","sub12","12","03","feedback","test","null","","","na","","30","",""
"1135.5","226081","HierDy35z7gw4m","sub12","12","03","rl","test","76","img/b_d_check.png","8","76","shape,color,pattern","31","1",""
"null","227091","HierDy35z7gw4m","sub12","12","03","feedback","test","null","","","na","","31","",""
"1231.4000000357628","228325","HierDy35z7gw4m","sub12","12","03","rl","test","70","img/b_t_check.png","4","70","shape,color,pattern","32","1",""
"null","229347","HierDy35z7gw4m","sub12","12","03","feedback","test","null","","","na","","32","",""
"972.2000000476837","230321","HierDy35z7gw4m","sub12","12","03","rl","test","83","img/r_t_check.png","2","83","shape,color,pattern","33","1",""
"null","231330","HierDy35z7gw4m","sub12","12","03","feedback","test","null","","","na","","33","",""
"1116.3999999761581","232448","HierDy35z7gw4m","sub12","12","03","rl","test","74","img/r_d_check.png","6","74","shape,color,pattern","34","1",""
"null","233470","HierDy35z7gw4m","sub12","12","03","feedback","test","null","","","na","","34","",""
"1037.199999988079","234511","HierDy35z7gw4m","sub12","12","03","rl","test","75","img/b_d_stripes.png","7","75","shape,color,pattern","35","1",""
"null","235526","HierDy35z7gw4m","sub12","12","03","feedback","test","null","","","na","","35","",""
"1074.300000011921","236602","HierDy35z7gw4m","sub12","12","03","rl","test","83","img/r_t_check.png","2","83","shape,color,pattern","36","1",""
"null","237611","HierDy35z7gw4m","sub12","12","03","feedback","test","null","","","na","","36","",""
"759.6000000238419","238372","HierDy35z7gw4m","sub12","12","03","rl","test","65","img/r_t_stripes.png","1","65","shape,color,pattern","37","1",""
"null","239389","HierDy35z7gw4m","sub12","12","03","feedback","test","null","","","na","","37","",""
"1034.699999988079","240425","HierDy35z7gw4m","sub12","12","03","rl","test","72","img/r_d_stripes.png","5","72","shape,color,pattern","38","1",""
"null","241437","HierDy35z7gw4m","sub12","12","03","feedback","test","null","","","na","","38","",""
"1012","242451","HierDy35z7gw4m","sub12","12","03","rl","test","68","img/b_t_stripes.png","3","68","shape,color,pattern","39","1",""
"null","243458","HierDy35z7gw4m","sub12","12","03","feedback","test","null","","","na","","39","",""
"564.5999999642372","244025","HierDy35z7gw4m","sub12","12","03","rl","test","70","img/b_t_check.png","4","70","shape,color,pattern","40","1",""
"null","245038","HierDy35z7gw4m","sub12","12","03","feedback","test","null","","","na","","40","",""
"1156.699999988079","246197","HierDy35z7gw4m","sub12","12","03","rl","test","76","img/b_d_check.png","8","76","shape,color,pattern","41","1",""
"null","247217","HierDy35z7gw4m","sub12","12","03","feedback","test","null","","","na","","41","",""
"472.30000001192093","247693","HierDy35z7gw4m","sub12","12","03","rl","test","75","img/b_d_stripes.png","7","75","shape,color,pattern","42","1",""
"null","248711","HierDy35z7gw4m","sub12","12","03","feedback","test","null","","","na","","42","",""
"685","249397","HierDy35z7gw4m","sub12","12","03","rl","test","65","img/r_t_stripes.png","1","65","shape,color,pattern","43","1",""
"null","250410","HierDy35z7gw4m","sub12","12","03","feedback","test","null","","","na","","43","",""
"910.5","251322","HierDy35z7gw4m","sub12","12","03","rl","test","70","img/b_t_check.png","4","70","shape,color,pattern","44","1",""
"null","252337","HierDy35z7gw4m","sub12","12","03","feedback","test","null","","","na","","44","",""
"1026","253365","HierDy35z7gw4m","sub12","12","03","rl","test","83","img/r_t_check.png","2","83","shape,color,pattern","45","1",""
"null","254375","HierDy35z7gw4m","sub12","12","03","feedback","test","null","","","na","","45","",""
"725.3999999761581","255102","HierDy35z7gw4m","sub12","12","03","rl","test","68","img/b_t_stripes.png","3","68","shape,color,pattern","46","1",""
"null","256117","HierDy35z7gw4m","sub12","12","03","feedback","test","null","","","na","","46","",""
"830.2999999523163","256950","HierDy35z7gw4m","sub12","12","03","rl","test","76","img/b_d_check.png","8","76","shape,color,pattern","47","1",""
"null","257963","HierDy35z7gw4m","sub12","12","03","feedback","test","null","","","na","","47","",""
"891.6000000238419","258857","HierDy35z7gw4m","sub12","12","03","rl","test","72","img/r_d_stripes.png","5","72","shape,color,pattern","48","1",""
"null","259875","HierDy35z7gw4m","sub12","12","03","feedback","test","null","","","na","","48","",""
"498.19999998807907","260375","HierDy35z7gw4m","sub12","12","03","rl","test","74","img/r_d_check.png","6","74","shape,color,pattern","49","1",""
"null","261391","HierDy35z7gw4m","sub12","12","03","feedback","test","null","","","na","","49","",""
"800.1999999880791","262193","HierDy35z7gw4m","sub12","12","03","rl","test","76","img/b_d_check.png","8","76","shape,color,pattern","50","1",""
"null","263210","HierDy35z7gw4m","sub12","12","03","feedback","test","null","","","na","","50","",""
"670.1999999880791","263884","HierDy35z7gw4m","sub12","12","03","rl","test","65","img/r_t_stripes.png","1","65","shape,color,pattern","51","1",""
"null","264888","HierDy35z7gw4m","sub12","12","03","feedback","test","null","","","na","","51","",""
"943.3000000119209","265832","HierDy35z7gw4m","sub12","12","03","rl","test","72","img/r_d_stripes.png","5","72","shape,color,pattern","52","1",""
"null","266846","HierDy35z7gw4m","sub12","12","03","feedback","test","null","","","na","","52","",""
"982.0999999642372","267830","HierDy35z7gw4m","sub12","12","03","rl","test","75","img/b_d_stripes.png","7","75","shape,color,pattern","53","1",""
"null","268853","HierDy35z7gw4m","sub12","12","03","feedback","test","null","","","na","","53","",""
"935.3999999761581","269789","HierDy35z7gw4m","sub12","12","03","rl","test","74","img/r_d_check.png","6","74","shape,color,pattern","54","1",""
"null","270803","HierDy35z7gw4m","sub12","12","03","feedback","test","null","","","na","","54","",""
"946","271751","HierDy35z7gw4m","sub12","12","03","rl","test","75","img/b_d_stripes.png","7","75","shape,color,pattern","55","1",""
"null","272777","HierDy35z7gw4m","sub12","12","03","feedback","test","null","","","na","","55","",""
"614.3999999761581","273394","HierDy35z7gw4m","sub12","12","03","rl","test","72","img/r_d_stripes.png","5","72","shape,color,pattern","56","1",""
"null","274402","HierDy35z7gw4m","sub12","12","03","feedback","test","null","","","na","","56","",""
"1577.3999999761581","275981","HierDy35z7gw4m","sub12","12","03","rl","test","83","img/r_t_check.png","2","83","shape,color,pattern","57","1",""
"null","276999","HierDy35z7gw4m","sub12","12","03","feedback","test","null","","","na","","57","",""
"569.2000000476837","277570","HierDy35z7gw4m","sub12","12","03","rl","test","83","img/r_t_check.png","2","83","shape,color,pattern","58","1",""
"null","278582","HierDy35z7gw4m","sub12","12","03","feedback","test","null","","","na","","58","",""
"646.5","279231","HierDy35z7gw4m","sub12","12","03","rl","test","70","img/b_t_check.png","4","70","shape,color,pattern","59","1",""
"null","280251","HierDy35z7gw4m","sub12","12","03","feedback","test","null","","","na","","59","",""
"796.0999999642372","281050","HierDy35z7gw4m","sub12","12","03","rl","test","68","img/b_t_stripes.png","3","68","shape,color,pattern","60","1",""
"null","282062","HierDy35z7gw4m","sub12","12","03","feedback","test","null","","","na","","60","",""
"1054.199999988079","283118","HierDy35z7gw4m","sub12","12","03","rl","test","76","img/b_d_check.png","8","76","shape,color,pattern","61","1",""
"null","284133","HierDy35z7gw4m","sub12","12","03","feedback","test","null","","","na","","61","",""
"975.8999999761581","285112","HierDy35z7gw4m","sub12","12","03","rl","test","74","img/r_d_check.png","6","74","shape,color,pattern","62","1",""
"null","286130","HierDy35z7gw4m","sub12","12","03","feedback","test","null","","","na","","62","",""
"1035.3999999761581","287167","HierDy35z7gw4m","sub12","12","03","rl","test","68","img/b_t_stripes.png","3","68","shape,color,pattern","63","1",""
"null","288182","HierDy35z7gw4m","sub12","12","03","feedback","test","null","","","na","","63","",""
"730.3999999761581","288915","HierDy35z7gw4m","sub12","12","03","rl","test","65","img/r_t_stripes.png","1","65","shape,color,pattern","64","1",""
"null","289926","HierDy35z7gw4m","sub12","12","03","feedback","test","null","","","na","","64","",""
"771.3000000119209","290699","HierDy35z7gw4m","sub12","12","03","rl","test","83","img/r_t_check.png","2","83","shape,color,pattern","65","1",""
"null","291714","HierDy35z7gw4m","sub12","12","03","feedback","test","null","","","na","","65","",""
"1091.300000011921","292808","HierDy35z7gw4m","sub12","12","03","rl","test","72","img/r_d_stripes.png","5","72","shape,color,pattern","66","1",""
"null","293828","HierDy35z7gw4m","sub12","12","03","feedback","test","null","","","na","","66","",""
"509.80000001192093","294340","HierDy35z7gw4m","sub12","12","03","rl","test","74","img/r_d_check.png","6","74","shape,color,pattern","67","1",""
"null","295350","HierDy35z7gw4m","sub12","12","03","feedback","test","null","","","na","","67","",""
"970.6999999880791","296322","HierDy35z7gw4m","sub12","12","03","rl","test","70","img/b_t_check.png","4","70","shape,color,pattern","68","1",""
"null","297328","HierDy35z7gw4m","sub12","12","03","feedback","test","null","","","na","","68","",""
"1152.1000000238419","298482","HierDy35z7gw4m","sub12","12","03","rl","test","75","img/b_d_stripes.png","7","75","shape,color,pattern","69","1",""
"null","299490","HierDy35z7gw4m","sub12","12","03","feedback","test","null","","","na","","69","",""
"676.7999999523163","300170","HierDy35z7gw4m","sub12","12","03","rl","test","65","img/r_t_stripes.png","1","65","shape,color,pattern","70","1",""
"null","301188","HierDy35z7gw4m","sub12","12","03","feedback","test","null","","","na","","70","",""
"1434.7000000476837","302625","HierDy35z7gw4m","sub12","12","03","rl","test","75","img/b_d_stripes.png","7","75","shape,color,pattern","71","1",""
"null","303645","HierDy35z7gw4m","sub12","12","03","feedback","test","null","","","na","","71","",""
"1056.5","304703","HierDy35z7gw4m","sub12","12","03","rl","test","68","img/b_t_stripes.png","3","68","shape,color,pattern","72","1",""
"null","305716","HierDy35z7gw4m","sub12","12","03","feedback","test","null","","","na","","72","",""
"949.8000000119209","306669","HierDy35z7gw4m","sub12","12","03","rl","test","76","img/b_d_check.png","8","76","shape,color,pattern","73","1",""
"null","307691","HierDy35z7gw4m","sub12","12","03","feedback","test","null","","","na","","73","",""
"703.6999999880791","308396","HierDy35z7gw4m","sub12","12","03","rl","test","76","img/b_d_check.png","8","76","shape,color,pattern","74","1",""
"null","309401","HierDy35z7gw4m","sub12","12","03","feedback","test","null","","","na","","74","",""
"1031.5","310434","HierDy35z7gw4m","sub12","12","03","rl","test","70","img/b_t_check.png","4","70","shape,color,pattern","75","1",""
"null","311447","HierDy35z7gw4m","sub12","12","03","feedback","test","null","","","na","","75","",""
"926","312375","HierDy35z7gw4m","sub12","12","03","rl","test","72","img/r_d_stripes.png","5","72","shape,color,pattern","76","1",""
"null","313393","HierDy35z7gw4m","sub12","12","03","feedback","test","null","","","na","","76","",""
"1449.5999999642372","314844","HierDy35z7gw4m","sub12","12","03","rl","test","83","img/r_t_check.png","2","83","shape,color,pattern","77","1",""
"null","315852","HierDy35z7gw4m","sub12","12","03","feedback","test","null","","","na","","77","",""
"1127.699999988079","316981","HierDy35z7gw4m","sub12","12","03","rl","test","74","img/r_d_check.png","6","74","shape,color,pattern","78","1",""
"null","317988","HierDy35z7gw4m","sub12","12","03","feedback","test","null","","","na","","78","",""
"1244.199999988079","319233","HierDy35z7gw4m","sub12","12","03","rl","test","83","img/r_t_check.png","2","83","shape,color,pattern","79","1",""
"null","320251","HierDy35z7gw4m","sub12","12","03","feedback","test","null","","","na","","79","",""
"760.8000000119209","321013","HierDy35z7gw4m","sub12","12","03","rl","test","68","img/b_t_stripes.png","3","68","shape,color,pattern","80","1",""
"null","322024","HierDy35z7gw4m","sub12","12","03","feedback","test","null","","","na","","80","",""
"1196.4000000357628","323223","HierDy35z7gw4m","sub12","12","03","rl","test","74","img/r_d_check.png","6","74","shape,color,pattern","81","1",""
"null","324239","HierDy35z7gw4m","sub12","12","03","feedback","test","null","","","na","","81","",""
"917.8000000119209","325159","HierDy35z7gw4m","sub12","12","03","rl","test","65","img/r_t_stripes.png","1","65","shape,color,pattern","82","1",""
"null","326182","HierDy35z7gw4m","sub12","12","03","feedback","test","null","","","na","","82","",""
"742.9000000357628","326927","HierDy35z7gw4m","sub12","12","03","rl","test","65","img/r_t_stripes.png","1","65","shape,color,pattern","83","1",""
"null","327943","HierDy35z7gw4m","sub12","12","03","feedback","test","null","","","na","","83","",""
"1064.7000000476837","329009","HierDy35z7gw4m","sub12","12","03","rl","test","75","img/b_d_stripes.png","7","75","shape,color,pattern","84","1",""
"null","330024","HierDy35z7gw4m","sub12","12","03","feedback","test","null","","","na","","84","",""
"966.4000000357628","330992","HierDy35z7gw4m","sub12","12","03","rl","test","68","img/b_t_stripes.png","3","68","shape,color,pattern","85","1",""
"null","332004","HierDy35z7gw4m","sub12","12","03","feedback","test","null","","","na","","85","",""
"935.3000000119209","332941","HierDy35z7gw4m","sub12","12","03","rl","test","65","img/r_t_stripes.png","1","65","shape,color,pattern","86","1",""
"null","333958","HierDy35z7gw4m","sub12","12","03","feedback","test","null","","","na","","86","",""
"1317.8999999761581","335277","HierDy35z7gw4m","sub12","12","03","rl","test","76","img/b_d_check.png","8","76","shape,color,pattern","87","1",""
"null","336286","HierDy35z7gw4m","sub12","12","03","feedback","test","null","","","na","","87","",""
"1659.4000000357628","337947","HierDy35z7gw4m","sub12","12","03","rl","test","70","img/b_t_check.png","4","70","shape,color,pattern","88","1",""
"null","338964","HierDy35z7gw4m","sub12","12","03","feedback","test","null","","","na","","88","",""
"426.2999999523163","339393","HierDy35z7gw4m","sub12","12","03","rl","test","68","img/b_t_stripes.png","3","68","shape,color,pattern","89","1",""
"null","340407","HierDy35z7gw4m","sub12","12","03","feedback","test","null","","","na","","89","",""
"1122.300000011921","341530","HierDy35z7gw4m","sub12","12","03","rl","test","72","img/r_d_stripes.png","5","72","shape,color,pattern","90","1",""
"null","342538","HierDy35z7gw4m","sub12","12","03","feedback","test","null","","","na","","90","",""
"722.5","343262","HierDy35z7gw4m","sub12","12","03","rl","test","76","img/b_d_check.png","8","76","shape,color,pattern","91","1",""
"null","344274","HierDy35z7gw4m","sub12","12","03","feedback","test","null","","","na","","91","",""
"1019.8000000119209","345296","HierDy35z7gw4m","sub12","12","03","rl","test","75","img/b_d_stripes.png","7","75","shape,color,pattern","92","1",""
"null","346317","HierDy35z7gw4m","sub12","12","03","feedback","test","null","","","na","","92","",""
"1017.3999999761581","347336","HierDy35z7gw4m","sub12","12","03","rl","test","70","img/r_t_check.png","2","83","shape,color,pattern","93","0",""
"null","348347","HierDy35z7gw4m","sub12","12","03","feedback","test","null","","","na","","93","",""
"885.8000000119209","349235","HierDy35z7gw4m","sub12","12","03","rl","test","70","img/b_t_check.png","4","70","shape,color,pattern","94","1",""
"null","350255","HierDy35z7gw4m","sub12","12","03","feedback","test","null","","","na","","94","",""
"928","351184","HierDy35z7gw4m","sub12","12","03","rl","test","72","img/r_d_stripes.png","5","72","shape,color,pattern","95","1",""
"null","352194","HierDy35z7gw4m","sub12","12","03","feedback","test","null","","","na","","95","",""
"1431.6000000238419","353627","HierDy35z7gw4m","sub12","12","03","rl","test","74","img/r_d_check.png","6","74","shape,color,pattern","96","1",""
"null","354644","HierDy35z7gw4m","sub12","12","03","feedback","test","null","","","na","","96","",""
"573.8999999761581","355220","HierDy35z7gw4m","sub12","12","03","rl","test","72","img/r_d_stripes.png","5","72","shape,color,pattern","97","1",""
"null","356235","HierDy35z7gw4m","sub12","12","03","feedback","test","null","","","na","","97","",""
"791","357028","HierDy35z7gw4m","sub12","12","03","rl","test","75","img/b_d_stripes.png","7","75","shape,color,pattern","98","1",""
"null","358034","HierDy35z7gw4m","sub12","12","03","feedback","test","null","","","na","","98","",""
"1039","359075","HierDy35z7gw4m","sub12","12","03","rl","test","68","img/b_t_stripes.png","3","68","shape,color,pattern","99","1",""
"null","360095","HierDy35z7gw4m","sub12","12","03","feedback","test","null","","","na","","99","",""
"864.1999999880791","360961","HierDy35z7gw4m","sub12","12","03","rl","test","83","img/r_t_check.png","2","83","shape,color,pattern","100","1",""
"null","361982","HierDy35z7gw4m","sub12","12","03","feedback","test","null","","","na","","100","",""
"842","362826","HierDy35z7gw4m","sub12","12","03","rl","test","65","img/r_t_stripes.png","1","65","shape,color,pattern","101","1",""
"null","363838","HierDy35z7gw4m","sub12","12","03","feedback","test","null","","","na","","101","",""
"1027.800000011921","364867","HierDy35z7gw4m","sub12","12","03","rl","test","76","img/b_d_check.png","8","76","shape,color,pattern","102","1",""
"null","365882","HierDy35z7gw4m","sub12","12","03","feedback","test","null","","","na","","102","",""
"1225.300000011921","367109","HierDy35z7gw4m","sub12","12","03","rl","test","70","img/b_t_check.png","4","70","shape,color,pattern","103","1",""
"null","368113","HierDy35z7gw4m","sub12","12","03","feedback","test","null","","","na","","103","",""
"822.8000000119209","368938","HierDy35z7gw4m","sub12","12","03","rl","test","70","img/b_t_check.png","4","70","shape,color,pattern","104","1",""
"null","369944","HierDy35z7gw4m","sub12","12","03","feedback","test","null","","","na","","104","",""
"1023.5999999642372","370969","HierDy35z7gw4m","sub12","12","03","rl","test","74","img/r_d_check.png","6","74","shape,color,pattern","105","1",""
"null","371991","HierDy35z7gw4m","sub12","12","03","feedback","test","null","","","na","","105","",""
"1497.800000011921","373491","HierDy35z7gw4m","sub12","12","03","rl","test","83","img/r_t_check.png","2","83","shape,color,pattern","106","1",""
"null","374500","HierDy35z7gw4m","sub12","12","03","feedback","test","null","","","na","","106","",""
"957","375459","HierDy35z7gw4m","sub12","12","03","rl","test","76","img/b_d_check.png","8","76","shape,color,pattern","107","1",""
"null","376478","HierDy35z7gw4m","sub12","12","03","feedback","test","null","","","na","","107","",""
"839.8000000119209","377320","HierDy35z7gw4m","sub12","12","03","rl","test","65","img/r_t_stripes.png","1","65","shape,color,pattern","108","1",""
"null","378329","HierDy35z7gw4m","sub12","12","03","feedback","test","null","","","na","","108","",""
"1072.800000011921","379405","HierDy35z7gw4m","sub12","12","03","rl","test","75","img/b_d_stripes.png","7","75","shape,color,pattern","109","1",""
"null","380431","HierDy35z7gw4m","sub12","12","03","feedback","test","null","","","na","","109","",""
"1260.5","381692","HierDy35z7gw4m","sub12","12","03","rl","test","72","img/r_d_stripes.png","5","72","shape,color,pattern","110","1",""
"null","382703","HierDy35z7gw4m","sub12","12","03","feedback","test","null","","","na","","110","",""
"961","383665","HierDy35z7gw4m","sub12","12","03","rl","test","68","img/b_t_stripes.png","3","68","shape,color,pattern","111","1",""
"null","384682","HierDy35z7gw4m","sub12","12","03","feedback","test","null","","","na","","111","",""
"1112.0999999642372","385795","HierDy35z7gw4m","sub12","12","03","rl","test","74","img/r_d_check.png","6","74","shape,color,pattern","112","1",""
"null","386809","HierDy35z7gw4m","sub12","12","03","feedback","test","null","","","na","","112","",""
"1116.0999999642372","387927","HierDy35z7gw4m","sub12","12","03","rl","test","68","img/b_t_stripes.png","3","68","shape,color,pattern","113","1",""
"null","388945","HierDy35z7gw4m","sub12","12","03","feedback","test","null","","","na","","113","",""
"1191.0999999642372","390139","HierDy35z7gw4m","sub12","12","03","rl","test","72","img/r_d_stripes.png","5","72","shape,color,pattern","114","1",""
"null","391145","HierDy35z7gw4m","sub12","12","03","feedback","test","null","","","na","","114","",""
"566.5","391712","HierDy35z7gw4m","sub12","12","03","rl","test","74","img/r_d_check.png","6","74","shape,color,pattern","115","1",""
"null","392725","HierDy35z7gw4m","sub12","12","03","feedback","test","null","","","na","","115","",""
"832.2000000476837","393559","HierDy35z7gw4m","sub12","12","03","rl","test","65","img/r_t_stripes.png","1","65","shape,color,pattern","116","1",""
"null","394579","HierDy35z7gw4m","sub12","12","03","feedback","test","null","","","na","","116","",""
"744.1000000238419","395325","HierDy35z7gw4m","sub12","12","03","rl","test","76","img/b_d_check.png","8","76","shape,color,pattern","117","1",""
"null","396340","HierDy35z7gw4m","sub12","12","03","feedback","test","null","","","na","","117","",""
"847.3000000119209","397190","HierDy35z7gw4m","sub12","12","03","rl","test","70","img/b_t_check.png","4","70","shape,color,pattern","118","1",""
"null","398201","HierDy35z7gw4m","sub12","12","03","feedback","test","null","","","na","","118","",""
"435.80000001192093","398640","HierDy35z7gw4m","sub12","12","03","rl","test","70","img/b_t_check.png","4","70","shape,color,pattern","119","1",""
"null","399650","HierDy35z7gw4m","sub12","12","03","feedback","test","null","","","na","","119","",""
"824.1999999880791","400476","HierDy35z7gw4m","sub12","12","03","rl","test","83","img/r_t_check.png","2","83","shape,color,pattern","120","1",""
"null","401494","HierDy35z7gw4m","sub12","12","03","feedback","test","null","","","na","","120","",""
"1081.1000000238419","402577","HierDy35z7gw4m","sub12","12","03","rl","test","75","img/b_d_stripes.png","7","75","shape,color,pattern","121","1",""
"null","403590","HierDy35z7gw4m","sub12","12","03","feedback","test","null","","","na","","121","",""
"943.3999999761581","404536","HierDy35z7gw4m","sub12","12","03","rl","test","70","img/r_t_check.png","2","83","shape,color,pattern","122","0",""
"null","405558","HierDy35z7gw4m","sub12","12","03","feedback","test","null","","","na","","122","",""
"1019.3999999761581","406579","HierDy35z7gw4m","sub12","12","03","rl","test","76","img/b_d_check.png","8","76","shape,color,pattern","123","1",""
"null","407598","HierDy35z7gw4m","sub12","12","03","feedback","test","null","","","na","","123","",""
"1259.199999988079","408860","HierDy35z7gw4m","sub12","12","03","rl","test","68","img/b_t_stripes.png","3","68","shape,color,pattern","124","1",""
"null","409865","HierDy35z7gw4m","sub12","12","03","feedback","test","null","","","na","","124","",""
"821.3000000119209","410688","HierDy35z7gw4m","sub12","12","03","rl","test","65","img/r_t_stripes.png","1","65","shape,color,pattern","125","1",""
"null","411697","HierDy35z7gw4m","sub12","12","03","feedback","test","null","","","na","","125","",""
"1215.699999988079","412915","HierDy35z7gw4m","sub12","12","03","rl","test","75","img/b_d_stripes.png","7","75","shape,color,pattern","126","1",""
"null","413927","HierDy35z7gw4m","sub12","12","03","feedback","test","null","","","na","","126","",""
"632.8000000119209","414561","HierDy35z7gw4m","sub12","12","03","rl","test","72","img/r_d_stripes.png","5","72","shape,color,pattern","127","1",""
"null","415582","HierDy35z7gw4m","sub12","12","03","feedback","test","null","","","na","","127","",""
"512.0999999642372","416097","HierDy35z7gw4m","sub12","12","03","rl","test","72","img/r_d_stripes.png","5","72","shape,color,pattern","128","1",""
"null","417108","HierDy35z7gw4m","sub12","12","03","feedback","test","null","","","na","","128","",""
"1114.1000000238419","418224","HierDy35z7gw4m","sub12","12","03","rl","test","70","img/b_t_check.png","4","70","shape,color,pattern","129","1",""
"null","419241","HierDy35z7gw4m","sub12","12","03","feedback","test","null","","","na","","129","",""
"1309.2000000476837","420552","HierDy35z7gw4m","sub12","12","03","rl","test","74","img/r_d_check.png","6","74","shape,color,pattern","130","1",""
"null","421562","HierDy35z7gw4m","sub12","12","03","feedback","test","null","","","na","","130","",""
"678.8999999761581","422243","HierDy35z7gw4m","sub12","12","03","rl","test","76","img/b_d_check.png","8","76","shape,color,pattern","131","1",""
"null","423252","HierDy35z7gw4m","sub12","12","03","feedback","test","null","","","na","","131","",""
"1176","424431","HierDy35z7gw4m","sub12","12","03","rl","test","83","img/r_t_check.png","2","83","shape,color,pattern","132","1",""
"null","425443","HierDy35z7gw4m","sub12","12","03","feedback","test","null","","","na","","132","",""
"1554.7000000476837","427000","HierDy35z7gw4m","sub12","12","03","rl","test","74","img/r_d_check.png","6","74","shape,color,pattern","133","1",""
"null","428016","HierDy35z7gw4m","sub12","12","03","feedback","test","null","","","na","","133","",""
"718.4000000357628","428736","HierDy35z7gw4m","sub12","12","03","rl","test","65","img/r_t_stripes.png","1","65","shape,color,pattern","134","1",""
"null","429758","HierDy35z7gw4m","sub12","12","03","feedback","test","null","","","na","","134","",""
"808.3000000119209","430568","HierDy35z7gw4m","sub12","12","03","rl","test","76","img/b_d_check.png","8","76","shape,color,pattern","135","1",""
"null","431582","HierDy35z7gw4m","sub12","12","03","feedback","test","null","","","na","","135","",""
"1354.1000000238419","432937","HierDy35z7gw4m","sub12","12","03","rl","test","68","img/b_t_stripes.png","3","68","shape,color,pattern","136","1",""
"null","433950","HierDy35z7gw4m","sub12","12","03","feedback","test","null","","","na","","136","",""
"1268.5999999642372","435221","HierDy35z7gw4m","sub12","12","03","rl","test","75","img/b_d_stripes.png","7","75","shape,color,pattern","137","1",""
"null","436234","HierDy35z7gw4m","sub12","12","03","feedback","test","null","","","na","","137","",""
"1083.9000000357628","437320","HierDy35z7gw4m","sub12","12","03","rl","test","65","img/r_t_stripes.png","1","65","shape,color,pattern","138","1",""
"null","438340","HierDy35z7gw4m","sub12","12","03","feedback","test","null","","","na","","138","",""
"1646.5999999642372","439989","HierDy35z7gw4m","sub12","12","03","rl","test","68","img/b_t_stripes.png","3","68","shape,color,pattern","139","1",""
"null","440997","HierDy35z7gw4m","sub12","12","03","feedback","test","null","","","na","","139","",""
"956","441956","HierDy35z7gw4m","sub12","12","03","rl","test","83","img/r_t_check.png","2","83","shape,color,pattern","140","1",""
"null","442973","HierDy35z7gw4m","sub12","12","03","feedback","test","null","","","na","","140","",""
"1166.6000000238419","444141","HierDy35z7gw4m","sub12","12","03","rl","test","72","img/r_d_stripes.png","5","72","shape,color,pattern","141","1",""
"null","445148","HierDy35z7gw4m","sub12","12","03","feedback","test","null","","","na","","141","",""
"1032.699999988079","446182","HierDy35z7gw4m","sub12","12","03","rl","test","75","img/b_d_stripes.png","7","75","shape,color,pattern","142","1",""
"null","447193","HierDy35z7gw4m","sub12","12","03","feedback","test","null","","","na","","142","",""
"1214.199999988079","448409","HierDy35z7gw4m","sub12","12","03","rl","test","70","img/b_t_check.png","4","70","shape,color,pattern","143","1",""
"null","449418","HierDy35z7gw4m","sub12","12","03","feedback","test","null","","","na","","143","",""
"1202.300000011921","450623","HierDy35z7gw4m","sub12","12","03","rl","test","74","img/r_d_check.png","6","74","shape,color,pattern","144","1",""
"null","451642","HierDy35z7gw4m","sub12","12","03","feedback","test","null","","","na","","144","",""
"503.5999999642372","452148","HierDy35z7gw4m","sub12","12","03","rl","test","74","img/r_d_check.png","6","74","shape,color,pattern","145","1",""
"null","453166","HierDy35z7gw4m","sub12","12","03","feedback","test","null","","","na","","145","",""
"1168.199999988079","454336","HierDy35z7gw4m","sub12","12","03","rl","test","70","img/r_t_check.png","2","83","shape,color,pattern","146","0",""
"null","455345","HierDy35z7gw4m","sub12","12","03","feedback","test","null","","","na","","146","",""
"1427.5","456774","HierDy35z7gw4m","sub12","12","03","rl","test","74","img/r_d_check.png","6","74","shape,color,pattern","147","1",""
"null","457789","HierDy35z7gw4m","sub12","12","03","feedback","test","null","","","na","","147","",""
"1204.8999999761581","458995","HierDy35z7gw4m","sub12","12","03","rl","test","72","img/r_d_stripes.png","5","72","shape,color,pattern","148","1",""
"null","460002","HierDy35z7gw4m","sub12","12","03","feedback","test","null","","","na","","148","",""
"1055.3999999761581","461059","HierDy35z7gw4m","sub12","12","03","rl","test","70","img/b_t_check.png","4","70","shape,color,pattern","149","1",""
"null","462067","HierDy35z7gw4m","sub12","12","03","feedback","test","null","","","na","","149","",""
"1362.199999988079","463430","HierDy35z7gw4m","sub12","12","03","rl","test","76","img/b_d_check.png","8","76","shape,color,pattern","150","1",""
"null","464455","HierDy35z7gw4m","sub12","12","03","feedback","test","null","","","na","","150","",""
"926.5","465384","HierDy35z7gw4m","sub12","12","03","rl","test","75","img/b_d_stripes.png","7","75","shape,color,pattern","151","1",""
"null","466402","HierDy35z7gw4m","sub12","12","03","feedback","test","null","","","na","","151","",""
"1110.9000000357628","467518","HierDy35z7gw4m","sub12","12","03","rl","test","68","img/b_t_stripes.png","3","68","shape,color,pattern","152","1",""
"null","468540","HierDy35z7gw4m","sub12","12","03","feedback","test","null","","","na","","152","",""
"894.6000000238419","469435","HierDy35z7gw4m","sub12","12","03","rl","test","65","img/r_t_stripes.png","1","65","shape,color,pattern","153","1",""
"null","470447","HierDy35z7gw4m","sub12","12","03","feedback","test","null","","","na","","153","",""
"938.5","471387","HierDy35z7gw4m","sub12","12","03","rl","test","70","img/b_t_check.png","4","70","shape,color,pattern","154","1",""
"null","472397","HierDy35z7gw4m","sub12","12","03","feedback","test","null","","","na","","154","",""
"1361.9000000357628","473760","HierDy35z7gw4m","sub12","12","03","rl","test","75","img/b_d_stripes.png","7","75","shape,color,pattern","155","1",""
"null","474780","HierDy35z7gw4m","sub12","12","03","feedback","test","null","","","na","","155","",""
"1319.1000000238419","476101","HierDy35z7gw4m","sub12","12","03","rl","test","83","img/r_t_check.png","2","83","shape,color,pattern","156","1",""
"null","477107","HierDy35z7gw4m","sub12","12","03","feedback","test","null","","","na","","156","",""
"1260.800000011921","478370","HierDy35z7gw4m","sub12","12","03","rl","test","76","img/b_d_check.png","8","76","shape,color,pattern","157","1",""
"null","479389","HierDy35z7gw4m","sub12","12","03","feedback","test","null","","","na","","157","",""
"1632.300000011921","481023","HierDy35z7gw4m","sub12","12","03","rl","test","83","img/r_t_check.png","2","83","shape,color,pattern","158","1",""
"null","482040","HierDy35z7gw4m","sub12","12","03","feedback","test","null","","","na","","158","",""
"1556.300000011921","483598","HierDy35z7gw4m","sub12","12","03","rl","test","74","img/r_d_check.png","6","74","shape,color,pattern","159","1",""
"null","484603","HierDy35z7gw4m","sub12","12","03","feedback","test","null","","","na","","159","",""
"1115.8999999761581","485721","HierDy35z7gw4m","sub12","12","03","rl","test","68","img/b_t_stripes.png","3","68","shape,color,pattern","160","1",""
"null","486733","HierDy35z7gw4m","sub12","12","03","feedback","test","null","","","na","","160","",""
"1152.699999988079","487889","HierDy35z7gw4m","sub12","12","03","rl","test","72","img/r_d_stripes.png","5","72","shape,color,pattern","161","1",""
"null","488911","HierDy35z7gw4m","sub12","12","03","feedback","test","null","","","na","","161","",""
"527.3999999761581","489441","HierDy35z7gw4m","sub12","12","03","rl","test","72","img/r_d_stripes.png","5","72","shape,color,pattern","162","1",""
"null","490454","HierDy35z7gw4m","sub12","12","03","feedback","test","null","","","na","","162","",""
"900.8000000119209","491356","HierDy35z7gw4m","sub12","12","03","rl","test","68","img/r_t_stripes.png","1","65","shape,color,pattern","163","0",""
"null","492370","HierDy35z7gw4m","sub12","12","03","feedback","test","null","","","na","","163","",""
"802","493175","HierDy35z7gw4m","sub12","12","03","rl","test","65","img/r_t_stripes.png","1","65","shape,color,pattern","164","1",""
"null","494188","HierDy35z7gw4m","sub12","12","03","feedback","test","null","","","na","","164","",""
"1212.5","495402","HierDy35z7gw4m","sub12","12","03","rl","test","70","img/b_t_check.png","4","70","shape,color,pattern","165","1",""
"null","496412","HierDy35z7gw4m","sub12","12","03","feedback","test","null","","","na","","165","",""
"1978.199999988079","498392","HierDy35z7gw4m","sub12","12","03","rl","test","76","img/b_d_check.png","8","76","shape,color,pattern","166","1",""
"null","499411","HierDy35z7gw4m","sub12","12","03","feedback","test","null","","","na","","166","",""
"616.8999999761581","500031","HierDy35z7gw4m","sub12","12","03","rl","test","75","img/b_d_stripes.png","7","75","shape,color,pattern","167","1",""
"null","501051","HierDy35z7gw4m","sub12","12","03","feedback","test","null","","","na","","167","",""
"1727.4000000357628","502780","HierDy35z7gw4m","sub12","12","03","rl","test","68","img/b_t_stripes.png","3","68","shape,color,pattern","168","1",""
"null","503789","HierDy35z7gw4m","sub12","12","03","feedback","test","null","","","na","","168","",""
"1086.199999988079","504877","HierDy35z7gw4m","sub12","12","03","rl","test","76","img/b_d_check.png","8","76","shape,color,pattern","169","1",""
"null","505882","HierDy35z7gw4m","sub12","12","03","feedback","test","null","","","na","","169","",""
"719","506603","HierDy35z7gw4m","sub12","12","03","rl","test","68","img/b_t_stripes.png","3","68","shape,color,pattern","170","1",""
"null","507616","HierDy35z7gw4m","sub12","12","03","feedback","test","null","","","na","","170","",""
"1443.3999999761581","509062","HierDy35z7gw4m","sub12","12","03","rl","test","75","img/b_d_stripes.png","7","75","shape,color,pattern","171","1",""
"null","510073","HierDy35z7gw4m","sub12","12","03","feedback","test","null","","","na","","171","",""
"2036","512111","HierDy35z7gw4m","sub12","12","03","rl","test","70","img/r_t_check.png","2","83","shape,color,pattern","172","0",""
"null","513121","HierDy35z7gw4m","sub12","12","03","feedback","test","null","","","na","","172","",""
"1618.699999988079","514741","HierDy35z7gw4m","sub12","12","03","rl","test","74","img/r_d_check.png","6","74","shape,color,pattern","173","1",""
"null","515755","HierDy35z7gw4m","sub12","12","03","feedback","test","null","","","na","","173","",""
"1020.3000000119209","516778","HierDy35z7gw4m","sub12","12","03","rl","test","75","img/b_d_stripes.png","7","75","shape,color,pattern","174","1",""
"null","517787","HierDy35z7gw4m","sub12","12","03","feedback","test","null","","","na","","174","",""
"677.1000000238419","518466","HierDy35z7gw4m","sub12","12","03","rl","test","76","img/b_d_check.png","8","76","shape,color,pattern","175","1",""
"null","519475","HierDy35z7gw4m","sub12","12","03","feedback","test","null","","","na","","175","",""
"1080.5999999642372","520558","HierDy35z7gw4m","sub12","12","03","rl","test","70","img/b_t_check.png","4","70","shape,color,pattern","176","1",""
"null","521563","HierDy35z7gw4m","sub12","12","03","feedback","test","null","","","na","","176","",""
"879.6999999880791","522444","HierDy35z7gw4m","sub12","12","03","rl","test","72","img/r_d_stripes.png","5","72","shape,color,pattern","177","1",""
"null","523449","HierDy35z7gw4m","sub12","12","03","feedback","test","null","","","na","","177","",""
"894","524346","HierDy35z7gw4m","sub12","12","03","rl","test","74","img/r_d_check.png","6","74","shape,color,pattern","178","1",""
"null","525361","HierDy35z7gw4m","sub12","12","03","feedback","test","null","","","na","","178","",""
"1368.699999988079","526731","HierDy35z7gw4m","sub12","12","03","rl","test","65","img/r_t_stripes.png","1","65","shape,color,pattern","179","1",""
"null","527744","HierDy35z7gw4m","sub12","12","03","feedback","test","null","","","na","","179","",""
"595.3999999761581","528341","HierDy35z7gw4m","sub12","12","03","rl","test","83","img/r_t_check.png","2","83","shape,color,pattern","180","1",""
"null","529350","HierDy35z7gw4m","sub12","12","03","feedback","test","null","","","na","","180","",""
"794.5","530147","HierDy35z7gw4m","sub12","12","03","rl","test","65","img/r_t_stripes.png","1","65","shape,color,pattern","181","1",""
"null","531158","HierDy35z7gw4m","sub12","12","03","feedback","test","null","","","na","","181","",""
"926.6999999880791","532087","HierDy35z7gw4m","sub12","12","03","rl","test","70","img/b_t_check.png","4","70","shape,color,pattern","182","1",""
"null","533097","HierDy35z7gw4m","sub12","12","03","feedback","test","null","","","na","","182","",""
"764.3000000119209","533862","HierDy35z7gw4m","sub12","12","03","rl","test","68","img/b_t_stripes.png","3","68","shape,color,pattern","183","1",""
"null","534877","HierDy35z7gw4m","sub12","12","03","feedback","test","null","","","na","","183","",""
"1008.6999999880791","535888","HierDy35z7gw4m","sub12","12","03","rl","test","72","img/r_d_stripes.png","5","72","shape,color,pattern","184","1",""
"null","536909","HierDy35z7gw4m","sub12","12","03","feedback","test","null","","","na","","184","",""
"982.8999999761581","537894","HierDy35z7gw4m","sub12","12","03","rl","test","70","img/b_t_check.png","4","70","shape,color,pattern","185","1",""
"null","538907","HierDy35z7gw4m","sub12","12","03","feedback","test","null","","","na","","185","",""
"735.3000000119209","539644","HierDy35z7gw4m","sub12","12","03","rl","test","65","img/r_t_stripes.png","1","65","shape,color,pattern","186","1",""
"null","540652","HierDy35z7gw4m","sub12","12","03","feedback","test","null","","","na","","186","",""
"761.8000000119209","541416","HierDy35z7gw4m","sub12","12","03","rl","test","68","img/b_t_stripes.png","3","68","shape,color,pattern","187","1",""
"null","542427","HierDy35z7gw4m","sub12","12","03","feedback","test","null","","","na","","187","",""
"1413.5","543842","HierDy35z7gw4m","sub12","12","03","rl","test","75","img/b_d_stripes.png","7","75","shape,color,pattern","188","1",""
"null","544863","HierDy35z7gw4m","sub12","12","03","feedback","test","null","","","na","","188","",""
"1178.5","546043","HierDy35z7gw4m","sub12","12","03","rl","test","83","img/r_t_check.png","2","83","shape,color,pattern","189","1",""
"null","547058","HierDy35z7gw4m","sub12","12","03","feedback","test","null","","","na","","189","",""
"1273.0999999642372","548333","HierDy35z7gw4m","sub12","12","03","rl","test","76","img/b_d_check.png","8","76","shape,color,pattern","190","1",""
"null","549351","HierDy35z7gw4m","sub12","12","03","feedback","test","null","","","na","","190","",""
"1062.699999988079","550416","HierDy35z7gw4m","sub12","12","03","rl","test","72","img/r_d_stripes.png","5","72","shape,color,pattern","191","1",""
"null","551426","HierDy35z7gw4m","sub12","12","03","feedback","test","null","","","na","","191","",""
"826.7000000476837","552255","HierDy35z7gw4m","sub12","12","03","rl","test","74","img/r_d_check.png","6","74","shape,color,pattern","192","1",""
"null","553276","HierDy35z7gw4m","sub12","12","03","feedback","test","null","","","na","","192","",""
"544.8999999761581","553824","HierDy35z7gw4m","sub12","12","03","rl","test","74","img/r_d_check.png","6","74","shape,color,pattern","193","1",""
"null","554838","HierDy35z7gw4m","sub12","12","03","feedback","test","null","","","na","","193","",""
"686","555526","HierDy35z7gw4m","sub12","12","03","rl","test","72","img/r_d_stripes.png","5","72","shape,color,pattern","194","1",""
"null","556538","HierDy35z7gw4m","sub12","12","03","feedback","test","null","","","na","","194","",""
"947.4000000357628","557487","HierDy35z7gw4m","sub12","12","03","rl","test","70","img/b_t_check.png","4","70","shape,color,pattern","195","1",""
"null","558507","HierDy35z7gw4m","sub12","12","03","feedback","test","null","","","na","","195","",""
"1048.300000011921","559557","HierDy35z7gw4m","sub12","12","03","rl","test","76","img/b_d_check.png","8","76","shape,color,pattern","196","1",""
"null","560571","HierDy35z7gw4m","sub12","12","03","feedback","test","null","","","na","","196","",""
"624.6999999880791","561199","HierDy35z7gw4m","sub12","12","03","rl","test","65","img/r_t_stripes.png","1","65","shape,color,pattern","197","1",""
"null","562220","HierDy35z7gw4m","sub12","12","03","feedback","test","null","","","na","","197","",""
"942.8000000119209","563165","HierDy35z7gw4m","sub12","12","03","rl","test","75","img/b_d_stripes.png","7","75","shape,color,pattern","198","1",""
"null","564179","HierDy35z7gw4m","sub12","12","03","feedback","test","null","","","na","","198","",""
"934.2999999523163","565116","HierDy35z7gw4m","sub12","12","03","rl","test","68","img/b_t_stripes.png","3","68","shape,color,pattern","199","1",""
"null","566126","HierDy35z7gw4m","sub12","12","03","feedback","test","null","","","na","","199","",""
"1492.699999988079","567621","HierDy35z7gw4m","sub12","12","03","rl","test","74","img/r_d_check.png","6","74","shape,color,pattern","200","1",""
"null","568646","HierDy35z7gw4m","sub12","12","03","feedback","test","null","","","na","","200","",""
"1402.800000011921","570051","HierDy35z7gw4m","sub12","12","03","rl","test","83","img/r_t_check.png","2","83","shape,color,pattern","201","1",""
"null","571061","HierDy35z7gw4m","sub12","12","03","feedback","test","null","","","na","","201","",""
"1216.5","572280","HierDy35z7gw4m","sub12","12","03","rl","test","72","img/r_d_stripes.png","5","72","shape,color,pattern","202","1",""
"null","573298","HierDy35z7gw4m","sub12","12","03","feedback","test","null","","","na","","202","",""
"945","574245","HierDy35z7gw4m","sub12","12","03","rl","test","68","img/b_t_stripes.png","3","68","shape,color,pattern","203","1",""
"null","575255","HierDy35z7gw4m","sub12","12","03","feedback","test","null","","","na","","203","",""
"641.5999999642372","575899","HierDy35z7gw4m","sub12","12","03","rl","test","70","img/b_t_check.png","4","70","shape,color,pattern","204","1",""
"null","576907","HierDy35z7gw4m","sub12","12","03","feedback","test","null","","","na","","204","",""
"804.0999999642372","577713","HierDy35z7gw4m","sub12","12","03","rl","test","83","img/r_t_check.png","2","83","shape,color,pattern","205","1",""
"null","578728","HierDy35z7gw4m","sub12","12","03","feedback","test","null","","","na","","205","",""
"916.1999999880791","579646","HierDy35z7gw4m","sub12","12","03","rl","test","76","img/b_d_check.png","8","76","shape,color,pattern","206","1",""
"null","580657","HierDy35z7gw4m","sub12","12","03","feedback","test","null","","","na","","206","",""
"507.30000001192093","581166","HierDy35z7gw4m","sub12","12","03","rl","test","76","img/b_d_check.png","8","76","shape,color,pattern","207","1",""
"null","582187","HierDy35z7gw4m","sub12","12","03","feedback","test","null","","","na","","207","",""
"1060.6000000238419","583251","HierDy35z7gw4m","sub12","12","03","rl","test","68","img/b_t_stripes.png","3","68","shape,color,pattern","208","1",""
"null","584260","HierDy35z7gw4m","sub12","12","03","feedback","test","null","","","na","","208","",""
"610.4000000357628","584872","HierDy35z7gw4m","sub12","12","03","rl","test","70","img/b_t_check.png","4","70","shape,color,pattern","209","1",""
"null","585883","HierDy35z7gw4m","sub12","12","03","feedback","test","null","","","na","","209","",""
"581.9000000357628","586468","HierDy35z7gw4m","sub12","12","03","rl","test","65","img/r_t_stripes.png","1","65","shape,color,pattern","210","1",""
"null","587477","HierDy35z7gw4m","sub12","12","03","feedback","test","null","","","na","","210","",""
"1460.5","588940","HierDy35z7gw4m","sub12","12","03","rl","test","75","img/b_d_stripes.png","7","75","shape,color,pattern","211","1",""
"null","589949","HierDy35z7gw4m","sub12","12","03","feedback","test","null","","","na","","211","",""
"931.1999999880791","590881","HierDy35z7gw4m","sub12","12","03","rl","test","65","img/r_t_stripes.png","1","65","shape,color,pattern","212","1",""
"null","591902","HierDy35z7gw4m","sub12","12","03","feedback","test","null","","","na","","212","",""
"965.5999999642372","592870","HierDy35z7gw4m","sub12","12","03","rl","test","75","img/b_d_stripes.png","7","75","shape,color,pattern","213","1",""
"null","593881","HierDy35z7gw4m","sub12","12","03","feedback","test","null","","","na","","213","",""
"1205.3999999761581","595088","HierDy35z7gw4m","sub12","12","03","rl","test","74","img/r_d_check.png","6","74","shape,color,pattern","214","1",""
"null","596110","HierDy35z7gw4m","sub12","12","03","feedback","test","null","","","na","","214","",""
"597.8999999761581","596710","HierDy35z7gw4m","sub12","12","03","rl","test","72","img/r_d_stripes.png","5","72","shape,color,pattern","215","1",""
"null","597725","HierDy35z7gw4m","sub12","12","03","feedback","test","null","","","na","","215","",""
"1513.7999999523163","599241","HierDy35z7gw4m","sub12","12","03","rl","test","83","img/r_t_check.png","2","83","shape,color,pattern","216","1",""
"null","600252","HierDy35z7gw4m","sub12","12","03","feedback","test","null","","","na","","216","",""
"645.0999999642372","600899","HierDy35z7gw4m","sub12","12","03","rl","test","83","img/r_t_check.png","2","83","shape,color,pattern","217","1",""
"null","601904","HierDy35z7gw4m","sub12","12","03","feedback","test","null","","","na","","217","",""
"638.8999999761581","602545","HierDy35z7gw4m","sub12","12","03","rl","test","70","img/b_t_check.png","4","70","shape,color,pattern","218","1",""
"null","603555","HierDy35z7gw4m","sub12","12","03","feedback","test","null","","","na","","218","",""
"1085.8999999761581","604642","HierDy35z7gw4m","sub12","12","03","rl","test","76","img/b_d_check.png","8","76","shape,color,pattern","219","1",""
"null","605663","HierDy35z7gw4m","sub12","12","03","feedback","test","null","","","na","","219","",""
"929.3000000119209","606595","HierDy35z7gw4m","sub12","12","03","rl","test","75","img/b_d_stripes.png","7","75","shape,color,pattern","220","1",""
"null","607605","HierDy35z7gw4m","sub12","12","03","feedback","test","null","","","na","","220","",""
"673.1000000238419","608280","HierDy35z7gw4m","sub12","12","03","rl","test","72","img/r_d_stripes.png","5","72","shape,color,pattern","221","1",""
"null","609293","HierDy35z7gw4m","sub12","12","03","feedback","test","null","","","na","","221","",""
"906","610202","HierDy35z7gw4m","sub12","12","03","rl","test","74","img/r_d_check.png","6","74","shape,color,pattern","222","1",""
"null","611222","HierDy35z7gw4m","sub12","12","03","feedback","test","null","","","na","","222","",""
"1444.7000000476837","612669","HierDy35z7gw4m","sub12","12","03","rl","test","68","img/b_t_stripes.png","3","68","shape,color,pattern","223","1",""
"null","613680","HierDy35z7gw4m","sub12","12","03","feedback","test","null","","","na","","223","",""
"885.6000000238419","614569","HierDy35z7gw4m","sub12","12","03","rl","test","72","img/r_d_stripes.png","5","72","shape,color,pattern","224","1",""
"null","615585","HierDy35z7gw4m","sub12","12","03","feedback","test","null","","","na","","224","",""
"564.1000000238419","616151","HierDy35z7gw4m","sub12","12","03","rl","test","74","img/r_d_check.png","6","74","shape,color,pattern","225","1",""
"null","617162","HierDy35z7gw4m","sub12","12","03","feedback","test","null","","","na","","225","",""
"895.7999999523163","618060","HierDy35z7gw4m","sub12","12","03","rl","test","65","img/r_t_stripes.png","1","65","shape,color,pattern","226","1",""
"null","619075","HierDy35z7gw4m","sub12","12","03","feedback","test","null","","","na","","226","",""
"652.5","619728","HierDy35z7gw4m","sub12","12","03","rl","test","83","img/r_t_check.png","2","83","shape,color,pattern","227","1",""
"null","620748","HierDy35z7gw4m","sub12","12","03","feedback","test","null","","","na","","227","",""
"767.5999999642372","621518","HierDy35z7gw4m","sub12","12","03","rl","test","68","img/b_t_stripes.png","3","68","shape,color,pattern","228","1",""
"null","622533","HierDy35z7gw4m","sub12","12","03","feedback","test","null","","","na","","228","",""
"1212.5","623748","HierDy35z7gw4m","sub12","12","03","rl","test","75","img/b_d_stripes.png","7","75","shape,color,pattern","229","1",""
"null","624764","HierDy35z7gw4m","sub12","12","03","feedback","test","null","","","na","","229","",""
"1279.800000011921","626045","HierDy35z7gw4m","sub12","12","03","rl","test","70","img/b_t_check.png","4","70","shape,color,pattern","230","1",""
"null","627050","HierDy35z7gw4m","sub12","12","03","feedback","test","null","","","na","","230","",""
"491.89999997615814","627544","HierDy35z7gw4m","sub12","12","03","rl","test","70","img/b_t_check.png","4","70","shape,color,pattern","231","1",""
"null","628559","HierDy35z7gw4m","sub12","12","03","feedback","test","null","","","na","","231","",""
"618.7000000476837","629179","HierDy35z7gw4m","sub12","12","03","rl","test","65","img/r_t_stripes.png","1","65","shape,color,pattern","232","1",""
"null","630193","HierDy35z7gw4m","sub12","12","03","feedback","test","null","","","na","","232","",""
"1166.8999999761581","631361","HierDy35z7gw4m","sub12","12","03","rl","test","72","img/r_d_check.png","6","74","shape,color,pattern","233","0",""
"null","632382","HierDy35z7gw4m","sub12","12","03","feedback","test","null","","","na","","233","",""
"1011.3999999761581","633396","HierDy35z7gw4m","sub12","12","03","rl","test","76","img/b_d_check.png","8","76","shape,color,pattern","234","1",""
"null","634411","HierDy35z7gw4m","sub12","12","03","feedback","test","null","","","na","","234","",""
"1129.5","635543","HierDy35z7gw4m","sub12","12","03","rl","test","68","img/b_t_stripes.png","3","68","shape,color,pattern","235","1",""
"null","636552","HierDy35z7gw4m","sub12","12","03","feedback","test","null","","","na","","235","",""
"677.8999999761581","637234","HierDy35z7gw4m","sub12","12","03","rl","test","65","img/r_t_stripes.png","1","65","shape,color,pattern","236","1",""
"null","638246","HierDy35z7gw4m","sub12","12","03","feedback","test","null","","","na","","236","",""
"1289.699999988079","639538","HierDy35z7gw4m","sub12","12","03","rl","test","75","img/b_d_stripes.png","7","75","shape,color,pattern","237","1",""
"null","640554","HierDy35z7gw4m","sub12","12","03","feedback","test","null","","","na","","237","",""
"1040.300000011921","641596","HierDy35z7gw4m","sub12","12","03","rl","test","83","img/r_t_check.png","2","83","shape,color,pattern","238","1",""
"null","642612","HierDy35z7gw4m","sub12","12","03","feedback","test","null","","","na","","238","",""
"1202.699999988079","643817","HierDy35z7gw4m","sub12","12","03","rl","test","72","img/r_d_stripes.png","5","72","shape,color,pattern","239","1",""
"null","644839","HierDy35z7gw4m","sub12","12","03","feedback","test","null","","","na","","239","",""
"905.3000000119209","645746","HierDy35z7gw4m","sub12","12","03","rl","test","76","img/b_d_check.png","8","76","shape,color,pattern","240","1",""
"null","646760","HierDy35z7gw4m","sub12","12","03","feedback","test","null","","","na","","240","",""
"1667.300000011921","648430","HierDy35z7gw4m","sub12","12","03","rl","test","72","img/r_d_stripes.png","5","72","shape,color,pattern","241","1",""
"null","649454","HierDy35z7gw4m","sub12","12","03","feedback","test","null","","","na","","241","",""
"827","650283","HierDy35z7gw4m","sub12","12","03","rl","test","75","img/b_d_stripes.png","7","75","shape,color,pattern","242","1",""
"null","651290","HierDy35z7gw4m","sub12","12","03","feedback","test","null","","","na","","242","",""
"1318.699999988079","652612","HierDy35z7gw4m","sub12","12","03","rl","test","74","img/r_d_check.png","6","74","shape,color,pattern","243","1",""
"null","653627","HierDy35z7gw4m","sub12","12","03","feedback","test","null","","","na","","243","",""
"821.1000000238419","654450","HierDy35z7gw4m","sub12","12","03","rl","test","76","img/b_d_check.png","8","76","shape,color,pattern","244","1",""
"null","655458","HierDy35z7gw4m","sub12","12","03","feedback","test","null","","","na","","244","",""
"1117.5","656578","HierDy35z7gw4m","sub12","12","03","rl","test","83","img/r_t_check.png","2","83","shape,color,pattern","245","1",""
"null","657592","HierDy35z7gw4m","sub12","12","03","feedback","test","null","","","na","","245","",""
"713.1999999880791","658308","HierDy35z7gw4m","sub12","12","03","rl","test","70","img/b_t_check.png","4","70","shape,color,pattern","246","1",""
"null","659318","HierDy35z7gw4m","sub12","12","03","feedback","test","null","","","na","","246","",""
"674.3000000119209","659995","HierDy35z7gw4m","sub12","12","03","rl","test","68","img/b_t_stripes.png","3","68","shape,color,pattern","247","1",""
"null","661004","HierDy35z7gw4m","sub12","12","03","feedback","test","null","","","na","","247","",""
"637.3999999761581","661643","HierDy35z7gw4m","sub12","12","03","rl","test","70","img/b_t_check.png","4","70","shape,color,pattern","248","1",""
"null","662657","HierDy35z7gw4m","sub12","12","03","feedback","test","null","","","na","","248","",""
"189739.80000001192","852401","HierDy35z7gw4m","sub12","12","03","","","","","","","","","","{""Q0"":""5.5""}"
"31720","884125","HierDy35z7gw4m","sub12","12","03","","","","","","","","","","{""Q0"":""Red to the left of blue, stripes to the left of squares, and triangles to the left of diamonds. Shapes are grouped next to each other by colors.""}"
"1895.300000011921","886021","HierDy35z7gw4m","sub12","12","03","","","","","","","","","",""
