"rt","time_elapsed","subject","subID","group","day","trialType","key_press","stim","corrresp","phase","stimNum","trialNum","corr","repeatTrial","motorSwitch","pracCounter","hierarchy","responses"
"50563","50580","HierDyfo0nz1sw","sub14","02","1","","","","","","","","","","","","",""
"","53111","HierDyfo0nz1sw","sub14","02","1","fullscreen","","","","","","","","","","","",""
"1433992","1487116","HierDyfo0nz1sw","sub14","02","1","","","","","","","","","","","","",""
"1629","1488757","HierDyfo0nz1sw","sub14","02","1","motor","68","img/motor_3.png","68","motor","3","1","1","0","0","","",""
"null","1488871","HierDyfo0nz1sw","sub14","02","1","iti","null","img/motor_3.png","68","motor","","","","","","","",""
"861","1489742","HierDyfo0nz1sw","sub14","02","1","motor","75","img/motor_7.png","75","motor","7","2","1","0","0","","",""
"null","1489856","HierDyfo0nz1sw","sub14","02","1","iti","null","img/motor_7.png","75","motor","","","","","","","",""
"612","1490479","HierDyfo0nz1sw","sub14","02","1","motor","65","img/motor_1.png","65","motor","1","3","1","0","0","","",""
"null","1490590","HierDyfo0nz1sw","sub14","02","1","iti","null","img/motor_1.png","65","motor","","","","","","","",""
"1032","1491636","HierDyfo0nz1sw","sub14","02","1","motor","74","img/motor_6.png","74","motor","6","4","1","0","0","","",""
"null","1491748","HierDyfo0nz1sw","sub14","02","1","iti","null","img/motor_6.png","74","motor","","","","","","","",""
"562","1492320","HierDyfo0nz1sw","sub14","02","1","motor","72","img/motor_5.png","72","motor","5","5","1","0","0","","",""
"null","1492430","HierDyfo0nz1sw","sub14","02","1","iti","null","img/motor_5.png","72","motor","","","","","","","",""
"661","1493102","HierDyfo0nz1sw","sub14","02","1","motor","68","img/motor_3.png","68","motor","3","6","1","0","0","","",""
"null","1493214","HierDyfo0nz1sw","sub14","02","1","iti","null","img/motor_3.png","68","motor","","","","","","","",""
"583","1493806","HierDyfo0nz1sw","sub14","02","1","motor","83","img/motor_2.png","83","motor","2","7","1","0","0","","",""
"null","1493916","HierDyfo0nz1sw","sub14","02","1","iti","null","img/motor_2.png","83","motor","","","","","","","",""
"536","1494462","HierDyfo0nz1sw","sub14","02","1","motor","70","img/motor_4.png","70","motor","4","8","1","0","0","","",""
"null","1494573","HierDyfo0nz1sw","sub14","02","1","iti","null","img/motor_4.png","70","motor","","","","","","","",""
"497","1495080","HierDyfo0nz1sw","sub14","02","1","motor","72","img/motor_5.png","72","motor","5","9","1","0","0","","",""
"null","1495192","HierDyfo0nz1sw","sub14","02","1","iti","null","img/motor_5.png","72","motor","","","","","","","",""
"507","1495709","HierDyfo0nz1sw","sub14","02","1","motor","68","img/motor_3.png","68","motor","3","10","1","0","0","","",""
"null","1495821","HierDyfo0nz1sw","sub14","02","1","iti","null","img/motor_3.png","68","motor","","","","","","","",""
"509","1496339","HierDyfo0nz1sw","sub14","02","1","motor","70","img/motor_4.png","70","motor","4","11","1","0","0","","",""
"null","1496450","HierDyfo0nz1sw","sub14","02","1","iti","null","img/motor_4.png","70","motor","","","","","","","",""
"486","1496945","HierDyfo0nz1sw","sub14","02","1","motor","70","img/motor_4.png","70","motor","4","12","1","0","0","","",""
"null","1497058","HierDyfo0nz1sw","sub14","02","1","iti","null","img/motor_4.png","70","motor","","","","","","","",""
"553","1497618","HierDyfo0nz1sw","sub14","02","1","motor","74","img/motor_6.png","74","motor","6","13","1","0","0","","",""
"null","1497729","HierDyfo0nz1sw","sub14","02","1","iti","null","img/motor_6.png","74","motor","","","","","","","",""
"437","1498175","HierDyfo0nz1sw","sub14","02","1","motor","72","img/motor_5.png","72","motor","5","14","1","0","0","","",""
"null","1498285","HierDyfo0nz1sw","sub14","02","1","iti","null","img/motor_5.png","72","motor","","","","","","","",""
"633","1498927","HierDyfo0nz1sw","sub14","02","1","motor","75","img/motor_7.png","75","motor","7","15","1","0","0","","",""
"null","1499036","HierDyfo0nz1sw","sub14","02","1","iti","null","img/motor_7.png","75","motor","","","","","","","",""
"601","1499647","HierDyfo0nz1sw","sub14","02","1","motor","83","img/motor_2.png","83","motor","2","16","1","0","0","","",""
"null","1499758","HierDyfo0nz1sw","sub14","02","1","iti","null","img/motor_2.png","83","motor","","","","","","","",""
"497","1500264","HierDyfo0nz1sw","sub14","02","1","motor","70","img/motor_4.png","70","motor","4","17","1","0","0","","",""
"null","1500375","HierDyfo0nz1sw","sub14","02","1","iti","null","img/motor_4.png","70","motor","","","","","","","",""
"521","1500905","HierDyfo0nz1sw","sub14","02","1","motor","74","img/motor_6.png","74","motor","6","18","1","0","0","","",""
"null","1501016","HierDyfo0nz1sw","sub14","02","1","iti","null","img/motor_6.png","74","motor","","","","","","","",""
"497","1501523","HierDyfo0nz1sw","sub14","02","1","motor","65","img/motor_1.png","65","motor","1","19","1","0","0","","",""
"null","1501635","HierDyfo0nz1sw","sub14","02","1","iti","null","img/motor_1.png","65","motor","","","","","","","",""
"440","1502084","HierDyfo0nz1sw","sub14","02","1","motor","72","img/motor_5.png","72","motor","5","20","1","0","0","","",""
"null","1502196","HierDyfo0nz1sw","sub14","02","1","iti","null","img/motor_5.png","72","motor","","","","","","","",""
"391","1502596","HierDyfo0nz1sw","sub14","02","1","motor","74","img/motor_6.png","74","motor","6","21","1","0","0","","",""
"null","1502706","HierDyfo0nz1sw","sub14","02","1","iti","null","img/motor_6.png","74","motor","","","","","","","",""
"567","1503282","HierDyfo0nz1sw","sub14","02","1","motor","76","img/motor_8.png","76","motor","8","22","1","0","0","","",""
"null","1503393","HierDyfo0nz1sw","sub14","02","1","iti","null","img/motor_8.png","76","motor","","","","","","","",""
"462","1503865","HierDyfo0nz1sw","sub14","02","1","motor","70","img/motor_4.png","70","motor","4","23","1","0","0","","",""
"null","1503977","HierDyfo0nz1sw","sub14","02","1","iti","null","img/motor_4.png","70","motor","","","","","","","",""
"530","1504516","HierDyfo0nz1sw","sub14","02","1","motor","72","img/motor_5.png","72","motor","5","24","1","0","0","","",""
"null","1504625","HierDyfo0nz1sw","sub14","02","1","iti","null","img/motor_5.png","72","motor","","","","","","","",""
"590","1505226","HierDyfo0nz1sw","sub14","02","1","motor","83","img/motor_2.png","83","motor","2","25","1","0","0","","",""
"null","1505336","HierDyfo0nz1sw","sub14","02","1","iti","null","img/motor_2.png","83","motor","","","","","","","",""
"390","1505737","HierDyfo0nz1sw","sub14","02","1","motor","83","img/motor_2.png","83","motor","2","26","1","0","0","","",""
"null","1505848","HierDyfo0nz1sw","sub14","02","1","iti","null","img/motor_2.png","83","motor","","","","","","","",""
"501","1506358","HierDyfo0nz1sw","sub14","02","1","motor","76","img/motor_8.png","76","motor","8","27","1","0","0","","",""
"null","1506470","HierDyfo0nz1sw","sub14","02","1","iti","null","img/motor_8.png","76","motor","","","","","","","",""
"472","1506951","HierDyfo0nz1sw","sub14","02","1","motor","70","img/motor_4.png","70","motor","4","28","1","0","0","","",""
"null","1507062","HierDyfo0nz1sw","sub14","02","1","iti","null","img/motor_4.png","70","motor","","","","","","","",""
"474","1507547","HierDyfo0nz1sw","sub14","02","1","motor","68","img/motor_3.png","68","motor","3","29","1","0","0","","",""
"null","1507658","HierDyfo0nz1sw","sub14","02","1","iti","null","img/motor_3.png","68","motor","","","","","","","",""
"478","1508145","HierDyfo0nz1sw","sub14","02","1","motor","68","img/motor_3.png","68","motor","3","30","1","0","0","","",""
"null","1508257","HierDyfo0nz1sw","sub14","02","1","iti","null","img/motor_3.png","68","motor","","","","","","","",""
"400","1508664","HierDyfo0nz1sw","sub14","02","1","motor","65","img/motor_1.png","65","motor","1","31","1","0","0","","",""
"null","1508775","HierDyfo0nz1sw","sub14","02","1","iti","null","img/motor_1.png","65","motor","","","","","","","",""
"424","1509208","HierDyfo0nz1sw","sub14","02","1","motor","72","img/motor_5.png","72","motor","5","32","1","0","0","","",""
"null","1509319","HierDyfo0nz1sw","sub14","02","1","iti","null","img/motor_5.png","72","motor","","","","","","","",""
"368","1509695","HierDyfo0nz1sw","sub14","02","1","motor","76","img/motor_8.png","76","motor","8","33","1","0","0","","",""
"null","1509806","HierDyfo0nz1sw","sub14","02","1","iti","null","img/motor_8.png","76","motor","","","","","","","",""
"602","1510418","HierDyfo0nz1sw","sub14","02","1","motor","83","img/motor_2.png","83","motor","2","34","1","0","0","","",""
"null","1510528","HierDyfo0nz1sw","sub14","02","1","iti","null","img/motor_2.png","83","motor","","","","","","","",""
"462","1511001","HierDyfo0nz1sw","sub14","02","1","motor","68","img/motor_3.png","68","motor","3","35","1","0","0","","",""
"null","1511112","HierDyfo0nz1sw","sub14","02","1","iti","null","img/motor_3.png","68","motor","","","","","","","",""
"436","1511557","HierDyfo0nz1sw","sub14","02","1","motor","65","img/motor_1.png","65","motor","1","36","1","0","0","","",""
"null","1511666","HierDyfo0nz1sw","sub14","02","1","iti","null","img/motor_1.png","65","motor","","","","","","","",""
"434","1512112","HierDyfo0nz1sw","sub14","02","1","motor","72","img/motor_5.png","72","motor","5","37","1","0","0","","",""
"null","1512222","HierDyfo0nz1sw","sub14","02","1","iti","null","img/motor_5.png","72","motor","","","","","","","",""
"361","1512592","HierDyfo0nz1sw","sub14","02","1","motor","76","img/motor_8.png","76","motor","8","38","1","0","0","","",""
"null","1512704","HierDyfo0nz1sw","sub14","02","1","iti","null","img/motor_8.png","76","motor","","","","","","","",""
"516","1513229","HierDyfo0nz1sw","sub14","02","1","motor","83","img/motor_2.png","83","motor","2","39","1","0","0","","",""
"null","1513341","HierDyfo0nz1sw","sub14","02","1","iti","null","img/motor_2.png","83","motor","","","","","","","",""
"385","1513734","HierDyfo0nz1sw","sub14","02","1","motor","83","img/motor_2.png","83","motor","2","40","1","0","0","","",""
"null","1513845","HierDyfo0nz1sw","sub14","02","1","iti","null","img/motor_2.png","83","motor","","","","","","","",""
"404","1514258","HierDyfo0nz1sw","sub14","02","1","motor","76","img/motor_8.png","76","motor","8","41","1","0","0","","",""
"null","1514370","HierDyfo0nz1sw","sub14","02","1","iti","null","img/motor_8.png","76","motor","","","","","","","",""
"424","1514803","HierDyfo0nz1sw","sub14","02","1","motor","65","img/motor_1.png","65","motor","1","42","1","0","0","","",""
"null","1514913","HierDyfo0nz1sw","sub14","02","1","iti","null","img/motor_1.png","65","motor","","","","","","","",""
"358","1515281","HierDyfo0nz1sw","sub14","02","1","motor","65","img/motor_1.png","65","motor","1","43","1","0","0","","",""
"null","1515394","HierDyfo0nz1sw","sub14","02","1","iti","null","img/motor_1.png","65","motor","","","","","","","",""
"477","1515881","HierDyfo0nz1sw","sub14","02","1","motor","72","img/motor_5.png","72","motor","5","44","1","0","0","","",""
"null","1515992","HierDyfo0nz1sw","sub14","02","1","iti","null","img/motor_5.png","72","motor","","","","","","","",""
"334","1516336","HierDyfo0nz1sw","sub14","02","1","motor","74","img/motor_6.png","74","motor","6","45","1","0","0","","",""
"null","1516447","HierDyfo0nz1sw","sub14","02","1","iti","null","img/motor_6.png","74","motor","","","","","","","",""
"940","1517399","HierDyfo0nz1sw","sub14","02","1","motor","68","img/motor_3.png","68","motor","3","46","1","0","0","","",""
"null","1517510","HierDyfo0nz1sw","sub14","02","1","iti","null","img/motor_3.png","68","motor","","","","","","","",""
"477","1517997","HierDyfo0nz1sw","sub14","02","1","motor","83","img/motor_2.png","83","motor","2","47","1","0","0","","",""
"null","1518109","HierDyfo0nz1sw","sub14","02","1","iti","null","img/motor_2.png","83","motor","","","","","","","",""
"584","1518701","HierDyfo0nz1sw","sub14","02","1","motor","74","img/motor_6.png","74","motor","6","48","1","0","0","","",""
"null","1518814","HierDyfo0nz1sw","sub14","02","1","iti","null","img/motor_6.png","74","motor","","","","","","","",""
"444","1519269","HierDyfo0nz1sw","sub14","02","1","motor","65","img/motor_1.png","65","motor","1","49","1","0","0","","",""
"null","1519380","HierDyfo0nz1sw","sub14","02","1","iti","null","img/motor_1.png","65","motor","","","","","","","",""
"523","1519912","HierDyfo0nz1sw","sub14","02","1","motor","75","img/motor_7.png","75","motor","7","50","1","0","0","","",""
"null","1520023","HierDyfo0nz1sw","sub14","02","1","iti","null","img/motor_7.png","75","motor","","","","","","","",""
"387","1520416","HierDyfo0nz1sw","sub14","02","1","motor","72","img/motor_5.png","72","motor","5","51","1","0","0","","",""
"null","1520526","HierDyfo0nz1sw","sub14","02","1","iti","null","img/motor_5.png","72","motor","","","","","","","",""
"521","1521056","HierDyfo0nz1sw","sub14","02","1","motor","68","img/motor_3.png","68","motor","3","52","1","0","0","","",""
"null","1521166","HierDyfo0nz1sw","sub14","02","1","iti","null","img/motor_3.png","68","motor","","","","","","","",""
"448","1521622","HierDyfo0nz1sw","sub14","02","1","motor","70","img/motor_4.png","70","motor","4","53","1","0","0","","",""
"null","1521733","HierDyfo0nz1sw","sub14","02","1","iti","null","img/motor_4.png","70","motor","","","","","","","",""
"558","1522301","HierDyfo0nz1sw","sub14","02","1","motor","75","img/motor_7.png","75","motor","7","54","1","0","0","","",""
"null","1522409","HierDyfo0nz1sw","sub14","02","1","iti","null","img/motor_7.png","75","motor","","","","","","","",""
"409","1522827","HierDyfo0nz1sw","sub14","02","1","motor","74","img/motor_6.png","74","motor","6","55","1","0","0","","",""
"null","1522935","HierDyfo0nz1sw","sub14","02","1","iti","null","img/motor_6.png","74","motor","","","","","","","",""
"450","1523395","HierDyfo0nz1sw","sub14","02","1","motor","75","img/motor_7.png","75","motor","7","56","1","0","0","","",""
"null","1523505","HierDyfo0nz1sw","sub14","02","1","iti","null","img/motor_7.png","75","motor","","","","","","","",""
"405","1523919","HierDyfo0nz1sw","sub14","02","1","motor","76","img/motor_8.png","76","motor","8","57","1","0","0","","",""
"null","1524030","HierDyfo0nz1sw","sub14","02","1","iti","null","img/motor_8.png","76","motor","","","","","","","",""
"545","1524583","HierDyfo0nz1sw","sub14","02","1","motor","72","img/motor_6.png","74","motor","6","58","0","1","0","","",""
"372","1524965","HierDyfo0nz1sw","sub14","02","1","motorRepeat","74","img/motor_6.png","74","motor","6","58","1","0","0","","",""
"null","1525077","HierDyfo0nz1sw","sub14","02","1","iti","null","img/motor_6.png","74","motor","","","","","","","",""
"530","1525614","HierDyfo0nz1sw","sub14","02","1","motor","75","img/motor_7.png","75","motor","7","59","1","0","0","","",""
"null","1525726","HierDyfo0nz1sw","sub14","02","1","iti","null","img/motor_7.png","75","motor","","","","","","","",""
"737","1526472","HierDyfo0nz1sw","sub14","02","1","motor","68","img/motor_3.png","68","motor","3","60","1","0","0","","",""
"null","1526583","HierDyfo0nz1sw","sub14","02","1","iti","null","img/motor_3.png","68","motor","","","","","","","",""
"441","1527034","HierDyfo0nz1sw","sub14","02","1","motor","76","img/motor_8.png","76","motor","8","61","1","0","0","","",""
"null","1527143","HierDyfo0nz1sw","sub14","02","1","iti","null","img/motor_8.png","76","motor","","","","","","","",""
"360","1527515","HierDyfo0nz1sw","sub14","02","1","motor","65","img/motor_1.png","65","motor","1","62","1","0","0","","",""
"null","1527626","HierDyfo0nz1sw","sub14","02","1","iti","null","img/motor_1.png","65","motor","","","","","","","",""
"366","1528002","HierDyfo0nz1sw","sub14","02","1","motor","76","img/motor_8.png","76","motor","8","63","1","0","0","","",""
"null","1528113","HierDyfo0nz1sw","sub14","02","1","iti","null","img/motor_8.png","76","motor","","","","","","","",""
"838","1528961","HierDyfo0nz1sw","sub14","02","1","motor","68","img/motor_3.png","68","motor","3","64","1","0","0","","",""
"null","1529073","HierDyfo0nz1sw","sub14","02","1","iti","null","img/motor_3.png","68","motor","","","","","","","",""
"470","1529554","HierDyfo0nz1sw","sub14","02","1","motor","74","img/motor_6.png","74","motor","6","65","1","0","0","","",""
"null","1529665","HierDyfo0nz1sw","sub14","02","1","iti","null","img/motor_6.png","74","motor","","","","","","","",""
"498","1530173","HierDyfo0nz1sw","sub14","02","1","motor","75","img/motor_7.png","75","motor","7","66","1","0","0","","",""
"null","1530284","HierDyfo0nz1sw","sub14","02","1","iti","null","img/motor_7.png","75","motor","","","","","","","",""
"560","1530856","HierDyfo0nz1sw","sub14","02","1","motor","83","img/motor_2.png","83","motor","2","67","1","0","0","","",""
"null","1530968","HierDyfo0nz1sw","sub14","02","1","iti","null","img/motor_2.png","83","motor","","","","","","","",""
"429","1531406","HierDyfo0nz1sw","sub14","02","1","motor","70","img/motor_4.png","70","motor","4","68","1","0","0","","",""
"null","1531518","HierDyfo0nz1sw","sub14","02","1","iti","null","img/motor_4.png","70","motor","","","","","","","",""
"423","1531952","HierDyfo0nz1sw","sub14","02","1","motor","65","img/motor_1.png","65","motor","1","69","1","0","0","","",""
"null","1532064","HierDyfo0nz1sw","sub14","02","1","iti","null","img/motor_1.png","65","motor","","","","","","","",""
"529","1532602","HierDyfo0nz1sw","sub14","02","1","motor","68","img/motor_3.png","68","motor","3","70","1","0","0","","",""
"null","1532714","HierDyfo0nz1sw","sub14","02","1","iti","null","img/motor_3.png","68","motor","","","","","","","",""
"450","1533174","HierDyfo0nz1sw","sub14","02","1","motor","68","img/motor_3.png","68","motor","3","71","1","0","0","","",""
"null","1533285","HierDyfo0nz1sw","sub14","02","1","iti","null","img/motor_3.png","68","motor","","","","","","","",""
"450","1533745","HierDyfo0nz1sw","sub14","02","1","motor","83","img/motor_2.png","83","motor","2","72","1","0","0","","",""
"null","1533857","HierDyfo0nz1sw","sub14","02","1","iti","null","img/motor_2.png","83","motor","","","","","","","",""
"413","1534279","HierDyfo0nz1sw","sub14","02","1","motor","70","img/motor_4.png","70","motor","4","73","1","0","0","","",""
"null","1534390","HierDyfo0nz1sw","sub14","02","1","iti","null","img/motor_4.png","70","motor","","","","","","","",""
"642","1535043","HierDyfo0nz1sw","sub14","02","1","motor","75","img/motor_7.png","75","motor","7","74","1","0","0","","",""
"null","1535153","HierDyfo0nz1sw","sub14","02","1","iti","null","img/motor_7.png","75","motor","","","","","","","",""
"340","1535503","HierDyfo0nz1sw","sub14","02","1","motor","75","img/motor_7.png","75","motor","7","75","1","0","0","","",""
"null","1535613","HierDyfo0nz1sw","sub14","02","1","iti","null","img/motor_7.png","75","motor","","","","","","","",""
"407","1536028","HierDyfo0nz1sw","sub14","02","1","motor","74","img/motor_6.png","74","motor","6","76","1","0","0","","",""
"null","1536140","HierDyfo0nz1sw","sub14","02","1","iti","null","img/motor_6.png","74","motor","","","","","","","",""
"642","1536792","HierDyfo0nz1sw","sub14","02","1","motor","68","img/motor_3.png","68","motor","3","77","1","0","0","","",""
"null","1536905","HierDyfo0nz1sw","sub14","02","1","iti","null","img/motor_3.png","68","motor","","","","","","","",""
"500","1537413","HierDyfo0nz1sw","sub14","02","1","motor","83","img/motor_2.png","83","motor","2","78","1","0","0","","",""
"null","1537525","HierDyfo0nz1sw","sub14","02","1","iti","null","img/motor_2.png","83","motor","","","","","","","",""
"357","1537891","HierDyfo0nz1sw","sub14","02","1","motor","65","img/motor_1.png","65","motor","1","79","1","0","0","","",""
"null","1538002","HierDyfo0nz1sw","sub14","02","1","iti","null","img/motor_1.png","65","motor","","","","","","","",""
"446","1538458","HierDyfo0nz1sw","sub14","02","1","motor","72","img/motor_5.png","72","motor","5","80","1","0","0","","",""
"null","1538570","HierDyfo0nz1sw","sub14","02","1","iti","null","img/motor_5.png","72","motor","","","","","","","",""
"380","1538960","HierDyfo0nz1sw","sub14","02","1","motor","74","img/motor_6.png","74","motor","6","81","1","0","0","","",""
"null","1539072","HierDyfo0nz1sw","sub14","02","1","iti","null","img/motor_6.png","74","motor","","","","","","","",""
"502","1539584","HierDyfo0nz1sw","sub14","02","1","motor","83","img/motor_2.png","83","motor","2","82","1","0","0","","",""
"null","1539696","HierDyfo0nz1sw","sub14","02","1","iti","null","img/motor_2.png","83","motor","","","","","","","",""
"445","1540152","HierDyfo0nz1sw","sub14","02","1","motor","72","img/motor_5.png","72","motor","5","83","1","0","0","","",""
"null","1540264","HierDyfo0nz1sw","sub14","02","1","iti","null","img/motor_5.png","72","motor","","","","","","","",""
"450","1540723","HierDyfo0nz1sw","sub14","02","1","motor","65","img/motor_1.png","65","motor","1","84","1","0","0","","",""
"null","1540835","HierDyfo0nz1sw","sub14","02","1","iti","null","img/motor_1.png","65","motor","","","","","","","",""
"415","1541259","HierDyfo0nz1sw","sub14","02","1","motor","70","img/motor_4.png","70","motor","4","85","1","0","0","","",""
"null","1541371","HierDyfo0nz1sw","sub14","02","1","iti","null","img/motor_4.png","70","motor","","","","","","","",""
"422","1541803","HierDyfo0nz1sw","sub14","02","1","motor","68","img/motor_3.png","68","motor","3","86","1","0","0","","",""
"null","1541914","HierDyfo0nz1sw","sub14","02","1","iti","null","img/motor_3.png","68","motor","","","","","","","",""
"478","1542403","HierDyfo0nz1sw","sub14","02","1","motor","75","img/motor_7.png","75","motor","7","87","1","0","0","","",""
"null","1542514","HierDyfo0nz1sw","sub14","02","1","iti","null","img/motor_7.png","75","motor","","","","","","","",""
"395","1542918","HierDyfo0nz1sw","sub14","02","1","motor","65","img/motor_1.png","65","motor","1","88","1","0","0","","",""
"null","1543030","HierDyfo0nz1sw","sub14","02","1","iti","null","img/motor_1.png","65","motor","","","","","","","",""
"400","1543441","HierDyfo0nz1sw","sub14","02","1","motor","70","img/motor_4.png","70","motor","4","89","1","0","0","","",""
"null","1543553","HierDyfo0nz1sw","sub14","02","1","iti","null","img/motor_4.png","70","motor","","","","","","","",""
"311","1543873","HierDyfo0nz1sw","sub14","02","1","motor","65","img/motor_1.png","65","motor","1","90","1","0","0","","",""
"null","1543986","HierDyfo0nz1sw","sub14","02","1","iti","null","img/motor_1.png","65","motor","","","","","","","",""
"502","1544498","HierDyfo0nz1sw","sub14","02","1","motor","68","img/motor_3.png","68","motor","3","91","1","0","0","","",""
"null","1544607","HierDyfo0nz1sw","sub14","02","1","iti","null","img/motor_3.png","68","motor","","","","","","","",""
"311","1544927","HierDyfo0nz1sw","sub14","02","1","motor","65","img/motor_1.png","65","motor","1","92","1","0","0","","",""
"null","1545039","HierDyfo0nz1sw","sub14","02","1","iti","null","img/motor_1.png","65","motor","","","","","","","",""
"556","1545604","HierDyfo0nz1sw","sub14","02","1","motor","76","img/motor_8.png","76","motor","8","93","1","0","0","","",""
"null","1545712","HierDyfo0nz1sw","sub14","02","1","iti","null","img/motor_8.png","76","motor","","","","","","","",""
"476","1546199","HierDyfo0nz1sw","sub14","02","1","motor","72","img/motor_5.png","72","motor","5","94","1","0","0","","",""
"null","1546309","HierDyfo0nz1sw","sub14","02","1","iti","null","img/motor_5.png","72","motor","","","","","","","",""
"580","1546898","HierDyfo0nz1sw","sub14","02","1","motor","70","img/motor_4.png","70","motor","4","95","1","0","0","","",""
"null","1547010","HierDyfo0nz1sw","sub14","02","1","iti","null","img/motor_4.png","70","motor","","","","","","","",""
"515","1547535","HierDyfo0nz1sw","sub14","02","1","motor","75","img/motor_7.png","75","motor","7","96","1","0","0","","",""
"null","1547648","HierDyfo0nz1sw","sub14","02","1","iti","null","img/motor_7.png","75","motor","","","","","","","",""
"375","1548031","HierDyfo0nz1sw","sub14","02","1","motor","70","img/motor_4.png","70","motor","4","97","1","0","0","","",""
"null","1548143","HierDyfo0nz1sw","sub14","02","1","iti","null","img/motor_4.png","70","motor","","","","","","","",""
"538","1548692","HierDyfo0nz1sw","sub14","02","1","motor","72","img/motor_5.png","72","motor","5","98","1","0","0","","",""
"null","1548802","HierDyfo0nz1sw","sub14","02","1","iti","null","img/motor_5.png","72","motor","","","","","","","",""
"536","1549348","HierDyfo0nz1sw","sub14","02","1","motor","76","img/motor_8.png","76","motor","8","99","1","0","0","","",""
"null","1549460","HierDyfo0nz1sw","sub14","02","1","iti","null","img/motor_8.png","76","motor","","","","","","","",""
"368","1549839","HierDyfo0nz1sw","sub14","02","1","motor","65","img/motor_1.png","65","motor","1","100","1","0","0","","",""
"null","1549949","HierDyfo0nz1sw","sub14","02","1","iti","null","img/motor_1.png","65","motor","","","","","","","",""
"443","1550402","HierDyfo0nz1sw","sub14","02","1","motor","72","img/motor_5.png","72","motor","5","101","1","0","0","","",""
"null","1550514","HierDyfo0nz1sw","sub14","02","1","iti","null","img/motor_5.png","72","motor","","","","","","","",""
"400","1550921","HierDyfo0nz1sw","sub14","02","1","motor","76","img/motor_8.png","76","motor","8","102","1","0","0","","",""
"null","1551031","HierDyfo0nz1sw","sub14","02","1","iti","null","img/motor_8.png","76","motor","","","","","","","",""
"313","1551355","HierDyfo0nz1sw","sub14","02","1","motor","65","img/motor_1.png","65","motor","1","103","1","0","0","","",""
"null","1551466","HierDyfo0nz1sw","sub14","02","1","iti","null","img/motor_1.png","65","motor","","","","","","","",""
"667","1552143","HierDyfo0nz1sw","sub14","02","1","motor","70","img/motor_3.png","68","motor","3","104","0","1","0","","",""
"350","1552503","HierDyfo0nz1sw","sub14","02","1","motorRepeat","68","img/motor_3.png","68","motor","3","104","1","0","0","","",""
"null","1552614","HierDyfo0nz1sw","sub14","02","1","iti","null","img/motor_3.png","68","motor","","","","","","","",""
"357","1552980","HierDyfo0nz1sw","sub14","02","1","motor","65","img/motor_1.png","65","motor","1","105","1","0","0","","",""
"null","1553092","HierDyfo0nz1sw","sub14","02","1","iti","null","img/motor_1.png","65","motor","","","","","","","",""
"460","1553564","HierDyfo0nz1sw","sub14","02","1","motor","76","img/motor_8.png","76","motor","8","106","1","0","0","","",""
"null","1553674","HierDyfo0nz1sw","sub14","02","1","iti","null","img/motor_8.png","76","motor","","","","","","","",""
"473","1554155","HierDyfo0nz1sw","sub14","02","1","motor","70","img/motor_4.png","70","motor","4","107","1","0","0","","",""
"null","1554267","HierDyfo0nz1sw","sub14","02","1","iti","null","img/motor_4.png","70","motor","","","","","","","",""
"399","1554676","HierDyfo0nz1sw","sub14","02","1","motor","68","img/motor_3.png","68","motor","3","108","1","0","0","","",""
"null","1554787","HierDyfo0nz1sw","sub14","02","1","iti","null","img/motor_3.png","68","motor","","","","","","","",""
"583","1555380","HierDyfo0nz1sw","sub14","02","1","motor","74","img/motor_6.png","74","motor","6","109","1","0","0","","",""
"null","1555492","HierDyfo0nz1sw","sub14","02","1","iti","null","img/motor_6.png","74","motor","","","","","","","",""
"525","1556028","HierDyfo0nz1sw","sub14","02","1","motor","68","img/motor_3.png","68","motor","3","110","1","0","0","","",""
"null","1556140","HierDyfo0nz1sw","sub14","02","1","iti","null","img/motor_3.png","68","motor","","","","","","","",""
"629","1556779","HierDyfo0nz1sw","sub14","02","1","motor","74","img/motor_6.png","74","motor","6","111","1","0","0","","",""
"null","1556891","HierDyfo0nz1sw","sub14","02","1","iti","null","img/motor_6.png","74","motor","","","","","","","",""
"711","1557611","HierDyfo0nz1sw","sub14","02","1","motor","70","img/motor_4.png","70","motor","4","112","1","0","0","","",""
"null","1557724","HierDyfo0nz1sw","sub14","02","1","iti","null","img/motor_4.png","70","motor","","","","","","","",""
"672","1558405","HierDyfo0nz1sw","sub14","02","1","motor","83","img/motor_2.png","83","motor","2","113","1","0","0","","",""
"null","1558516","HierDyfo0nz1sw","sub14","02","1","iti","null","img/motor_2.png","83","motor","","","","","","","",""
"528","1559052","HierDyfo0nz1sw","sub14","02","1","motor","72","img/motor_5.png","72","motor","5","114","1","0","0","","",""
"null","1559162","HierDyfo0nz1sw","sub14","02","1","iti","null","img/motor_5.png","72","motor","","","","","","","",""
"426","1559598","HierDyfo0nz1sw","sub14","02","1","motor","83","img/motor_2.png","83","motor","2","115","1","0","0","","",""
"null","1559710","HierDyfo0nz1sw","sub14","02","1","iti","null","img/motor_2.png","83","motor","","","","","","","",""
"432","1560151","HierDyfo0nz1sw","sub14","02","1","motor","75","img/motor_7.png","75","motor","7","116","1","0","0","","",""
"null","1560262","HierDyfo0nz1sw","sub14","02","1","iti","null","img/motor_7.png","75","motor","","","","","","","",""
"541","1560814","HierDyfo0nz1sw","sub14","02","1","motor","74","img/motor_6.png","74","motor","6","117","1","0","0","","",""
"null","1560925","HierDyfo0nz1sw","sub14","02","1","iti","null","img/motor_6.png","74","motor","","","","","","","",""
"462","1561396","HierDyfo0nz1sw","sub14","02","1","motor","65","img/motor_1.png","65","motor","1","118","1","0","0","","",""
"null","1561509","HierDyfo0nz1sw","sub14","02","1","iti","null","img/motor_1.png","65","motor","","","","","","","",""
"403","1561921","HierDyfo0nz1sw","sub14","02","1","motor","74","img/motor_6.png","74","motor","6","119","1","0","0","","",""
"null","1562033","HierDyfo0nz1sw","sub14","02","1","iti","null","img/motor_6.png","74","motor","","","","","","","",""
"375","1562417","HierDyfo0nz1sw","sub14","02","1","motor","65","img/motor_1.png","65","motor","1","120","1","0","0","","",""
"null","1562529","HierDyfo0nz1sw","sub14","02","1","iti","null","img/motor_1.png","65","motor","","","","","","","",""
"502","1563041","HierDyfo0nz1sw","sub14","02","1","motor","83","img/motor_2.png","83","motor","2","121","1","0","0","","",""
"null","1563152","HierDyfo0nz1sw","sub14","02","1","iti","null","img/motor_2.png","83","motor","","","","","","","",""
"502","1563661","HierDyfo0nz1sw","sub14","02","1","motor","72","img/motor_5.png","72","motor","5","122","1","0","0","","",""
"null","1563770","HierDyfo0nz1sw","sub14","02","1","iti","null","img/motor_5.png","72","motor","","","","","","","",""
"419","1564201","HierDyfo0nz1sw","sub14","02","1","motor","76","img/motor_8.png","76","motor","8","123","1","0","0","","",""
"null","1564311","HierDyfo0nz1sw","sub14","02","1","iti","null","img/motor_8.png","76","motor","","","","","","","",""
"526","1564846","HierDyfo0nz1sw","sub14","02","1","motor","74","img/motor_6.png","74","motor","6","124","1","0","0","","",""
"null","1564957","HierDyfo0nz1sw","sub14","02","1","iti","null","img/motor_6.png","74","motor","","","","","","","",""
"338","1565306","HierDyfo0nz1sw","sub14","02","1","motor","74","img/motor_6.png","74","motor","6","125","1","0","0","","",""
"null","1565416","HierDyfo0nz1sw","sub14","02","1","iti","null","img/motor_6.png","74","motor","","","","","","","",""
"577","1566003","HierDyfo0nz1sw","sub14","02","1","motor","75","img/motor_7.png","75","motor","7","126","1","0","0","","",""
"null","1566114","HierDyfo0nz1sw","sub14","02","1","iti","null","img/motor_7.png","75","motor","","","","","","","",""
"435","1566559","HierDyfo0nz1sw","sub14","02","1","motor","70","img/motor_4.png","70","motor","4","127","1","0","0","","",""
"null","1566670","HierDyfo0nz1sw","sub14","02","1","iti","null","img/motor_4.png","70","motor","","","","","","","",""
"346","1567026","HierDyfo0nz1sw","sub14","02","1","motor","72","img/motor_5.png","72","motor","5","128","1","0","0","","",""
"null","1567137","HierDyfo0nz1sw","sub14","02","1","iti","null","img/motor_5.png","72","motor","","","","","","","",""
"404","1567552","HierDyfo0nz1sw","sub14","02","1","motor","65","img/motor_1.png","65","motor","1","129","1","0","0","","",""
"null","1567664","HierDyfo0nz1sw","sub14","02","1","iti","null","img/motor_1.png","65","motor","","","","","","","",""
"303","1567977","HierDyfo0nz1sw","sub14","02","1","motor","72","img/motor_5.png","72","motor","5","130","1","0","0","","",""
"null","1568089","HierDyfo0nz1sw","sub14","02","1","iti","null","img/motor_5.png","72","motor","","","","","","","",""
"432","1568531","HierDyfo0nz1sw","sub14","02","1","motor","68","img/motor_3.png","68","motor","3","131","1","0","0","","",""
"null","1568643","HierDyfo0nz1sw","sub14","02","1","iti","null","img/motor_3.png","68","motor","","","","","","","",""
"525","1569177","HierDyfo0nz1sw","sub14","02","1","motor","75","img/motor_6.png","74","motor","6","132","0","1","0","","",""
"261","1569448","HierDyfo0nz1sw","sub14","02","1","motorRepeat","74","img/motor_6.png","74","motor","6","132","1","0","0","","",""
"null","1569561","HierDyfo0nz1sw","sub14","02","1","iti","null","img/motor_6.png","74","motor","","","","","","","",""
"545","1570117","HierDyfo0nz1sw","sub14","02","1","motor","83","img/motor_2.png","83","motor","2","133","1","0","0","","",""
"null","1570228","HierDyfo0nz1sw","sub14","02","1","iti","null","img/motor_2.png","83","motor","","","","","","","",""
"506","1570744","HierDyfo0nz1sw","sub14","02","1","motor","74","img/motor_6.png","74","motor","6","134","1","0","0","","",""
"null","1570853","HierDyfo0nz1sw","sub14","02","1","iti","null","img/motor_6.png","74","motor","","","","","","","",""
"442","1571304","HierDyfo0nz1sw","sub14","02","1","motor","68","img/motor_3.png","68","motor","3","135","1","0","0","","",""
"null","1571416","HierDyfo0nz1sw","sub14","02","1","iti","null","img/motor_3.png","68","motor","","","","","","","",""
"531","1571958","HierDyfo0nz1sw","sub14","02","1","motor","74","img/motor_6.png","74","motor","6","136","1","0","0","","",""
"null","1572069","HierDyfo0nz1sw","sub14","02","1","iti","null","img/motor_6.png","74","motor","","","","","","","",""
"451","1572527","HierDyfo0nz1sw","sub14","02","1","motor","76","img/motor_8.png","76","motor","8","137","1","0","0","","",""
"null","1572638","HierDyfo0nz1sw","sub14","02","1","iti","null","img/motor_8.png","76","motor","","","","","","","",""
"397","1573046","HierDyfo0nz1sw","sub14","02","1","motor","65","img/motor_1.png","65","motor","1","138","1","0","0","","",""
"null","1573156","HierDyfo0nz1sw","sub14","02","1","iti","null","img/motor_1.png","65","motor","","","","","","","",""
"485","1573652","HierDyfo0nz1sw","sub14","02","1","motor","70","img/motor_4.png","70","motor","4","139","1","0","0","","",""
"null","1573760","HierDyfo0nz1sw","sub14","02","1","iti","null","img/motor_4.png","70","motor","","","","","","","",""
"612","1574382","HierDyfo0nz1sw","sub14","02","1","motor","75","img/motor_7.png","75","motor","7","140","1","0","0","","",""
"null","1574494","HierDyfo0nz1sw","sub14","02","1","iti","null","img/motor_7.png","75","motor","","","","","","","",""
"430","1574933","HierDyfo0nz1sw","sub14","02","1","motor","74","img/motor_6.png","74","motor","6","141","1","0","0","","",""
"null","1575044","HierDyfo0nz1sw","sub14","02","1","iti","null","img/motor_6.png","74","motor","","","","","","","",""
"379","1575433","HierDyfo0nz1sw","sub14","02","1","motor","72","img/motor_5.png","72","motor","5","142","1","0","0","","",""
"null","1575544","HierDyfo0nz1sw","sub14","02","1","iti","null","img/motor_5.png","72","motor","","","","","","","",""
"398","1575954","HierDyfo0nz1sw","sub14","02","1","motor","70","img/motor_4.png","70","motor","4","143","1","0","0","","",""
"null","1576065","HierDyfo0nz1sw","sub14","02","1","iti","null","img/motor_4.png","70","motor","","","","","","","",""
"425","1576500","HierDyfo0nz1sw","sub14","02","1","motor","76","img/motor_8.png","76","motor","8","144","1","0","0","","",""
"null","1576612","HierDyfo0nz1sw","sub14","02","1","iti","null","img/motor_8.png","76","motor","","","","","","","",""
"667","1577289","HierDyfo0nz1sw","sub14","02","1","motor","68","img/motor_3.png","68","motor","3","145","1","0","0","","",""
"null","1577400","HierDyfo0nz1sw","sub14","02","1","iti","null","img/motor_3.png","68","motor","","","","","","","",""
"339","1577749","HierDyfo0nz1sw","sub14","02","1","motor","65","img/motor_1.png","65","motor","1","146","1","0","0","","",""
"null","1577860","HierDyfo0nz1sw","sub14","02","1","iti","null","img/motor_1.png","65","motor","","","","","","","",""
"627","1578498","HierDyfo0nz1sw","sub14","02","1","motor","75","img/motor_7.png","75","motor","7","147","1","0","0","","",""
"null","1578608","HierDyfo0nz1sw","sub14","02","1","iti","null","img/motor_7.png","75","motor","","","","","","","",""
"366","1578984","HierDyfo0nz1sw","sub14","02","1","motor","70","img/motor_4.png","70","motor","4","148","1","0","0","","",""
"null","1579095","HierDyfo0nz1sw","sub14","02","1","iti","null","img/motor_4.png","70","motor","","","","","","","",""
"401","1579507","HierDyfo0nz1sw","sub14","02","1","motor","68","img/motor_3.png","68","motor","3","149","1","0","0","","",""
"null","1579617","HierDyfo0nz1sw","sub14","02","1","iti","null","img/motor_3.png","68","motor","","","","","","","",""
"475","1580102","HierDyfo0nz1sw","sub14","02","1","motor","70","img/motor_4.png","70","motor","4","150","1","0","0","","",""
"null","1580214","HierDyfo0nz1sw","sub14","02","1","iti","null","img/motor_4.png","70","motor","","","","","","","",""
"655","1580881","HierDyfo0nz1sw","sub14","02","1","motor","83","img/motor_2.png","83","motor","2","151","1","0","0","","",""
"null","1580993","HierDyfo0nz1sw","sub14","02","1","iti","null","img/motor_2.png","83","motor","","","","","","","",""
"434","1581436","HierDyfo0nz1sw","sub14","02","1","motor","65","img/motor_1.png","65","motor","1","152","1","0","0","","",""
"null","1581548","HierDyfo0nz1sw","sub14","02","1","iti","null","img/motor_1.png","65","motor","","","","","","","",""
"467","1582025","HierDyfo0nz1sw","sub14","02","1","motor","76","img/motor_8.png","76","motor","8","153","1","0","0","","",""
"null","1582135","HierDyfo0nz1sw","sub14","02","1","iti","null","img/motor_8.png","76","motor","","","","","","","",""
"497","1582643","HierDyfo0nz1sw","sub14","02","1","motor","74","img/motor_6.png","74","motor","6","154","1","0","0","","",""
"null","1582753","HierDyfo0nz1sw","sub14","02","1","iti","null","img/motor_6.png","74","motor","","","","","","","",""
"385","1583147","HierDyfo0nz1sw","sub14","02","1","motor","76","img/motor_8.png","76","motor","8","155","1","0","0","","",""
"null","1583258","HierDyfo0nz1sw","sub14","02","1","iti","null","img/motor_8.png","76","motor","","","","","","","",""
"654","1583919","HierDyfo0nz1sw","sub14","02","1","motor","68","img/motor_3.png","68","motor","3","156","1","0","0","","",""
"null","1584028","HierDyfo0nz1sw","sub14","02","1","iti","null","img/motor_3.png","68","motor","","","","","","","",""
"480","1584519","HierDyfo0nz1sw","sub14","02","1","motor","70","img/motor_4.png","70","motor","4","157","1","0","0","","",""
"null","1584629","HierDyfo0nz1sw","sub14","02","1","iti","null","img/motor_4.png","70","motor","","","","","","","",""
"355","1584996","HierDyfo0nz1sw","sub14","02","1","motor","76","img/motor_8.png","76","motor","8","158","1","0","0","","",""
"null","1585107","HierDyfo0nz1sw","sub14","02","1","iti","null","img/motor_8.png","76","motor","","","","","","","",""
"475","1585591","HierDyfo0nz1sw","sub14","02","1","motor","83","img/motor_2.png","83","motor","2","159","1","0","0","","",""
"null","1585701","HierDyfo0nz1sw","sub14","02","1","iti","null","img/motor_2.png","83","motor","","","","","","","",""
"480","1586191","HierDyfo0nz1sw","sub14","02","1","motor","70","img/motor_4.png","70","motor","4","160","1","0","0","","",""
"null","1586303","HierDyfo0nz1sw","sub14","02","1","iti","null","img/motor_4.png","70","motor","","","","","","","",""
"427","1586741","HierDyfo0nz1sw","sub14","02","1","motor","83","img/motor_2.png","83","motor","2","161","1","0","0","","",""
"null","1586854","HierDyfo0nz1sw","sub14","02","1","iti","null","img/motor_2.png","83","motor","","","","","","","",""
"404","1587267","HierDyfo0nz1sw","sub14","02","1","motor","83","img/motor_2.png","83","motor","2","162","1","0","0","","",""
"null","1587379","HierDyfo0nz1sw","sub14","02","1","iti","null","img/motor_2.png","83","motor","","","","","","","",""
"789","1588176","HierDyfo0nz1sw","sub14","02","1","motor","74","img/motor_6.png","74","motor","6","163","1","0","0","","",""
"null","1588288","HierDyfo0nz1sw","sub14","02","1","iti","null","img/motor_6.png","74","motor","","","","","","","",""
"370","1588666","HierDyfo0nz1sw","sub14","02","1","motor","76","img/motor_8.png","76","motor","8","164","1","0","0","","",""
"null","1588777","HierDyfo0nz1sw","sub14","02","1","iti","null","img/motor_8.png","76","motor","","","","","","","",""
"488","1589276","HierDyfo0nz1sw","sub14","02","1","motor","72","img/motor_5.png","72","motor","5","165","1","0","0","","",""
"null","1589384","HierDyfo0nz1sw","sub14","02","1","iti","null","img/motor_5.png","72","motor","","","","","","","",""
"363","1589756","HierDyfo0nz1sw","sub14","02","1","motor","72","img/motor_5.png","72","motor","5","166","1","0","0","","",""
"null","1589868","HierDyfo0nz1sw","sub14","02","1","iti","null","img/motor_5.png","72","motor","","","","","","","",""
"325","1590205","HierDyfo0nz1sw","sub14","02","1","motor","76","img/motor_8.png","76","motor","8","167","1","0","0","","",""
"null","1590317","HierDyfo0nz1sw","sub14","02","1","iti","null","img/motor_8.png","76","motor","","","","","","","",""
"315","1590641","HierDyfo0nz1sw","sub14","02","1","motor","72","img/motor_5.png","72","motor","5","168","1","0","0","","",""
"null","1590753","HierDyfo0nz1sw","sub14","02","1","iti","null","img/motor_5.png","72","motor","","","","","","","",""
"363","1591127","HierDyfo0nz1sw","sub14","02","1","motor","72","img/motor_5.png","72","motor","5","169","1","0","0","","",""
"null","1591240","HierDyfo0nz1sw","sub14","02","1","iti","null","img/motor_5.png","72","motor","","","","","","","",""
"349","1591599","HierDyfo0nz1sw","sub14","02","1","motor","65","img/motor_1.png","65","motor","1","170","1","0","0","","",""
"null","1591710","HierDyfo0nz1sw","sub14","02","1","iti","null","img/motor_1.png","65","motor","","","","","","","",""
"310","1592030","HierDyfo0nz1sw","sub14","02","1","motor","76","img/motor_7.png","75","motor","7","171","0","1","0","","",""
"317","1592356","HierDyfo0nz1sw","sub14","02","1","motorRepeat","75","img/motor_7.png","75","motor","7","171","1","0","0","","",""
"null","1592468","HierDyfo0nz1sw","sub14","02","1","iti","null","img/motor_7.png","75","motor","","","","","","","",""
"610","1593087","HierDyfo0nz1sw","sub14","02","1","motor","83","img/motor_2.png","83","motor","2","172","1","0","0","","",""
"null","1593196","HierDyfo0nz1sw","sub14","02","1","iti","null","img/motor_2.png","83","motor","","","","","","","",""
"389","1593594","HierDyfo0nz1sw","sub14","02","1","motor","68","img/motor_3.png","68","motor","3","173","1","0","0","","",""
"null","1593703","HierDyfo0nz1sw","sub14","02","1","iti","null","img/motor_3.png","68","motor","","","","","","","",""
"353","1594063","HierDyfo0nz1sw","sub14","02","1","motor","68","img/motor_3.png","68","motor","3","174","1","0","0","","",""
"null","1594172","HierDyfo0nz1sw","sub14","02","1","iti","null","img/motor_3.png","68","motor","","","","","","","",""
"396","1594577","HierDyfo0nz1sw","sub14","02","1","motor","76","img/motor_8.png","76","motor","8","175","1","0","0","","",""
"null","1594686","HierDyfo0nz1sw","sub14","02","1","iti","null","img/motor_8.png","76","motor","","","","","","","",""
"360","1595055","HierDyfo0nz1sw","sub14","02","1","motor","76","img/motor_8.png","76","motor","8","176","1","0","0","","",""
"null","1595165","HierDyfo0nz1sw","sub14","02","1","iti","null","img/motor_8.png","76","motor","","","","","","","",""
"364","1595539","HierDyfo0nz1sw","sub14","02","1","motor","74","img/motor_7.png","75","motor","7","177","0","1","0","","",""
"306","1595854","HierDyfo0nz1sw","sub14","02","1","motorRepeat","75","img/motor_7.png","75","motor","7","177","1","0","0","","",""
"null","1595966","HierDyfo0nz1sw","sub14","02","1","iti","null","img/motor_7.png","75","motor","","","","","","","",""
"453","1596431","HierDyfo0nz1sw","sub14","02","1","motor","70","img/motor_4.png","70","motor","4","178","1","0","0","","",""
"null","1596541","HierDyfo0nz1sw","sub14","02","1","iti","null","img/motor_4.png","70","motor","","","","","","","",""
"320","1596870","HierDyfo0nz1sw","sub14","02","1","motor","76","img/motor_8.png","76","motor","8","179","1","0","0","","",""
"null","1596982","HierDyfo0nz1sw","sub14","02","1","iti","null","img/motor_8.png","76","motor","","","","","","","",""
"598","1597589","HierDyfo0nz1sw","sub14","02","1","motor","83","img/motor_3.png","68","motor","3","180","0","1","0","","",""
"286","1597885","HierDyfo0nz1sw","sub14","02","1","motorRepeat","68","img/motor_3.png","68","motor","3","180","1","0","0","","",""
"null","1597992","HierDyfo0nz1sw","sub14","02","1","iti","null","img/motor_3.png","68","motor","","","","","","","",""
"484","1598486","HierDyfo0nz1sw","sub14","02","1","motor","76","img/motor_7.png","75","motor","7","181","0","1","0","","",""
"278","1598772","HierDyfo0nz1sw","sub14","02","1","motorRepeat","75","img/motor_7.png","75","motor","7","181","1","0","0","","",""
"null","1598880","HierDyfo0nz1sw","sub14","02","1","iti","null","img/motor_7.png","75","motor","","","","","","","",""
"492","1599382","HierDyfo0nz1sw","sub14","02","1","motor","74","img/motor_5.png","72","motor","5","182","0","1","0","","",""
"315","1599705","HierDyfo0nz1sw","sub14","02","1","motorRepeat","72","img/motor_5.png","72","motor","5","182","1","0","0","","",""
"null","1599814","HierDyfo0nz1sw","sub14","02","1","iti","null","img/motor_5.png","72","motor","","","","","","","",""
"383","1600207","HierDyfo0nz1sw","sub14","02","1","motor","72","img/motor_5.png","72","motor","5","183","1","0","0","","",""
"null","1600319","HierDyfo0nz1sw","sub14","02","1","iti","null","img/motor_5.png","72","motor","","","","","","","",""
"463","1600792","HierDyfo0nz1sw","sub14","02","1","motor","65","img/motor_1.png","65","motor","1","184","1","0","0","","",""
"null","1600902","HierDyfo0nz1sw","sub14","02","1","iti","null","img/motor_1.png","65","motor","","","","","","","",""
"521","1601433","HierDyfo0nz1sw","sub14","02","1","motor","75","img/motor_7.png","75","motor","7","185","1","0","0","","",""
"null","1601545","HierDyfo0nz1sw","sub14","02","1","iti","null","img/motor_7.png","75","motor","","","","","","","",""
"576","1602131","HierDyfo0nz1sw","sub14","02","1","motor","68","img/motor_3.png","68","motor","3","186","1","0","0","","",""
"null","1602243","HierDyfo0nz1sw","sub14","02","1","iti","null","img/motor_3.png","68","motor","","","","","","","",""
"481","1602734","HierDyfo0nz1sw","sub14","02","1","motor","76","img/motor_8.png","76","motor","8","187","1","0","0","","",""
"null","1602842","HierDyfo0nz1sw","sub14","02","1","iti","null","img/motor_8.png","76","motor","","","","","","","",""
"428","1603278","HierDyfo0nz1sw","sub14","02","1","motor","70","img/motor_4.png","70","motor","4","188","1","0","0","","",""
"null","1603387","HierDyfo0nz1sw","sub14","02","1","iti","null","img/motor_4.png","70","motor","","","","","","","",""
"489","1603884","HierDyfo0nz1sw","sub14","02","1","motor","75","img/motor_7.png","75","motor","7","189","1","0","0","","",""
"null","1603992","HierDyfo0nz1sw","sub14","02","1","iti","null","img/motor_7.png","75","motor","","","","","","","",""
"512","1604513","HierDyfo0nz1sw","sub14","02","1","motor","83","img/motor_2.png","83","motor","2","190","1","0","0","","",""
"null","1604623","HierDyfo0nz1sw","sub14","02","1","iti","null","img/motor_2.png","83","motor","","","","","","","",""
"414","1605046","HierDyfo0nz1sw","sub14","02","1","motor","76","img/motor_8.png","76","motor","8","191","1","0","0","","",""
"null","1605155","HierDyfo0nz1sw","sub14","02","1","iti","null","img/motor_8.png","76","motor","","","","","","","",""
"453","1605618","HierDyfo0nz1sw","sub14","02","1","motor","70","img/motor_4.png","70","motor","4","192","1","0","0","","",""
"null","1605731","HierDyfo0nz1sw","sub14","02","1","iti","null","img/motor_4.png","70","motor","","","","","","","",""
"479","1606221","HierDyfo0nz1sw","sub14","02","1","motor","68","img/motor_3.png","68","motor","3","193","1","0","0","","",""
"null","1606332","HierDyfo0nz1sw","sub14","02","1","iti","null","img/motor_3.png","68","motor","","","","","","","",""
"492","1606834","HierDyfo0nz1sw","sub14","02","1","motor","75","img/motor_7.png","75","motor","7","194","1","0","0","","",""
"null","1606946","HierDyfo0nz1sw","sub14","02","1","iti","null","img/motor_7.png","75","motor","","","","","","","",""
"494","1607449","HierDyfo0nz1sw","sub14","02","1","motor","83","img/motor_2.png","83","motor","2","195","1","0","0","","",""
"null","1607561","HierDyfo0nz1sw","sub14","02","1","iti","null","img/motor_2.png","83","motor","","","","","","","",""
"392","1607964","HierDyfo0nz1sw","sub14","02","1","motor","65","img/motor_1.png","65","motor","1","196","1","0","0","","",""
"null","1608072","HierDyfo0nz1sw","sub14","02","1","iti","null","img/motor_1.png","65","motor","","","","","","","",""
"584","1608666","HierDyfo0nz1sw","sub14","02","1","motor","75","img/motor_7.png","75","motor","7","197","1","0","0","","",""
"null","1608779","HierDyfo0nz1sw","sub14","02","1","iti","null","img/motor_7.png","75","motor","","","","","","","",""
"439","1609230","HierDyfo0nz1sw","sub14","02","1","motor","72","img/motor_5.png","72","motor","5","198","1","0","0","","",""
"null","1609341","HierDyfo0nz1sw","sub14","02","1","iti","null","img/motor_5.png","72","motor","","","","","","","",""
"549","1609900","HierDyfo0nz1sw","sub14","02","1","motor","83","img/motor_2.png","83","motor","2","199","1","0","0","","",""
"null","1610010","HierDyfo0nz1sw","sub14","02","1","iti","null","img/motor_2.png","83","motor","","","","","","","",""
"411","1610431","HierDyfo0nz1sw","sub14","02","1","motor","76","img/motor_8.png","76","motor","8","200","1","0","0","","",""
"null","1610541","HierDyfo0nz1sw","sub14","02","1","iti","null","img/motor_8.png","76","motor","","","","","","","",""
"467","1611020","HierDyfo0nz1sw","sub14","02","1","motor","74","img/motor_6.png","74","motor","6","201","1","0","0","","",""
"null","1611131","HierDyfo0nz1sw","sub14","02","1","iti","null","img/motor_6.png","74","motor","","","","","","","",""
"500","1611642","HierDyfo0nz1sw","sub14","02","1","motor","76","img/motor_8.png","76","motor","8","202","1","0","0","","",""
"null","1611755","HierDyfo0nz1sw","sub14","02","1","iti","null","img/motor_8.png","76","motor","","","","","","","",""
"342","1612109","HierDyfo0nz1sw","sub14","02","1","motor","76","img/motor_8.png","76","motor","8","203","1","0","0","","",""
"null","1612220","HierDyfo0nz1sw","sub14","02","1","iti","null","img/motor_8.png","76","motor","","","","","","","",""
"515","1612746","HierDyfo0nz1sw","sub14","02","1","motor","68","img/motor_3.png","68","motor","3","204","1","0","0","","",""
"null","1612859","HierDyfo0nz1sw","sub14","02","1","iti","null","img/motor_3.png","68","motor","","","","","","","",""
"357","1613228","HierDyfo0nz1sw","sub14","02","1","motor","76","img/motor_8.png","76","motor","8","205","1","0","0","","",""
"null","1613340","HierDyfo0nz1sw","sub14","02","1","iti","null","img/motor_8.png","76","motor","","","","","","","",""
"359","1613708","HierDyfo0nz1sw","sub14","02","1","motor","68","img/motor_4.png","70","motor","4","206","0","1","0","","",""
"311","1614030","HierDyfo0nz1sw","sub14","02","1","motorRepeat","70","img/motor_4.png","70","motor","4","206","1","0","0","","",""
"null","1614142","HierDyfo0nz1sw","sub14","02","1","iti","null","img/motor_4.png","70","motor","","","","","","","",""
"410","1614562","HierDyfo0nz1sw","sub14","02","1","motor","65","img/motor_1.png","65","motor","1","207","1","0","0","","",""
"null","1614674","HierDyfo0nz1sw","sub14","02","1","iti","null","img/motor_1.png","65","motor","","","","","","","",""
"336","1615021","HierDyfo0nz1sw","sub14","02","1","motor","76","img/motor_8.png","76","motor","8","208","1","0","0","","",""
"null","1615132","HierDyfo0nz1sw","sub14","02","1","iti","null","img/motor_8.png","76","motor","","","","","","","",""
"454","1615597","HierDyfo0nz1sw","sub14","02","1","motor","74","img/motor_5.png","72","motor","5","209","0","1","0","","",""
"321","1615926","HierDyfo0nz1sw","sub14","02","1","motorRepeat","72","img/motor_5.png","72","motor","5","209","1","0","0","","",""
"null","1616037","HierDyfo0nz1sw","sub14","02","1","iti","null","img/motor_5.png","72","motor","","","","","","","",""
"456","1616504","HierDyfo0nz1sw","sub14","02","1","motor","65","img/motor_1.png","65","motor","1","210","1","0","0","","",""
"null","1616616","HierDyfo0nz1sw","sub14","02","1","iti","null","img/motor_1.png","65","motor","","","","","","","",""
"348","1616976","HierDyfo0nz1sw","sub14","02","1","motor","65","img/motor_1.png","65","motor","1","211","1","0","0","","",""
"null","1617088","HierDyfo0nz1sw","sub14","02","1","iti","null","img/motor_1.png","65","motor","","","","","","","",""
"498","1617598","HierDyfo0nz1sw","sub14","02","1","motor","75","img/motor_7.png","75","motor","7","212","1","0","0","","",""
"null","1617708","HierDyfo0nz1sw","sub14","02","1","iti","null","img/motor_7.png","75","motor","","","","","","","",""
"312","1618030","HierDyfo0nz1sw","sub14","02","1","motor","75","img/motor_7.png","75","motor","7","213","1","0","0","","",""
"null","1618141","HierDyfo0nz1sw","sub14","02","1","iti","null","img/motor_7.png","75","motor","","","","","","","",""
"444","1618596","HierDyfo0nz1sw","sub14","02","1","motor","72","img/motor_5.png","72","motor","5","214","1","0","0","","",""
"null","1618708","HierDyfo0nz1sw","sub14","02","1","iti","null","img/motor_5.png","72","motor","","","","","","","",""
"378","1619098","HierDyfo0nz1sw","sub14","02","1","motor","75","img/motor_7.png","75","motor","7","215","1","0","0","","",""
"null","1619209","HierDyfo0nz1sw","sub14","02","1","iti","null","img/motor_7.png","75","motor","","","","","","","",""
"476","1619696","HierDyfo0nz1sw","sub14","02","1","motor","83","img/motor_2.png","83","motor","2","216","1","0","0","","",""
"null","1619808","HierDyfo0nz1sw","sub14","02","1","iti","null","img/motor_2.png","83","motor","","","","","","","",""
"481","1620299","HierDyfo0nz1sw","sub14","02","1","motor","72","img/motor_5.png","72","motor","5","217","1","0","0","","",""
"null","1620409","HierDyfo0nz1sw","sub14","02","1","iti","null","img/motor_5.png","72","motor","","","","","","","",""
"419","1620838","HierDyfo0nz1sw","sub14","02","1","motor","75","img/motor_7.png","75","motor","7","218","1","0","0","","",""
"null","1620951","HierDyfo0nz1sw","sub14","02","1","iti","null","img/motor_7.png","75","motor","","","","","","","",""
"312","1621273","HierDyfo0nz1sw","sub14","02","1","motor","75","img/motor_7.png","75","motor","7","219","1","0","0","","",""
"null","1621385","HierDyfo0nz1sw","sub14","02","1","iti","null","img/motor_7.png","75","motor","","","","","","","",""
"763","1622156","HierDyfo0nz1sw","sub14","02","1","motor","68","img/motor_3.png","68","motor","3","220","1","0","0","","",""
"null","1622269","HierDyfo0nz1sw","sub14","02","1","iti","null","img/motor_3.png","68","motor","","","","","","","",""
"483","1622761","HierDyfo0nz1sw","sub14","02","1","motor","72","img/motor_5.png","72","motor","5","221","1","0","0","","",""
"null","1622872","HierDyfo0nz1sw","sub14","02","1","iti","null","img/motor_5.png","72","motor","","","","","","","",""
"581","1623464","HierDyfo0nz1sw","sub14","02","1","motor","83","img/motor_2.png","83","motor","2","222","1","0","0","","",""
"null","1623574","HierDyfo0nz1sw","sub14","02","1","iti","null","img/motor_2.png","83","motor","","","","","","","",""
"345","1623929","HierDyfo0nz1sw","sub14","02","1","motor","83","img/motor_2.png","83","motor","2","223","1","0","0","","",""
"null","1624040","HierDyfo0nz1sw","sub14","02","1","iti","null","img/motor_2.png","83","motor","","","","","","","",""
"461","1624512","HierDyfo0nz1sw","sub14","02","1","motor","74","img/motor_5.png","72","motor","5","224","0","1","0","","",""
"319","1624840","HierDyfo0nz1sw","sub14","02","1","motorRepeat","72","img/motor_5.png","72","motor","5","224","1","0","0","","",""
"null","1624952","HierDyfo0nz1sw","sub14","02","1","iti","null","img/motor_5.png","72","motor","","","","","","","",""
"328","1625291","HierDyfo0nz1sw","sub14","02","1","motor","72","img/motor_5.png","72","motor","5","225","1","0","0","","",""
"null","1625403","HierDyfo0nz1sw","sub14","02","1","iti","null","img/motor_5.png","72","motor","","","","","","","",""
"483","1625899","HierDyfo0nz1sw","sub14","02","1","motor","70","img/motor_4.png","70","motor","4","226","1","0","0","","",""
"null","1626010","HierDyfo0nz1sw","sub14","02","1","iti","null","img/motor_4.png","70","motor","","","","","","","",""
"496","1626517","HierDyfo0nz1sw","sub14","02","1","motor","75","img/motor_7.png","75","motor","7","227","1","0","0","","",""
"null","1626627","HierDyfo0nz1sw","sub14","02","1","iti","null","img/motor_7.png","75","motor","","","","","","","",""
"455","1627094","HierDyfo0nz1sw","sub14","02","1","motor","72","img/motor_5.png","72","motor","5","228","1","0","0","","",""
"null","1627205","HierDyfo0nz1sw","sub14","02","1","iti","null","img/motor_5.png","72","motor","","","","","","","",""
"359","1627575","HierDyfo0nz1sw","sub14","02","1","motor","72","img/motor_5.png","72","motor","5","229","1","0","0","","",""
"null","1627685","HierDyfo0nz1sw","sub14","02","1","iti","null","img/motor_5.png","72","motor","","","","","","","",""
"369","1628066","HierDyfo0nz1sw","sub14","02","1","motor","75","img/motor_6.png","74","motor","6","230","0","1","0","","",""
"234","1628312","HierDyfo0nz1sw","sub14","02","1","motorRepeat","74","img/motor_6.png","74","motor","6","230","1","0","0","","",""
"null","1628421","HierDyfo0nz1sw","sub14","02","1","iti","null","img/motor_6.png","74","motor","","","","","","","",""
"486","1628916","HierDyfo0nz1sw","sub14","02","1","motor","70","img/motor_4.png","70","motor","4","231","1","0","0","","",""
"null","1629028","HierDyfo0nz1sw","sub14","02","1","iti","null","img/motor_4.png","70","motor","","","","","","","",""
"477","1629517","HierDyfo0nz1sw","sub14","02","1","motor","76","img/motor_8.png","76","motor","8","232","1","0","0","","",""
"null","1629629","HierDyfo0nz1sw","sub14","02","1","iti","null","img/motor_8.png","76","motor","","","","","","","",""
"539","1630178","HierDyfo0nz1sw","sub14","02","1","motor","76","img/motor_8.png","76","motor","8","233","1","0","0","","",""
"null","1630288","HierDyfo0nz1sw","sub14","02","1","iti","null","img/motor_8.png","76","motor","","","","","","","",""
"603","1630900","HierDyfo0nz1sw","sub14","02","1","motor","74","img/motor_6.png","74","motor","6","234","1","0","0","","",""
"null","1631011","HierDyfo0nz1sw","sub14","02","1","iti","null","img/motor_6.png","74","motor","","","","","","","",""
"534","1631556","HierDyfo0nz1sw","sub14","02","1","motor","70","img/motor_4.png","70","motor","4","235","1","0","0","","",""
"null","1631666","HierDyfo0nz1sw","sub14","02","1","iti","null","img/motor_4.png","70","motor","","","","","","","",""
"373","1632050","HierDyfo0nz1sw","sub14","02","1","motor","76","img/motor_8.png","76","motor","8","236","1","0","0","","",""
"null","1632160","HierDyfo0nz1sw","sub14","02","1","iti","null","img/motor_8.png","76","motor","","","","","","","",""
"381","1632551","HierDyfo0nz1sw","sub14","02","1","motor","70","img/motor_4.png","70","motor","4","237","1","0","0","","",""
"null","1632660","HierDyfo0nz1sw","sub14","02","1","iti","null","img/motor_4.png","70","motor","","","","","","","",""
"609","1633280","HierDyfo0nz1sw","sub14","02","1","motor","83","img/motor_2.png","83","motor","2","238","1","0","0","","",""
"null","1633393","HierDyfo0nz1sw","sub14","02","1","iti","null","img/motor_2.png","83","motor","","","","","","","",""
"403","1633806","HierDyfo0nz1sw","sub14","02","1","motor","70","img/motor_4.png","70","motor","4","239","1","0","0","","",""
"null","1633918","HierDyfo0nz1sw","sub14","02","1","iti","null","img/motor_4.png","70","motor","","","","","","","",""
"578","1634505","HierDyfo0nz1sw","sub14","02","1","motor","75","img/motor_7.png","75","motor","7","240","1","0","0","","",""
"null","1634616","HierDyfo0nz1sw","sub14","02","1","iti","null","img/motor_7.png","75","motor","","","","","","","",""
"439","1635066","HierDyfo0nz1sw","sub14","02","1","motor","74","img/motor_6.png","74","motor","6","241","1","0","0","","",""
"null","1635177","HierDyfo0nz1sw","sub14","02","1","iti","null","img/motor_6.png","74","motor","","","","","","","",""
"475","1635662","HierDyfo0nz1sw","sub14","02","1","motor","75","img/motor_7.png","75","motor","7","242","1","0","0","","",""
"null","1635774","HierDyfo0nz1sw","sub14","02","1","iti","null","img/motor_7.png","75","motor","","","","","","","",""
"561","1636345","HierDyfo0nz1sw","sub14","02","1","motor","83","img/motor_2.png","83","motor","2","243","1","0","0","","",""
"null","1636457","HierDyfo0nz1sw","sub14","02","1","iti","null","img/motor_2.png","83","motor","","","","","","","",""
"435","1636901","HierDyfo0nz1sw","sub14","02","1","motor","75","img/motor_7.png","75","motor","7","244","1","0","0","","",""
"null","1637012","HierDyfo0nz1sw","sub14","02","1","iti","null","img/motor_7.png","75","motor","","","","","","","",""
"396","1637417","HierDyfo0nz1sw","sub14","02","1","motor","72","img/motor_5.png","72","motor","5","245","1","0","0","","",""
"null","1637529","HierDyfo0nz1sw","sub14","02","1","iti","null","img/motor_5.png","72","motor","","","","","","","",""
"467","1638007","HierDyfo0nz1sw","sub14","02","1","motor","70","img/motor_4.png","70","motor","4","246","1","0","0","","",""
"null","1638119","HierDyfo0nz1sw","sub14","02","1","iti","null","img/motor_4.png","70","motor","","","","","","","",""
"444","1638576","HierDyfo0nz1sw","sub14","02","1","motor","72","img/motor_5.png","72","motor","5","247","1","0","0","","",""
"null","1638686","HierDyfo0nz1sw","sub14","02","1","iti","null","img/motor_5.png","72","motor","","","","","","","",""
"567","1639263","HierDyfo0nz1sw","sub14","02","1","motor","83","img/motor_2.png","83","motor","2","248","1","0","0","","",""
"null","1639376","HierDyfo0nz1sw","sub14","02","1","iti","null","img/motor_2.png","83","motor","","","","","","","",""
"478","1639864","HierDyfo0nz1sw","sub14","02","1","motor","75","img/motor_7.png","75","motor","7","249","1","0","0","","",""
"null","1639976","HierDyfo0nz1sw","sub14","02","1","iti","null","img/motor_7.png","75","motor","","","","","","","",""
"721","1640708","HierDyfo0nz1sw","sub14","02","1","motor","68","img/motor_3.png","68","motor","3","250","1","0","0","","",""
"null","1640820","HierDyfo0nz1sw","sub14","02","1","iti","null","img/motor_3.png","68","motor","","","","","","","",""
"415","1641245","HierDyfo0nz1sw","sub14","02","1","motor","65","img/motor_1.png","65","motor","1","251","1","0","0","","",""
"null","1641357","HierDyfo0nz1sw","sub14","02","1","iti","null","img/motor_1.png","65","motor","","","","","","","",""
"493","1641860","HierDyfo0nz1sw","sub14","02","1","motor","83","img/motor_2.png","83","motor","2","252","1","0","0","","",""
"null","1641972","HierDyfo0nz1sw","sub14","02","1","iti","null","img/motor_2.png","83","motor","","","","","","","",""
"415","1642396","HierDyfo0nz1sw","sub14","02","1","motor","70","img/motor_4.png","70","motor","4","253","1","0","0","","",""
"null","1642509","HierDyfo0nz1sw","sub14","02","1","iti","null","img/motor_4.png","70","motor","","","","","","","",""
"344","1642863","HierDyfo0nz1sw","sub14","02","1","motor","70","img/motor_4.png","70","motor","4","254","1","0","0","","",""
"null","1642975","HierDyfo0nz1sw","sub14","02","1","iti","null","img/motor_4.png","70","motor","","","","","","","",""
"437","1643421","HierDyfo0nz1sw","sub14","02","1","motor","83","img/motor_2.png","83","motor","2","255","1","0","0","","",""
"null","1643532","HierDyfo0nz1sw","sub14","02","1","iti","null","img/motor_2.png","83","motor","","","","","","","",""
"446","1643990","HierDyfo0nz1sw","sub14","02","1","motor","75","img/motor_7.png","75","motor","7","256","1","0","0","","",""
"null","1644101","HierDyfo0nz1sw","sub14","02","1","iti","null","img/motor_7.png","75","motor","","","","","","","",""
"689","1644801","HierDyfo0nz1sw","sub14","02","1","motor","68","img/motor_3.png","68","motor","3","257","1","0","0","","",""
"null","1644912","HierDyfo0nz1sw","sub14","02","1","iti","null","img/motor_3.png","68","motor","","","","","","","",""
"442","1645364","HierDyfo0nz1sw","sub14","02","1","motor","72","img/motor_5.png","72","motor","5","258","1","0","0","","",""
"null","1645475","HierDyfo0nz1sw","sub14","02","1","iti","null","img/motor_5.png","72","motor","","","","","","","",""
"519","1646006","HierDyfo0nz1sw","sub14","02","1","motor","70","img/motor_4.png","70","motor","4","259","1","0","0","","",""
"null","1646118","HierDyfo0nz1sw","sub14","02","1","iti","null","img/motor_4.png","70","motor","","","","","","","",""
"500","1646629","HierDyfo0nz1sw","sub14","02","1","motor","68","img/motor_3.png","68","motor","3","260","1","0","0","","",""
"null","1646741","HierDyfo0nz1sw","sub14","02","1","iti","null","img/motor_3.png","68","motor","","","","","","","",""
"413","1647163","HierDyfo0nz1sw","sub14","02","1","motor","75","img/motor_7.png","75","motor","7","261","1","0","0","","",""
"null","1647274","HierDyfo0nz1sw","sub14","02","1","iti","null","img/motor_7.png","75","motor","","","","","","","",""
"423","1647707","HierDyfo0nz1sw","sub14","02","1","motor","65","img/motor_1.png","65","motor","1","262","1","0","0","","",""
"null","1647819","HierDyfo0nz1sw","sub14","02","1","iti","null","img/motor_1.png","65","motor","","","","","","","",""
"449","1648279","HierDyfo0nz1sw","sub14","02","1","motor","76","img/motor_8.png","76","motor","8","263","1","0","0","","",""
"null","1648389","HierDyfo0nz1sw","sub14","02","1","iti","null","img/motor_8.png","76","motor","","","","","","","",""
"718","1649119","HierDyfo0nz1sw","sub14","02","1","motor","68","img/motor_3.png","68","motor","3","264","1","0","0","","",""
"null","1649230","HierDyfo0nz1sw","sub14","02","1","iti","null","img/motor_3.png","68","motor","","","","","","","",""
"588","1649829","HierDyfo0nz1sw","sub14","02","1","motor","75","img/motor_7.png","75","motor","7","265","1","0","0","","",""
"null","1649940","HierDyfo0nz1sw","sub14","02","1","iti","null","img/motor_7.png","75","motor","","","","","","","",""
"326","1650276","HierDyfo0nz1sw","sub14","02","1","motor","75","img/motor_7.png","75","motor","7","266","1","0","0","","",""
"null","1650386","HierDyfo0nz1sw","sub14","02","1","iti","null","img/motor_7.png","75","motor","","","","","","","",""
"426","1650822","HierDyfo0nz1sw","sub14","02","1","motor","70","img/motor_4.png","70","motor","4","267","1","0","0","","",""
"null","1650933","HierDyfo0nz1sw","sub14","02","1","iti","null","img/motor_4.png","70","motor","","","","","","","",""
"472","1651415","HierDyfo0nz1sw","sub14","02","1","motor","74","img/motor_6.png","74","motor","6","268","1","0","0","","",""
"null","1651527","HierDyfo0nz1sw","sub14","02","1","iti","null","img/motor_6.png","74","motor","","","","","","","",""
"395","1651933","HierDyfo0nz1sw","sub14","02","1","motor","65","img/motor_1.png","65","motor","1","269","1","0","0","","",""
"null","1652045","HierDyfo0nz1sw","sub14","02","1","iti","null","img/motor_1.png","65","motor","","","","","","","",""
"535","1652592","HierDyfo0nz1sw","sub14","02","1","motor","83","img/motor_2.png","83","motor","2","270","1","0","0","","",""
"null","1652702","HierDyfo0nz1sw","sub14","02","1","iti","null","img/motor_2.png","83","motor","","","","","","","",""
"541","1653254","HierDyfo0nz1sw","sub14","02","1","motor","75","img/motor_7.png","75","motor","7","271","1","0","0","","",""
"null","1653366","HierDyfo0nz1sw","sub14","02","1","iti","null","img/motor_7.png","75","motor","","","","","","","",""
"467","1653844","HierDyfo0nz1sw","sub14","02","1","motor","68","img/motor_3.png","68","motor","3","272","1","0","0","","",""
"null","1653955","HierDyfo0nz1sw","sub14","02","1","iti","null","img/motor_3.png","68","motor","","","","","","","",""
"519","1654486","HierDyfo0nz1sw","sub14","02","1","motor","83","img/motor_2.png","83","motor","2","273","1","0","0","","",""
"null","1654598","HierDyfo0nz1sw","sub14","02","1","iti","null","img/motor_2.png","83","motor","","","","","","","",""
"706","1655314","HierDyfo0nz1sw","sub14","02","1","motor","74","img/motor_6.png","74","motor","6","274","1","0","0","","",""
"null","1655424","HierDyfo0nz1sw","sub14","02","1","iti","null","img/motor_6.png","74","motor","","","","","","","",""
"527","1655962","HierDyfo0nz1sw","sub14","02","1","motor","70","img/motor_4.png","70","motor","4","275","1","0","0","","",""
"null","1656075","HierDyfo0nz1sw","sub14","02","1","iti","null","img/motor_4.png","70","motor","","","","","","","",""
"479","1656564","HierDyfo0nz1sw","sub14","02","1","motor","83","img/motor_2.png","83","motor","2","276","1","0","0","","",""
"null","1656675","HierDyfo0nz1sw","sub14","02","1","iti","null","img/motor_2.png","83","motor","","","","","","","",""
"390","1657076","HierDyfo0nz1sw","sub14","02","1","motor","75","img/motor_7.png","75","motor","7","277","1","0","0","","",""
"null","1657187","HierDyfo0nz1sw","sub14","02","1","iti","null","img/motor_7.png","75","motor","","","","","","","",""
"499","1657698","HierDyfo0nz1sw","sub14","02","1","motor","65","img/motor_1.png","65","motor","1","278","1","0","0","","",""
"null","1657810","HierDyfo0nz1sw","sub14","02","1","iti","null","img/motor_1.png","65","motor","","","","","","","",""
"323","1658145","HierDyfo0nz1sw","sub14","02","1","motor","70","img/motor_4.png","70","motor","4","279","1","0","0","","",""
"null","1658258","HierDyfo0nz1sw","sub14","02","1","iti","null","img/motor_4.png","70","motor","","","","","","","",""
"393","1658660","HierDyfo0nz1sw","sub14","02","1","motor","74","img/motor_6.png","74","motor","6","280","1","0","0","","",""
"null","1658773","HierDyfo0nz1sw","sub14","02","1","iti","null","img/motor_6.png","74","motor","","","","","","","",""
"550","1659335","HierDyfo0nz1sw","sub14","02","1","motor","68","img/motor_3.png","68","motor","3","281","1","0","0","","",""
"null","1659447","HierDyfo0nz1sw","sub14","02","1","iti","null","img/motor_3.png","68","motor","","","","","","","",""
"344","1659801","HierDyfo0nz1sw","sub14","02","1","motor","76","img/motor_8.png","76","motor","8","282","1","0","0","","",""
"null","1659913","HierDyfo0nz1sw","sub14","02","1","iti","null","img/motor_8.png","76","motor","","","","","","","",""
"390","1660314","HierDyfo0nz1sw","sub14","02","1","motor","74","img/motor_6.png","74","motor","6","283","1","0","0","","",""
"null","1660426","HierDyfo0nz1sw","sub14","02","1","iti","null","img/motor_6.png","74","motor","","","","","","","",""
"504","1660940","HierDyfo0nz1sw","sub14","02","1","motor","83","img/motor_2.png","83","motor","2","284","1","0","0","","",""
"null","1661053","HierDyfo0nz1sw","sub14","02","1","iti","null","img/motor_2.png","83","motor","","","","","","","",""
"379","1661442","HierDyfo0nz1sw","sub14","02","1","motor","68","img/motor_3.png","68","motor","3","285","1","0","0","","",""
"null","1661555","HierDyfo0nz1sw","sub14","02","1","iti","null","img/motor_3.png","68","motor","","","","","","","",""
"599","1662162","HierDyfo0nz1sw","sub14","02","1","motor","83","img/motor_2.png","83","motor","2","286","1","0","0","","",""
"null","1662275","HierDyfo0nz1sw","sub14","02","1","iti","null","img/motor_2.png","83","motor","","","","","","","",""
"661","1662947","HierDyfo0nz1sw","sub14","02","1","motor","74","img/motor_6.png","74","motor","6","287","1","0","0","","",""
"null","1663060","HierDyfo0nz1sw","sub14","02","1","iti","null","img/motor_6.png","74","motor","","","","","","","",""
"420","1663491","HierDyfo0nz1sw","sub14","02","1","motor","83","img/motor_2.png","83","motor","2","288","1","0","0","","",""
"null","1663604","HierDyfo0nz1sw","sub14","02","1","iti","null","img/motor_2.png","83","motor","","","","","","","",""
"567","1664182","HierDyfo0nz1sw","sub14","02","1","motor","74","img/motor_6.png","74","motor","6","289","1","0","0","","",""
"null","1664295","HierDyfo0nz1sw","sub14","02","1","iti","null","img/motor_6.png","74","motor","","","","","","","",""
"327","1664632","HierDyfo0nz1sw","sub14","02","1","motor","74","img/motor_6.png","74","motor","6","290","1","0","0","","",""
"null","1664743","HierDyfo0nz1sw","sub14","02","1","iti","null","img/motor_6.png","74","motor","","","","","","","",""
"506","1665261","HierDyfo0nz1sw","sub14","02","1","motor","68","img/motor_3.png","68","motor","3","291","1","0","0","","",""
"null","1665371","HierDyfo0nz1sw","sub14","02","1","iti","null","img/motor_3.png","68","motor","","","","","","","",""
"469","1665852","HierDyfo0nz1sw","sub14","02","1","motor","74","img/motor_6.png","74","motor","6","292","1","0","0","","",""
"null","1665964","HierDyfo0nz1sw","sub14","02","1","iti","null","img/motor_6.png","74","motor","","","","","","","",""
"490","1666464","HierDyfo0nz1sw","sub14","02","1","motor","75","img/motor_7.png","75","motor","7","293","1","0","0","","",""
"null","1666578","HierDyfo0nz1sw","sub14","02","1","iti","null","img/motor_7.png","75","motor","","","","","","","",""
"6","1666593","HierDyfo0nz1sw","sub14","02","1","motor","75","img/motor_2.png","83","motor","2","294","0","1","0","","",""
"536","1667137","HierDyfo0nz1sw","sub14","02","1","motorRepeat","83","img/motor_2.png","83","motor","2","294","1","0","0","","",""
"null","1667249","HierDyfo0nz1sw","sub14","02","1","iti","null","img/motor_2.png","83","motor","","","","","","","",""
"389","1667647","HierDyfo0nz1sw","sub14","02","1","motor","76","img/motor_8.png","76","motor","8","295","1","0","0","","",""
"null","1667759","HierDyfo0nz1sw","sub14","02","1","iti","null","img/motor_8.png","76","motor","","","","","","","",""
"386","1668155","HierDyfo0nz1sw","sub14","02","1","motor","72","img/motor_5.png","72","motor","5","296","1","0","0","","",""
"null","1668264","HierDyfo0nz1sw","sub14","02","1","iti","null","img/motor_5.png","72","motor","","","","","","","",""
"477","1668753","HierDyfo0nz1sw","sub14","02","1","motor","83","img/motor_2.png","83","motor","2","297","1","0","0","","",""
"null","1668865","HierDyfo0nz1sw","sub14","02","1","iti","null","img/motor_2.png","83","motor","","","","","","","",""
"411","1669287","HierDyfo0nz1sw","sub14","02","1","motor","65","img/motor_1.png","65","motor","1","298","1","0","0","","",""
"null","1669400","HierDyfo0nz1sw","sub14","02","1","iti","null","img/motor_1.png","65","motor","","","","","","","",""
"406","1669817","HierDyfo0nz1sw","sub14","02","1","motor","76","img/motor_8.png","76","motor","8","299","1","0","0","","",""
"null","1669926","HierDyfo0nz1sw","sub14","02","1","iti","null","img/motor_8.png","76","motor","","","","","","","",""
"403","1670341","HierDyfo0nz1sw","sub14","02","1","motor","65","img/motor_1.png","65","motor","1","300","1","0","0","","",""
"null","1670454","HierDyfo0nz1sw","sub14","02","1","iti","null","img/motor_1.png","65","motor","","","","","","","",""
"421","1670886","HierDyfo0nz1sw","sub14","02","1","motor","74","img/motor_6.png","74","motor","6","301","1","0","0","","",""
"null","1670999","HierDyfo0nz1sw","sub14","02","1","iti","null","img/motor_6.png","74","motor","","","","","","","",""
"611","1671620","HierDyfo0nz1sw","sub14","02","1","motor","72","img/motor_5.png","72","motor","5","302","1","0","0","","",""
"null","1671731","HierDyfo0nz1sw","sub14","02","1","iti","null","img/motor_5.png","72","motor","","","","","","","",""
"451","1672191","HierDyfo0nz1sw","sub14","02","1","motor","75","img/motor_7.png","75","motor","7","303","1","0","0","","",""
"null","1672304","HierDyfo0nz1sw","sub14","02","1","iti","null","img/motor_7.png","75","motor","","","","","","","",""
"490","1672805","HierDyfo0nz1sw","sub14","02","1","motor","74","img/motor_6.png","74","motor","6","304","1","0","0","","",""
"null","1672915","HierDyfo0nz1sw","sub14","02","1","iti","null","img/motor_6.png","74","motor","","","","","","","",""
"423","1673349","HierDyfo0nz1sw","sub14","02","1","motor","70","img/motor_4.png","70","motor","4","305","1","0","0","","",""
"null","1673461","HierDyfo0nz1sw","sub14","02","1","iti","null","img/motor_4.png","70","motor","","","","","","","",""
"519","1673990","HierDyfo0nz1sw","sub14","02","1","motor","68","img/motor_3.png","68","motor","3","306","1","0","0","","",""
"null","1674102","HierDyfo0nz1sw","sub14","02","1","iti","null","img/motor_3.png","68","motor","","","","","","","",""
"452","1674565","HierDyfo0nz1sw","sub14","02","1","motor","76","img/motor_8.png","76","motor","8","307","1","0","0","","",""
"null","1674675","HierDyfo0nz1sw","sub14","02","1","iti","null","img/motor_8.png","76","motor","","","","","","","",""
"352","1675039","HierDyfo0nz1sw","sub14","02","1","motor","68","img/motor_3.png","68","motor","3","308","1","0","0","","",""
"null","1675152","HierDyfo0nz1sw","sub14","02","1","iti","null","img/motor_3.png","68","motor","","","","","","","",""
"431","1675593","HierDyfo0nz1sw","sub14","02","1","motor","74","img/motor_5.png","72","motor","5","309","0","1","0","","",""
"59","1675662","HierDyfo0nz1sw","sub14","02","1","motorRepeat","72","img/motor_5.png","72","motor","5","309","1","0","0","","",""
"null","1675772","HierDyfo0nz1sw","sub14","02","1","iti","null","img/motor_5.png","72","motor","","","","","","","",""
"493","1676277","HierDyfo0nz1sw","sub14","02","1","motor","75","img/motor_7.png","75","motor","7","310","1","0","0","","",""
"null","1676388","HierDyfo0nz1sw","sub14","02","1","iti","null","img/motor_7.png","75","motor","","","","","","","",""
"529","1676927","HierDyfo0nz1sw","sub14","02","1","motor","74","img/motor_6.png","74","motor","6","311","1","0","0","","",""
"null","1677038","HierDyfo0nz1sw","sub14","02","1","iti","null","img/motor_6.png","74","motor","","","","","","","",""
"528","1677576","HierDyfo0nz1sw","sub14","02","1","motor","83","img/motor_2.png","83","motor","2","312","1","0","0","","",""
"null","1677688","HierDyfo0nz1sw","sub14","02","1","iti","null","img/motor_2.png","83","motor","","","","","","","",""
"476","1678171","HierDyfo0nz1sw","sub14","02","1","motor","65","img/motor_1.png","65","motor","1","313","1","0","0","","",""
"null","1678284","HierDyfo0nz1sw","sub14","02","1","iti","null","img/motor_1.png","65","motor","","","","","","","",""
"450","1678744","HierDyfo0nz1sw","sub14","02","1","motor","70","img/motor_4.png","70","motor","4","314","1","0","0","","",""
"null","1678856","HierDyfo0nz1sw","sub14","02","1","iti","null","img/motor_4.png","70","motor","","","","","","","",""
"334","1679200","HierDyfo0nz1sw","sub14","02","1","motor","70","img/motor_4.png","70","motor","4","315","1","0","0","","",""
"null","1679313","HierDyfo0nz1sw","sub14","02","1","iti","null","img/motor_4.png","70","motor","","","","","","","",""
"475","1679799","HierDyfo0nz1sw","sub14","02","1","motor","74","img/motor_6.png","74","motor","6","316","1","0","0","","",""
"null","1679910","HierDyfo0nz1sw","sub14","02","1","iti","null","img/motor_6.png","74","motor","","","","","","","",""
"375","1680296","HierDyfo0nz1sw","sub14","02","1","motor","74","img/motor_6.png","74","motor","6","317","1","0","0","","",""
"null","1680407","HierDyfo0nz1sw","sub14","02","1","iti","null","img/motor_6.png","74","motor","","","","","","","",""
"405","1680822","HierDyfo0nz1sw","sub14","02","1","motor","65","img/motor_1.png","65","motor","1","318","1","0","0","","",""
"null","1680934","HierDyfo0nz1sw","sub14","02","1","iti","null","img/motor_1.png","65","motor","","","","","","","",""
"446","1681390","HierDyfo0nz1sw","sub14","02","1","motor","68","img/motor_2.png","83","motor","2","319","0","1","0","","",""
"379","1681780","HierDyfo0nz1sw","sub14","02","1","motorRepeat","83","img/motor_2.png","83","motor","2","319","1","0","0","","",""
"null","1681891","HierDyfo0nz1sw","sub14","02","1","iti","null","img/motor_2.png","83","motor","","","","","","","",""
"443","1682344","HierDyfo0nz1sw","sub14","02","1","motor","70","img/motor_4.png","70","motor","4","320","1","0","0","","",""
"null","1682454","HierDyfo0nz1sw","sub14","02","1","iti","null","img/motor_4.png","70","motor","","","","","","","",""
"325","1682789","HierDyfo0nz1sw","sub14","02","1","motor","70","img/motor_4.png","70","motor","4","321","1","0","0","","",""
"null","1682900","HierDyfo0nz1sw","sub14","02","1","iti","null","img/motor_4.png","70","motor","","","","","","","",""
"425","1683336","HierDyfo0nz1sw","sub14","02","1","motor","83","img/motor_2.png","83","motor","2","322","1","0","0","","",""
"null","1683448","HierDyfo0nz1sw","sub14","02","1","iti","null","img/motor_2.png","83","motor","","","","","","","",""
"424","1683884","HierDyfo0nz1sw","sub14","02","1","motor","68","img/motor_3.png","68","motor","3","323","1","0","0","","",""
"null","1683997","HierDyfo0nz1sw","sub14","02","1","iti","null","img/motor_3.png","68","motor","","","","","","","",""
"334","1684342","HierDyfo0nz1sw","sub14","02","1","motor","68","img/motor_3.png","68","motor","3","324","1","0","0","","",""
"null","1684454","HierDyfo0nz1sw","sub14","02","1","iti","null","img/motor_3.png","68","motor","","","","","","","",""
"424","1684889","HierDyfo0nz1sw","sub14","02","1","motor","65","img/motor_1.png","65","motor","1","325","1","0","0","","",""
"null","1685001","HierDyfo0nz1sw","sub14","02","1","iti","null","img/motor_1.png","65","motor","","","","","","","",""
"407","1685419","HierDyfo0nz1sw","sub14","02","1","motor","76","img/motor_8.png","76","motor","8","326","1","0","0","","",""
"null","1685530","HierDyfo0nz1sw","sub14","02","1","iti","null","img/motor_8.png","76","motor","","","","","","","",""
"459","1686001","HierDyfo0nz1sw","sub14","02","1","motor","74","img/motor_7.png","75","motor","7","327","0","1","0","","",""
"240","1686251","HierDyfo0nz1sw","sub14","02","1","motorRepeat","75","img/motor_7.png","75","motor","7","327","1","0","0","","",""
"null","1686364","HierDyfo0nz1sw","sub14","02","1","iti","null","img/motor_7.png","75","motor","","","","","","","",""
"414","1686788","HierDyfo0nz1sw","sub14","02","1","motor","70","img/motor_3.png","68","motor","3","328","0","1","0","","",""
"261","1687060","HierDyfo0nz1sw","sub14","02","1","motorRepeat","68","img/motor_3.png","68","motor","3","328","1","0","0","","",""
"null","1687170","HierDyfo0nz1sw","sub14","02","1","iti","null","img/motor_3.png","68","motor","","","","","","","",""
"499","1687681","HierDyfo0nz1sw","sub14","02","1","motor","75","img/motor_7.png","75","motor","7","329","1","0","0","","",""
"null","1687794","HierDyfo0nz1sw","sub14","02","1","iti","null","img/motor_7.png","75","motor","","","","","","","",""
"444","1688248","HierDyfo0nz1sw","sub14","02","1","motor","72","img/motor_5.png","72","motor","5","330","1","0","0","","",""
"null","1688359","HierDyfo0nz1sw","sub14","02","1","iti","null","img/motor_5.png","72","motor","","","","","","","",""
"493","1688863","HierDyfo0nz1sw","sub14","02","1","motor","68","img/motor_3.png","68","motor","3","331","1","0","0","","",""
"null","1688976","HierDyfo0nz1sw","sub14","02","1","iti","null","img/motor_3.png","68","motor","","","","","","","",""
"495","1689483","HierDyfo0nz1sw","sub14","02","1","motor","70","img/motor_4.png","70","motor","4","332","1","0","0","","",""
"null","1689596","HierDyfo0nz1sw","sub14","02","1","iti","null","img/motor_4.png","70","motor","","","","","","","",""
"399","1690007","HierDyfo0nz1sw","sub14","02","1","motor","72","img/motor_5.png","72","motor","5","333","1","0","0","","",""
"null","1690120","HierDyfo0nz1sw","sub14","02","1","iti","null","img/motor_5.png","72","motor","","","","","","","",""
"474","1690606","HierDyfo0nz1sw","sub14","02","1","motor","70","img/motor_4.png","70","motor","4","334","1","0","0","","",""
"null","1690719","HierDyfo0nz1sw","sub14","02","1","iti","null","img/motor_4.png","70","motor","","","","","","","",""
"446","1691175","HierDyfo0nz1sw","sub14","02","1","motor","65","img/motor_1.png","65","motor","1","335","1","0","0","","",""
"null","1691287","HierDyfo0nz1sw","sub14","02","1","iti","null","img/motor_1.png","65","motor","","","","","","","",""
"525","1691824","HierDyfo0nz1sw","sub14","02","1","motor","68","img/motor_3.png","68","motor","3","336","1","0","0","","",""
"null","1691937","HierDyfo0nz1sw","sub14","02","1","iti","null","img/motor_3.png","68","motor","","","","","","","",""
"416","1692363","HierDyfo0nz1sw","sub14","02","1","motor","70","img/motor_4.png","70","motor","4","337","1","0","0","","",""
"null","1692475","HierDyfo0nz1sw","sub14","02","1","iti","null","img/motor_4.png","70","motor","","","","","","","",""
"510","1692996","HierDyfo0nz1sw","sub14","02","1","motor","74","img/motor_6.png","74","motor","6","338","1","0","0","","",""
"null","1693110","HierDyfo0nz1sw","sub14","02","1","iti","null","img/motor_6.png","74","motor","","","","","","","",""
"408","1693528","HierDyfo0nz1sw","sub14","02","1","motor","76","img/motor_8.png","76","motor","8","339","1","0","0","","",""
"null","1693641","HierDyfo0nz1sw","sub14","02","1","iti","null","img/motor_8.png","76","motor","","","","","","","",""
"418","1694070","HierDyfo0nz1sw","sub14","02","1","motor","72","img/motor_5.png","72","motor","5","340","1","0","0","","",""
"null","1694180","HierDyfo0nz1sw","sub14","02","1","iti","null","img/motor_5.png","72","motor","","","","","","","",""
"501","1694690","HierDyfo0nz1sw","sub14","02","1","motor","83","img/motor_2.png","83","motor","2","341","1","0","0","","",""
"null","1694803","HierDyfo0nz1sw","sub14","02","1","iti","null","img/motor_2.png","83","motor","","","","","","","",""
"475","1695288","HierDyfo0nz1sw","sub14","02","1","motor","65","img/motor_1.png","65","motor","1","342","1","0","0","","",""
"null","1695402","HierDyfo0nz1sw","sub14","02","1","iti","null","img/motor_1.png","65","motor","","","","","","","",""
"403","1695817","HierDyfo0nz1sw","sub14","02","1","motor","65","img/motor_1.png","65","motor","1","343","1","0","0","","",""
"null","1695927","HierDyfo0nz1sw","sub14","02","1","iti","null","img/motor_1.png","65","motor","","","","","","","",""
"625","1696564","HierDyfo0nz1sw","sub14","02","1","motor","68","img/motor_3.png","68","motor","3","344","1","0","0","","",""
"null","1696675","HierDyfo0nz1sw","sub14","02","1","iti","null","img/motor_3.png","68","motor","","","","","","","",""
"385","1697072","HierDyfo0nz1sw","sub14","02","1","motor","70","img/motor_4.png","70","motor","4","345","1","0","0","","",""
"null","1697186","HierDyfo0nz1sw","sub14","02","1","iti","null","img/motor_4.png","70","motor","","","","","","","",""
"438","1697635","HierDyfo0nz1sw","sub14","02","1","motor","72","img/motor_5.png","72","motor","5","346","1","0","0","","",""
"null","1697746","HierDyfo0nz1sw","sub14","02","1","iti","null","img/motor_5.png","72","motor","","","","","","","",""
"398","1698153","HierDyfo0nz1sw","sub14","02","1","motor","65","img/motor_1.png","65","motor","1","347","1","0","0","","",""
"null","1698263","HierDyfo0nz1sw","sub14","02","1","iti","null","img/motor_1.png","65","motor","","","","","","","",""
"648","1698920","HierDyfo0nz1sw","sub14","02","1","motor","83","img/motor_2.png","83","motor","2","348","1","0","0","","",""
"null","1699032","HierDyfo0nz1sw","sub14","02","1","iti","null","img/motor_2.png","83","motor","","","","","","","",""
"622","1699662","HierDyfo0nz1sw","sub14","02","1","motor","75","img/motor_7.png","75","motor","7","349","1","0","0","","",""
"null","1699773","HierDyfo0nz1sw","sub14","02","1","iti","null","img/motor_7.png","75","motor","","","","","","","",""
"407","1700190","HierDyfo0nz1sw","sub14","02","1","motor","65","img/motor_1.png","65","motor","1","350","1","0","0","","",""
"null","1700302","HierDyfo0nz1sw","sub14","02","1","iti","null","img/motor_1.png","65","motor","","","","","","","",""
"407","1700720","HierDyfo0nz1sw","sub14","02","1","motor","70","img/motor_4.png","70","motor","4","351","1","0","0","","",""
"null","1700833","HierDyfo0nz1sw","sub14","02","1","iti","null","img/motor_4.png","70","motor","","","","","","","",""
"456","1701301","HierDyfo0nz1sw","sub14","02","1","motor","83","img/motor_2.png","83","motor","2","352","1","0","0","","",""
"null","1701412","HierDyfo0nz1sw","sub14","02","1","iti","null","img/motor_2.png","83","motor","","","","","","","",""
"394","1701818","HierDyfo0nz1sw","sub14","02","1","motor","72","img/motor_5.png","72","motor","5","353","1","0","0","","",""
"null","1701930","HierDyfo0nz1sw","sub14","02","1","iti","null","img/motor_5.png","72","motor","","","","","","","",""
"342","1702284","HierDyfo0nz1sw","sub14","02","1","motor","76","img/motor_8.png","76","motor","8","354","1","0","0","","",""
"null","1702397","HierDyfo0nz1sw","sub14","02","1","iti","null","img/motor_8.png","76","motor","","","","","","","",""
"417","1702825","HierDyfo0nz1sw","sub14","02","1","motor","74","img/motor_6.png","74","motor","6","355","1","0","0","","",""
"null","1702937","HierDyfo0nz1sw","sub14","02","1","iti","null","img/motor_6.png","74","motor","","","","","","","",""
"370","1703319","HierDyfo0nz1sw","sub14","02","1","motor","70","img/motor_5.png","72","motor","5","356","0","1","0","","",""
"245","1703576","HierDyfo0nz1sw","sub14","02","1","motorRepeat","72","img/motor_5.png","72","motor","5","356","1","0","0","","",""
"null","1703687","HierDyfo0nz1sw","sub14","02","1","iti","null","img/motor_5.png","72","motor","","","","","","","",""
"660","1704358","HierDyfo0nz1sw","sub14","02","1","motor","68","img/motor_3.png","68","motor","3","357","1","0","0","","",""
"null","1704471","HierDyfo0nz1sw","sub14","02","1","iti","null","img/motor_3.png","68","motor","","","","","","","",""
"358","1704840","HierDyfo0nz1sw","sub14","02","1","motor","72","img/motor_5.png","72","motor","5","358","1","0","0","","",""
"null","1704952","HierDyfo0nz1sw","sub14","02","1","iti","null","img/motor_5.png","72","motor","","","","","","","",""
"358","1705322","HierDyfo0nz1sw","sub14","02","1","motor","65","img/motor_1.png","65","motor","1","359","1","0","0","","",""
"null","1705434","HierDyfo0nz1sw","sub14","02","1","iti","null","img/motor_1.png","65","motor","","","","","","","",""
"541","1705988","HierDyfo0nz1sw","sub14","02","1","motor","75","img/motor_6.png","74","motor","6","360","0","1","0","","",""
"197","1706194","HierDyfo0nz1sw","sub14","02","1","motorRepeat","74","img/motor_6.png","74","motor","6","360","1","0","0","","",""
"null","1706305","HierDyfo0nz1sw","sub14","02","1","iti","null","img/motor_6.png","74","motor","","","","","","","",""
"475","1706793","HierDyfo0nz1sw","sub14","02","1","motor","70","img/motor_4.png","70","motor","4","361","1","0","0","","",""
"null","1706905","HierDyfo0nz1sw","sub14","02","1","iti","null","img/motor_4.png","70","motor","","","","","","","",""
"418","1707335","HierDyfo0nz1sw","sub14","02","1","motor","65","img/motor_1.png","65","motor","1","362","1","0","0","","",""
"null","1707446","HierDyfo0nz1sw","sub14","02","1","iti","null","img/motor_1.png","65","motor","","","","","","","",""
"578","1708035","HierDyfo0nz1sw","sub14","02","1","motor","68","img/motor_3.png","68","motor","3","363","1","0","0","","",""
"null","1708149","HierDyfo0nz1sw","sub14","02","1","iti","null","img/motor_3.png","68","motor","","","","","","","",""
"558","1708718","HierDyfo0nz1sw","sub14","02","1","motor","83","img/motor_2.png","83","motor","2","364","1","0","0","","",""
"null","1708830","HierDyfo0nz1sw","sub14","02","1","iti","null","img/motor_2.png","83","motor","","","","","","","",""
"454","1709296","HierDyfo0nz1sw","sub14","02","1","motor","68","img/motor_3.png","68","motor","3","365","1","0","0","","",""
"null","1709408","HierDyfo0nz1sw","sub14","02","1","iti","null","img/motor_3.png","68","motor","","","","","","","",""
"591","1710009","HierDyfo0nz1sw","sub14","02","1","motor","75","img/motor_7.png","75","motor","7","366","1","0","0","","",""
"null","1710122","HierDyfo0nz1sw","sub14","02","1","iti","null","img/motor_7.png","75","motor","","","","","","","",""
"433","1710566","HierDyfo0nz1sw","sub14","02","1","motor","65","img/motor_1.png","65","motor","1","367","1","0","0","","",""
"null","1710680","HierDyfo0nz1sw","sub14","02","1","iti","null","img/motor_1.png","65","motor","","","","","","","",""
"360","1711053","HierDyfo0nz1sw","sub14","02","1","motor","65","img/motor_1.png","65","motor","1","368","1","0","0","","",""
"null","1711162","HierDyfo0nz1sw","sub14","02","1","iti","null","img/motor_1.png","65","motor","","","","","","","",""
"396","1711570","HierDyfo0nz1sw","sub14","02","1","motor","75","img/motor_7.png","75","motor","7","369","1","0","0","","",""
"null","1711682","HierDyfo0nz1sw","sub14","02","1","iti","null","img/motor_7.png","75","motor","","","","","","","",""
"416","1712111","HierDyfo0nz1sw","sub14","02","1","motor","76","img/motor_8.png","76","motor","8","370","1","0","0","","",""
"null","1712222","HierDyfo0nz1sw","sub14","02","1","iti","null","img/motor_8.png","76","motor","","","","","","","",""
"434","1712665","HierDyfo0nz1sw","sub14","02","1","motor","70","img/motor_4.png","70","motor","4","371","1","0","0","","",""
"null","1712777","HierDyfo0nz1sw","sub14","02","1","iti","null","img/motor_4.png","70","motor","","","","","","","",""
"466","1713254","HierDyfo0nz1sw","sub14","02","1","motor","68","img/motor_3.png","68","motor","3","372","1","0","0","","",""
"null","1713366","HierDyfo0nz1sw","sub14","02","1","iti","null","img/motor_3.png","68","motor","","","","","","","",""
"524","1713902","HierDyfo0nz1sw","sub14","02","1","motor","74","img/motor_6.png","74","motor","6","373","1","0","0","","",""
"null","1714014","HierDyfo0nz1sw","sub14","02","1","iti","null","img/motor_6.png","74","motor","","","","","","","",""
"574","1714599","HierDyfo0nz1sw","sub14","02","1","motor","68","img/motor_3.png","68","motor","3","374","1","0","0","","",""
"null","1714711","HierDyfo0nz1sw","sub14","02","1","iti","null","img/motor_3.png","68","motor","","","","","","","",""
"351","1715073","HierDyfo0nz1sw","sub14","02","1","motor","72","img/motor_5.png","72","motor","5","375","1","0","0","","",""
"null","1715185","HierDyfo0nz1sw","sub14","02","1","iti","null","img/motor_5.png","72","motor","","","","","","","",""
"463","1715657","HierDyfo0nz1sw","sub14","02","1","motor","68","img/motor_4.png","70","motor","4","376","0","1","0","","",""
"265","1715934","HierDyfo0nz1sw","sub14","02","1","motorRepeat","70","img/motor_4.png","70","motor","4","376","1","0","0","","",""
"null","1716047","HierDyfo0nz1sw","sub14","02","1","iti","null","img/motor_4.png","70","motor","","","","","","","",""
"343","1716400","HierDyfo0nz1sw","sub14","02","1","motor","76","img/motor_8.png","76","motor","8","377","1","0","0","","",""
"null","1716513","HierDyfo0nz1sw","sub14","02","1","iti","null","img/motor_8.png","76","motor","","","","","","","",""
"534","1717059","HierDyfo0nz1sw","sub14","02","1","motor","75","img/motor_7.png","75","motor","7","378","1","0","0","","",""
"null","1717170","HierDyfo0nz1sw","sub14","02","1","iti","null","img/motor_7.png","75","motor","","","","","","","",""
"403","1717584","HierDyfo0nz1sw","sub14","02","1","motor","65","img/motor_1.png","65","motor","1","379","1","0","0","","",""
"null","1717694","HierDyfo0nz1sw","sub14","02","1","iti","null","img/motor_1.png","65","motor","","","","","","","",""
"488","1718193","HierDyfo0nz1sw","sub14","02","1","motor","83","img/motor_2.png","83","motor","2","380","1","0","0","","",""
"null","1718307","HierDyfo0nz1sw","sub14","02","1","iti","null","img/motor_2.png","83","motor","","","","","","","",""
"437","1718756","HierDyfo0nz1sw","sub14","02","1","motor","72","img/motor_5.png","72","motor","5","381","1","0","0","","",""
"null","1718870","HierDyfo0nz1sw","sub14","02","1","iti","null","img/motor_5.png","72","motor","","","","","","","",""
"555","1719437","HierDyfo0nz1sw","sub14","02","1","motor","74","img/motor_6.png","74","motor","6","382","1","0","0","","",""
"null","1719550","HierDyfo0nz1sw","sub14","02","1","iti","null","img/motor_6.png","74","motor","","","","","","","",""
"373","1719934","HierDyfo0nz1sw","sub14","02","1","motor","75","img/motor_8.png","76","motor","8","383","0","1","0","","",""
"333","1720277","HierDyfo0nz1sw","sub14","02","1","motorRepeat","76","img/motor_8.png","76","motor","8","383","1","0","0","","",""
"null","1720390","HierDyfo0nz1sw","sub14","02","1","iti","null","img/motor_8.png","76","motor","","","","","","","",""
"525","1720925","HierDyfo0nz1sw","sub14","02","1","motor","75","img/motor_7.png","75","motor","7","384","1","0","0","","",""
"null","1721038","HierDyfo0nz1sw","sub14","02","1","iti","null","img/motor_7.png","75","motor","","","","","","","",""
"456","1721505","HierDyfo0nz1sw","sub14","02","1","motor","74","img/motor_6.png","74","motor","6","385","1","0","0","","",""
"null","1721618","HierDyfo0nz1sw","sub14","02","1","iti","null","img/motor_6.png","74","motor","","","","","","","",""
"398","1722027","HierDyfo0nz1sw","sub14","02","1","motor","65","img/motor_1.png","65","motor","1","386","1","0","0","","",""
"null","1722140","HierDyfo0nz1sw","sub14","02","1","iti","null","img/motor_1.png","65","motor","","","","","","","",""
"394","1722544","HierDyfo0nz1sw","sub14","02","1","motor","70","img/motor_4.png","70","motor","4","387","1","0","0","","",""
"null","1722656","HierDyfo0nz1sw","sub14","02","1","iti","null","img/motor_4.png","70","motor","","","","","","","",""
"567","1723235","HierDyfo0nz1sw","sub14","02","1","motor","74","img/motor_6.png","74","motor","6","388","1","0","0","","",""
"null","1723345","HierDyfo0nz1sw","sub14","02","1","iti","null","img/motor_6.png","74","motor","","","","","","","",""
"420","1723775","HierDyfo0nz1sw","sub14","02","1","motor","65","img/motor_2.png","83","motor","2","389","0","1","0","","",""
"245","1724031","HierDyfo0nz1sw","sub14","02","1","motorRepeat","83","img/motor_2.png","83","motor","2","389","1","0","0","","",""
"null","1724142","HierDyfo0nz1sw","sub14","02","1","iti","null","img/motor_2.png","83","motor","","","","","","","",""
"391","1724544","HierDyfo0nz1sw","sub14","02","1","motor","75","img/motor_7.png","75","motor","7","390","1","0","0","","",""
"null","1724657","HierDyfo0nz1sw","sub14","02","1","iti","null","img/motor_7.png","75","motor","","","","","","","",""
"490","1725156","HierDyfo0nz1sw","sub14","02","1","motor","76","img/motor_8.png","76","motor","8","391","1","0","0","","",""
"null","1725269","HierDyfo0nz1sw","sub14","02","1","iti","null","img/motor_8.png","76","motor","","","","","","","",""
"620","1725897","HierDyfo0nz1sw","sub14","02","1","motor","75","img/motor_7.png","75","motor","7","392","1","0","0","","",""
"null","1726008","HierDyfo0nz1sw","sub14","02","1","iti","null","img/motor_7.png","75","motor","","","","","","","",""
"494","1726512","HierDyfo0nz1sw","sub14","02","1","motor","70","img/motor_4.png","70","motor","4","393","1","0","0","","",""
"null","1726623","HierDyfo0nz1sw","sub14","02","1","iti","null","img/motor_4.png","70","motor","","","","","","","",""
