"rt","time_elapsed","subject","subID","group","day","trialType","phase","key_press","stim","stimNum","corrresp","hierarchy","trialNum","corr","responses"
"192729.19999998808","192731","HierDyexca327p","sub13","01","07","","","","","","","","","",""
"","195033","HierDyexca327p","sub13","01","07","fullscreen","","","","","","","","",""
"30471.19999998808","225505","HierDyexca327p","sub13","01","07","","prac","","","","","","","",""
"559.6999999880791","226066","HierDyexca327p","sub13","01","07","","","32","","","","","","",""
"1782.699999988079","227850","HierDyexca327p","sub13","01","07","","prac","","","","","","","",""
"888","228739","HierDyexca327p","sub13","01","07","rl","test","72","img/r_c_dots.png","5","72","color,shape,pattern","1","1",""
"null","229743","HierDyexca327p","sub13","01","07","feedback","test","null","","","na","","1","",""
"778.1999999880791","230523","HierDyexca327p","sub13","01","07","rl","test","70","img/b_s_stripes.png","4","70","color,shape,pattern","2","1",""
"null","231529","HierDyexca327p","sub13","01","07","feedback","test","null","","","na","","2","",""
"653.8000000119209","232185","HierDyexca327p","sub13","01","07","rl","test","65","img/b_c_dots.png","1","65","color,shape,pattern","3","1",""
"null","233193","HierDyexca327p","sub13","01","07","feedback","test","null","","","na","","3","",""
"638.1999999880791","233833","HierDyexca327p","sub13","01","07","rl","test","68","img/b_s_dots.png","3","68","color,shape,pattern","4","1",""
"null","234850","HierDyexca327p","sub13","01","07","feedback","test","null","","","na","","4","",""
"549","235401","HierDyexca327p","sub13","01","07","rl","test","76","img/r_s_stripes.png","8","76","color,shape,pattern","5","1",""
"null","236412","HierDyexca327p","sub13","01","07","feedback","test","null","","","na","","5","",""
"699.6999999880791","237113","HierDyexca327p","sub13","01","07","rl","test","74","img/r_c_stripes.png","6","74","color,shape,pattern","6","1",""
"null","238133","HierDyexca327p","sub13","01","07","feedback","test","null","","","na","","6","",""
"997.3000000119209","239132","HierDyexca327p","sub13","01","07","rl","test","83","img/b_c_stripes.png","2","83","color,shape,pattern","7","1",""
"null","240144","HierDyexca327p","sub13","01","07","feedback","test","null","","","na","","7","",""
"1000.5","241146","HierDyexca327p","sub13","01","07","rl","test","75","img/r_s_dots.png","7","75","color,shape,pattern","8","1",""
"null","242163","HierDyexca327p","sub13","01","07","feedback","test","null","","","na","","8","",""
"910.4000000357628","243075","HierDyexca327p","sub13","01","07","rl","test","74","img/r_c_stripes.png","6","74","color,shape,pattern","9","1",""
"null","244092","HierDyexca327p","sub13","01","07","feedback","test","null","","","na","","9","",""
"703.9000000357628","244797","HierDyexca327p","sub13","01","07","rl","test","65","img/b_c_dots.png","1","65","color,shape,pattern","10","1",""
"null","245802","HierDyexca327p","sub13","01","07","feedback","test","null","","","na","","10","",""
"761.6999999880791","246565","HierDyexca327p","sub13","01","07","rl","test","83","img/b_c_stripes.png","2","83","color,shape,pattern","11","1",""
"null","247578","HierDyexca327p","sub13","01","07","feedback","test","null","","","na","","11","",""
"539.3999999761581","248118","HierDyexca327p","sub13","01","07","rl","test","72","img/r_c_dots.png","5","72","color,shape,pattern","12","1",""
"null","249128","HierDyexca327p","sub13","01","07","feedback","test","null","","","na","","12","",""
"923.2000000476837","250053","HierDyexca327p","sub13","01","07","rl","test","83","img/b_c_stripes.png","2","83","color,shape,pattern","13","1",""
"null","251063","HierDyexca327p","sub13","01","07","feedback","test","null","","","na","","13","",""
"572.2000000476837","251636","HierDyexca327p","sub13","01","07","rl","test","70","img/b_s_stripes.png","4","70","color,shape,pattern","14","1",""
"null","252642","HierDyexca327p","sub13","01","07","feedback","test","null","","","na","","14","",""
"770.7000000476837","253414","HierDyexca327p","sub13","01","07","rl","test","75","img/r_s_dots.png","7","75","color,shape,pattern","15","1",""
"null","254442","HierDyexca327p","sub13","01","07","feedback","test","null","","","na","","15","",""
"633.5","255076","HierDyexca327p","sub13","01","07","rl","test","76","img/r_s_stripes.png","8","76","color,shape,pattern","16","1",""
"null","256082","HierDyexca327p","sub13","01","07","feedback","test","null","","","na","","16","",""
"1037.9000000357628","257121","HierDyexca327p","sub13","01","07","rl","test","68","img/b_s_dots.png","3","68","color,shape,pattern","17","1",""
"null","258132","HierDyexca327p","sub13","01","07","feedback","test","null","","","na","","17","",""
"585.5999999642372","258719","HierDyexca327p","sub13","01","07","rl","test","68","img/b_s_dots.png","3","68","color,shape,pattern","18","1",""
"null","259733","HierDyexca327p","sub13","01","07","feedback","test","null","","","na","","18","",""
"513","260247","HierDyexca327p","sub13","01","07","rl","test","70","img/b_s_stripes.png","4","70","color,shape,pattern","19","1",""
"null","261270","HierDyexca327p","sub13","01","07","feedback","test","null","","","na","","19","",""
"679","261950","HierDyexca327p","sub13","01","07","rl","test","72","img/r_c_dots.png","5","72","color,shape,pattern","20","1",""
"null","262967","HierDyexca327p","sub13","01","07","feedback","test","null","","","na","","20","",""
"599.6000000238419","263568","HierDyexca327p","sub13","01","07","rl","test","74","img/r_c_stripes.png","6","74","color,shape,pattern","21","1",""
"null","264584","HierDyexca327p","sub13","01","07","feedback","test","null","","","na","","21","",""
"696","265281","HierDyexca327p","sub13","01","07","rl","test","76","img/r_s_stripes.png","8","76","color,shape,pattern","22","1",""
"null","266302","HierDyexca327p","sub13","01","07","feedback","test","null","","","na","","22","",""
"610.6000000238419","266913","HierDyexca327p","sub13","01","07","rl","test","76","img/r_s_stripes.png","8","76","color,shape,pattern","23","1",""
"null","267942","HierDyexca327p","sub13","01","07","feedback","test","null","","","na","","23","",""
"583.0999999642372","268527","HierDyexca327p","sub13","01","07","rl","test","65","img/b_c_dots.png","1","65","color,shape,pattern","24","1",""
"null","269534","HierDyexca327p","sub13","01","07","feedback","test","null","","","na","","24","",""
"713.3000000119209","270249","HierDyexca327p","sub13","01","07","rl","test","75","img/r_s_dots.png","7","75","color,shape,pattern","25","1",""
"null","271261","HierDyexca327p","sub13","01","07","feedback","test","null","","","na","","25","",""
"677.8000000119209","271940","HierDyexca327p","sub13","01","07","rl","test","65","img/b_c_dots.png","1","65","color,shape,pattern","26","1",""
"null","272951","HierDyexca327p","sub13","01","07","feedback","test","null","","","na","","26","",""
"680.3999999761581","273633","HierDyexca327p","sub13","01","07","rl","test","83","img/b_c_stripes.png","2","83","color,shape,pattern","27","1",""
"null","274654","HierDyexca327p","sub13","01","07","feedback","test","null","","","na","","27","",""
"1168.8999999761581","275824","HierDyexca327p","sub13","01","07","rl","test","75","img/r_s_dots.png","7","75","color,shape,pattern","28","1",""
"null","276838","HierDyexca327p","sub13","01","07","feedback","test","null","","","na","","28","",""
"692.6000000238419","277532","HierDyexca327p","sub13","01","07","rl","test","74","img/r_c_stripes.png","6","74","color,shape,pattern","29","1",""
"null","278543","HierDyexca327p","sub13","01","07","feedback","test","null","","","na","","29","",""
"690.8999999761581","279235","HierDyexca327p","sub13","01","07","rl","test","68","img/b_s_dots.png","3","68","color,shape,pattern","30","1",""
"null","280254","HierDyexca327p","sub13","01","07","feedback","test","null","","","na","","30","",""
"803.6999999880791","281059","HierDyexca327p","sub13","01","07","rl","test","72","img/r_c_dots.png","5","72","color,shape,pattern","31","1",""
"null","282078","HierDyexca327p","sub13","01","07","feedback","test","null","","","na","","31","",""
"712.3999999761581","282792","HierDyexca327p","sub13","01","07","rl","test","70","img/b_s_stripes.png","4","70","color,shape,pattern","32","1",""
"null","283812","HierDyexca327p","sub13","01","07","feedback","test","null","","","na","","32","",""
"666.5","284480","HierDyexca327p","sub13","01","07","rl","test","76","img/r_s_stripes.png","8","76","color,shape,pattern","33","1",""
"null","285492","HierDyexca327p","sub13","01","07","feedback","test","null","","","na","","33","",""
"1301.5","286796","HierDyexca327p","sub13","01","07","rl","test","83","img/b_c_stripes.png","2","83","color,shape,pattern","34","1",""
"null","287804","HierDyexca327p","sub13","01","07","feedback","test","null","","","na","","34","",""
"595","288400","HierDyexca327p","sub13","01","07","rl","test","65","img/b_c_dots.png","1","65","color,shape,pattern","35","1",""
"null","289414","HierDyexca327p","sub13","01","07","feedback","test","null","","","na","","35","",""
"711","290126","HierDyexca327p","sub13","01","07","rl","test","68","img/b_s_dots.png","3","68","color,shape,pattern","36","1",""
"null","291142","HierDyexca327p","sub13","01","07","feedback","test","null","","","na","","36","",""
"546.0999999642372","291690","HierDyexca327p","sub13","01","07","rl","test","70","img/b_s_stripes.png","4","70","color,shape,pattern","37","1",""
"null","292703","HierDyexca327p","sub13","01","07","feedback","test","null","","","na","","37","",""
"512.6000000238419","293217","HierDyexca327p","sub13","01","07","rl","test","70","img/b_s_stripes.png","4","70","color,shape,pattern","38","1",""
"null","294243","HierDyexca327p","sub13","01","07","feedback","test","null","","","na","","38","",""
"1083.3999999761581","295327","HierDyexca327p","sub13","01","07","rl","test","75","img/r_s_dots.png","7","75","color,shape,pattern","39","1",""
"null","296346","HierDyexca327p","sub13","01","07","feedback","test","null","","","na","","39","",""
"803.6000000238419","297151","HierDyexca327p","sub13","01","07","rl","test","68","img/b_s_dots.png","3","68","color,shape,pattern","40","1",""
"null","298175","HierDyexca327p","sub13","01","07","feedback","test","null","","","na","","40","",""
"903.2999999523163","299080","HierDyexca327p","sub13","01","07","rl","test","72","img/r_c_dots.png","5","72","color,shape,pattern","41","1",""
"null","300101","HierDyexca327p","sub13","01","07","feedback","test","null","","","na","","41","",""
"786.3000000119209","300889","HierDyexca327p","sub13","01","07","rl","test","75","img/r_s_dots.png","7","75","color,shape,pattern","42","1",""
"null","301903","HierDyexca327p","sub13","01","07","feedback","test","null","","","na","","42","",""
"983.1000000238419","302888","HierDyexca327p","sub13","01","07","rl","test","74","img/r_c_stripes.png","6","74","color,shape,pattern","43","1",""
"null","303913","HierDyexca327p","sub13","01","07","feedback","test","null","","","na","","43","",""
"625.8000000119209","304540","HierDyexca327p","sub13","01","07","rl","test","74","img/r_c_stripes.png","6","74","color,shape,pattern","44","1",""
"null","305545","HierDyexca327p","sub13","01","07","feedback","test","null","","","na","","44","",""
"703.6999999880791","306250","HierDyexca327p","sub13","01","07","rl","test","76","img/r_s_stripes.png","8","76","color,shape,pattern","45","1",""
"null","307263","HierDyexca327p","sub13","01","07","feedback","test","null","","","na","","45","",""
"663.3999999761581","307927","HierDyexca327p","sub13","01","07","rl","test","74","img/r_c_stripes.png","6","74","color,shape,pattern","46","1",""
"null","308945","HierDyexca327p","sub13","01","07","feedback","test","null","","","na","","46","",""
"845","309791","HierDyexca327p","sub13","01","07","rl","test","72","img/r_c_dots.png","5","72","color,shape,pattern","47","1",""
"null","310803","HierDyexca327p","sub13","01","07","feedback","test","null","","","na","","47","",""
"931.5","311736","HierDyexca327p","sub13","01","07","rl","test","83","img/b_c_stripes.png","2","83","color,shape,pattern","48","1",""
"null","312756","HierDyexca327p","sub13","01","07","feedback","test","null","","","na","","48","",""
"908.4000000357628","313665","HierDyexca327p","sub13","01","07","rl","test","68","img/b_s_dots.png","3","68","color,shape,pattern","49","1",""
"null","314686","HierDyexca327p","sub13","01","07","feedback","test","null","","","na","","49","",""
"580.1999999880791","315268","HierDyexca327p","sub13","01","07","rl","test","65","img/b_c_dots.png","1","65","color,shape,pattern","50","1",""
"null","316283","HierDyexca327p","sub13","01","07","feedback","test","null","","","na","","50","",""
"747.8999999761581","317033","HierDyexca327p","sub13","01","07","rl","test","83","img/b_c_stripes.png","2","83","color,shape,pattern","51","1",""
"null","318049","HierDyexca327p","sub13","01","07","feedback","test","null","","","na","","51","",""
"599.5","318649","HierDyexca327p","sub13","01","07","rl","test","65","img/b_c_dots.png","1","65","color,shape,pattern","52","1",""
"null","319664","HierDyexca327p","sub13","01","07","feedback","test","null","","","na","","52","",""
"642","320308","HierDyexca327p","sub13","01","07","rl","test","70","img/b_s_stripes.png","4","70","color,shape,pattern","53","1",""
"null","321315","HierDyexca327p","sub13","01","07","feedback","test","null","","","na","","53","",""
"755.5","322072","HierDyexca327p","sub13","01","07","rl","test","74","img/r_c_stripes.png","6","74","color,shape,pattern","54","1",""
"null","323084","HierDyexca327p","sub13","01","07","feedback","test","null","","","na","","54","",""
"719","323804","HierDyexca327p","sub13","01","07","rl","test","75","img/r_s_dots.png","7","75","color,shape,pattern","55","1",""
"null","324820","HierDyexca327p","sub13","01","07","feedback","test","null","","","na","","55","",""
"787.8000000119209","325609","HierDyexca327p","sub13","01","07","rl","test","72","img/r_c_dots.png","5","72","color,shape,pattern","56","1",""
"null","326619","HierDyexca327p","sub13","01","07","feedback","test","null","","","na","","56","",""
"862.5","327482","HierDyexca327p","sub13","01","07","rl","test","76","img/r_s_stripes.png","8","76","color,shape,pattern","57","1",""
"null","328503","HierDyexca327p","sub13","01","07","feedback","test","null","","","na","","57","",""
"746.3999999761581","329251","HierDyexca327p","sub13","01","07","rl","test","83","img/b_c_stripes.png","2","83","color,shape,pattern","58","1",""
"null","330261","HierDyexca327p","sub13","01","07","feedback","test","null","","","na","","58","",""
"787.8000000119209","331050","HierDyexca327p","sub13","01","07","rl","test","75","img/r_s_dots.png","7","75","color,shape,pattern","59","1",""
"null","332069","HierDyexca327p","sub13","01","07","feedback","test","null","","","na","","59","",""
"804.8000000119209","332875","HierDyexca327p","sub13","01","07","rl","test","72","img/r_c_dots.png","5","72","color,shape,pattern","60","1",""
"null","333890","HierDyexca327p","sub13","01","07","feedback","test","null","","","na","","60","",""
"826.3000000119209","334717","HierDyexca327p","sub13","01","07","rl","test","70","img/b_s_stripes.png","4","70","color,shape,pattern","61","1",""
"null","335721","HierDyexca327p","sub13","01","07","feedback","test","null","","","na","","61","",""
"628","336350","HierDyexca327p","sub13","01","07","rl","test","76","img/r_s_stripes.png","8","76","color,shape,pattern","62","1",""
"null","337374","HierDyexca327p","sub13","01","07","feedback","test","null","","","na","","62","",""
"755","338130","HierDyexca327p","sub13","01","07","rl","test","65","img/b_c_dots.png","1","65","color,shape,pattern","63","1",""
"null","339143","HierDyexca327p","sub13","01","07","feedback","test","null","","","na","","63","",""
"878.8000000119209","340023","HierDyexca327p","sub13","01","07","rl","test","68","img/b_s_dots.png","3","68","color,shape,pattern","64","1",""
"null","341038","HierDyexca327p","sub13","01","07","feedback","test","null","","","na","","64","",""
"572.3999999761581","341612","HierDyexca327p","sub13","01","07","rl","test","76","img/r_s_stripes.png","8","76","color,shape,pattern","65","1",""
"null","342629","HierDyexca327p","sub13","01","07","feedback","test","null","","","na","","65","",""
"1106","343736","HierDyexca327p","sub13","01","07","rl","test","68","img/b_s_dots.png","3","68","color,shape,pattern","66","1",""
"null","344763","HierDyexca327p","sub13","01","07","feedback","test","null","","","na","","66","",""
"726.7999999523163","345492","HierDyexca327p","sub13","01","07","rl","test","74","img/r_c_stripes.png","6","74","color,shape,pattern","67","1",""
"null","346504","HierDyexca327p","sub13","01","07","feedback","test","null","","","na","","67","",""
"708.1999999880791","347213","HierDyexca327p","sub13","01","07","rl","test","83","img/b_c_stripes.png","2","83","color,shape,pattern","68","1",""
"null","348228","HierDyexca327p","sub13","01","07","feedback","test","null","","","na","","68","",""
"439.7999999523163","348669","HierDyexca327p","sub13","01","07","rl","test","65","img/b_c_dots.png","1","65","color,shape,pattern","69","1",""
"null","349672","HierDyexca327p","sub13","01","07","feedback","test","null","","","na","","69","",""
"800.3000000119209","350473","HierDyexca327p","sub13","01","07","rl","test","70","img/b_s_stripes.png","4","70","color,shape,pattern","70","1",""
"null","351491","HierDyexca327p","sub13","01","07","feedback","test","null","","","na","","70","",""
"844.5999999642372","352337","HierDyexca327p","sub13","01","07","rl","test","75","img/r_s_dots.png","7","75","color,shape,pattern","71","1",""
"null","353352","HierDyexca327p","sub13","01","07","feedback","test","null","","","na","","71","",""
"713.5","354067","HierDyexca327p","sub13","01","07","rl","test","76","img/r_s_stripes.png","8","76","color,shape,pattern","72","1",""
"null","355078","HierDyexca327p","sub13","01","07","feedback","test","null","","","na","","72","",""
"790.1000000238419","355869","HierDyexca327p","sub13","01","07","rl","test","83","img/b_c_stripes.png","2","83","color,shape,pattern","73","1",""
"null","356874","HierDyexca327p","sub13","01","07","feedback","test","null","","","na","","73","",""
"712.8000000119209","357588","HierDyexca327p","sub13","01","07","rl","test","72","img/r_c_dots.png","5","72","color,shape,pattern","74","1",""
"null","358602","HierDyexca327p","sub13","01","07","feedback","test","null","","","na","","74","",""
"1357.300000011921","359960","HierDyexca327p","sub13","01","07","rl","test","72","img/r_c_dots.png","5","72","color,shape,pattern","75","1",""
"null","360972","HierDyexca327p","sub13","01","07","feedback","test","null","","","na","","75","",""
"780.3000000119209","361753","HierDyexca327p","sub13","01","07","rl","test","65","img/b_c_dots.png","1","65","color,shape,pattern","76","1",""
"null","362762","HierDyexca327p","sub13","01","07","feedback","test","null","","","na","","76","",""
"753.7000000476837","363517","HierDyexca327p","sub13","01","07","rl","test","74","img/r_c_stripes.png","6","74","color,shape,pattern","77","1",""
"null","364527","HierDyexca327p","sub13","01","07","feedback","test","null","","","na","","77","",""
"626","365154","HierDyexca327p","sub13","01","07","rl","test","70","img/b_s_stripes.png","4","70","color,shape,pattern","78","1",""
"null","366172","HierDyexca327p","sub13","01","07","feedback","test","null","","","na","","78","",""
"770.5999999642372","366944","HierDyexca327p","sub13","01","07","rl","test","68","img/b_s_dots.png","3","68","color,shape,pattern","79","1",""
"null","367961","HierDyexca327p","sub13","01","07","feedback","test","null","","","na","","79","",""
"703.8999999761581","368666","HierDyexca327p","sub13","01","07","rl","test","72","img/r_c_dots.png","5","72","color,shape,pattern","80","1",""
"null","369677","HierDyexca327p","sub13","01","07","feedback","test","null","","","na","","80","",""
"737.6999999880791","370416","HierDyexca327p","sub13","01","07","rl","test","75","img/r_s_dots.png","7","75","color,shape,pattern","81","1",""
"null","371433","HierDyexca327p","sub13","01","07","feedback","test","null","","","na","","81","",""
"649.4000000357628","372083","HierDyexca327p","sub13","01","07","rl","test","70","img/b_s_stripes.png","4","70","color,shape,pattern","82","1",""
"null","373094","HierDyexca327p","sub13","01","07","feedback","test","null","","","na","","82","",""
"836.8999999761581","373931","HierDyexca327p","sub13","01","07","rl","test","74","img/r_c_stripes.png","6","74","color,shape,pattern","83","1",""
"null","374936","HierDyexca327p","sub13","01","07","feedback","test","null","","","na","","83","",""
"768","375705","HierDyexca327p","sub13","01","07","rl","test","75","img/r_s_dots.png","7","75","color,shape,pattern","84","1",""
"null","376714","HierDyexca327p","sub13","01","07","feedback","test","null","","","na","","84","",""
"878.8000000119209","377594","HierDyexca327p","sub13","01","07","rl","test","83","img/b_c_stripes.png","2","83","color,shape,pattern","85","1",""
"null","378612","HierDyexca327p","sub13","01","07","feedback","test","null","","","na","","85","",""
"720.5","379333","HierDyexca327p","sub13","01","07","rl","test","70","img/r_s_stripes.png","8","76","color,shape,pattern","86","0",""
"null","380361","HierDyexca327p","sub13","01","07","feedback","test","null","","","na","","86","",""
"1528.699999988079","381891","HierDyexca327p","sub13","01","07","rl","test","65","img/b_c_dots.png","1","65","color,shape,pattern","87","1",""
"null","382902","HierDyexca327p","sub13","01","07","feedback","test","null","","","na","","87","",""
"806.7000000476837","383710","HierDyexca327p","sub13","01","07","rl","test","68","img/b_s_dots.png","3","68","color,shape,pattern","88","1",""
"null","384721","HierDyexca327p","sub13","01","07","feedback","test","null","","","na","","88","",""
"665.1999999880791","385388","HierDyexca327p","sub13","01","07","rl","test","65","img/b_c_dots.png","1","65","color,shape,pattern","89","1",""
"null","386402","HierDyexca327p","sub13","01","07","feedback","test","null","","","na","","89","",""
"706.3999999761581","387109","HierDyexca327p","sub13","01","07","rl","test","70","img/b_s_stripes.png","4","70","color,shape,pattern","90","1",""
"null","388132","HierDyexca327p","sub13","01","07","feedback","test","null","","","na","","90","",""
"1680.1000000238419","389813","HierDyexca327p","sub13","01","07","rl","test","83","img/b_c_stripes.png","2","83","color,shape,pattern","91","1",""
"null","390825","HierDyexca327p","sub13","01","07","feedback","test","null","","","na","","91","",""
"625.8000000119209","391452","HierDyexca327p","sub13","01","07","rl","test","83","img/b_c_stripes.png","2","83","color,shape,pattern","92","1",""
"null","392458","HierDyexca327p","sub13","01","07","feedback","test","null","","","na","","92","",""
"599","393059","HierDyexca327p","sub13","01","07","rl","test","76","img/r_s_stripes.png","8","76","color,shape,pattern","93","1",""
"null","394068","HierDyexca327p","sub13","01","07","feedback","test","null","","","na","","93","",""
"767.6000000238419","394837","HierDyexca327p","sub13","01","07","rl","test","74","img/r_c_stripes.png","6","74","color,shape,pattern","94","1",""
"null","395842","HierDyexca327p","sub13","01","07","feedback","test","null","","","na","","94","",""
"768.6000000238419","396612","HierDyexca327p","sub13","01","07","rl","test","72","img/r_c_dots.png","5","72","color,shape,pattern","95","1",""
"null","397622","HierDyexca327p","sub13","01","07","feedback","test","null","","","na","","95","",""
"630.5","398254","HierDyexca327p","sub13","01","07","rl","test","74","img/r_c_stripes.png","6","74","color,shape,pattern","96","1",""
"null","399273","HierDyexca327p","sub13","01","07","feedback","test","null","","","na","","96","",""
"668.1999999880791","399942","HierDyexca327p","sub13","01","07","rl","test","75","img/r_s_dots.png","7","75","color,shape,pattern","97","1",""
"null","400954","HierDyexca327p","sub13","01","07","feedback","test","null","","","na","","97","",""
"725.3999999761581","401680","HierDyexca327p","sub13","01","07","rl","test","76","img/r_s_stripes.png","8","76","color,shape,pattern","98","1",""
"null","402693","HierDyexca327p","sub13","01","07","feedback","test","null","","","na","","98","",""
"1306.699999988079","404001","HierDyexca327p","sub13","01","07","rl","test","68","img/b_s_dots.png","3","68","color,shape,pattern","99","1",""
"null","405022","HierDyexca327p","sub13","01","07","feedback","test","null","","","na","","99","",""
"557","405581","HierDyexca327p","sub13","01","07","rl","test","68","img/b_s_dots.png","3","68","color,shape,pattern","100","1",""
"null","406605","HierDyexca327p","sub13","01","07","feedback","test","null","","","na","","100","",""
"1089.199999988079","407695","HierDyexca327p","sub13","01","07","rl","test","75","img/r_s_dots.png","7","75","color,shape,pattern","101","1",""
"null","408706","HierDyexca327p","sub13","01","07","feedback","test","null","","","na","","101","",""
"666.1000000238419","409374","HierDyexca327p","sub13","01","07","rl","test","72","img/r_c_dots.png","5","72","color,shape,pattern","102","1",""
"null","410392","HierDyexca327p","sub13","01","07","feedback","test","null","","","na","","102","",""
"814.1000000238419","411208","HierDyexca327p","sub13","01","07","rl","test","65","img/b_c_dots.png","1","65","color,shape,pattern","103","1",""
"null","412224","HierDyexca327p","sub13","01","07","feedback","test","null","","","na","","103","",""
"673.8999999761581","412899","HierDyexca327p","sub13","01","07","rl","test","75","img/r_s_dots.png","7","75","color,shape,pattern","104","1",""
"null","413916","HierDyexca327p","sub13","01","07","feedback","test","null","","","na","","104","",""
"650.1000000238419","414567","HierDyexca327p","sub13","01","07","rl","test","70","img/b_s_stripes.png","4","70","color,shape,pattern","105","1",""
"null","415592","HierDyexca327p","sub13","01","07","feedback","test","null","","","na","","105","",""
"877.3000000119209","416471","HierDyexca327p","sub13","01","07","rl","test","74","img/r_c_stripes.png","6","74","color,shape,pattern","106","1",""
"null","417482","HierDyexca327p","sub13","01","07","feedback","test","null","","","na","","106","",""
"1117.699999988079","418601","HierDyexca327p","sub13","01","07","rl","test","83","img/b_c_stripes.png","2","83","color,shape,pattern","107","1",""
"null","419614","HierDyexca327p","sub13","01","07","feedback","test","null","","","na","","107","",""
"660","420275","HierDyexca327p","sub13","01","07","rl","test","65","img/b_c_dots.png","1","65","color,shape,pattern","108","1",""
"null","421282","HierDyexca327p","sub13","01","07","feedback","test","null","","","na","","108","",""
"860.7000000476837","422144","HierDyexca327p","sub13","01","07","rl","test","70","img/b_s_stripes.png","4","70","color,shape,pattern","109","1",""
"null","423166","HierDyexca327p","sub13","01","07","feedback","test","null","","","na","","109","",""
"694","423862","HierDyexca327p","sub13","01","07","rl","test","72","img/r_c_dots.png","5","72","color,shape,pattern","110","1",""
"null","424871","HierDyexca327p","sub13","01","07","feedback","test","null","","","na","","110","",""
"550.3999999761581","425422","HierDyexca327p","sub13","01","07","rl","test","76","img/r_s_stripes.png","8","76","color,shape,pattern","111","1",""
"null","426444","HierDyexca327p","sub13","01","07","feedback","test","null","","","na","","111","",""
"1030.8999999761581","427477","HierDyexca327p","sub13","01","07","rl","test","68","img/b_s_dots.png","3","68","color,shape,pattern","112","1",""
"null","428493","HierDyexca327p","sub13","01","07","feedback","test","null","","","na","","112","",""
"695.9000000357628","429190","HierDyexca327p","sub13","01","07","rl","test","72","img/r_c_dots.png","5","72","color,shape,pattern","113","1",""
"null","430212","HierDyexca327p","sub13","01","07","feedback","test","null","","","na","","113","",""
"2006.8999999761581","432220","HierDyexca327p","sub13","01","07","rl","test","68","img/b_s_dots.png","3","68","color,shape,pattern","114","1",""
"null","433232","HierDyexca327p","sub13","01","07","feedback","test","null","","","na","","114","",""
"654.4000000357628","433888","HierDyexca327p","sub13","01","07","rl","test","74","img/r_c_stripes.png","6","74","color,shape,pattern","115","1",""
"null","434898","HierDyexca327p","sub13","01","07","feedback","test","null","","","na","","115","",""
"646.0999999642372","435545","HierDyexca327p","sub13","01","07","rl","test","76","img/r_s_stripes.png","8","76","color,shape,pattern","116","1",""
"null","436552","HierDyexca327p","sub13","01","07","feedback","test","null","","","na","","116","",""
"1253.1000000238419","437807","HierDyexca327p","sub13","01","07","rl","test","83","img/b_c_stripes.png","2","83","color,shape,pattern","117","1",""
"null","438831","HierDyexca327p","sub13","01","07","feedback","test","null","","","na","","117","",""
"833.1000000238419","439665","HierDyexca327p","sub13","01","07","rl","test","75","img/r_s_dots.png","7","75","color,shape,pattern","118","1",""
"null","440685","HierDyexca327p","sub13","01","07","feedback","test","null","","","na","","118","",""
"1028.2999999523163","441715","HierDyexca327p","sub13","01","07","rl","test","72","img/r_c_dots.png","5","72","color,shape,pattern","119","1",""
"null","442719","HierDyexca327p","sub13","01","07","feedback","test","null","","","na","","119","",""
"773.3999999761581","443494","HierDyexca327p","sub13","01","07","rl","test","70","img/b_s_stripes.png","4","70","color,shape,pattern","120","1",""
"null","444512","HierDyexca327p","sub13","01","07","feedback","test","null","","","na","","120","",""
"679.3000000119209","445193","HierDyexca327p","sub13","01","07","rl","test","65","img/b_c_dots.png","1","65","color,shape,pattern","121","1",""
"null","446214","HierDyexca327p","sub13","01","07","feedback","test","null","","","na","","121","",""
"766.1999999880791","446982","HierDyexca327p","sub13","01","07","rl","test","65","img/b_c_dots.png","1","65","color,shape,pattern","122","1",""
"null","447987","HierDyexca327p","sub13","01","07","feedback","test","null","","","na","","122","",""
"640","448628","HierDyexca327p","sub13","01","07","rl","test","70","img/b_s_stripes.png","4","70","color,shape,pattern","123","1",""
"null","449633","HierDyexca327p","sub13","01","07","feedback","test","null","","","na","","123","",""
"608.5","450243","HierDyexca327p","sub13","01","07","rl","test","76","img/r_s_stripes.png","8","76","color,shape,pattern","124","1",""
"null","451252","HierDyexca327p","sub13","01","07","feedback","test","null","","","na","","124","",""
"530.5","451784","HierDyexca327p","sub13","01","07","rl","test","75","img/r_s_dots.png","7","75","color,shape,pattern","125","1",""
"null","452802","HierDyexca327p","sub13","01","07","feedback","test","null","","","na","","125","",""
"1238.2000000476837","454041","HierDyexca327p","sub13","01","07","rl","test","83","img/b_c_stripes.png","2","83","color,shape,pattern","126","1",""
"null","455058","HierDyexca327p","sub13","01","07","feedback","test","null","","","na","","126","",""
"809.1999999880791","455869","HierDyexca327p","sub13","01","07","rl","test","74","img/r_c_stripes.png","6","74","color,shape,pattern","127","1",""
"null","456873","HierDyexca327p","sub13","01","07","feedback","test","null","","","na","","127","",""
"748.5999999642372","457623","HierDyexca327p","sub13","01","07","rl","test","68","img/b_s_dots.png","3","68","color,shape,pattern","128","1",""
"null","458642","HierDyexca327p","sub13","01","07","feedback","test","null","","","na","","128","",""
"1812.300000011921","460456","HierDyexca327p","sub13","01","07","rl","test","68","img/b_s_dots.png","3","68","color,shape,pattern","129","1",""
"null","461470","HierDyexca327p","sub13","01","07","feedback","test","null","","","na","","129","",""
"661.9000000357628","462133","HierDyexca327p","sub13","01","07","rl","test","76","img/r_s_stripes.png","8","76","color,shape,pattern","130","1",""
"null","463153","HierDyexca327p","sub13","01","07","feedback","test","null","","","na","","130","",""
"959.0999999642372","464114","HierDyexca327p","sub13","01","07","rl","test","74","img/r_c_stripes.png","6","74","color,shape,pattern","131","1",""
"null","465122","HierDyexca327p","sub13","01","07","feedback","test","null","","","na","","131","",""
"757.8999999761581","465881","HierDyexca327p","sub13","01","07","rl","test","72","img/r_c_dots.png","5","72","color,shape,pattern","132","1",""
"null","466894","HierDyexca327p","sub13","01","07","feedback","test","null","","","na","","132","",""
"826.3999999761581","467722","HierDyexca327p","sub13","01","07","rl","test","65","img/b_c_dots.png","1","65","color,shape,pattern","133","1",""
"null","468738","HierDyexca327p","sub13","01","07","feedback","test","null","","","na","","133","",""
"630.2999999523163","469370","HierDyexca327p","sub13","01","07","rl","test","75","img/r_s_dots.png","7","75","color,shape,pattern","134","1",""
"null","470389","HierDyexca327p","sub13","01","07","feedback","test","null","","","na","","134","",""
"688.7000000476837","471079","HierDyexca327p","sub13","01","07","rl","test","65","img/b_c_dots.png","1","65","color,shape,pattern","135","1",""
"null","472093","HierDyexca327p","sub13","01","07","feedback","test","null","","","na","","135","",""
"834","472928","HierDyexca327p","sub13","01","07","rl","test","83","img/b_c_stripes.png","2","83","color,shape,pattern","136","1",""
"null","473943","HierDyexca327p","sub13","01","07","feedback","test","null","","","na","","136","",""
"667.8000000119209","474611","HierDyexca327p","sub13","01","07","rl","test","65","img/b_s_stripes.png","4","70","color,shape,pattern","137","0",""
"null","475633","HierDyexca327p","sub13","01","07","feedback","test","null","","","na","","137","",""
"1031.7000000476837","476666","HierDyexca327p","sub13","01","07","rl","test","75","img/r_s_dots.png","7","75","color,shape,pattern","138","1",""
"null","477672","HierDyexca327p","sub13","01","07","feedback","test","null","","","na","","138","",""
"680.5999999642372","478354","HierDyexca327p","sub13","01","07","rl","test","70","img/b_s_stripes.png","4","70","color,shape,pattern","139","1",""
"null","479375","HierDyexca327p","sub13","01","07","feedback","test","null","","","na","","139","",""
"909","480285","HierDyexca327p","sub13","01","07","rl","test","72","img/r_c_dots.png","5","72","color,shape,pattern","140","1",""
"null","481298","HierDyexca327p","sub13","01","07","feedback","test","null","","","na","","140","",""
"1215.699999988079","482515","HierDyexca327p","sub13","01","07","rl","test","68","img/b_s_dots.png","3","68","color,shape,pattern","141","1",""
"null","483525","HierDyexca327p","sub13","01","07","feedback","test","null","","","na","","141","",""
"767.1000000238419","484293","HierDyexca327p","sub13","01","07","rl","test","83","img/b_c_stripes.png","2","83","color,shape,pattern","142","1",""
"null","485311","HierDyexca327p","sub13","01","07","feedback","test","null","","","na","","142","",""
"608.5","485920","HierDyexca327p","sub13","01","07","rl","test","76","img/r_s_stripes.png","8","76","color,shape,pattern","143","1",""
"null","486942","HierDyexca327p","sub13","01","07","feedback","test","null","","","na","","143","",""
"822.6000000238419","487765","HierDyexca327p","sub13","01","07","rl","test","68","img/b_s_dots.png","3","68","color,shape,pattern","144","1",""
"null","488782","HierDyexca327p","sub13","01","07","feedback","test","null","","","na","","144","",""
"1032.1000000238419","489816","HierDyexca327p","sub13","01","07","rl","test","75","img/r_s_dots.png","7","75","color,shape,pattern","145","1",""
"null","490829","HierDyexca327p","sub13","01","07","feedback","test","null","","","na","","145","",""
"576.7000000476837","491407","HierDyexca327p","sub13","01","07","rl","test","74","img/r_c_stripes.png","6","74","color,shape,pattern","146","1",""
"null","492433","HierDyexca327p","sub13","01","07","feedback","test","null","","","na","","146","",""
"939","493373","HierDyexca327p","sub13","01","07","rl","test","83","img/b_c_stripes.png","2","83","color,shape,pattern","147","1",""
"null","494378","HierDyexca327p","sub13","01","07","feedback","test","null","","","na","","147","",""
"1305.5","495685","HierDyexca327p","sub13","01","07","rl","test","65","img/r_c_dots.png","5","72","color,shape,pattern","148","0",""
"null","496694","HierDyexca327p","sub13","01","07","feedback","test","null","","","na","","148","",""
"697.1000000238419","497393","HierDyexca327p","sub13","01","07","rl","test","74","img/r_c_stripes.png","6","74","color,shape,pattern","149","1",""
"null","498415","HierDyexca327p","sub13","01","07","feedback","test","null","","","na","","149","",""
"897.1000000238419","499313","HierDyexca327p","sub13","01","07","rl","test","65","img/b_c_dots.png","1","65","color,shape,pattern","150","1",""
"null","500335","HierDyexca327p","sub13","01","07","feedback","test","null","","","na","","150","",""
"573.7999999523163","500910","HierDyexca327p","sub13","01","07","rl","test","65","img/b_c_dots.png","1","65","color,shape,pattern","151","1",""
"null","501914","HierDyexca327p","sub13","01","07","feedback","test","null","","","na","","151","",""
"1397","503312","HierDyexca327p","sub13","01","07","rl","test","76","img/r_s_stripes.png","8","76","color,shape,pattern","152","1",""
"null","504323","HierDyexca327p","sub13","01","07","feedback","test","null","","","na","","152","",""
"761","505085","HierDyexca327p","sub13","01","07","rl","test","70","img/b_s_stripes.png","4","70","color,shape,pattern","153","1",""
"null","506101","HierDyexca327p","sub13","01","07","feedback","test","null","","","na","","153","",""
"867.6999999880791","506970","HierDyexca327p","sub13","01","07","rl","test","74","img/r_c_stripes.png","6","74","color,shape,pattern","154","1",""
"null","507989","HierDyexca327p","sub13","01","07","feedback","test","null","","","na","","154","",""
"749.3999999761581","508739","HierDyexca327p","sub13","01","07","rl","test","75","img/r_s_dots.png","7","75","color,shape,pattern","155","1",""
"null","509753","HierDyexca327p","sub13","01","07","feedback","test","null","","","na","","155","",""
"884.8999999761581","510639","HierDyexca327p","sub13","01","07","rl","test","68","img/b_s_dots.png","3","68","color,shape,pattern","156","1",""
"null","511662","HierDyexca327p","sub13","01","07","feedback","test","null","","","na","","156","",""
"2130.600000023842","513794","HierDyexca327p","sub13","01","07","rl","test","70","img/b_s_stripes.png","4","70","color,shape,pattern","157","1",""
"null","514803","HierDyexca327p","sub13","01","07","feedback","test","null","","","na","","157","",""
"572.3000000119209","515377","HierDyexca327p","sub13","01","07","rl","test","76","img/r_s_stripes.png","8","76","color,shape,pattern","158","1",""
"null","516387","HierDyexca327p","sub13","01","07","feedback","test","null","","","na","","158","",""
"636.7999999523163","517025","HierDyexca327p","sub13","01","07","rl","test","72","img/r_c_dots.png","5","72","color,shape,pattern","159","1",""
"null","518037","HierDyexca327p","sub13","01","07","feedback","test","null","","","na","","159","",""
"1242","519280","HierDyexca327p","sub13","01","07","rl","test","72","img/r_c_dots.png","5","72","color,shape,pattern","160","1",""
"null","520294","HierDyexca327p","sub13","01","07","feedback","test","null","","","na","","160","",""
"875.2000000476837","521170","HierDyexca327p","sub13","01","07","rl","test","83","img/b_c_stripes.png","2","83","color,shape,pattern","161","1",""
"null","522173","HierDyexca327p","sub13","01","07","feedback","test","null","","","na","","161","",""
"657.9000000357628","522832","HierDyexca327p","sub13","01","07","rl","test","75","img/r_s_dots.png","7","75","color,shape,pattern","162","1",""
"null","523846","HierDyexca327p","sub13","01","07","feedback","test","null","","","na","","162","",""
"1142.0999999642372","524989","HierDyexca327p","sub13","01","07","rl","test","83","img/b_c_stripes.png","2","83","color,shape,pattern","163","1",""
"null","526004","HierDyexca327p","sub13","01","07","feedback","test","null","","","na","","163","",""
"776.6999999880791","526782","HierDyexca327p","sub13","01","07","rl","test","68","img/b_s_dots.png","3","68","color,shape,pattern","164","1",""
"null","527789","HierDyexca327p","sub13","01","07","feedback","test","null","","","na","","164","",""
"821.4000000357628","528611","HierDyexca327p","sub13","01","07","rl","test","74","img/r_c_stripes.png","6","74","color,shape,pattern","165","1",""
"null","529628","HierDyexca327p","sub13","01","07","feedback","test","null","","","na","","165","",""
"946.9000000357628","530576","HierDyexca327p","sub13","01","07","rl","test","65","img/b_c_dots.png","1","65","color,shape,pattern","166","1",""
"null","531598","HierDyexca327p","sub13","01","07","feedback","test","null","","","na","","166","",""
"769.9000000357628","532369","HierDyexca327p","sub13","01","07","rl","test","70","img/b_s_stripes.png","4","70","color,shape,pattern","167","1",""
"null","533377","HierDyexca327p","sub13","01","07","feedback","test","null","","","na","","167","",""
"684.3999999761581","534062","HierDyexca327p","sub13","01","07","rl","test","70","img/b_s_stripes.png","4","70","color,shape,pattern","168","1",""
"null","535083","HierDyexca327p","sub13","01","07","feedback","test","null","","","na","","168","",""
"882.3000000119209","535966","HierDyexca327p","sub13","01","07","rl","test","76","img/r_s_stripes.png","8","76","color,shape,pattern","169","1",""
"null","536977","HierDyexca327p","sub13","01","07","feedback","test","null","","","na","","169","",""
"1345","538323","HierDyexca327p","sub13","01","07","rl","test","83","img/b_c_stripes.png","2","83","color,shape,pattern","170","1",""
"null","539330","HierDyexca327p","sub13","01","07","feedback","test","null","","","na","","170","",""
"990.8999999761581","540322","HierDyexca327p","sub13","01","07","rl","test","74","img/r_c_stripes.png","6","74","color,shape,pattern","171","1",""
"null","541333","HierDyexca327p","sub13","01","07","feedback","test","null","","","na","","171","",""
"979","542313","HierDyexca327p","sub13","01","07","rl","test","76","img/r_s_stripes.png","8","76","color,shape,pattern","172","1",""
"null","543324","HierDyexca327p","sub13","01","07","feedback","test","null","","","na","","172","",""
"719.8999999761581","544045","HierDyexca327p","sub13","01","07","rl","test","72","img/r_c_dots.png","5","72","color,shape,pattern","173","1",""
"null","545063","HierDyexca327p","sub13","01","07","feedback","test","null","","","na","","173","",""
"770.5","545834","HierDyexca327p","sub13","01","07","rl","test","75","img/r_s_dots.png","7","75","color,shape,pattern","174","1",""
"null","546843","HierDyexca327p","sub13","01","07","feedback","test","null","","","na","","174","",""
"609.5","547453","HierDyexca327p","sub13","01","07","rl","test","65","img/b_c_dots.png","1","65","color,shape,pattern","175","1",""
"null","548462","HierDyexca327p","sub13","01","07","feedback","test","null","","","na","","175","",""
"657.0999999642372","549120","HierDyexca327p","sub13","01","07","rl","test","74","img/r_c_stripes.png","6","74","color,shape,pattern","176","1",""
"null","550128","HierDyexca327p","sub13","01","07","feedback","test","null","","","na","","176","",""
"668.5","550798","HierDyexca327p","sub13","01","07","rl","test","65","img/b_c_dots.png","1","65","color,shape,pattern","177","1",""
"null","551814","HierDyexca327p","sub13","01","07","feedback","test","null","","","na","","177","",""
"1260.1000000238419","553075","HierDyexca327p","sub13","01","07","rl","test","75","img/r_s_dots.png","7","75","color,shape,pattern","178","1",""
"null","554095","HierDyexca327p","sub13","01","07","feedback","test","null","","","na","","178","",""
"1134.0999999642372","555230","HierDyexca327p","sub13","01","07","rl","test","68","img/b_s_dots.png","3","68","color,shape,pattern","179","1",""
"null","556243","HierDyexca327p","sub13","01","07","feedback","test","null","","","na","","179","",""
"1567.6000000238419","557812","HierDyexca327p","sub13","01","07","rl","test","83","img/b_c_stripes.png","2","83","color,shape,pattern","180","1",""
"null","558827","HierDyexca327p","sub13","01","07","feedback","test","null","","","na","","180","",""
"587.6000000238419","559415","HierDyexca327p","sub13","01","07","rl","test","70","img/b_s_stripes.png","4","70","color,shape,pattern","181","1",""
"null","560433","HierDyexca327p","sub13","01","07","feedback","test","null","","","na","","181","",""
"996.1000000238419","561430","HierDyexca327p","sub13","01","07","rl","test","72","img/r_c_dots.png","5","72","color,shape,pattern","182","1",""
"null","562454","HierDyexca327p","sub13","01","07","feedback","test","null","","","na","","182","",""
"1371.8999999761581","563827","HierDyexca327p","sub13","01","07","rl","test","68","img/b_s_dots.png","3","68","color,shape,pattern","183","1",""
"null","564832","HierDyexca327p","sub13","01","07","feedback","test","null","","","na","","183","",""
"606.1999999880791","565440","HierDyexca327p","sub13","01","07","rl","test","76","img/r_s_stripes.png","8","76","color,shape,pattern","184","1",""
"null","566448","HierDyexca327p","sub13","01","07","feedback","test","null","","","na","","184","",""
"593.4000000357628","567043","HierDyexca327p","sub13","01","07","rl","test","76","img/r_s_stripes.png","8","76","color,shape,pattern","185","1",""
"null","568049","HierDyexca327p","sub13","01","07","feedback","test","null","","","na","","185","",""
"1569.0999999642372","569620","HierDyexca327p","sub13","01","07","rl","test","83","img/b_c_stripes.png","2","83","color,shape,pattern","186","1",""
"null","570634","HierDyexca327p","sub13","01","07","feedback","test","null","","","na","","186","",""
"904.1000000238419","571539","HierDyexca327p","sub13","01","07","rl","test","72","img/r_c_dots.png","5","72","color,shape,pattern","187","1",""
"null","572550","HierDyexca327p","sub13","01","07","feedback","test","null","","","na","","187","",""
"687.1000000238419","573238","HierDyexca327p","sub13","01","07","rl","test","70","img/b_s_stripes.png","4","70","color,shape,pattern","188","1",""
"null","574253","HierDyexca327p","sub13","01","07","feedback","test","null","","","na","","188","",""
"637.6999999880791","574892","HierDyexca327p","sub13","01","07","rl","test","72","img/r_c_dots.png","5","72","color,shape,pattern","189","1",""
"null","575908","HierDyexca327p","sub13","01","07","feedback","test","null","","","na","","189","",""
"709.5999999642372","576619","HierDyexca327p","sub13","01","07","rl","test","74","img/r_c_stripes.png","6","74","color,shape,pattern","190","1",""
"null","577634","HierDyexca327p","sub13","01","07","feedback","test","null","","","na","","190","",""
"702.6999999880791","578338","HierDyexca327p","sub13","01","07","rl","test","68","img/b_s_dots.png","3","68","color,shape,pattern","191","1",""
"null","579353","HierDyexca327p","sub13","01","07","feedback","test","null","","","na","","191","",""
"1105","580459","HierDyexca327p","sub13","01","07","rl","test","65","img/b_c_dots.png","1","65","color,shape,pattern","192","1",""
"null","581474","HierDyexca327p","sub13","01","07","feedback","test","null","","","na","","192","",""
"1324.199999988079","582800","HierDyexca327p","sub13","01","07","rl","test","75","img/r_s_dots.png","7","75","color,shape,pattern","193","1",""
"null","583823","HierDyexca327p","sub13","01","07","feedback","test","null","","","na","","193","",""
"1322.8999999761581","585146","HierDyexca327p","sub13","01","07","rl","test","68","img/b_s_dots.png","3","68","color,shape,pattern","194","1",""
"null","586155","HierDyexca327p","sub13","01","07","feedback","test","null","","","na","","194","",""
"1327.0999999642372","587483","HierDyexca327p","sub13","01","07","rl","test","65","img/b_c_dots.png","1","65","color,shape,pattern","195","1",""
"null","588487","HierDyexca327p","sub13","01","07","feedback","test","null","","","na","","195","",""
"1320.3999999761581","589809","HierDyexca327p","sub13","01","07","rl","test","74","img/r_c_stripes.png","6","74","color,shape,pattern","196","1",""
"null","590822","HierDyexca327p","sub13","01","07","feedback","test","null","","","na","","196","",""
"734.6999999880791","591558","HierDyexca327p","sub13","01","07","rl","test","75","img/r_s_stripes.png","8","76","color,shape,pattern","197","0",""
"null","592572","HierDyexca327p","sub13","01","07","feedback","test","null","","","na","","197","",""
"772.8999999761581","593346","HierDyexca327p","sub13","01","07","rl","test","70","img/b_s_stripes.png","4","70","color,shape,pattern","198","1",""
"null","594363","HierDyexca327p","sub13","01","07","feedback","test","null","","","na","","198","",""
"1339","595703","HierDyexca327p","sub13","01","07","rl","test","68","img/b_c_stripes.png","2","83","color,shape,pattern","199","0",""
"null","596713","HierDyexca327p","sub13","01","07","feedback","test","null","","","na","","199","",""
"882.5","597597","HierDyexca327p","sub13","01","07","rl","test","75","img/r_s_dots.png","7","75","color,shape,pattern","200","1",""
"null","598608","HierDyexca327p","sub13","01","07","feedback","test","null","","","na","","200","",""
"1012","599621","HierDyexca327p","sub13","01","07","rl","test","83","img/b_c_stripes.png","2","83","color,shape,pattern","201","1",""
"null","600626","HierDyexca327p","sub13","01","07","feedback","test","null","","","na","","201","",""
"732.1999999880791","601360","HierDyexca327p","sub13","01","07","rl","test","70","img/b_s_stripes.png","4","70","color,shape,pattern","202","1",""
"null","602373","HierDyexca327p","sub13","01","07","feedback","test","null","","","na","","202","",""
"1095.3999999761581","603469","HierDyexca327p","sub13","01","07","rl","test","68","img/b_s_dots.png","3","68","color,shape,pattern","203","1",""
"null","604475","HierDyexca327p","sub13","01","07","feedback","test","null","","","na","","203","",""
"803.8999999761581","605280","HierDyexca327p","sub13","01","07","rl","test","72","img/r_c_dots.png","5","72","color,shape,pattern","204","1",""
"null","606294","HierDyexca327p","sub13","01","07","feedback","test","null","","","na","","204","",""
"747.0999999642372","607043","HierDyexca327p","sub13","01","07","rl","test","76","img/r_s_stripes.png","8","76","color,shape,pattern","205","1",""
"null","608063","HierDyexca327p","sub13","01","07","feedback","test","null","","","na","","205","",""
"912.6999999880791","608976","HierDyexca327p","sub13","01","07","rl","test","65","img/b_c_dots.png","1","65","color,shape,pattern","206","1",""
"null","609978","HierDyexca327p","sub13","01","07","feedback","test","null","","","na","","206","",""
"931.2999999523163","610911","HierDyexca327p","sub13","01","07","rl","test","70","img/b_s_stripes.png","4","70","color,shape,pattern","207","1",""
"null","611932","HierDyexca327p","sub13","01","07","feedback","test","null","","","na","","207","",""
"1077.4000000357628","613010","HierDyexca327p","sub13","01","07","rl","test","75","img/r_s_dots.png","7","75","color,shape,pattern","208","1",""
"null","614012","HierDyexca327p","sub13","01","07","feedback","test","null","","","na","","208","",""
"514.6000000238419","614528","HierDyexca327p","sub13","01","07","rl","test","75","img/r_s_dots.png","7","75","color,shape,pattern","209","1",""
"null","615543","HierDyexca327p","sub13","01","07","feedback","test","null","","","na","","209","",""
"867.6999999880791","616412","HierDyexca327p","sub13","01","07","rl","test","74","img/r_c_stripes.png","6","74","color,shape,pattern","210","1",""
"null","617428","HierDyexca327p","sub13","01","07","feedback","test","null","","","na","","210","",""
"495","617924","HierDyexca327p","sub13","01","07","rl","test","74","img/r_c_stripes.png","6","74","color,shape,pattern","211","1",""
"null","618928","HierDyexca327p","sub13","01","07","feedback","test","null","","","na","","211","",""
"593.1999999880791","619523","HierDyexca327p","sub13","01","07","rl","test","76","img/r_s_stripes.png","8","76","color,shape,pattern","212","1",""
"null","620528","HierDyexca327p","sub13","01","07","feedback","test","null","","","na","","212","",""
"816.5","621345","HierDyexca327p","sub13","01","07","rl","test","68","img/b_s_dots.png","3","68","color,shape,pattern","213","1",""
"null","622362","HierDyexca327p","sub13","01","07","feedback","test","null","","","na","","213","",""
"972.3000000119209","623335","HierDyexca327p","sub13","01","07","rl","test","83","img/b_c_stripes.png","2","83","color,shape,pattern","214","1",""
"null","624354","HierDyexca327p","sub13","01","07","feedback","test","null","","","na","","214","",""
"975.8999999761581","625331","HierDyexca327p","sub13","01","07","rl","test","72","img/r_c_dots.png","5","72","color,shape,pattern","215","1",""
"null","626336","HierDyexca327p","sub13","01","07","feedback","test","null","","","na","","215","",""
"761.3000000119209","627099","HierDyexca327p","sub13","01","07","rl","test","76","img/r_s_stripes.png","8","76","color,shape,pattern","216","1",""
"null","628114","HierDyexca327p","sub13","01","07","feedback","test","null","","","na","","216","",""
"912.3999999761581","629028","HierDyexca327p","sub13","01","07","rl","test","72","img/r_c_dots.png","5","72","color,shape,pattern","217","1",""
"null","630032","HierDyexca327p","sub13","01","07","feedback","test","null","","","na","","217","",""
"925.1000000238419","630958","HierDyexca327p","sub13","01","07","rl","test","65","img/b_c_dots.png","1","65","color,shape,pattern","218","1",""
"null","631983","HierDyexca327p","sub13","01","07","feedback","test","null","","","na","","218","",""
"747.5999999642372","632731","HierDyexca327p","sub13","01","07","rl","test","68","img/b_s_dots.png","3","68","color,shape,pattern","219","1",""
"null","633752","HierDyexca327p","sub13","01","07","feedback","test","null","","","na","","219","",""
"942.5999999642372","634696","HierDyexca327p","sub13","01","07","rl","test","74","img/r_c_stripes.png","6","74","color,shape,pattern","220","1",""
"null","635719","HierDyexca327p","sub13","01","07","feedback","test","null","","","na","","220","",""
"649.6000000238419","636369","HierDyexca327p","sub13","01","07","rl","test","70","img/b_s_stripes.png","4","70","color,shape,pattern","221","1",""
"null","637384","HierDyexca327p","sub13","01","07","feedback","test","null","","","na","","221","",""
"857.8000000119209","638242","HierDyexca327p","sub13","01","07","rl","test","75","img/r_s_dots.png","7","75","color,shape,pattern","222","1",""
"null","639252","HierDyexca327p","sub13","01","07","feedback","test","null","","","na","","222","",""
"682.3000000119209","639936","HierDyexca327p","sub13","01","07","rl","test","65","img/b_c_dots.png","1","65","color,shape,pattern","223","1",""
"null","640953","HierDyexca327p","sub13","01","07","feedback","test","null","","","na","","223","",""
"615.1000000238419","641569","HierDyexca327p","sub13","01","07","rl","test","70","img/b_s_stripes.png","4","70","color,shape,pattern","224","1",""
"null","642578","HierDyexca327p","sub13","01","07","feedback","test","null","","","na","","224","",""
"1261.300000011921","643841","HierDyexca327p","sub13","01","07","rl","test","83","img/b_c_stripes.png","2","83","color,shape,pattern","225","1",""
"null","644852","HierDyexca327p","sub13","01","07","feedback","test","null","","","na","","225","",""
"701.1000000238419","645554","HierDyexca327p","sub13","01","07","rl","test","76","img/r_s_stripes.png","8","76","color,shape,pattern","226","1",""
"null","646562","HierDyexca327p","sub13","01","07","feedback","test","null","","","na","","226","",""
"1004.8000000119209","647568","HierDyexca327p","sub13","01","07","rl","test","83","img/b_c_stripes.png","2","83","color,shape,pattern","227","1",""
"null","648574","HierDyexca327p","sub13","01","07","feedback","test","null","","","na","","227","",""
"751.8000000119209","649327","HierDyexca327p","sub13","01","07","rl","test","68","img/b_s_dots.png","3","68","color,shape,pattern","228","1",""
"null","650345","HierDyexca327p","sub13","01","07","feedback","test","null","","","na","","228","",""
"1210.8999999761581","651557","HierDyexca327p","sub13","01","07","rl","test","72","img/r_c_dots.png","5","72","color,shape,pattern","229","1",""
"null","652573","HierDyexca327p","sub13","01","07","feedback","test","null","","","na","","229","",""
"1972.3999999761581","654547","HierDyexca327p","sub13","01","07","rl","test","65","img/b_c_dots.png","1","65","color,shape,pattern","230","1",""
"null","655559","HierDyexca327p","sub13","01","07","feedback","test","null","","","na","","230","",""
"528.5","656089","HierDyexca327p","sub13","01","07","rl","test","65","img/b_c_dots.png","1","65","color,shape,pattern","231","1",""
"null","657104","HierDyexca327p","sub13","01","07","feedback","test","null","","","na","","231","",""
"723.3000000119209","657828","HierDyexca327p","sub13","01","07","rl","test","75","img/r_s_dots.png","7","75","color,shape,pattern","232","1",""
"null","658843","HierDyexca327p","sub13","01","07","feedback","test","null","","","na","","232","",""
"852.5999999642372","659697","HierDyexca327p","sub13","01","07","rl","test","72","img/r_c_dots.png","5","72","color,shape,pattern","233","1",""
"null","660710","HierDyexca327p","sub13","01","07","feedback","test","null","","","na","","233","",""
"815.3000000119209","661527","HierDyexca327p","sub13","01","07","rl","test","74","img/r_c_stripes.png","6","74","color,shape,pattern","234","1",""
"null","662543","HierDyexca327p","sub13","01","07","feedback","test","null","","","na","","234","",""
"1173.5","663718","HierDyexca327p","sub13","01","07","rl","test","83","img/b_c_stripes.png","2","83","color,shape,pattern","235","1",""
"null","664722","HierDyexca327p","sub13","01","07","feedback","test","null","","","na","","235","",""
"1716","666439","HierDyexca327p","sub13","01","07","rl","test","75","img/r_s_dots.png","7","75","color,shape,pattern","236","1",""
"null","667463","HierDyexca327p","sub13","01","07","feedback","test","null","","","na","","236","",""
"788.9000000357628","668254","HierDyexca327p","sub13","01","07","rl","test","74","img/r_c_stripes.png","6","74","color,shape,pattern","237","1",""
"null","669263","HierDyexca327p","sub13","01","07","feedback","test","null","","","na","","237","",""
"929","670193","HierDyexca327p","sub13","01","07","rl","test","72","img/r_c_dots.png","5","72","color,shape,pattern","238","1",""
"null","671213","HierDyexca327p","sub13","01","07","feedback","test","null","","","na","","238","",""
"580.8999999761581","671795","HierDyexca327p","sub13","01","07","rl","test","70","img/b_s_stripes.png","4","70","color,shape,pattern","239","1",""
"null","672813","HierDyexca327p","sub13","01","07","feedback","test","null","","","na","","239","",""
"1323.0999999642372","674137","HierDyexca327p","sub13","01","07","rl","test","68","img/b_s_dots.png","3","68","color,shape,pattern","240","1",""
"null","675143","HierDyexca327p","sub13","01","07","feedback","test","null","","","na","","240","",""
"1278.5999999642372","676423","HierDyexca327p","sub13","01","07","rl","test","76","img/r_s_stripes.png","8","76","color,shape,pattern","241","1",""
"null","677443","HierDyexca327p","sub13","01","07","feedback","test","null","","","na","","241","",""
"1185.6000000238419","678629","HierDyexca327p","sub13","01","07","rl","test","75","img/r_s_dots.png","7","75","color,shape,pattern","242","1",""
"null","679636","HierDyexca327p","sub13","01","07","feedback","test","null","","","na","","242","",""
"null","682153","HierDyexca327p","sub13","01","07","rl","test","null","img/b_s_dots.png","3","68","color,shape,pattern","243","0",""
"null","683170","HierDyexca327p","sub13","01","07","feedback","test","null","","","na","","243","",""
"1161","684333","HierDyexca327p","sub13","01","07","rl","test","74","img/r_c_stripes.png","6","74","color,shape,pattern","244","1",""
"null","685349","HierDyexca327p","sub13","01","07","feedback","test","null","","","na","","244","",""
"609.6999999880791","685959","HierDyexca327p","sub13","01","07","rl","test","70","img/b_s_stripes.png","4","70","color,shape,pattern","245","1",""
"null","686975","HierDyexca327p","sub13","01","07","feedback","test","null","","","na","","245","",""
"771.6000000238419","687747","HierDyexca327p","sub13","01","07","rl","test","65","img/b_c_dots.png","1","65","color,shape,pattern","246","1",""
"null","688757","HierDyexca327p","sub13","01","07","feedback","test","null","","","na","","246","",""
"709.1999999880791","689467","HierDyexca327p","sub13","01","07","rl","test","75","img/r_c_dots.png","5","72","color,shape,pattern","247","0",""
"null","690473","HierDyexca327p","sub13","01","07","feedback","test","null","","","na","","247","",""
"1821.3999999761581","692296","HierDyexca327p","sub13","01","07","rl","test","83","img/b_c_stripes.png","2","83","color,shape,pattern","248","1",""
"null","693315","HierDyexca327p","sub13","01","07","feedback","test","null","","","na","","248","",""
"13706.599999964237","707027","HierDyexca327p","sub13","01","07","","","","","","","","","","{""Q0"":""9 (broken up)""}"
"30208.899999976158","737239","HierDyexca327p","sub13","01","07","","","","","","","","","","{""Q0"":""when I couldn't remember what key the figure was, I would yell the color in my head to remember""}"
"2593.800000011921","739834","HierDyexca327p","sub13","01","07","","","","","","","","","",""
