"rt","time_elapsed","subject","subID","group","day","trialType","phase","key_press","stim","stimNum","corrresp","hierarchy","trialNum","corr","responses"
"2059","2068","HierDyjbsxbhph","sub01 ","01 ","7","","","","","","","","","",""
"","3661","HierDyjbsxbhph","sub01 ","01 ","7","fullscreen","","","","","","","","",""
"195","3856","HierDyjbsxbhph","sub01 ","01 ","7","","prac","","","","","","","",""
"2301","6159","HierDyjbsxbhph","sub01 ","01 ","7","","","32","","","","","","",""
"1020","7179","HierDyjbsxbhph","sub01 ","01 ","7","","prac","","","","","","","",""
"1131","8313","HierDyjbsxbhph","sub01 ","01 ","7","rl","test","83","img/b_c_stripes.png","2","83","color,shape,pattern","1","1",""
"null","9315","HierDyjbsxbhph","sub01 ","01 ","7","feedback","test","null","","","na","","1","",""
"1038.0000000000018","10356","HierDyjbsxbhph","sub01 ","01 ","7","rl","test","75","img/r_s_dots.png","7","75","color,shape,pattern","2","1",""
"null","11359","HierDyjbsxbhph","sub01 ","01 ","7","feedback","test","null","","","na","","2","",""
"914","12274","HierDyjbsxbhph","sub01 ","01 ","7","rl","test","72","img/r_c_stripes.png","6","74","color,shape,pattern","3","0",""
"null","13277","HierDyjbsxbhph","sub01 ","01 ","7","feedback","test","null","","","na","","3","",""
"1038","14317","HierDyjbsxbhph","sub01 ","01 ","7","rl","test","68","img/b_s_dots.png","3","68","color,shape,pattern","4","1",""
"null","15320","HierDyjbsxbhph","sub01 ","01 ","7","feedback","test","null","","","na","","4","",""
"596","15918","HierDyjbsxbhph","sub01 ","01 ","7","rl","test","65","img/b_c_dots.png","1","65","color,shape,pattern","5","1",""
"null","16921","HierDyjbsxbhph","sub01 ","01 ","7","feedback","test","null","","","na","","5","",""
"1049","17971","HierDyjbsxbhph","sub01 ","01 ","7","rl","test","70","img/b_s_stripes.png","4","70","color,shape,pattern","6","1",""
"null","18973","HierDyjbsxbhph","sub01 ","01 ","7","feedback","test","null","","","na","","6","",""
"801","19775","HierDyjbsxbhph","sub01 ","01 ","7","rl","test","74","img/r_c_stripes.png","6","74","color,shape,pattern","7","1",""
"null","20778","HierDyjbsxbhph","sub01 ","01 ","7","feedback","test","null","","","na","","7","",""
"568.0000000000036","21347","HierDyjbsxbhph","sub01 ","01 ","7","rl","test","76","img/r_s_stripes.png","8","76","color,shape,pattern","8","1",""
"null","22349","HierDyjbsxbhph","sub01 ","01 ","7","feedback","test","null","","","na","","8","",""
"716.9999999999964","23067","HierDyjbsxbhph","sub01 ","01 ","7","rl","test","72","img/r_c_dots.png","5","72","color,shape,pattern","9","1",""
"null","24070","HierDyjbsxbhph","sub01 ","01 ","7","feedback","test","null","","","na","","9","",""
"642.9999999999964","24715","HierDyjbsxbhph","sub01 ","01 ","7","rl","test","68","img/b_s_dots.png","3","68","color,shape,pattern","10","1",""
"null","25717","HierDyjbsxbhph","sub01 ","01 ","7","feedback","test","null","","","na","","10","",""
"752","26471","HierDyjbsxbhph","sub01 ","01 ","7","rl","test","74","img/r_c_dots.png","5","72","color,shape,pattern","11","0",""
"null","27472","HierDyjbsxbhph","sub01 ","01 ","7","feedback","test","null","","","na","","11","",""
"894","28368","HierDyjbsxbhph","sub01 ","01 ","7","rl","test","83","img/b_c_stripes.png","2","83","color,shape,pattern","12","1",""
"null","29370","HierDyjbsxbhph","sub01 ","01 ","7","feedback","test","null","","","na","","12","",""
"798","30169","HierDyjbsxbhph","sub01 ","01 ","7","rl","test","68","img/b_s_dots.png","3","68","color,shape,pattern","13","1",""
"null","31172","HierDyjbsxbhph","sub01 ","01 ","7","feedback","test","null","","","na","","13","",""
"565.9999999999927","31739","HierDyjbsxbhph","sub01 ","01 ","7","rl","test","65","img/b_c_dots.png","1","65","color,shape,pattern","14","1",""
"null","32742","HierDyjbsxbhph","sub01 ","01 ","7","feedback","test","null","","","na","","14","",""
"893","33636","HierDyjbsxbhph","sub01 ","01 ","7","rl","test","68","img/r_s_dots.png","7","75","color,shape,pattern","15","0",""
"null","34639","HierDyjbsxbhph","sub01 ","01 ","7","feedback","test","null","","","na","","15","",""
"590","35230","HierDyjbsxbhph","sub01 ","01 ","7","rl","test","76","img/r_s_stripes.png","8","76","color,shape,pattern","16","1",""
"null","36232","HierDyjbsxbhph","sub01 ","01 ","7","feedback","test","null","","","na","","16","",""
"704","36937","HierDyjbsxbhph","sub01 ","01 ","7","rl","test","70","img/b_s_stripes.png","4","70","color,shape,pattern","17","1",""
"null","37940","HierDyjbsxbhph","sub01 ","01 ","7","feedback","test","null","","","na","","17","",""
"571","38512","HierDyjbsxbhph","sub01 ","01 ","7","rl","test","70","img/b_s_stripes.png","4","70","color,shape,pattern","18","1",""
"null","39515","HierDyjbsxbhph","sub01 ","01 ","7","feedback","test","null","","","na","","18","",""
"792","40309","HierDyjbsxbhph","sub01 ","01 ","7","rl","test","83","img/b_c_stripes.png","2","83","color,shape,pattern","19","1",""
"null","41311","HierDyjbsxbhph","sub01 ","01 ","7","feedback","test","null","","","na","","19","",""
"708","42022","HierDyjbsxbhph","sub01 ","01 ","7","rl","test","76","img/r_s_stripes.png","8","76","color,shape,pattern","20","1",""
"null","43023","HierDyjbsxbhph","sub01 ","01 ","7","feedback","test","null","","","na","","20","",""
"708","43732","HierDyjbsxbhph","sub01 ","01 ","7","rl","test","74","img/r_c_stripes.png","6","74","color,shape,pattern","21","1",""
"null","44734","HierDyjbsxbhph","sub01 ","01 ","7","feedback","test","null","","","na","","21","",""
"1106","45841","HierDyjbsxbhph","sub01 ","01 ","7","rl","test","65","img/b_c_dots.png","1","65","color,shape,pattern","22","1",""
"null","46844","HierDyjbsxbhph","sub01 ","01 ","7","feedback","test","null","","","na","","22","",""
"509","47354","HierDyjbsxbhph","sub01 ","01 ","7","rl","test","72","img/r_c_dots.png","5","72","color,shape,pattern","23","1",""
"null","48356","HierDyjbsxbhph","sub01 ","01 ","7","feedback","test","null","","","na","","23","",""
"779","49137","HierDyjbsxbhph","sub01 ","01 ","7","rl","test","75","img/r_s_dots.png","7","75","color,shape,pattern","24","1",""
"null","50140","HierDyjbsxbhph","sub01 ","01 ","7","feedback","test","null","","","na","","24","",""
"549","50690","HierDyjbsxbhph","sub01 ","01 ","7","rl","test","72","img/r_c_dots.png","5","72","color,shape,pattern","25","1",""
"null","51693","HierDyjbsxbhph","sub01 ","01 ","7","feedback","test","null","","","na","","25","",""
"646","52341","HierDyjbsxbhph","sub01 ","01 ","7","rl","test","74","img/r_c_stripes.png","6","74","color,shape,pattern","26","1",""
"null","53342","HierDyjbsxbhph","sub01 ","01 ","7","feedback","test","null","","","na","","26","",""
"658.9999999999927","54002","HierDyjbsxbhph","sub01 ","01 ","7","rl","test","68","img/b_s_dots.png","3","68","color,shape,pattern","27","1",""
"null","55004","HierDyjbsxbhph","sub01 ","01 ","7","feedback","test","null","","","na","","27","",""
"600","55605","HierDyjbsxbhph","sub01 ","01 ","7","rl","test","65","img/b_c_dots.png","1","65","color,shape,pattern","28","1",""
"null","56608","HierDyjbsxbhph","sub01 ","01 ","7","feedback","test","null","","","na","","28","",""
"622","57232","HierDyjbsxbhph","sub01 ","01 ","7","rl","test","83","img/b_c_stripes.png","2","83","color,shape,pattern","29","1",""
"null","58235","HierDyjbsxbhph","sub01 ","01 ","7","feedback","test","null","","","na","","29","",""
"730.9999999999927","58967","HierDyjbsxbhph","sub01 ","01 ","7","rl","test","83","img/b_c_stripes.png","2","83","color,shape,pattern","30","1",""
"null","59968","HierDyjbsxbhph","sub01 ","01 ","7","feedback","test","null","","","na","","30","",""
"650","60619","HierDyjbsxbhph","sub01 ","01 ","7","rl","test","70","img/b_s_stripes.png","4","70","color,shape,pattern","31","1",""
"null","61621","HierDyjbsxbhph","sub01 ","01 ","7","feedback","test","null","","","na","","31","",""
"541","62164","HierDyjbsxbhph","sub01 ","01 ","7","rl","test","70","img/b_s_stripes.png","4","70","color,shape,pattern","32","1",""
"null","63167","HierDyjbsxbhph","sub01 ","01 ","7","feedback","test","null","","","na","","32","",""
"767","63935","HierDyjbsxbhph","sub01 ","01 ","7","rl","test","76","img/r_s_stripes.png","8","76","color,shape,pattern","33","1",""
"null","64938","HierDyjbsxbhph","sub01 ","01 ","7","feedback","test","null","","","na","","33","",""
"711.9999999999854","65650","HierDyjbsxbhph","sub01 ","01 ","7","rl","test","75","img/r_s_dots.png","7","75","color,shape,pattern","34","1",""
"null","66653","HierDyjbsxbhph","sub01 ","01 ","7","feedback","test","null","","","na","","34","",""
"1180","67834","HierDyjbsxbhph","sub01 ","01 ","7","rl","test","65","img/b_c_dots.png","1","65","color,shape,pattern","35","1",""
"null","68837","HierDyjbsxbhph","sub01 ","01 ","7","feedback","test","null","","","na","","35","",""
"1104.0000000000146","69942","HierDyjbsxbhph","sub01 ","01 ","7","rl","test","75","img/r_s_dots.png","7","75","color,shape,pattern","36","1",""
"null","70945","HierDyjbsxbhph","sub01 ","01 ","7","feedback","test","null","","","na","","36","",""
"597","71544","HierDyjbsxbhph","sub01 ","01 ","7","rl","test","76","img/r_s_stripes.png","8","76","color,shape,pattern","37","1",""
"null","72546","HierDyjbsxbhph","sub01 ","01 ","7","feedback","test","null","","","na","","37","",""
"693","73241","HierDyjbsxbhph","sub01 ","01 ","7","rl","test","68","img/b_s_dots.png","3","68","color,shape,pattern","38","1",""
"null","74244","HierDyjbsxbhph","sub01 ","01 ","7","feedback","test","null","","","na","","38","",""
"614","74859","HierDyjbsxbhph","sub01 ","01 ","7","rl","test","72","img/r_c_dots.png","5","72","color,shape,pattern","39","1",""
"null","75861","HierDyjbsxbhph","sub01 ","01 ","7","feedback","test","null","","","na","","39","",""
"806","76669","HierDyjbsxbhph","sub01 ","01 ","7","rl","test","74","img/r_c_stripes.png","6","74","color,shape,pattern","40","1",""
"null","77671","HierDyjbsxbhph","sub01 ","01 ","7","feedback","test","null","","","na","","40","",""
"563","78235","HierDyjbsxbhph","sub01 ","01 ","7","rl","test","75","img/r_s_dots.png","7","75","color,shape,pattern","41","1",""
"null","79237","HierDyjbsxbhph","sub01 ","01 ","7","feedback","test","null","","","na","","41","",""
"585","79823","HierDyjbsxbhph","sub01 ","01 ","7","rl","test","72","img/r_c_dots.png","5","72","color,shape,pattern","42","1",""
"null","80825","HierDyjbsxbhph","sub01 ","01 ","7","feedback","test","null","","","na","","42","",""
"495","81322","HierDyjbsxbhph","sub01 ","01 ","7","rl","test","76","img/r_s_stripes.png","8","76","color,shape,pattern","43","1",""
"null","82324","HierDyjbsxbhph","sub01 ","01 ","7","feedback","test","null","","","na","","43","",""
"623.9999999999854","82950","HierDyjbsxbhph","sub01 ","01 ","7","rl","test","74","img/r_c_stripes.png","6","74","color,shape,pattern","44","1",""
"null","83953","HierDyjbsxbhph","sub01 ","01 ","7","feedback","test","null","","","na","","44","",""
"545.9999999999854","84500","HierDyjbsxbhph","sub01 ","01 ","7","rl","test","83","img/b_c_stripes.png","2","83","color,shape,pattern","45","1",""
"null","85503","HierDyjbsxbhph","sub01 ","01 ","7","feedback","test","null","","","na","","45","",""
"804","86309","HierDyjbsxbhph","sub01 ","01 ","7","rl","test","68","img/b_s_dots.png","3","68","color,shape,pattern","46","1",""
"null","87311","HierDyjbsxbhph","sub01 ","01 ","7","feedback","test","null","","","na","","46","",""
"476","87791","HierDyjbsxbhph","sub01 ","01 ","7","rl","test","70","img/b_s_stripes.png","4","70","color,shape,pattern","47","1",""
"null","88794","HierDyjbsxbhph","sub01 ","01 ","7","feedback","test","null","","","na","","47","",""
"587","89382","HierDyjbsxbhph","sub01 ","01 ","7","rl","test","65","img/b_c_dots.png","1","65","color,shape,pattern","48","1",""
"null","90384","HierDyjbsxbhph","sub01 ","01 ","7","feedback","test","null","","","na","","48","",""
"575","90961","HierDyjbsxbhph","sub01 ","01 ","7","rl","test","65","img/b_c_dots.png","1","65","color,shape,pattern","49","1",""
"null","91963","HierDyjbsxbhph","sub01 ","01 ","7","feedback","test","null","","","na","","49","",""
"600.0000000000146","92564","HierDyjbsxbhph","sub01 ","01 ","7","rl","test","76","img/r_s_stripes.png","8","76","color,shape,pattern","50","1",""
"null","93565","HierDyjbsxbhph","sub01 ","01 ","7","feedback","test","null","","","na","","50","",""
"565.9999999999854","94133","HierDyjbsxbhph","sub01 ","01 ","7","rl","test","68","img/b_s_dots.png","3","68","color,shape,pattern","51","1",""
"null","95136","HierDyjbsxbhph","sub01 ","01 ","7","feedback","test","null","","","na","","51","",""
"940","96078","HierDyjbsxbhph","sub01 ","01 ","7","rl","test","72","img/r_c_dots.png","5","72","color,shape,pattern","52","1",""
"null","97080","HierDyjbsxbhph","sub01 ","01 ","7","feedback","test","null","","","na","","52","",""
"948.9999999999854","98030","HierDyjbsxbhph","sub01 ","01 ","7","rl","test","70","img/b_s_stripes.png","4","70","color,shape,pattern","53","1",""
"null","99033","HierDyjbsxbhph","sub01 ","01 ","7","feedback","test","null","","","na","","53","",""
"1026.0000000000146","100060","HierDyjbsxbhph","sub01 ","01 ","7","rl","test","83","img/b_c_stripes.png","2","83","color,shape,pattern","54","1",""
"null","101063","HierDyjbsxbhph","sub01 ","01 ","7","feedback","test","null","","","na","","54","",""
"988","102053","HierDyjbsxbhph","sub01 ","01 ","7","rl","test","74","img/r_c_stripes.png","6","74","color,shape,pattern","55","1",""
"null","103055","HierDyjbsxbhph","sub01 ","01 ","7","feedback","test","null","","","na","","55","",""
"592","103648","HierDyjbsxbhph","sub01 ","01 ","7","rl","test","75","img/r_s_dots.png","7","75","color,shape,pattern","56","1",""
"null","104651","HierDyjbsxbhph","sub01 ","01 ","7","feedback","test","null","","","na","","56","",""
"732","105385","HierDyjbsxbhph","sub01 ","01 ","7","rl","test","74","img/r_c_stripes.png","6","74","color,shape,pattern","57","1",""
"null","106387","HierDyjbsxbhph","sub01 ","01 ","7","feedback","test","null","","","na","","57","",""
"539","106928","HierDyjbsxbhph","sub01 ","01 ","7","rl","test","83","img/b_c_stripes.png","2","83","color,shape,pattern","58","1",""
"null","107930","HierDyjbsxbhph","sub01 ","01 ","7","feedback","test","null","","","na","","58","",""
"781.0000000000146","108712","HierDyjbsxbhph","sub01 ","01 ","7","rl","test","68","img/r_s_dots.png","7","75","color,shape,pattern","59","0",""
"null","109716","HierDyjbsxbhph","sub01 ","01 ","7","feedback","test","null","","","na","","59","",""
"751.0000000000146","110469","HierDyjbsxbhph","sub01 ","01 ","7","rl","test","70","img/b_s_stripes.png","4","70","color,shape,pattern","60","1",""
"null","111471","HierDyjbsxbhph","sub01 ","01 ","7","feedback","test","null","","","na","","60","",""
"670","112142","HierDyjbsxbhph","sub01 ","01 ","7","rl","test","65","img/b_c_dots.png","1","65","color,shape,pattern","61","1",""
"null","113144","HierDyjbsxbhph","sub01 ","01 ","7","feedback","test","null","","","na","","61","",""
"726","113871","HierDyjbsxbhph","sub01 ","01 ","7","rl","test","76","img/r_s_stripes.png","8","76","color,shape,pattern","62","1",""
"null","114873","HierDyjbsxbhph","sub01 ","01 ","7","feedback","test","null","","","na","","62","",""
"615","115488","HierDyjbsxbhph","sub01 ","01 ","7","rl","test","72","img/r_c_dots.png","5","72","color,shape,pattern","63","1",""
"null","116490","HierDyjbsxbhph","sub01 ","01 ","7","feedback","test","null","","","na","","63","",""
"1094","117585","HierDyjbsxbhph","sub01 ","01 ","7","rl","test","68","img/b_s_dots.png","3","68","color,shape,pattern","64","1",""
"null","118587","HierDyjbsxbhph","sub01 ","01 ","7","feedback","test","null","","","na","","64","",""
"505.00000000001455","119094","HierDyjbsxbhph","sub01 ","01 ","7","rl","test","68","img/b_s_dots.png","3","68","color,shape,pattern","65","1",""
"null","120096","HierDyjbsxbhph","sub01 ","01 ","7","feedback","test","null","","","na","","65","",""
"684","120781","HierDyjbsxbhph","sub01 ","01 ","7","rl","test","74","img/r_c_stripes.png","6","74","color,shape,pattern","66","1",""
"null","121783","HierDyjbsxbhph","sub01 ","01 ","7","feedback","test","null","","","na","","66","",""
"854","122639","HierDyjbsxbhph","sub01 ","01 ","7","rl","test","75","img/r_s_dots.png","7","75","color,shape,pattern","67","1",""
"null","123642","HierDyjbsxbhph","sub01 ","01 ","7","feedback","test","null","","","na","","67","",""
"573","124217","HierDyjbsxbhph","sub01 ","01 ","7","rl","test","83","img/b_c_stripes.png","2","83","color,shape,pattern","68","1",""
"null","125219","HierDyjbsxbhph","sub01 ","01 ","7","feedback","test","null","","","na","","68","",""
"847","126068","HierDyjbsxbhph","sub01 ","01 ","7","rl","test","72","img/r_c_dots.png","5","72","color,shape,pattern","69","1",""
"null","127071","HierDyjbsxbhph","sub01 ","01 ","7","feedback","test","null","","","na","","69","",""
"785.9999999999854","127858","HierDyjbsxbhph","sub01 ","01 ","7","rl","test","68","img/b_s_dots.png","3","68","color,shape,pattern","70","1",""
"null","128860","HierDyjbsxbhph","sub01 ","01 ","7","feedback","test","null","","","na","","70","",""
"966.9999999999854","129829","HierDyjbsxbhph","sub01 ","01 ","7","rl","test","70","img/b_s_stripes.png","4","70","color,shape,pattern","71","1",""
"null","130831","HierDyjbsxbhph","sub01 ","01 ","7","feedback","test","null","","","na","","71","",""
"641","131473","HierDyjbsxbhph","sub01 ","01 ","7","rl","test","76","img/r_s_stripes.png","8","76","color,shape,pattern","72","1",""
"null","132476","HierDyjbsxbhph","sub01 ","01 ","7","feedback","test","null","","","na","","72","",""
"721","133198","HierDyjbsxbhph","sub01 ","01 ","7","rl","test","72","img/b_c_dots.png","1","65","color,shape,pattern","73","0",""
"null","134201","HierDyjbsxbhph","sub01 ","01 ","7","feedback","test","null","","","na","","73","",""
"1077.000000000029","135279","HierDyjbsxbhph","sub01 ","01 ","7","rl","test","76","img/r_s_stripes.png","8","76","color,shape,pattern","74","1",""
"null","136282","HierDyjbsxbhph","sub01 ","01 ","7","feedback","test","null","","","na","","74","",""
"944","137227","HierDyjbsxbhph","sub01 ","01 ","7","rl","test","83","img/b_c_stripes.png","2","83","color,shape,pattern","75","1",""
"null","138230","HierDyjbsxbhph","sub01 ","01 ","7","feedback","test","null","","","na","","75","",""
"528","138760","HierDyjbsxbhph","sub01 ","01 ","7","rl","test","65","img/b_c_dots.png","1","65","color,shape,pattern","76","1",""
"null","139762","HierDyjbsxbhph","sub01 ","01 ","7","feedback","test","null","","","na","","76","",""
"588","140351","HierDyjbsxbhph","sub01 ","01 ","7","rl","test","72","img/r_c_dots.png","5","72","color,shape,pattern","77","1",""
"null","141354","HierDyjbsxbhph","sub01 ","01 ","7","feedback","test","null","","","na","","77","",""
"660","142015","HierDyjbsxbhph","sub01 ","01 ","7","rl","test","75","img/r_c_stripes.png","6","74","color,shape,pattern","78","0",""
"null","143017","HierDyjbsxbhph","sub01 ","01 ","7","feedback","test","null","","","na","","78","",""
"638","143656","HierDyjbsxbhph","sub01 ","01 ","7","rl","test","76","img/r_s_stripes.png","8","76","color,shape,pattern","79","1",""
"null","144659","HierDyjbsxbhph","sub01 ","01 ","7","feedback","test","null","","","na","","79","",""
"571.9999999999709","145232","HierDyjbsxbhph","sub01 ","01 ","7","rl","test","70","img/b_s_stripes.png","4","70","color,shape,pattern","80","1",""
"null","146235","HierDyjbsxbhph","sub01 ","01 ","7","feedback","test","null","","","na","","80","",""
"649.0000000000291","146886","HierDyjbsxbhph","sub01 ","01 ","7","rl","test","74","img/r_s_dots.png","7","75","color,shape,pattern","81","0",""
"null","147889","HierDyjbsxbhph","sub01 ","01 ","7","feedback","test","null","","","na","","81","",""
"785","148675","HierDyjbsxbhph","sub01 ","01 ","7","rl","test","65","img/b_c_dots.png","1","65","color,shape,pattern","82","1",""
"null","149678","HierDyjbsxbhph","sub01 ","01 ","7","feedback","test","null","","","na","","82","",""
"711","150390","HierDyjbsxbhph","sub01 ","01 ","7","rl","test","68","img/b_s_dots.png","3","68","color,shape,pattern","83","1",""
"null","151393","HierDyjbsxbhph","sub01 ","01 ","7","feedback","test","null","","","na","","83","",""
"636","152030","HierDyjbsxbhph","sub01 ","01 ","7","rl","test","70","img/b_s_stripes.png","4","70","color,shape,pattern","84","1",""
"null","153032","HierDyjbsxbhph","sub01 ","01 ","7","feedback","test","null","","","na","","84","",""
"606","153639","HierDyjbsxbhph","sub01 ","01 ","7","rl","test","65","img/b_c_dots.png","1","65","color,shape,pattern","85","1",""
"null","154642","HierDyjbsxbhph","sub01 ","01 ","7","feedback","test","null","","","na","","85","",""
"535.0000000000291","155178","HierDyjbsxbhph","sub01 ","01 ","7","rl","test","83","img/b_c_stripes.png","2","83","color,shape,pattern","86","1",""
"null","156181","HierDyjbsxbhph","sub01 ","01 ","7","feedback","test","null","","","na","","86","",""
"509","156691","HierDyjbsxbhph","sub01 ","01 ","7","rl","test","83","img/b_c_stripes.png","2","83","color,shape,pattern","87","1",""
"null","157692","HierDyjbsxbhph","sub01 ","01 ","7","feedback","test","null","","","na","","87","",""
"901","158595","HierDyjbsxbhph","sub01 ","01 ","7","rl","test","75","img/r_s_dots.png","7","75","color,shape,pattern","88","1",""
"null","159598","HierDyjbsxbhph","sub01 ","01 ","7","feedback","test","null","","","na","","88","",""
"549.0000000000291","160148","HierDyjbsxbhph","sub01 ","01 ","7","rl","test","75","img/r_s_dots.png","7","75","color,shape,pattern","89","1",""
"null","161151","HierDyjbsxbhph","sub01 ","01 ","7","feedback","test","null","","","na","","89","",""
"783","161935","HierDyjbsxbhph","sub01 ","01 ","7","rl","test","83","img/r_c_dots.png","5","72","color,shape,pattern","90","0",""
"null","162938","HierDyjbsxbhph","sub01 ","01 ","7","feedback","test","null","","","na","","90","",""
"1033.999999999971","163974","HierDyjbsxbhph","sub01 ","01 ","7","rl","test","75","img/r_s_dots.png","7","75","color,shape,pattern","91","1",""
"null","164977","HierDyjbsxbhph","sub01 ","01 ","7","feedback","test","null","","","na","","91","",""
"1081.000000000029","166059","HierDyjbsxbhph","sub01 ","01 ","7","rl","test","74","img/r_c_stripes.png","6","74","color,shape,pattern","92","1",""
"null","167062","HierDyjbsxbhph","sub01 ","01 ","7","feedback","test","null","","","na","","92","",""
"943","168006","HierDyjbsxbhph","sub01 ","01 ","7","rl","test","70","img/r_s_stripes.png","8","76","color,shape,pattern","93","0",""
"null","169008","HierDyjbsxbhph","sub01 ","01 ","7","feedback","test","null","","","na","","93","",""
"948","169957","HierDyjbsxbhph","sub01 ","01 ","7","rl","test","72","img/r_c_dots.png","5","72","color,shape,pattern","94","1",""
"null","170958","HierDyjbsxbhph","sub01 ","01 ","7","feedback","test","null","","","na","","94","",""
"647","171607","HierDyjbsxbhph","sub01 ","01 ","7","rl","test","74","img/r_c_stripes.png","6","74","color,shape,pattern","95","1",""
"null","172609","HierDyjbsxbhph","sub01 ","01 ","7","feedback","test","null","","","na","","95","",""
"668","173278","HierDyjbsxbhph","sub01 ","01 ","7","rl","test","72","img/r_c_dots.png","5","72","color,shape,pattern","96","1",""
"null","174281","HierDyjbsxbhph","sub01 ","01 ","7","feedback","test","null","","","na","","96","",""
"1538.000000000029","175821","HierDyjbsxbhph","sub01 ","01 ","7","rl","test","70","img/b_s_stripes.png","4","70","color,shape,pattern","97","1",""
"null","176823","HierDyjbsxbhph","sub01 ","01 ","7","feedback","test","null","","","na","","97","",""
"693","177518","HierDyjbsxbhph","sub01 ","01 ","7","rl","test","68","img/b_s_dots.png","3","68","color,shape,pattern","98","1",""
"null","178520","HierDyjbsxbhph","sub01 ","01 ","7","feedback","test","null","","","na","","98","",""
"724","179246","HierDyjbsxbhph","sub01 ","01 ","7","rl","test","76","img/r_s_stripes.png","8","76","color,shape,pattern","99","1",""
"null","180249","HierDyjbsxbhph","sub01 ","01 ","7","feedback","test","null","","","na","","99","",""
"654.0000000000291","180903","HierDyjbsxbhph","sub01 ","01 ","7","rl","test","65","img/b_c_dots.png","1","65","color,shape,pattern","100","1",""
"null","181906","HierDyjbsxbhph","sub01 ","01 ","7","feedback","test","null","","","na","","100","",""
"649","182556","HierDyjbsxbhph","sub01 ","01 ","7","rl","test","74","img/r_c_stripes.png","6","74","color,shape,pattern","101","1",""
"null","183558","HierDyjbsxbhph","sub01 ","01 ","7","feedback","test","null","","","na","","101","",""
"452","184012","HierDyjbsxbhph","sub01 ","01 ","7","rl","test","83","img/b_c_stripes.png","2","83","color,shape,pattern","102","1",""
"null","185015","HierDyjbsxbhph","sub01 ","01 ","7","feedback","test","null","","","na","","102","",""
"585","185601","HierDyjbsxbhph","sub01 ","01 ","7","rl","test","68","img/b_s_dots.png","3","68","color,shape,pattern","103","1",""
"null","186604","HierDyjbsxbhph","sub01 ","01 ","7","feedback","test","null","","","na","","103","",""
"876","187481","HierDyjbsxbhph","sub01 ","01 ","7","rl","test","70","img/b_s_stripes.png","4","70","color,shape,pattern","104","1",""
"null","188483","HierDyjbsxbhph","sub01 ","01 ","7","feedback","test","null","","","na","","104","",""
"845","189329","HierDyjbsxbhph","sub01 ","01 ","7","rl","test","72","img/r_c_dots.png","5","72","color,shape,pattern","105","1",""
"null","190332","HierDyjbsxbhph","sub01 ","01 ","7","feedback","test","null","","","na","","105","",""
"758.9999999999709","191092","HierDyjbsxbhph","sub01 ","01 ","7","rl","test","68","img/r_s_dots.png","7","75","color,shape,pattern","106","0",""
"null","192093","HierDyjbsxbhph","sub01 ","01 ","7","feedback","test","null","","","na","","106","",""
"1158","193253","HierDyjbsxbhph","sub01 ","01 ","7","rl","test","76","img/r_s_stripes.png","8","76","color,shape,pattern","107","1",""
"null","194255","HierDyjbsxbhph","sub01 ","01 ","7","feedback","test","null","","","na","","107","",""
"848","195105","HierDyjbsxbhph","sub01 ","01 ","7","rl","test","70","img/b_s_stripes.png","4","70","color,shape,pattern","108","1",""
"null","196108","HierDyjbsxbhph","sub01 ","01 ","7","feedback","test","null","","","na","","108","",""
"702","196811","HierDyjbsxbhph","sub01 ","01 ","7","rl","test","83","img/r_c_stripes.png","6","74","color,shape,pattern","109","0",""
"null","197812","HierDyjbsxbhph","sub01 ","01 ","7","feedback","test","null","","","na","","109","",""
"1083","198897","HierDyjbsxbhph","sub01 ","01 ","7","rl","test","65","img/b_c_dots.png","1","65","color,shape,pattern","110","1",""
"null","199899","HierDyjbsxbhph","sub01 ","01 ","7","feedback","test","null","","","na","","110","",""
"497.0000000000291","200398","HierDyjbsxbhph","sub01 ","01 ","7","rl","test","83","img/b_c_stripes.png","2","83","color,shape,pattern","111","1",""
"null","201399","HierDyjbsxbhph","sub01 ","01 ","7","feedback","test","null","","","na","","111","",""
"1371","202772","HierDyjbsxbhph","sub01 ","01 ","7","rl","test","65","img/b_c_dots.png","1","65","color,shape,pattern","112","1",""
"null","203773","HierDyjbsxbhph","sub01 ","01 ","7","feedback","test","null","","","na","","112","",""
"955","204730","HierDyjbsxbhph","sub01 ","01 ","7","rl","test","68","img/b_s_dots.png","3","68","color,shape,pattern","113","1",""
"null","205732","HierDyjbsxbhph","sub01 ","01 ","7","feedback","test","null","","","na","","113","",""
"594","206327","HierDyjbsxbhph","sub01 ","01 ","7","rl","test","83","img/b_c_stripes.png","2","83","color,shape,pattern","114","1",""
"null","207330","HierDyjbsxbhph","sub01 ","01 ","7","feedback","test","null","","","na","","114","",""
"1108.000000000029","208440","HierDyjbsxbhph","sub01 ","01 ","7","rl","test","76","img/r_s_stripes.png","8","76","color,shape,pattern","115","1",""
"null","209443","HierDyjbsxbhph","sub01 ","01 ","7","feedback","test","null","","","na","","115","",""
"702","210146","HierDyjbsxbhph","sub01 ","01 ","7","rl","test","72","img/r_c_dots.png","5","72","color,shape,pattern","116","1",""
"null","211149","HierDyjbsxbhph","sub01 ","01 ","7","feedback","test","null","","","na","","116","",""
"517","211667","HierDyjbsxbhph","sub01 ","01 ","7","rl","test","70","img/b_s_stripes.png","4","70","color,shape,pattern","117","1",""
"null","212669","HierDyjbsxbhph","sub01 ","01 ","7","feedback","test","null","","","na","","117","",""
"929","213600","HierDyjbsxbhph","sub01 ","01 ","7","rl","test","75","img/r_s_dots.png","7","75","color,shape,pattern","118","1",""
"null","214602","HierDyjbsxbhph","sub01 ","01 ","7","feedback","test","null","","","na","","118","",""
"650","215253","HierDyjbsxbhph","sub01 ","01 ","7","rl","test","75","img/r_s_dots.png","7","75","color,shape,pattern","119","1",""
"null","216256","HierDyjbsxbhph","sub01 ","01 ","7","feedback","test","null","","","na","","119","",""
"638","216894","HierDyjbsxbhph","sub01 ","01 ","7","rl","test","76","img/r_s_stripes.png","8","76","color,shape,pattern","120","1",""
"null","217897","HierDyjbsxbhph","sub01 ","01 ","7","feedback","test","null","","","na","","120","",""
"814","218713","HierDyjbsxbhph","sub01 ","01 ","7","rl","test","83","img/r_c_stripes.png","6","74","color,shape,pattern","121","0",""
"null","219715","HierDyjbsxbhph","sub01 ","01 ","7","feedback","test","null","","","na","","121","",""
"1020","220735","HierDyjbsxbhph","sub01 ","01 ","7","rl","test","68","img/b_s_dots.png","3","68","color,shape,pattern","122","1",""
"null","221738","HierDyjbsxbhph","sub01 ","01 ","7","feedback","test","null","","","na","","122","",""
"924","222663","HierDyjbsxbhph","sub01 ","01 ","7","rl","test","65","img/b_c_dots.png","1","65","color,shape,pattern","123","1",""
"null","223666","HierDyjbsxbhph","sub01 ","01 ","7","feedback","test","null","","","na","","123","",""
"567","224234","HierDyjbsxbhph","sub01 ","01 ","7","rl","test","68","img/b_s_dots.png","3","68","color,shape,pattern","124","1",""
"null","225237","HierDyjbsxbhph","sub01 ","01 ","7","feedback","test","null","","","na","","124","",""
"739","225977","HierDyjbsxbhph","sub01 ","01 ","7","rl","test","72","img/r_c_stripes.png","6","74","color,shape,pattern","125","0",""
"null","226980","HierDyjbsxbhph","sub01 ","01 ","7","feedback","test","null","","","na","","125","",""
"461.9999999999709","227444","HierDyjbsxbhph","sub01 ","01 ","7","rl","test","74","img/r_c_dots.png","5","72","color,shape,pattern","126","0",""
"null","228446","HierDyjbsxbhph","sub01 ","01 ","7","feedback","test","null","","","na","","126","",""
"589","229037","HierDyjbsxbhph","sub01 ","01 ","7","rl","test","68","img/b_c_stripes.png","2","83","color,shape,pattern","127","0",""
"null","230039","HierDyjbsxbhph","sub01 ","01 ","7","feedback","test","null","","","na","","127","",""
"856","230896","HierDyjbsxbhph","sub01 ","01 ","7","rl","test","65","img/b_c_dots.png","1","65","color,shape,pattern","128","1",""
"null","231899","HierDyjbsxbhph","sub01 ","01 ","7","feedback","test","null","","","na","","128","",""
"734","232634","HierDyjbsxbhph","sub01 ","01 ","7","rl","test","70","img/b_s_stripes.png","4","70","color,shape,pattern","129","1",""
"null","233636","HierDyjbsxbhph","sub01 ","01 ","7","feedback","test","null","","","na","","129","",""
"631","234269","HierDyjbsxbhph","sub01 ","01 ","7","rl","test","70","img/b_s_stripes.png","4","70","color,shape,pattern","130","1",""
"null","235271","HierDyjbsxbhph","sub01 ","01 ","7","feedback","test","null","","","na","","130","",""
"637","235910","HierDyjbsxbhph","sub01 ","01 ","7","rl","test","68","img/b_s_dots.png","3","68","color,shape,pattern","131","1",""
"null","236912","HierDyjbsxbhph","sub01 ","01 ","7","feedback","test","null","","","na","","131","",""
"840","237753","HierDyjbsxbhph","sub01 ","01 ","7","rl","test","72","img/r_c_dots.png","5","72","color,shape,pattern","132","1",""
"null","238756","HierDyjbsxbhph","sub01 ","01 ","7","feedback","test","null","","","na","","132","",""
"711","239469","HierDyjbsxbhph","sub01 ","01 ","7","rl","test","75","img/r_s_dots.png","7","75","color,shape,pattern","133","1",""
"null","240471","HierDyjbsxbhph","sub01 ","01 ","7","feedback","test","null","","","na","","133","",""
"579","241052","HierDyjbsxbhph","sub01 ","01 ","7","rl","test","76","img/r_s_stripes.png","8","76","color,shape,pattern","134","1",""
"null","242054","HierDyjbsxbhph","sub01 ","01 ","7","feedback","test","null","","","na","","134","",""
"932.0000000000291","242987","HierDyjbsxbhph","sub01 ","01 ","7","rl","test","74","img/r_c_stripes.png","6","74","color,shape,pattern","135","1",""
"null","243990","HierDyjbsxbhph","sub01 ","01 ","7","feedback","test","null","","","na","","135","",""
"673","244664","HierDyjbsxbhph","sub01 ","01 ","7","rl","test","68","img/r_s_dots.png","7","75","color,shape,pattern","136","0",""
"null","245667","HierDyjbsxbhph","sub01 ","01 ","7","feedback","test","null","","","na","","136","",""
"695.0000000000291","246362","HierDyjbsxbhph","sub01 ","01 ","7","rl","test","70","img/b_s_stripes.png","4","70","color,shape,pattern","137","1",""
"null","247365","HierDyjbsxbhph","sub01 ","01 ","7","feedback","test","null","","","na","","137","",""
"747.0000000000291","248113","HierDyjbsxbhph","sub01 ","01 ","7","rl","test","83","img/b_c_stripes.png","2","83","color,shape,pattern","138","1",""
"null","249115","HierDyjbsxbhph","sub01 ","01 ","7","feedback","test","null","","","na","","138","",""
"642","249758","HierDyjbsxbhph","sub01 ","01 ","7","rl","test","83","img/b_c_stripes.png","2","83","color,shape,pattern","139","1",""
"null","250760","HierDyjbsxbhph","sub01 ","01 ","7","feedback","test","null","","","na","","139","",""
"556","251318","HierDyjbsxbhph","sub01 ","01 ","7","rl","test","76","img/r_s_stripes.png","8","76","color,shape,pattern","140","1",""
"null","252320","HierDyjbsxbhph","sub01 ","01 ","7","feedback","test","null","","","na","","140","",""
"1291.000000000029","253613","HierDyjbsxbhph","sub01 ","01 ","7","rl","test","65","img/b_c_dots.png","1","65","color,shape,pattern","141","1",""
"null","254615","HierDyjbsxbhph","sub01 ","01 ","7","feedback","test","null","","","na","","141","",""
"766","255382","HierDyjbsxbhph","sub01 ","01 ","7","rl","test","72","img/r_c_dots.png","5","72","color,shape,pattern","142","1",""
"null","256384","HierDyjbsxbhph","sub01 ","01 ","7","feedback","test","null","","","na","","142","",""
"585.0000000000291","256970","HierDyjbsxbhph","sub01 ","01 ","7","rl","test","83","img/b_c_stripes.png","2","83","color,shape,pattern","143","1",""
"null","257973","HierDyjbsxbhph","sub01 ","01 ","7","feedback","test","null","","","na","","143","",""
"1281","259256","HierDyjbsxbhph","sub01 ","01 ","7","rl","test","68","img/r_s_dots.png","7","75","color,shape,pattern","144","0",""
"null","260258","HierDyjbsxbhph","sub01 ","01 ","7","feedback","test","null","","","na","","144","",""
"608","260868","HierDyjbsxbhph","sub01 ","01 ","7","rl","test","75","img/b_s_dots.png","3","68","color,shape,pattern","145","0",""
"null","261870","HierDyjbsxbhph","sub01 ","01 ","7","feedback","test","null","","","na","","145","",""
"1175.9999999999418","263047","HierDyjbsxbhph","sub01 ","01 ","7","rl","test","74","img/r_c_stripes.png","6","74","color,shape,pattern","146","1",""
"null","264048","HierDyjbsxbhph","sub01 ","01 ","7","feedback","test","null","","","na","","146","",""
"490","264538","HierDyjbsxbhph","sub01 ","01 ","7","rl","test","68","img/b_s_dots.png","3","68","color,shape,pattern","147","1",""
"null","265541","HierDyjbsxbhph","sub01 ","01 ","7","feedback","test","null","","","na","","147","",""
"578","266120","HierDyjbsxbhph","sub01 ","01 ","7","rl","test","70","img/r_s_stripes.png","8","76","color,shape,pattern","148","0",""
"null","267123","HierDyjbsxbhph","sub01 ","01 ","7","feedback","test","null","","","na","","148","",""
"632","267756","HierDyjbsxbhph","sub01 ","01 ","7","rl","test","76","img/r_c_stripes.png","6","74","color,shape,pattern","149","0",""
"null","268758","HierDyjbsxbhph","sub01 ","01 ","7","feedback","test","null","","","na","","149","",""
"607","269366","HierDyjbsxbhph","sub01 ","01 ","7","rl","test","70","img/b_s_stripes.png","4","70","color,shape,pattern","150","1",""
"null","270368","HierDyjbsxbhph","sub01 ","01 ","7","feedback","test","null","","","na","","150","",""
"874","271243","HierDyjbsxbhph","sub01 ","01 ","7","rl","test","72","img/r_c_dots.png","5","72","color,shape,pattern","151","1",""
"null","272246","HierDyjbsxbhph","sub01 ","01 ","7","feedback","test","null","","","na","","151","",""
"1589","273836","HierDyjbsxbhph","sub01 ","01 ","7","rl","test","68","img/b_s_dots.png","3","68","color,shape,pattern","152","1",""
"null","274838","HierDyjbsxbhph","sub01 ","01 ","7","feedback","test","null","","","na","","152","",""
"687","275526","HierDyjbsxbhph","sub01 ","01 ","7","rl","test","76","img/r_s_stripes.png","8","76","color,shape,pattern","153","1",""
"null","276527","HierDyjbsxbhph","sub01 ","01 ","7","feedback","test","null","","","na","","153","",""
"1439","277969","HierDyjbsxbhph","sub01 ","01 ","7","rl","test","70","img/b_s_stripes.png","4","70","color,shape,pattern","154","1",""
"null","278971","HierDyjbsxbhph","sub01 ","01 ","7","feedback","test","null","","","na","","154","",""
"1050.9999999999418","280023","HierDyjbsxbhph","sub01 ","01 ","7","rl","test","65","img/b_c_dots.png","1","65","color,shape,pattern","155","1",""
"null","281025","HierDyjbsxbhph","sub01 ","01 ","7","feedback","test","null","","","na","","155","",""
"1493","282519","HierDyjbsxbhph","sub01 ","01 ","7","rl","test","75","img/r_s_dots.png","7","75","color,shape,pattern","156","1",""
"null","283521","HierDyjbsxbhph","sub01 ","01 ","7","feedback","test","null","","","na","","156","",""
"1178","284700","HierDyjbsxbhph","sub01 ","01 ","7","rl","test","72","img/r_c_dots.png","5","72","color,shape,pattern","157","1",""
"null","285702","HierDyjbsxbhph","sub01 ","01 ","7","feedback","test","null","","","na","","157","",""
"694","286397","HierDyjbsxbhph","sub01 ","01 ","7","rl","test","83","img/b_c_stripes.png","2","83","color,shape,pattern","158","1",""
"null","287400","HierDyjbsxbhph","sub01 ","01 ","7","feedback","test","null","","","na","","158","",""
"587","287988","HierDyjbsxbhph","sub01 ","01 ","7","rl","test","70","img/b_s_dots.png","3","68","color,shape,pattern","159","0",""
"null","288991","HierDyjbsxbhph","sub01 ","01 ","7","feedback","test","null","","","na","","159","",""
"774","289767","HierDyjbsxbhph","sub01 ","01 ","7","rl","test","65","img/b_c_dots.png","1","65","color,shape,pattern","160","1",""
"null","290769","HierDyjbsxbhph","sub01 ","01 ","7","feedback","test","null","","","na","","160","",""
"751","291521","HierDyjbsxbhph","sub01 ","01 ","7","rl","test","74","img/r_c_stripes.png","6","74","color,shape,pattern","161","1",""
"null","292524","HierDyjbsxbhph","sub01 ","01 ","7","feedback","test","null","","","na","","161","",""
"778.9999999999418","293304","HierDyjbsxbhph","sub01 ","01 ","7","rl","test","74","img/r_c_stripes.png","6","74","color,shape,pattern","162","1",""
"null","294306","HierDyjbsxbhph","sub01 ","01 ","7","feedback","test","null","","","na","","162","",""
"1087.0000000000582","295395","HierDyjbsxbhph","sub01 ","01 ","7","rl","test","65","img/b_c_dots.png","1","65","color,shape,pattern","163","1",""
"null","296397","HierDyjbsxbhph","sub01 ","01 ","7","feedback","test","null","","","na","","163","",""
"817","297215","HierDyjbsxbhph","sub01 ","01 ","7","rl","test","68","img/r_s_dots.png","7","75","color,shape,pattern","164","0",""
"null","298218","HierDyjbsxbhph","sub01 ","01 ","7","feedback","test","null","","","na","","164","",""
"1382","299602","HierDyjbsxbhph","sub01 ","01 ","7","rl","test","65","img/b_c_dots.png","1","65","color,shape,pattern","165","1",""
"null","300604","HierDyjbsxbhph","sub01 ","01 ","7","feedback","test","null","","","na","","165","",""
"562","301167","HierDyjbsxbhph","sub01 ","01 ","7","rl","test","72","img/r_c_dots.png","5","72","color,shape,pattern","166","1",""
"null","302170","HierDyjbsxbhph","sub01 ","01 ","7","feedback","test","null","","","na","","166","",""
"608","302779","HierDyjbsxbhph","sub01 ","01 ","7","rl","test","70","img/b_s_stripes.png","4","70","color,shape,pattern","167","1",""
"null","303781","HierDyjbsxbhph","sub01 ","01 ","7","feedback","test","null","","","na","","167","",""
"698","304481","HierDyjbsxbhph","sub01 ","01 ","7","rl","test","76","img/r_s_stripes.png","8","76","color,shape,pattern","168","1",""
"null","305484","HierDyjbsxbhph","sub01 ","01 ","7","feedback","test","null","","","na","","168","",""
"661","306146","HierDyjbsxbhph","sub01 ","01 ","7","rl","test","83","img/b_c_stripes.png","2","83","color,shape,pattern","169","1",""
"null","307148","HierDyjbsxbhph","sub01 ","01 ","7","feedback","test","null","","","na","","169","",""
"766.9999999999418","307917","HierDyjbsxbhph","sub01 ","01 ","7","rl","test","68","img/r_s_dots.png","7","75","color,shape,pattern","170","0",""
"null","308920","HierDyjbsxbhph","sub01 ","01 ","7","feedback","test","null","","","na","","170","",""
"1015.0000000000582","309936","HierDyjbsxbhph","sub01 ","01 ","7","rl","test","70","img/b_s_stripes.png","4","70","color,shape,pattern","171","1",""
"null","310938","HierDyjbsxbhph","sub01 ","01 ","7","feedback","test","null","","","na","","171","",""
"584","311524","HierDyjbsxbhph","sub01 ","01 ","7","rl","test","83","img/b_c_stripes.png","2","83","color,shape,pattern","172","1",""
"null","312526","HierDyjbsxbhph","sub01 ","01 ","7","feedback","test","null","","","na","","172","",""
"771.0000000000582","313299","HierDyjbsxbhph","sub01 ","01 ","7","rl","test","72","img/r_c_dots.png","5","72","color,shape,pattern","173","1",""
"null","314301","HierDyjbsxbhph","sub01 ","01 ","7","feedback","test","null","","","na","","173","",""
"791","315094","HierDyjbsxbhph","sub01 ","01 ","7","rl","test","68","img/b_s_dots.png","3","68","color,shape,pattern","174","1",""
"null","316096","HierDyjbsxbhph","sub01 ","01 ","7","feedback","test","null","","","na","","174","",""
"583","316681","HierDyjbsxbhph","sub01 ","01 ","7","rl","test","68","img/b_s_dots.png","3","68","color,shape,pattern","175","1",""
"null","317683","HierDyjbsxbhph","sub01 ","01 ","7","feedback","test","null","","","na","","175","",""
"952","318636","HierDyjbsxbhph","sub01 ","01 ","7","rl","test","74","img/r_c_stripes.png","6","74","color,shape,pattern","176","1",""
"null","319638","HierDyjbsxbhph","sub01 ","01 ","7","feedback","test","null","","","na","","176","",""
"598","320238","HierDyjbsxbhph","sub01 ","01 ","7","rl","test","76","img/r_s_stripes.png","8","76","color,shape,pattern","177","1",""
"null","321239","HierDyjbsxbhph","sub01 ","01 ","7","feedback","test","null","","","na","","177","",""
"821.0000000000582","322061","HierDyjbsxbhph","sub01 ","01 ","7","rl","test","74","img/r_c_stripes.png","6","74","color,shape,pattern","178","1",""
"null","323063","HierDyjbsxbhph","sub01 ","01 ","7","feedback","test","null","","","na","","178","",""
"511","323575","HierDyjbsxbhph","sub01 ","01 ","7","rl","test","76","img/r_s_stripes.png","8","76","color,shape,pattern","179","1",""
"null","324578","HierDyjbsxbhph","sub01 ","01 ","7","feedback","test","null","","","na","","179","",""
"563","325142","HierDyjbsxbhph","sub01 ","01 ","7","rl","test","72","img/b_c_dots.png","1","65","color,shape,pattern","180","0",""
"null","326144","HierDyjbsxbhph","sub01 ","01 ","7","feedback","test","null","","","na","","180","",""
"565.9999999999418","326711","HierDyjbsxbhph","sub01 ","01 ","7","rl","test","65","img/r_c_dots.png","5","72","color,shape,pattern","181","0",""
"null","327713","HierDyjbsxbhph","sub01 ","01 ","7","feedback","test","null","","","na","","181","",""
"543","328257","HierDyjbsxbhph","sub01 ","01 ","7","rl","test","83","img/b_c_stripes.png","2","83","color,shape,pattern","182","1",""
"null","329260","HierDyjbsxbhph","sub01 ","01 ","7","feedback","test","null","","","na","","182","",""
"1106","330367","HierDyjbsxbhph","sub01 ","01 ","7","rl","test","76","img/r_s_dots.png","7","75","color,shape,pattern","183","0",""
"null","331368","HierDyjbsxbhph","sub01 ","01 ","7","feedback","test","null","","","na","","183","",""
"652","332022","HierDyjbsxbhph","sub01 ","01 ","7","rl","test","74","img/r_c_stripes.png","6","74","color,shape,pattern","184","1",""
"null","333024","HierDyjbsxbhph","sub01 ","01 ","7","feedback","test","null","","","na","","184","",""
"548","333574","HierDyjbsxbhph","sub01 ","01 ","7","rl","test","70","img/b_s_stripes.png","4","70","color,shape,pattern","185","1",""
"null","334577","HierDyjbsxbhph","sub01 ","01 ","7","feedback","test","null","","","na","","185","",""
"815","335393","HierDyjbsxbhph","sub01 ","01 ","7","rl","test","72","img/r_c_dots.png","5","72","color,shape,pattern","186","1",""
"null","336396","HierDyjbsxbhph","sub01 ","01 ","7","feedback","test","null","","","na","","186","",""
"925","337322","HierDyjbsxbhph","sub01 ","01 ","7","rl","test","68","img/b_s_dots.png","3","68","color,shape,pattern","187","1",""
"null","338324","HierDyjbsxbhph","sub01 ","01 ","7","feedback","test","null","","","na","","187","",""
"584","338909","HierDyjbsxbhph","sub01 ","01 ","7","rl","test","70","img/b_s_stripes.png","4","70","color,shape,pattern","188","1",""
"null","339912","HierDyjbsxbhph","sub01 ","01 ","7","feedback","test","null","","","na","","188","",""
"661","340573","HierDyjbsxbhph","sub01 ","01 ","7","rl","test","76","img/r_s_stripes.png","8","76","color,shape,pattern","189","1",""
"null","341576","HierDyjbsxbhph","sub01 ","01 ","7","feedback","test","null","","","na","","189","",""
"1091","342668","HierDyjbsxbhph","sub01 ","01 ","7","rl","test","65","img/b_c_dots.png","1","65","color,shape,pattern","190","1",""
"null","343671","HierDyjbsxbhph","sub01 ","01 ","7","feedback","test","null","","","na","","190","",""
"592","344265","HierDyjbsxbhph","sub01 ","01 ","7","rl","test","68","img/b_s_dots.png","3","68","color,shape,pattern","191","1",""
"null","345266","HierDyjbsxbhph","sub01 ","01 ","7","feedback","test","null","","","na","","191","",""
"646","345914","HierDyjbsxbhph","sub01 ","01 ","7","rl","test","75","img/r_s_dots.png","7","75","color,shape,pattern","192","1",""
"null","346916","HierDyjbsxbhph","sub01 ","01 ","7","feedback","test","null","","","na","","192","",""
"688","347605","HierDyjbsxbhph","sub01 ","01 ","7","rl","test","83","img/b_c_stripes.png","2","83","color,shape,pattern","193","1",""
"null","348608","HierDyjbsxbhph","sub01 ","01 ","7","feedback","test","null","","","na","","193","",""
"744.9999999999418","349354","HierDyjbsxbhph","sub01 ","01 ","7","rl","test","83","img/b_c_stripes.png","2","83","color,shape,pattern","194","1",""
"null","350355","HierDyjbsxbhph","sub01 ","01 ","7","feedback","test","null","","","na","","194","",""
"714","351070","HierDyjbsxbhph","sub01 ","01 ","7","rl","test","70","img/b_s_stripes.png","4","70","color,shape,pattern","195","1",""
"null","352073","HierDyjbsxbhph","sub01 ","01 ","7","feedback","test","null","","","na","","195","",""
"570","352644","HierDyjbsxbhph","sub01 ","01 ","7","rl","test","74","img/r_c_stripes.png","6","74","color,shape,pattern","196","1",""
"null","353646","HierDyjbsxbhph","sub01 ","01 ","7","feedback","test","null","","","na","","196","",""
"663.0000000000582","354310","HierDyjbsxbhph","sub01 ","01 ","7","rl","test","68","img/r_s_dots.png","7","75","color,shape,pattern","197","0",""
"null","355313","HierDyjbsxbhph","sub01 ","01 ","7","feedback","test","null","","","na","","197","",""
"721","356036","HierDyjbsxbhph","sub01 ","01 ","7","rl","test","65","img/b_c_dots.png","1","65","color,shape,pattern","198","1",""
"null","357038","HierDyjbsxbhph","sub01 ","01 ","7","feedback","test","null","","","na","","198","",""
"508","357548","HierDyjbsxbhph","sub01 ","01 ","7","rl","test","72","img/r_c_dots.png","5","72","color,shape,pattern","199","1",""
"null","358551","HierDyjbsxbhph","sub01 ","01 ","7","feedback","test","null","","","na","","199","",""
"488","359040","HierDyjbsxbhph","sub01 ","01 ","7","rl","test","70","img/r_s_stripes.png","8","76","color,shape,pattern","200","0",""
"null","360042","HierDyjbsxbhph","sub01 ","01 ","7","feedback","test","null","","","na","","200","",""
"478.9999999999418","360523","HierDyjbsxbhph","sub01 ","01 ","7","rl","test","70","img/r_s_stripes.png","8","76","color,shape,pattern","201","0",""
"null","361525","HierDyjbsxbhph","sub01 ","01 ","7","feedback","test","null","","","na","","201","",""
"721","362247","HierDyjbsxbhph","sub01 ","01 ","7","rl","test","83","img/b_c_dots.png","1","65","color,shape,pattern","202","0",""
"null","363249","HierDyjbsxbhph","sub01 ","01 ","7","feedback","test","null","","","na","","202","",""
"1168.0000000000582","364418","HierDyjbsxbhph","sub01 ","01 ","7","rl","test","75","img/r_s_dots.png","7","75","color,shape,pattern","203","1",""
"null","365421","HierDyjbsxbhph","sub01 ","01 ","7","feedback","test","null","","","na","","203","",""
"661","366083","HierDyjbsxbhph","sub01 ","01 ","7","rl","test","83","img/b_s_dots.png","3","68","color,shape,pattern","204","0",""
"null","367085","HierDyjbsxbhph","sub01 ","01 ","7","feedback","test","null","","","na","","204","",""
"989","368075","HierDyjbsxbhph","sub01 ","01 ","7","rl","test","72","img/r_c_dots.png","5","72","color,shape,pattern","205","1",""
"null","369077","HierDyjbsxbhph","sub01 ","01 ","7","feedback","test","null","","","na","","205","",""
"1173","370252","HierDyjbsxbhph","sub01 ","01 ","7","rl","test","75","img/r_s_dots.png","7","75","color,shape,pattern","206","1",""
"null","371254","HierDyjbsxbhph","sub01 ","01 ","7","feedback","test","null","","","na","","206","",""
"681","371936","HierDyjbsxbhph","sub01 ","01 ","7","rl","test","72","img/r_c_dots.png","5","72","color,shape,pattern","207","1",""
"null","372939","HierDyjbsxbhph","sub01 ","01 ","7","feedback","test","null","","","na","","207","",""
"614","373554","HierDyjbsxbhph","sub01 ","01 ","7","rl","test","83","img/b_c_stripes.png","2","83","color,shape,pattern","208","1",""
"null","374557","HierDyjbsxbhph","sub01 ","01 ","7","feedback","test","null","","","na","","208","",""
"1127.0000000000582","375685","HierDyjbsxbhph","sub01 ","01 ","7","rl","test","76","img/r_s_stripes.png","8","76","color,shape,pattern","209","1",""
"null","376688","HierDyjbsxbhph","sub01 ","01 ","7","feedback","test","null","","","na","","209","",""
"1116.0000000000582","377806","HierDyjbsxbhph","sub01 ","01 ","7","rl","test","70","img/b_s_stripes.png","4","70","color,shape,pattern","210","1",""
"null","378808","HierDyjbsxbhph","sub01 ","01 ","7","feedback","test","null","","","na","","210","",""
"1500","380309","HierDyjbsxbhph","sub01 ","01 ","7","rl","test","74","img/r_c_stripes.png","6","74","color,shape,pattern","211","1",""
"null","381312","HierDyjbsxbhph","sub01 ","01 ","7","feedback","test","null","","","na","","211","",""
"413","381726","HierDyjbsxbhph","sub01 ","01 ","7","rl","test","74","img/r_c_stripes.png","6","74","color,shape,pattern","212","1",""
"null","382729","HierDyjbsxbhph","sub01 ","01 ","7","feedback","test","null","","","na","","212","",""
"946","383676","HierDyjbsxbhph","sub01 ","01 ","7","rl","test","76","img/b_s_stripes.png","4","70","color,shape,pattern","213","0",""
"null","384679","HierDyjbsxbhph","sub01 ","01 ","7","feedback","test","null","","","na","","213","",""
"906.9999999999418","385588","HierDyjbsxbhph","sub01 ","01 ","7","rl","test","68","img/b_s_dots.png","3","68","color,shape,pattern","214","1",""
"null","386590","HierDyjbsxbhph","sub01 ","01 ","7","feedback","test","null","","","na","","214","",""
"616","387208","HierDyjbsxbhph","sub01 ","01 ","7","rl","test","83","img/b_c_stripes.png","2","83","color,shape,pattern","215","1",""
"null","388210","HierDyjbsxbhph","sub01 ","01 ","7","feedback","test","null","","","na","","215","",""
"557","388768","HierDyjbsxbhph","sub01 ","01 ","7","rl","test","65","img/b_c_dots.png","1","65","color,shape,pattern","216","1",""
"null","389770","HierDyjbsxbhph","sub01 ","01 ","7","feedback","test","null","","","na","","216","",""
"1110","390882","HierDyjbsxbhph","sub01 ","01 ","7","rl","test","75","img/r_c_stripes.png","6","74","color,shape,pattern","217","0",""
"null","391884","HierDyjbsxbhph","sub01 ","01 ","7","feedback","test","null","","","na","","217","",""
"626","392511","HierDyjbsxbhph","sub01 ","01 ","7","rl","test","76","img/r_s_stripes.png","8","76","color,shape,pattern","218","1",""
"null","393513","HierDyjbsxbhph","sub01 ","01 ","7","feedback","test","null","","","na","","218","",""
"857","394371","HierDyjbsxbhph","sub01 ","01 ","7","rl","test","72","img/r_c_dots.png","5","72","color,shape,pattern","219","1",""
"null","395374","HierDyjbsxbhph","sub01 ","01 ","7","feedback","test","null","","","na","","219","",""
"1069","396444","HierDyjbsxbhph","sub01 ","01 ","7","rl","test","70","img/b_s_stripes.png","4","70","color,shape,pattern","220","1",""
"null","397446","HierDyjbsxbhph","sub01 ","01 ","7","feedback","test","null","","","na","","220","",""
"1006.9999999999418","398454","HierDyjbsxbhph","sub01 ","01 ","7","rl","test","75","img/r_s_dots.png","7","75","color,shape,pattern","221","1",""
"null","399456","HierDyjbsxbhph","sub01 ","01 ","7","feedback","test","null","","","na","","221","",""
"617","400074","HierDyjbsxbhph","sub01 ","01 ","7","rl","test","76","img/r_s_stripes.png","8","76","color,shape,pattern","222","1",""
"null","401076","HierDyjbsxbhph","sub01 ","01 ","7","feedback","test","null","","","na","","222","",""
"659","401736","HierDyjbsxbhph","sub01 ","01 ","7","rl","test","75","img/r_s_dots.png","7","75","color,shape,pattern","223","1",""
"null","402738","HierDyjbsxbhph","sub01 ","01 ","7","feedback","test","null","","","na","","223","",""
"655.0000000000582","403394","HierDyjbsxbhph","sub01 ","01 ","7","rl","test","83","img/b_c_stripes.png","2","83","color,shape,pattern","224","1",""
"null","404396","HierDyjbsxbhph","sub01 ","01 ","7","feedback","test","null","","","na","","224","",""
"555","404953","HierDyjbsxbhph","sub01 ","01 ","7","rl","test","68","img/b_s_dots.png","3","68","color,shape,pattern","225","1",""
"null","405955","HierDyjbsxbhph","sub01 ","01 ","7","feedback","test","null","","","na","","225","",""
"1112","407069","HierDyjbsxbhph","sub01 ","01 ","7","rl","test","65","img/b_c_dots.png","1","65","color,shape,pattern","226","1",""
"null","408071","HierDyjbsxbhph","sub01 ","01 ","7","feedback","test","null","","","na","","226","",""
"610.9999999999418","408683","HierDyjbsxbhph","sub01 ","01 ","7","rl","test","68","img/b_s_dots.png","3","68","color,shape,pattern","227","1",""
"null","409686","HierDyjbsxbhph","sub01 ","01 ","7","feedback","test","null","","","na","","227","",""
"679","410366","HierDyjbsxbhph","sub01 ","01 ","7","rl","test","70","img/b_s_stripes.png","4","70","color,shape,pattern","228","1",""
"null","411369","HierDyjbsxbhph","sub01 ","01 ","7","feedback","test","null","","","na","","228","",""
"1228.9999999999418","412600","HierDyjbsxbhph","sub01 ","01 ","7","rl","test","83","img/b_c_stripes.png","2","83","color,shape,pattern","229","1",""
"null","413602","HierDyjbsxbhph","sub01 ","01 ","7","feedback","test","null","","","na","","229","",""
"604","414207","HierDyjbsxbhph","sub01 ","01 ","7","rl","test","74","img/r_c_stripes.png","6","74","color,shape,pattern","230","1",""
"null","415210","HierDyjbsxbhph","sub01 ","01 ","7","feedback","test","null","","","na","","230","",""
"677","415888","HierDyjbsxbhph","sub01 ","01 ","7","rl","test","72","img/b_c_dots.png","1","65","color,shape,pattern","231","0",""
"null","416891","HierDyjbsxbhph","sub01 ","01 ","7","feedback","test","null","","","na","","231","",""
"592","417484","HierDyjbsxbhph","sub01 ","01 ","7","rl","test","65","img/b_c_dots.png","1","65","color,shape,pattern","232","1",""
"null","418487","HierDyjbsxbhph","sub01 ","01 ","7","feedback","test","null","","","na","","232","",""
"1108.0000000000582","419596","HierDyjbsxbhph","sub01 ","01 ","7","rl","test","72","img/r_c_dots.png","5","72","color,shape,pattern","233","1",""
"null","420599","HierDyjbsxbhph","sub01 ","01 ","7","feedback","test","null","","","na","","233","",""
"597.0000000000582","421197","HierDyjbsxbhph","sub01 ","01 ","7","rl","test","74","img/r_c_stripes.png","6","74","color,shape,pattern","234","1",""
"null","422198","HierDyjbsxbhph","sub01 ","01 ","7","feedback","test","null","","","na","","234","",""
"707","422907","HierDyjbsxbhph","sub01 ","01 ","7","rl","test","70","img/b_s_stripes.png","4","70","color,shape,pattern","235","1",""
"null","423910","HierDyjbsxbhph","sub01 ","01 ","7","feedback","test","null","","","na","","235","",""
"913.9999999999418","424825","HierDyjbsxbhph","sub01 ","01 ","7","rl","test","72","img/r_c_dots.png","5","72","color,shape,pattern","236","1",""
"null","425827","HierDyjbsxbhph","sub01 ","01 ","7","feedback","test","null","","","na","","236","",""
"564","426392","HierDyjbsxbhph","sub01 ","01 ","7","rl","test","76","img/r_s_stripes.png","8","76","color,shape,pattern","237","1",""
"null","427395","HierDyjbsxbhph","sub01 ","01 ","7","feedback","test","null","","","na","","237","",""
"585","427981","HierDyjbsxbhph","sub01 ","01 ","7","rl","test","75","img/r_s_dots.png","7","75","color,shape,pattern","238","1",""
"null","428983","HierDyjbsxbhph","sub01 ","01 ","7","feedback","test","null","","","na","","238","",""
"669","429653","HierDyjbsxbhph","sub01 ","01 ","7","rl","test","68","img/b_s_dots.png","3","68","color,shape,pattern","239","1",""
"null","430656","HierDyjbsxbhph","sub01 ","01 ","7","feedback","test","null","","","na","","239","",""
"1454","432111","HierDyjbsxbhph","sub01 ","01 ","7","rl","test","72","img/b_c_stripes.png","2","83","color,shape,pattern","240","0",""
"null","433113","HierDyjbsxbhph","sub01 ","01 ","7","feedback","test","null","","","na","","240","",""
"638","433753","HierDyjbsxbhph","sub01 ","01 ","7","rl","test","70","img/b_s_stripes.png","4","70","color,shape,pattern","241","1",""
"null","434755","HierDyjbsxbhph","sub01 ","01 ","7","feedback","test","null","","","na","","241","",""
"738.9999999999418","435496","HierDyjbsxbhph","sub01 ","01 ","7","rl","test","72","img/r_c_dots.png","5","72","color,shape,pattern","242","1",""
"null","436498","HierDyjbsxbhph","sub01 ","01 ","7","feedback","test","null","","","na","","242","",""
"2387.000000000058","438887","HierDyjbsxbhph","sub01 ","01 ","7","rl","test","83","img/b_c_stripes.png","2","83","color,shape,pattern","243","1",""
"null","439889","HierDyjbsxbhph","sub01 ","01 ","7","feedback","test","null","","","na","","243","",""
"860","440751","HierDyjbsxbhph","sub01 ","01 ","7","rl","test","65","img/b_c_dots.png","1","65","color,shape,pattern","244","1",""
"null","441754","HierDyjbsxbhph","sub01 ","01 ","7","feedback","test","null","","","na","","244","",""
"529","442284","HierDyjbsxbhph","sub01 ","01 ","7","rl","test","70","img/r_s_stripes.png","8","76","color,shape,pattern","245","0",""
"null","443286","HierDyjbsxbhph","sub01 ","01 ","7","feedback","test","null","","","na","","245","",""
"881","444169","HierDyjbsxbhph","sub01 ","01 ","7","rl","test","70","img/b_s_dots.png","3","68","color,shape,pattern","246","0",""
"null","445171","HierDyjbsxbhph","sub01 ","01 ","7","feedback","test","null","","","na","","246","",""
"975","446147","HierDyjbsxbhph","sub01 ","01 ","7","rl","test","74","img/r_c_stripes.png","6","74","color,shape,pattern","247","1",""
"null","447149","HierDyjbsxbhph","sub01 ","01 ","7","feedback","test","null","","","na","","247","",""
"861.0000000000582","448012","HierDyjbsxbhph","sub01 ","01 ","7","rl","test","76","img/r_s_dots.png","7","75","color,shape,pattern","248","0",""
"null","449015","HierDyjbsxbhph","sub01 ","01 ","7","feedback","test","null","","","na","","248","",""
"8073","457119","HierDyjbsxbhph","sub01 ","01 ","7","","","","","","","","","","{""Q0"":""7""}"
"8993","466115","HierDyjbsxbhph","sub01 ","01 ","7","","","","","","","","","","{""Q0"":""instinct""}"
"1586","467702","HierDyjbsxbhph","sub01 ","01 ","7","","","","","","","","","",""
