"rt","time_elapsed","subject","subID","group","day","trialType","phase","key_press","stim","stimNum","corrresp","hierarchy","trialNum","corr","responses"
"4024.0999999046326","4025","HierDyencvfh9k","sub04","04","6","","","","","","","","","",""
"","6080","HierDyencvfh9k","sub04","04","6","fullscreen","","","","","","","","",""
"1073.0999999046326","7154","HierDyencvfh9k","sub04","04","6","","prac","","","","","","","",""
"1237.6999998092651","8395","HierDyencvfh9k","sub04","04","6","","","32","","","","","","",""
"551.8999996185303","8947","HierDyencvfh9k","sub04","04","6","","prac","","","","","","","",""
"1895","10843","HierDyencvfh9k","sub04","04","6","rl","test","83","img/o_s_stripes.png","2","83","color,pattern,shape","1","1",""
"null","11857","HierDyencvfh9k","sub04","04","6","feedback","test","null","","","na","","1","",""
"948.6999998092651","12807","HierDyencvfh9k","sub04","04","6","rl","test","74","img/b_s_stripes.png","6","74","color,pattern,shape","2","1",""
"null","13821","HierDyencvfh9k","sub04","04","6","feedback","test","null","","","na","","2","",""
"1628.2000002861023","15451","HierDyencvfh9k","sub04","04","6","rl","test","72","img/b_d_stripes.png","5","72","color,pattern,shape","3","1",""
"null","16462","HierDyencvfh9k","sub04","04","6","feedback","test","null","","","na","","3","",""
"1186.7999997138977","17650","HierDyencvfh9k","sub04","04","6","rl","test","75","img/b_d_check.png","7","75","color,pattern,shape","4","1",""
"null","18666","HierDyencvfh9k","sub04","04","6","feedback","test","null","","","na","","4","",""
"2378.0999999046326","21045","HierDyencvfh9k","sub04","04","6","rl","test","70","img/o_s_check.png","4","70","color,pattern,shape","5","1",""
"null","22050","HierDyencvfh9k","sub04","04","6","feedback","test","null","","","na","","5","",""
"917.7000002861023","22968","HierDyencvfh9k","sub04","04","6","rl","test","68","img/o_d_check.png","3","68","color,pattern,shape","6","1",""
"null","23981","HierDyencvfh9k","sub04","04","6","feedback","test","null","","","na","","6","",""
"null","26491","HierDyencvfh9k","sub04","04","6","rl","test","null","img/o_d_stripes.png","1","65","color,pattern,shape","7","0",""
"null","27504","HierDyencvfh9k","sub04","04","6","feedback","test","null","","","na","","7","",""
"877.2000002861023","28382","HierDyencvfh9k","sub04","04","6","rl","test","76","img/b_s_check.png","8","76","color,pattern,shape","8","1",""
"null","29405","HierDyencvfh9k","sub04","04","6","feedback","test","null","","","na","","8","",""
"1629.4000000953674","31036","HierDyencvfh9k","sub04","04","6","rl","test","70","img/o_d_check.png","3","68","color,pattern,shape","9","0",""
"null","32050","HierDyencvfh9k","sub04","04","6","feedback","test","null","","","na","","9","",""
"819.1999998092651","32870","HierDyencvfh9k","sub04","04","6","rl","test","76","img/b_s_check.png","8","76","color,pattern,shape","10","1",""
"null","33883","HierDyencvfh9k","sub04","04","6","feedback","test","null","","","na","","10","",""
"1908.3000001907349","35792","HierDyencvfh9k","sub04","04","6","rl","test","65","img/o_s_stripes.png","2","83","color,pattern,shape","11","0",""
"null","36802","HierDyencvfh9k","sub04","04","6","feedback","test","null","","","na","","11","",""
"619.6000003814697","37422","HierDyencvfh9k","sub04","04","6","rl","test","72","img/b_d_stripes.png","5","72","color,pattern,shape","12","1",""
"null","38442","HierDyencvfh9k","sub04","04","6","feedback","test","null","","","na","","12","",""
"1140.5","39584","HierDyencvfh9k","sub04","04","6","rl","test","74","img/b_s_stripes.png","6","74","color,pattern,shape","13","1",""
"null","40606","HierDyencvfh9k","sub04","04","6","feedback","test","null","","","na","","13","",""
"1125.3000001907349","41732","HierDyencvfh9k","sub04","04","6","rl","test","75","img/b_d_check.png","7","75","color,pattern,shape","14","1",""
"null","42742","HierDyencvfh9k","sub04","04","6","feedback","test","null","","","na","","14","",""
"1184.5","43927","HierDyencvfh9k","sub04","04","6","rl","test","72","img/o_d_stripes.png","1","65","color,pattern,shape","15","0",""
"null","44944","HierDyencvfh9k","sub04","04","6","feedback","test","null","","","na","","15","",""
"851.7000002861023","45797","HierDyencvfh9k","sub04","04","6","rl","test","65","img/o_d_stripes.png","1","65","color,pattern,shape","16","1",""
"null","46799","HierDyencvfh9k","sub04","04","6","feedback","test","null","","","na","","16","",""
"1269.5999999046326","48070","HierDyencvfh9k","sub04","04","6","rl","test","68","img/o_s_check.png","4","70","color,pattern,shape","17","0",""
"null","49090","HierDyencvfh9k","sub04","04","6","feedback","test","null","","","na","","17","",""
"1221.8000001907349","50313","HierDyencvfh9k","sub04","04","6","rl","test","74","img/b_d_check.png","7","75","color,pattern,shape","18","0",""
"null","51320","HierDyencvfh9k","sub04","04","6","feedback","test","null","","","na","","18","",""
"667.4000000953674","51989","HierDyencvfh9k","sub04","04","6","rl","test","75","img/b_s_stripes.png","6","74","color,pattern,shape","19","0",""
"null","52994","HierDyencvfh9k","sub04","04","6","feedback","test","null","","","na","","19","",""
"525.9000000953674","53522","HierDyencvfh9k","sub04","04","6","rl","test","76","img/o_s_check.png","4","70","color,pattern,shape","20","0",""
"null","54533","HierDyencvfh9k","sub04","04","6","feedback","test","null","","","na","","20","",""
"1121","55656","HierDyencvfh9k","sub04","04","6","rl","test","68","img/o_d_check.png","3","68","color,pattern,shape","21","1",""
"null","56666","HierDyencvfh9k","sub04","04","6","feedback","test","null","","","na","","21","",""
"777","57444","HierDyencvfh9k","sub04","04","6","rl","test","70","img/o_s_check.png","4","70","color,pattern,shape","22","1",""
"null","58455","HierDyencvfh9k","sub04","04","6","feedback","test","null","","","na","","22","",""
"1690.9000000953674","60147","HierDyencvfh9k","sub04","04","6","rl","test","76","img/b_s_check.png","8","76","color,pattern,shape","23","1",""
"null","61157","HierDyencvfh9k","sub04","04","6","feedback","test","null","","","na","","23","",""
"1614.2000002861023","62773","HierDyencvfh9k","sub04","04","6","rl","test","68","img/o_s_stripes.png","2","83","color,pattern,shape","24","0",""
"null","63790","HierDyencvfh9k","sub04","04","6","feedback","test","null","","","na","","24","",""
"1636.5","65428","HierDyencvfh9k","sub04","04","6","rl","test","75","img/b_d_check.png","7","75","color,pattern,shape","25","1",""
"null","66437","HierDyencvfh9k","sub04","04","6","feedback","test","null","","","na","","25","",""
"null","68947","HierDyencvfh9k","sub04","04","6","rl","test","null","img/b_d_stripes.png","5","72","color,pattern,shape","26","0",""
"null","69955","HierDyencvfh9k","sub04","04","6","feedback","test","null","","","na","","26","",""
"415","70372","HierDyencvfh9k","sub04","04","6","rl","test","75","img/b_d_stripes.png","5","72","color,pattern,shape","27","0",""
"null","71380","HierDyencvfh9k","sub04","04","6","feedback","test","null","","","na","","27","",""
"248.80000019073486","71630","HierDyencvfh9k","sub04","04","6","rl","test","75","img/b_s_check.png","8","76","color,pattern,shape","28","0",""
"null","72652","HierDyencvfh9k","sub04","04","6","feedback","test","null","","","na","","28","",""
"null","75160","HierDyencvfh9k","sub04","04","6","rl","test","null","img/o_d_check.png","3","68","color,pattern,shape","29","0",""
"null","76181","HierDyencvfh9k","sub04","04","6","feedback","test","null","","","na","","29","",""
"null","78697","HierDyencvfh9k","sub04","04","6","rl","test","null","img/o_s_stripes.png","2","83","color,pattern,shape","30","0",""
"null","79705","HierDyencvfh9k","sub04","04","6","feedback","test","null","","","na","","30","",""
"null","82226","HierDyencvfh9k","sub04","04","6","rl","test","null","img/o_d_stripes.png","1","65","color,pattern,shape","31","0",""
"null","83245","HierDyencvfh9k","sub04","04","6","feedback","test","null","","","na","","31","",""
"918.5999999046326","84165","HierDyencvfh9k","sub04","04","6","rl","test","70","img/b_s_stripes.png","6","74","color,pattern,shape","32","0",""
"null","85191","HierDyencvfh9k","sub04","04","6","feedback","test","null","","","na","","32","",""
"471.30000019073486","85664","HierDyencvfh9k","sub04","04","6","rl","test","83","img/b_s_stripes.png","6","74","color,pattern,shape","33","0",""
"null","86676","HierDyencvfh9k","sub04","04","6","feedback","test","null","","","na","","33","",""
"417.69999980926514","87096","HierDyencvfh9k","sub04","04","6","rl","test","68","img/o_s_check.png","4","70","color,pattern,shape","34","0",""
"null","88113","HierDyencvfh9k","sub04","04","6","feedback","test","null","","","na","","34","",""
"806.5","88922","HierDyencvfh9k","sub04","04","6","rl","test","70","img/b_s_check.png","8","76","color,pattern,shape","35","0",""
"null","89928","HierDyencvfh9k","sub04","04","6","feedback","test","null","","","na","","35","",""
"1316.9000000953674","91247","HierDyencvfh9k","sub04","04","6","rl","test","70","img/b_d_stripes.png","5","72","color,pattern,shape","36","0",""
"null","92263","HierDyencvfh9k","sub04","04","6","feedback","test","null","","","na","","36","",""
"871.3999996185303","93136","HierDyencvfh9k","sub04","04","6","rl","test","70","img/b_d_check.png","7","75","color,pattern,shape","37","0",""
"null","94152","HierDyencvfh9k","sub04","04","6","feedback","test","null","","","na","","37","",""
"622.5999999046326","94777","HierDyencvfh9k","sub04","04","6","rl","test","70","img/b_d_stripes.png","5","72","color,pattern,shape","38","0",""
"null","95786","HierDyencvfh9k","sub04","04","6","feedback","test","null","","","na","","38","",""
"null","98309","HierDyencvfh9k","sub04","04","6","rl","test","null","img/o_d_check.png","3","68","color,pattern,shape","39","0",""
"null","99331","HierDyencvfh9k","sub04","04","6","feedback","test","null","","","na","","39","",""
"null","101844","HierDyencvfh9k","sub04","04","6","rl","test","null","img/b_s_check.png","8","76","color,pattern,shape","40","0",""
"null","102856","HierDyencvfh9k","sub04","04","6","feedback","test","null","","","na","","40","",""
"null","105364","HierDyencvfh9k","sub04","04","6","rl","test","null","img/o_s_stripes.png","2","83","color,pattern,shape","41","0",""
"null","106377","HierDyencvfh9k","sub04","04","6","feedback","test","null","","","na","","41","",""
"null","108890","HierDyencvfh9k","sub04","04","6","rl","test","null","img/o_d_check.png","3","68","color,pattern,shape","42","0",""
"null","109900","HierDyencvfh9k","sub04","04","6","feedback","test","null","","","na","","42","",""
"null","112412","HierDyencvfh9k","sub04","04","6","rl","test","null","img/o_s_check.png","4","70","color,pattern,shape","43","0",""
"null","113424","HierDyencvfh9k","sub04","04","6","feedback","test","null","","","na","","43","",""
"1468.7999997138977","114895","HierDyencvfh9k","sub04","04","6","rl","test","75","img/o_d_stripes.png","1","65","color,pattern,shape","44","0",""
"null","115906","HierDyencvfh9k","sub04","04","6","feedback","test","null","","","na","","44","",""
"null","118416","HierDyencvfh9k","sub04","04","6","rl","test","null","img/o_s_stripes.png","2","83","color,pattern,shape","45","0",""
"null","119427","HierDyencvfh9k","sub04","04","6","feedback","test","null","","","na","","45","",""
"876.8000001907349","120305","HierDyencvfh9k","sub04","04","6","rl","test","74","img/b_d_stripes.png","5","72","color,pattern,shape","46","0",""
"null","121311","HierDyencvfh9k","sub04","04","6","feedback","test","null","","","na","","46","",""
"1050.8000001907349","122364","HierDyencvfh9k","sub04","04","6","rl","test","74","img/b_s_stripes.png","6","74","color,pattern,shape","47","1",""
"null","123370","HierDyencvfh9k","sub04","04","6","feedback","test","null","","","na","","47","",""
"1138.7000002861023","124510","HierDyencvfh9k","sub04","04","6","rl","test","68","img/o_d_stripes.png","1","65","color,pattern,shape","48","0",""
"null","125532","HierDyencvfh9k","sub04","04","6","feedback","test","null","","","na","","48","",""
"1027.5999999046326","126561","HierDyencvfh9k","sub04","04","6","rl","test","74","img/b_s_stripes.png","6","74","color,pattern,shape","49","1",""
"null","127570","HierDyencvfh9k","sub04","04","6","feedback","test","null","","","na","","49","",""
"855.6999998092651","128427","HierDyencvfh9k","sub04","04","6","rl","test","76","img/b_s_check.png","8","76","color,pattern,shape","50","1",""
"null","129441","HierDyencvfh9k","sub04","04","6","feedback","test","null","","","na","","50","",""
"522","129964","HierDyencvfh9k","sub04","04","6","rl","test","75","img/b_d_check.png","7","75","color,pattern,shape","51","1",""
"null","130972","HierDyencvfh9k","sub04","04","6","feedback","test","null","","","na","","51","",""
"1042.6999998092651","132017","HierDyencvfh9k","sub04","04","6","rl","test","83","img/o_s_stripes.png","2","83","color,pattern,shape","52","1",""
"null","133025","HierDyencvfh9k","sub04","04","6","feedback","test","null","","","na","","52","",""
"1368","134395","HierDyencvfh9k","sub04","04","6","rl","test","70","img/o_d_check.png","3","68","color,pattern,shape","53","0",""
"null","135404","HierDyencvfh9k","sub04","04","6","feedback","test","null","","","na","","53","",""
"909.4000000953674","136315","HierDyencvfh9k","sub04","04","6","rl","test","68","img/b_d_check.png","7","75","color,pattern,shape","54","0",""
"null","137320","HierDyencvfh9k","sub04","04","6","feedback","test","null","","","na","","54","",""
"null","139834","HierDyencvfh9k","sub04","04","6","rl","test","null","img/b_s_stripes.png","6","74","color,pattern,shape","55","0",""
"null","140845","HierDyencvfh9k","sub04","04","6","feedback","test","null","","","na","","55","",""
"null","143353","HierDyencvfh9k","sub04","04","6","rl","test","null","img/o_s_check.png","4","70","color,pattern,shape","56","0",""
"null","144366","HierDyencvfh9k","sub04","04","6","feedback","test","null","","","na","","56","",""
"1392.5","145760","HierDyencvfh9k","sub04","04","6","rl","test","76","img/o_s_check.png","4","70","color,pattern,shape","57","0",""
"null","146778","HierDyencvfh9k","sub04","04","6","feedback","test","null","","","na","","57","",""
"2366.5999999046326","149147","HierDyencvfh9k","sub04","04","6","rl","test","74","img/o_d_stripes.png","1","65","color,pattern,shape","58","0",""
"null","150155","HierDyencvfh9k","sub04","04","6","feedback","test","null","","","na","","58","",""
"1963.3000001907349","152120","HierDyencvfh9k","sub04","04","6","rl","test","83","img/b_d_check.png","7","75","color,pattern,shape","59","0",""
"null","153141","HierDyencvfh9k","sub04","04","6","feedback","test","null","","","na","","59","",""
"null","155654","HierDyencvfh9k","sub04","04","6","rl","test","null","img/o_d_stripes.png","1","65","color,pattern,shape","60","0",""
"null","156669","HierDyencvfh9k","sub04","04","6","feedback","test","null","","","na","","60","",""
"null","159184","HierDyencvfh9k","sub04","04","6","rl","test","null","img/b_d_stripes.png","5","72","color,pattern,shape","61","0",""
"null","160202","HierDyencvfh9k","sub04","04","6","feedback","test","null","","","na","","61","",""
"null","162712","HierDyencvfh9k","sub04","04","6","rl","test","null","img/o_d_check.png","3","68","color,pattern,shape","62","0",""
"null","163723","HierDyencvfh9k","sub04","04","6","feedback","test","null","","","na","","62","",""
"2444.5","166169","HierDyencvfh9k","sub04","04","6","rl","test","68","img/o_s_stripes.png","2","83","color,pattern,shape","63","0",""
"null","167189","HierDyencvfh9k","sub04","04","6","feedback","test","null","","","na","","63","",""
"525.5999999046326","167717","HierDyencvfh9k","sub04","04","6","rl","test","75","img/b_s_check.png","8","76","color,pattern,shape","64","0",""
"null","168733","HierDyencvfh9k","sub04","04","6","feedback","test","null","","","na","","64","",""
"769.8000001907349","169504","HierDyencvfh9k","sub04","04","6","rl","test","75","img/b_s_check.png","8","76","color,pattern,shape","65","0",""
"null","170513","HierDyencvfh9k","sub04","04","6","feedback","test","null","","","na","","65","",""
"null","173027","HierDyencvfh9k","sub04","04","6","rl","test","null","img/b_d_stripes.png","5","72","color,pattern,shape","66","0",""
"null","174040","HierDyencvfh9k","sub04","04","6","feedback","test","null","","","na","","66","",""
"null","176555","HierDyencvfh9k","sub04","04","6","rl","test","null","img/b_s_stripes.png","6","74","color,pattern,shape","67","0",""
"null","177568","HierDyencvfh9k","sub04","04","6","feedback","test","null","","","na","","67","",""
"null","180080","HierDyencvfh9k","sub04","04","6","rl","test","null","img/o_d_check.png","3","68","color,pattern,shape","68","0",""
"null","181094","HierDyencvfh9k","sub04","04","6","feedback","test","null","","","na","","68","",""
"null","183612","HierDyencvfh9k","sub04","04","6","rl","test","null","img/b_d_check.png","7","75","color,pattern,shape","69","0",""
"null","184621","HierDyencvfh9k","sub04","04","6","feedback","test","null","","","na","","69","",""
"null","187142","HierDyencvfh9k","sub04","04","6","rl","test","null","img/o_s_stripes.png","2","83","color,pattern,shape","70","0",""
"null","188164","HierDyencvfh9k","sub04","04","6","feedback","test","null","","","na","","70","",""
"null","190678","HierDyencvfh9k","sub04","04","6","rl","test","null","img/o_d_check.png","3","68","color,pattern,shape","71","0",""
"null","191688","HierDyencvfh9k","sub04","04","6","feedback","test","null","","","na","","71","",""
"null","194200","HierDyencvfh9k","sub04","04","6","rl","test","null","img/o_s_check.png","4","70","color,pattern,shape","72","0",""
"null","195211","HierDyencvfh9k","sub04","04","6","feedback","test","null","","","na","","72","",""
"null","197725","HierDyencvfh9k","sub04","04","6","rl","test","null","img/b_d_check.png","7","75","color,pattern,shape","73","0",""
"null","198737","HierDyencvfh9k","sub04","04","6","feedback","test","null","","","na","","73","",""
"1567.5","200306","HierDyencvfh9k","sub04","04","6","rl","test","75","img/o_d_stripes.png","1","65","color,pattern,shape","74","0",""
"null","201314","HierDyencvfh9k","sub04","04","6","feedback","test","null","","","na","","74","",""
"null","203836","HierDyencvfh9k","sub04","04","6","rl","test","null","img/b_s_stripes.png","6","74","color,pattern,shape","75","0",""
"null","204842","HierDyencvfh9k","sub04","04","6","feedback","test","null","","","na","","75","",""
"null","207356","HierDyencvfh9k","sub04","04","6","rl","test","null","img/o_s_stripes.png","2","83","color,pattern,shape","76","0",""
"null","208371","HierDyencvfh9k","sub04","04","6","feedback","test","null","","","na","","76","",""
"null","210891","HierDyencvfh9k","sub04","04","6","rl","test","null","img/o_s_check.png","4","70","color,pattern,shape","77","0",""
"null","211908","HierDyencvfh9k","sub04","04","6","feedback","test","null","","","na","","77","",""
"1913.2999997138977","213823","HierDyencvfh9k","sub04","04","6","rl","test","75","img/b_d_stripes.png","5","72","color,pattern,shape","78","0",""
"null","214847","HierDyencvfh9k","sub04","04","6","feedback","test","null","","","na","","78","",""
"2273.4000000953674","217123","HierDyencvfh9k","sub04","04","6","rl","test","74","img/b_s_check.png","8","76","color,pattern,shape","79","0",""
"null","218142","HierDyencvfh9k","sub04","04","6","feedback","test","null","","","na","","79","",""
"1076","219220","HierDyencvfh9k","sub04","04","6","rl","test","74","img/o_s_stripes.png","2","83","color,pattern,shape","80","0",""
"null","220229","HierDyencvfh9k","sub04","04","6","feedback","test","null","","","na","","80","",""
"null","222736","HierDyencvfh9k","sub04","04","6","rl","test","null","img/o_d_stripes.png","1","65","color,pattern,shape","81","0",""
"null","223747","HierDyencvfh9k","sub04","04","6","feedback","test","null","","","na","","81","",""
"173.60000038146973","223923","HierDyencvfh9k","sub04","04","6","rl","test","74","img/b_d_check.png","7","75","color,pattern,shape","82","0",""
"null","224941","HierDyencvfh9k","sub04","04","6","feedback","test","null","","","na","","82","",""
"1022","225965","HierDyencvfh9k","sub04","04","6","rl","test","74","img/o_d_stripes.png","1","65","color,pattern,shape","83","0",""
"null","226967","HierDyencvfh9k","sub04","04","6","feedback","test","null","","","na","","83","",""
"696.2999997138977","227665","HierDyencvfh9k","sub04","04","6","rl","test","75","img/o_d_check.png","3","68","color,pattern,shape","84","0",""
"null","228677","HierDyencvfh9k","sub04","04","6","feedback","test","null","","","na","","84","",""
"798","229476","HierDyencvfh9k","sub04","04","6","rl","test","76","img/o_s_check.png","4","70","color,pattern,shape","85","0",""
"null","230482","HierDyencvfh9k","sub04","04","6","feedback","test","null","","","na","","85","",""
"1372.7000002861023","231856","HierDyencvfh9k","sub04","04","6","rl","test","74","img/b_s_stripes.png","6","74","color,pattern,shape","86","1",""
"null","232864","HierDyencvfh9k","sub04","04","6","feedback","test","null","","","na","","86","",""
"null","235368","HierDyencvfh9k","sub04","04","6","rl","test","null","img/o_d_check.png","3","68","color,pattern,shape","87","0",""
"null","236382","HierDyencvfh9k","sub04","04","6","feedback","test","null","","","na","","87","",""
"null","238894","HierDyencvfh9k","sub04","04","6","rl","test","null","img/b_d_stripes.png","5","72","color,pattern,shape","88","0",""
"null","239912","HierDyencvfh9k","sub04","04","6","feedback","test","null","","","na","","88","",""
"null","242423","HierDyencvfh9k","sub04","04","6","rl","test","null","img/b_d_stripes.png","5","72","color,pattern,shape","89","0",""
"null","243444","HierDyencvfh9k","sub04","04","6","feedback","test","null","","","na","","89","",""
"null","245959","HierDyencvfh9k","sub04","04","6","rl","test","null","img/b_s_check.png","8","76","color,pattern,shape","90","0",""
"null","246982","HierDyencvfh9k","sub04","04","6","feedback","test","null","","","na","","90","",""
"null","249496","HierDyencvfh9k","sub04","04","6","rl","test","null","img/b_s_stripes.png","6","74","color,pattern,shape","91","0",""
"null","250516","HierDyencvfh9k","sub04","04","6","feedback","test","null","","","na","","91","",""
"null","253026","HierDyencvfh9k","sub04","04","6","rl","test","null","img/b_s_check.png","8","76","color,pattern,shape","92","0",""
"null","254040","HierDyencvfh9k","sub04","04","6","feedback","test","null","","","na","","92","",""
"null","256558","HierDyencvfh9k","sub04","04","6","rl","test","null","img/o_s_stripes.png","2","83","color,pattern,shape","93","0",""
"null","257579","HierDyencvfh9k","sub04","04","6","feedback","test","null","","","na","","93","",""
"null","260100","HierDyencvfh9k","sub04","04","6","rl","test","null","img/b_d_check.png","7","75","color,pattern,shape","94","0",""
"null","261114","HierDyencvfh9k","sub04","04","6","feedback","test","null","","","na","","94","",""
"null","263629","HierDyencvfh9k","sub04","04","6","rl","test","null","img/b_d_stripes.png","5","72","color,pattern,shape","95","0",""
"null","264655","HierDyencvfh9k","sub04","04","6","feedback","test","null","","","na","","95","",""
"null","267162","HierDyencvfh9k","sub04","04","6","rl","test","null","img/b_s_check.png","8","76","color,pattern,shape","96","0",""
"null","268168","HierDyencvfh9k","sub04","04","6","feedback","test","null","","","na","","96","",""
"null","270681","HierDyencvfh9k","sub04","04","6","rl","test","null","img/o_s_check.png","4","70","color,pattern,shape","97","0",""
"null","271694","HierDyencvfh9k","sub04","04","6","feedback","test","null","","","na","","97","",""
"null","274199","HierDyencvfh9k","sub04","04","6","rl","test","null","img/o_d_stripes.png","1","65","color,pattern,shape","98","0",""
"null","275208","HierDyencvfh9k","sub04","04","6","feedback","test","null","","","na","","98","",""
"null","277716","HierDyencvfh9k","sub04","04","6","rl","test","null","img/o_d_stripes.png","1","65","color,pattern,shape","99","0",""
"null","278723","HierDyencvfh9k","sub04","04","6","feedback","test","null","","","na","","99","",""
"null","281242","HierDyencvfh9k","sub04","04","6","rl","test","null","img/o_s_check.png","4","70","color,pattern,shape","100","0",""
"null","282256","HierDyencvfh9k","sub04","04","6","feedback","test","null","","","na","","100","",""
"null","284763","HierDyencvfh9k","sub04","04","6","rl","test","null","img/o_s_stripes.png","2","83","color,pattern,shape","101","0",""
"null","285781","HierDyencvfh9k","sub04","04","6","feedback","test","null","","","na","","101","",""
"2085.9000000953674","287868","HierDyencvfh9k","sub04","04","6","rl","test","70","img/o_d_check.png","3","68","color,pattern,shape","102","0",""
"null","288873","HierDyencvfh9k","sub04","04","6","feedback","test","null","","","na","","102","",""
"281.30000019073486","289156","HierDyencvfh9k","sub04","04","6","rl","test","68","img/b_d_check.png","7","75","color,pattern,shape","103","0",""
"null","290162","HierDyencvfh9k","sub04","04","6","feedback","test","null","","","na","","103","",""
"372.30000019073486","290535","HierDyencvfh9k","sub04","04","6","rl","test","75","img/b_s_stripes.png","6","74","color,pattern,shape","104","0",""
"null","291555","HierDyencvfh9k","sub04","04","6","feedback","test","null","","","na","","104","",""
"140","291696","HierDyencvfh9k","sub04","04","6","rl","test","75","img/o_s_stripes.png","2","83","color,pattern,shape","105","0",""
"null","292705","HierDyencvfh9k","sub04","04","6","feedback","test","null","","","na","","105","",""
"216.89999961853027","292924","HierDyencvfh9k","sub04","04","6","rl","test","70","img/o_d_stripes.png","1","65","color,pattern,shape","106","0",""
"null","293926","HierDyencvfh9k","sub04","04","6","feedback","test","null","","","na","","106","",""
"1269","295196","HierDyencvfh9k","sub04","04","6","rl","test","74","img/b_s_stripes.png","6","74","color,pattern,shape","107","1",""
"null","296200","HierDyencvfh9k","sub04","04","6","feedback","test","null","","","na","","107","",""
"578.0999999046326","296779","HierDyencvfh9k","sub04","04","6","rl","test","76","img/b_d_check.png","7","75","color,pattern,shape","108","0",""
"null","297794","HierDyencvfh9k","sub04","04","6","feedback","test","null","","","na","","108","",""
"631.3000001907349","298427","HierDyencvfh9k","sub04","04","6","rl","test","72","img/b_d_stripes.png","5","72","color,pattern,shape","109","1",""
"null","299434","HierDyencvfh9k","sub04","04","6","feedback","test","null","","","na","","109","",""
"1162.7999997138977","300598","HierDyencvfh9k","sub04","04","6","rl","test","68","img/o_d_check.png","3","68","color,pattern,shape","110","1",""
"null","301608","HierDyencvfh9k","sub04","04","6","feedback","test","null","","","na","","110","",""
"920.5999999046326","302530","HierDyencvfh9k","sub04","04","6","rl","test","76","img/b_s_check.png","8","76","color,pattern,shape","111","1",""
"null","303550","HierDyencvfh9k","sub04","04","6","feedback","test","null","","","na","","111","",""
"1281.7999997138977","304833","HierDyencvfh9k","sub04","04","6","rl","test","83","img/o_s_stripes.png","2","83","color,pattern,shape","112","1",""
"null","305845","HierDyencvfh9k","sub04","04","6","feedback","test","null","","","na","","112","",""
"1024.1999998092651","306870","HierDyencvfh9k","sub04","04","6","rl","test","76","img/b_s_check.png","8","76","color,pattern,shape","113","1",""
"null","307882","HierDyencvfh9k","sub04","04","6","feedback","test","null","","","na","","113","",""
"844.2000002861023","308728","HierDyencvfh9k","sub04","04","6","rl","test","70","img/o_s_check.png","4","70","color,pattern,shape","114","1",""
"null","309738","HierDyencvfh9k","sub04","04","6","feedback","test","null","","","na","","114","",""
"730.5","310470","HierDyencvfh9k","sub04","04","6","rl","test","70","img/o_s_check.png","4","70","color,pattern,shape","115","1",""
"null","311487","HierDyencvfh9k","sub04","04","6","feedback","test","null","","","na","","115","",""
"1414.7000002861023","312903","HierDyencvfh9k","sub04","04","6","rl","test","65","img/o_d_stripes.png","1","65","color,pattern,shape","116","1",""
"null","313922","HierDyencvfh9k","sub04","04","6","feedback","test","null","","","na","","116","",""
"1391.8000001907349","315315","HierDyencvfh9k","sub04","04","6","rl","test","74","img/b_d_check.png","7","75","color,pattern,shape","117","0",""
"null","316326","HierDyencvfh9k","sub04","04","6","feedback","test","null","","","na","","117","",""
"1879.2999997138977","318207","HierDyencvfh9k","sub04","04","6","rl","test","83","img/b_s_stripes.png","6","74","color,pattern,shape","118","0",""
"null","319229","HierDyencvfh9k","sub04","04","6","feedback","test","null","","","na","","118","",""
"911.3000001907349","320141","HierDyencvfh9k","sub04","04","6","rl","test","75","img/b_s_check.png","8","76","color,pattern,shape","119","0",""
"null","321147","HierDyencvfh9k","sub04","04","6","feedback","test","null","","","na","","119","",""
"1531.5","322680","HierDyencvfh9k","sub04","04","6","rl","test","72","img/b_d_stripes.png","5","72","color,pattern,shape","120","1",""
"null","323699","HierDyencvfh9k","sub04","04","6","feedback","test","null","","","na","","120","",""
"654.5999999046326","324355","HierDyencvfh9k","sub04","04","6","rl","test","72","img/b_d_check.png","7","75","color,pattern,shape","121","0",""
"null","325370","HierDyencvfh9k","sub04","04","6","feedback","test","null","","","na","","121","",""
"1438.5999999046326","326810","HierDyencvfh9k","sub04","04","6","rl","test","72","img/o_d_check.png","3","68","color,pattern,shape","122","0",""
"null","327821","HierDyencvfh9k","sub04","04","6","feedback","test","null","","","na","","122","",""
"1390.5","329213","HierDyencvfh9k","sub04","04","6","rl","test","68","img/o_d_check.png","3","68","color,pattern,shape","123","1",""
"null","330223","HierDyencvfh9k","sub04","04","6","feedback","test","null","","","na","","123","",""
"835.8000001907349","331059","HierDyencvfh9k","sub04","04","6","rl","test","83","img/o_d_stripes.png","1","65","color,pattern,shape","124","0",""
"null","332065","HierDyencvfh9k","sub04","04","6","feedback","test","null","","","na","","124","",""
"717.7000002861023","332783","HierDyencvfh9k","sub04","04","6","rl","test","70","img/o_s_check.png","4","70","color,pattern,shape","125","1",""
"null","333804","HierDyencvfh9k","sub04","04","6","feedback","test","null","","","na","","125","",""
"845","334650","HierDyencvfh9k","sub04","04","6","rl","test","74","img/b_s_stripes.png","6","74","color,pattern,shape","126","1",""
"null","335656","HierDyencvfh9k","sub04","04","6","feedback","test","null","","","na","","126","",""
"974.5","336632","HierDyencvfh9k","sub04","04","6","rl","test","83","img/o_s_stripes.png","2","83","color,pattern,shape","127","1",""
"null","337645","HierDyencvfh9k","sub04","04","6","feedback","test","null","","","na","","127","",""
"1061","338707","HierDyencvfh9k","sub04","04","6","rl","test","74","img/b_s_stripes.png","6","74","color,pattern,shape","128","1",""
"null","339720","HierDyencvfh9k","sub04","04","6","feedback","test","null","","","na","","128","",""
"800.2000002861023","340521","HierDyencvfh9k","sub04","04","6","rl","test","72","img/b_d_stripes.png","5","72","color,pattern,shape","129","1",""
"null","341541","HierDyencvfh9k","sub04","04","6","feedback","test","null","","","na","","129","",""
"1673.8999996185303","343215","HierDyencvfh9k","sub04","04","6","rl","test","70","img/o_s_check.png","4","70","color,pattern,shape","130","1",""
"null","344233","HierDyencvfh9k","sub04","04","6","feedback","test","null","","","na","","130","",""
"797.9000000953674","345033","HierDyencvfh9k","sub04","04","6","rl","test","65","img/o_d_stripes.png","1","65","color,pattern,shape","131","1",""
"null","346041","HierDyencvfh9k","sub04","04","6","feedback","test","null","","","na","","131","",""
"712.5","346755","HierDyencvfh9k","sub04","04","6","rl","test","76","img/b_s_check.png","8","76","color,pattern,shape","132","1",""
"null","347769","HierDyencvfh9k","sub04","04","6","feedback","test","null","","","na","","132","",""
"1260.6999998092651","349031","HierDyencvfh9k","sub04","04","6","rl","test","83","img/o_s_stripes.png","2","83","color,pattern,shape","133","1",""
"null","350053","HierDyencvfh9k","sub04","04","6","feedback","test","null","","","na","","133","",""
"1767.0999999046326","351821","HierDyencvfh9k","sub04","04","6","rl","test","72","img/b_d_stripes.png","5","72","color,pattern,shape","134","1",""
"null","352834","HierDyencvfh9k","sub04","04","6","feedback","test","null","","","na","","134","",""
"944.4000000953674","353779","HierDyencvfh9k","sub04","04","6","rl","test","76","img/b_s_check.png","8","76","color,pattern,shape","135","1",""
"null","354792","HierDyencvfh9k","sub04","04","6","feedback","test","null","","","na","","135","",""
"651.5999999046326","355444","HierDyencvfh9k","sub04","04","6","rl","test","75","img/b_d_check.png","7","75","color,pattern,shape","136","1",""
"null","356453","HierDyencvfh9k","sub04","04","6","feedback","test","null","","","na","","136","",""
"925","357379","HierDyencvfh9k","sub04","04","6","rl","test","68","img/o_d_check.png","3","68","color,pattern,shape","137","1",""
"null","358384","HierDyencvfh9k","sub04","04","6","feedback","test","null","","","na","","137","",""
"710.8000001907349","359096","HierDyencvfh9k","sub04","04","6","rl","test","65","img/o_d_stripes.png","1","65","color,pattern,shape","138","1",""
"null","360113","HierDyencvfh9k","sub04","04","6","feedback","test","null","","","na","","138","",""
"852.7000002861023","360966","HierDyencvfh9k","sub04","04","6","rl","test","70","img/o_s_check.png","4","70","color,pattern,shape","139","1",""
"null","361979","HierDyencvfh9k","sub04","04","6","feedback","test","null","","","na","","139","",""
"1096.9000000953674","363077","HierDyencvfh9k","sub04","04","6","rl","test","76","img/b_s_stripes.png","6","74","color,pattern,shape","140","0",""
"null","364084","HierDyencvfh9k","sub04","04","6","feedback","test","null","","","na","","140","",""
"1263.4000000953674","365348","HierDyencvfh9k","sub04","04","6","rl","test","76","img/o_d_check.png","3","68","color,pattern,shape","141","0",""
"null","366353","HierDyencvfh9k","sub04","04","6","feedback","test","null","","","na","","141","",""
"358.8999996185303","366713","HierDyencvfh9k","sub04","04","6","rl","test","75","img/b_d_check.png","7","75","color,pattern,shape","142","1",""
"null","367733","HierDyencvfh9k","sub04","04","6","feedback","test","null","","","na","","142","",""
"1265.5","369000","HierDyencvfh9k","sub04","04","6","rl","test","75","img/o_s_stripes.png","2","83","color,pattern,shape","143","0",""
"null","370020","HierDyencvfh9k","sub04","04","6","feedback","test","null","","","na","","143","",""
"223","370244","HierDyencvfh9k","sub04","04","6","rl","test","75","img/b_d_check.png","7","75","color,pattern,shape","144","1",""
"null","371248","HierDyencvfh9k","sub04","04","6","feedback","test","null","","","na","","144","",""
"235.69999980926514","371485","HierDyencvfh9k","sub04","04","6","rl","test","75","img/b_d_stripes.png","5","72","color,pattern,shape","145","0",""
"null","372497","HierDyencvfh9k","sub04","04","6","feedback","test","null","","","na","","145","",""
"204.19999980926514","372703","HierDyencvfh9k","sub04","04","6","rl","test","75","img/b_d_stripes.png","5","72","color,pattern,shape","146","0",""
"null","373713","HierDyencvfh9k","sub04","04","6","feedback","test","null","","","na","","146","",""
"731.5","374446","HierDyencvfh9k","sub04","04","6","rl","test","75","img/o_d_stripes.png","1","65","color,pattern,shape","147","0",""
"null","375460","HierDyencvfh9k","sub04","04","6","feedback","test","null","","","na","","147","",""
"750.4000000953674","376212","HierDyencvfh9k","sub04","04","6","rl","test","75","img/b_s_check.png","8","76","color,pattern,shape","148","0",""
"null","377226","HierDyencvfh9k","sub04","04","6","feedback","test","null","","","na","","148","",""
"268.69999980926514","377496","HierDyencvfh9k","sub04","04","6","rl","test","75","img/o_d_check.png","3","68","color,pattern,shape","149","0",""
"null","378505","HierDyencvfh9k","sub04","04","6","feedback","test","null","","","na","","149","",""
"31.699999809265137","378538","HierDyencvfh9k","sub04","04","6","rl","test","75","img/o_s_stripes.png","2","83","color,pattern,shape","150","0",""
"null","379546","HierDyencvfh9k","sub04","04","6","feedback","test","null","","","na","","150","",""
"190.69999980926514","379738","HierDyencvfh9k","sub04","04","6","rl","test","75","img/b_s_check.png","8","76","color,pattern,shape","151","0",""
"null","380753","HierDyencvfh9k","sub04","04","6","feedback","test","null","","","na","","151","",""
"839.0999999046326","381593","HierDyencvfh9k","sub04","04","6","rl","test","75","img/o_s_check.png","4","70","color,pattern,shape","152","0",""
"null","382613","HierDyencvfh9k","sub04","04","6","feedback","test","null","","","na","","152","",""
"519.5999999046326","383134","HierDyencvfh9k","sub04","04","6","rl","test","75","img/o_s_check.png","4","70","color,pattern,shape","153","0",""
"null","384153","HierDyencvfh9k","sub04","04","6","feedback","test","null","","","na","","153","",""
"282.69999980926514","384436","HierDyencvfh9k","sub04","04","6","rl","test","76","img/b_s_stripes.png","6","74","color,pattern,shape","154","0",""
"null","385450","HierDyencvfh9k","sub04","04","6","feedback","test","null","","","na","","154","",""
"411.09999990463257","385862","HierDyencvfh9k","sub04","04","6","rl","test","75","img/b_d_check.png","7","75","color,pattern,shape","155","1",""
"null","386873","HierDyencvfh9k","sub04","04","6","feedback","test","null","","","na","","155","",""
"554.5","387428","HierDyencvfh9k","sub04","04","6","rl","test","74","img/o_s_stripes.png","2","83","color,pattern,shape","156","0",""
"null","388436","HierDyencvfh9k","sub04","04","6","feedback","test","null","","","na","","156","",""
"569.4000000953674","389007","HierDyencvfh9k","sub04","04","6","rl","test","72","img/o_d_stripes.png","1","65","color,pattern,shape","157","0",""
"null","390027","HierDyencvfh9k","sub04","04","6","feedback","test","null","","","na","","157","",""
"1634.5999999046326","391663","HierDyencvfh9k","sub04","04","6","rl","test","72","img/b_s_stripes.png","6","74","color,pattern,shape","158","0",""
"null","392682","HierDyencvfh9k","sub04","04","6","feedback","test","null","","","na","","158","",""
"916.5","393600","HierDyencvfh9k","sub04","04","6","rl","test","72","img/o_d_stripes.png","1","65","color,pattern,shape","159","0",""
"null","394609","HierDyencvfh9k","sub04","04","6","feedback","test","null","","","na","","159","",""
"632.7000002861023","395243","HierDyencvfh9k","sub04","04","6","rl","test","74","img/o_d_check.png","3","68","color,pattern,shape","160","0",""
"null","396257","HierDyencvfh9k","sub04","04","6","feedback","test","null","","","na","","160","",""
"520.6999998092651","396778","HierDyencvfh9k","sub04","04","6","rl","test","74","img/b_d_stripes.png","5","72","color,pattern,shape","161","0",""
"null","397795","HierDyencvfh9k","sub04","04","6","feedback","test","null","","","na","","161","",""
"251.90000009536743","398047","HierDyencvfh9k","sub04","04","6","rl","test","75","img/o_s_stripes.png","2","83","color,pattern,shape","162","0",""
"null","399060","HierDyencvfh9k","sub04","04","6","feedback","test","null","","","na","","162","",""
"363.40000009536743","399425","HierDyencvfh9k","sub04","04","6","rl","test","76","img/o_d_check.png","3","68","color,pattern,shape","163","0",""
"null","400438","HierDyencvfh9k","sub04","04","6","feedback","test","null","","","na","","163","",""
"1361.7999997138977","401801","HierDyencvfh9k","sub04","04","6","rl","test","65","img/b_d_stripes.png","5","72","color,pattern,shape","164","0",""
"null","402810","HierDyencvfh9k","sub04","04","6","feedback","test","null","","","na","","164","",""
"1272.3000001907349","404084","HierDyencvfh9k","sub04","04","6","rl","test","70","img/o_s_check.png","4","70","color,pattern,shape","165","1",""
"null","405098","HierDyencvfh9k","sub04","04","6","feedback","test","null","","","na","","165","",""
"1013.7000002861023","406113","HierDyencvfh9k","sub04","04","6","rl","test","70","img/b_s_check.png","8","76","color,pattern,shape","166","0",""
"null","407128","HierDyencvfh9k","sub04","04","6","feedback","test","null","","","na","","166","",""
"598","407727","HierDyencvfh9k","sub04","04","6","rl","test","76","img/b_d_check.png","7","75","color,pattern,shape","167","0",""
"null","408736","HierDyencvfh9k","sub04","04","6","feedback","test","null","","","na","","167","",""
"296.30000019073486","409033","HierDyencvfh9k","sub04","04","6","rl","test","75","img/b_s_stripes.png","6","74","color,pattern,shape","168","0",""
"null","410040","HierDyencvfh9k","sub04","04","6","feedback","test","null","","","na","","168","",""
"null","412548","HierDyencvfh9k","sub04","04","6","rl","test","null","img/b_d_stripes.png","5","72","color,pattern,shape","169","0",""
"null","413562","HierDyencvfh9k","sub04","04","6","feedback","test","null","","","na","","169","",""
"1807.8000001907349","415372","HierDyencvfh9k","sub04","04","6","rl","test","76","img/o_s_check.png","4","70","color,pattern,shape","170","0",""
"null","416381","HierDyencvfh9k","sub04","04","6","feedback","test","null","","","na","","170","",""
"1465.3999996185303","417848","HierDyencvfh9k","sub04","04","6","rl","test","76","img/b_d_check.png","7","75","color,pattern,shape","171","0",""
"null","418870","HierDyencvfh9k","sub04","04","6","feedback","test","null","","","na","","171","",""
"1028.5999999046326","419901","HierDyencvfh9k","sub04","04","6","rl","test","75","img/o_d_check.png","3","68","color,pattern,shape","172","0",""
"null","420907","HierDyencvfh9k","sub04","04","6","feedback","test","null","","","na","","172","",""
"1884.8999996185303","422794","HierDyencvfh9k","sub04","04","6","rl","test","75","img/b_d_check.png","7","75","color,pattern,shape","173","1",""
"null","423806","HierDyencvfh9k","sub04","04","6","feedback","test","null","","","na","","173","",""
"null","426323","HierDyencvfh9k","sub04","04","6","rl","test","null","img/o_d_stripes.png","1","65","color,pattern,shape","174","0",""
"null","427340","HierDyencvfh9k","sub04","04","6","feedback","test","null","","","na","","174","",""
"null","429856","HierDyencvfh9k","sub04","04","6","rl","test","null","img/o_s_stripes.png","2","83","color,pattern,shape","175","0",""
"null","430875","HierDyencvfh9k","sub04","04","6","feedback","test","null","","","na","","175","",""
"null","433396","HierDyencvfh9k","sub04","04","6","rl","test","null","img/b_s_stripes.png","6","74","color,pattern,shape","176","0",""
"null","434413","HierDyencvfh9k","sub04","04","6","feedback","test","null","","","na","","176","",""
"null","436928","HierDyencvfh9k","sub04","04","6","rl","test","null","img/o_s_check.png","4","70","color,pattern,shape","177","0",""
"null","437938","HierDyencvfh9k","sub04","04","6","feedback","test","null","","","na","","177","",""
"723.7999997138977","438663","HierDyencvfh9k","sub04","04","6","rl","test","75","img/b_s_check.png","8","76","color,pattern,shape","178","0",""
"null","439675","HierDyencvfh9k","sub04","04","6","feedback","test","null","","","na","","178","",""
"null","442192","HierDyencvfh9k","sub04","04","6","rl","test","null","img/b_s_check.png","8","76","color,pattern,shape","179","0",""
"null","443207","HierDyencvfh9k","sub04","04","6","feedback","test","null","","","na","","179","",""
"183.7999997138977","443393","HierDyencvfh9k","sub04","04","6","rl","test","75","img/b_d_stripes.png","5","72","color,pattern,shape","180","0",""
"null","444399","HierDyencvfh9k","sub04","04","6","feedback","test","null","","","na","","180","",""
"358.59999990463257","444760","HierDyencvfh9k","sub04","04","6","rl","test","76","img/o_d_check.png","3","68","color,pattern,shape","181","0",""
"null","445772","HierDyencvfh9k","sub04","04","6","feedback","test","null","","","na","","181","",""
"605.2999997138977","446380","HierDyencvfh9k","sub04","04","6","rl","test","70","img/o_d_stripes.png","1","65","color,pattern,shape","182","0",""
"null","447384","HierDyencvfh9k","sub04","04","6","feedback","test","null","","","na","","182","",""
"null","449896","HierDyencvfh9k","sub04","04","6","rl","test","null","img/b_s_stripes.png","6","74","color,pattern,shape","183","0",""
"null","450906","HierDyencvfh9k","sub04","04","6","feedback","test","null","","","na","","183","",""
"null","453429","HierDyencvfh9k","sub04","04","6","rl","test","null","img/o_s_stripes.png","2","83","color,pattern,shape","184","0",""
"null","454453","HierDyencvfh9k","sub04","04","6","feedback","test","null","","","na","","184","",""
"150.7000002861023","454605","HierDyencvfh9k","sub04","04","6","rl","test","83","img/b_s_stripes.png","6","74","color,pattern,shape","185","0",""
"null","455617","HierDyencvfh9k","sub04","04","6","feedback","test","null","","","na","","185","",""
"1952.6999998092651","457572","HierDyencvfh9k","sub04","04","6","rl","test","68","img/o_d_check.png","3","68","color,pattern,shape","186","1",""
"null","458578","HierDyencvfh9k","sub04","04","6","feedback","test","null","","","na","","186","",""
"2430.9000000953674","461011","HierDyencvfh9k","sub04","04","6","rl","test","70","img/b_d_check.png","7","75","color,pattern,shape","187","0",""
"null","462020","HierDyencvfh9k","sub04","04","6","feedback","test","null","","","na","","187","",""
"null","464537","HierDyencvfh9k","sub04","04","6","rl","test","null","img/o_s_stripes.png","2","83","color,pattern,shape","188","0",""
"null","465547","HierDyencvfh9k","sub04","04","6","feedback","test","null","","","na","","188","",""
"173.40000009536743","465722","HierDyencvfh9k","sub04","04","6","rl","test","70","img/b_s_check.png","8","76","color,pattern,shape","189","0",""
"null","466727","HierDyencvfh9k","sub04","04","6","feedback","test","null","","","na","","189","",""
"2086.5999999046326","468815","HierDyencvfh9k","sub04","04","6","rl","test","75","img/o_s_check.png","4","70","color,pattern,shape","190","0",""
"null","469826","HierDyencvfh9k","sub04","04","6","feedback","test","null","","","na","","190","",""
"null","472343","HierDyencvfh9k","sub04","04","6","rl","test","null","img/b_d_stripes.png","5","72","color,pattern,shape","191","0",""
"null","473364","HierDyencvfh9k","sub04","04","6","feedback","test","null","","","na","","191","",""
"820.1999998092651","474186","HierDyencvfh9k","sub04","04","6","rl","test","75","img/b_d_stripes.png","5","72","color,pattern,shape","192","0",""
"null","475206","HierDyencvfh9k","sub04","04","6","feedback","test","null","","","na","","192","",""
"437.59999990463257","475645","HierDyencvfh9k","sub04","04","6","rl","test","74","img/o_s_check.png","4","70","color,pattern,shape","193","0",""
"null","476654","HierDyencvfh9k","sub04","04","6","feedback","test","null","","","na","","193","",""
"747.7999997138977","477404","HierDyencvfh9k","sub04","04","6","rl","test","74","img/o_d_stripes.png","1","65","color,pattern,shape","194","0",""
"null","478421","HierDyencvfh9k","sub04","04","6","feedback","test","null","","","na","","194","",""
"373.59999990463257","478797","HierDyencvfh9k","sub04","04","6","rl","test","65","img/b_s_check.png","8","76","color,pattern,shape","195","0",""
"null","479809","HierDyencvfh9k","sub04","04","6","feedback","test","null","","","na","","195","",""
"1544.1999998092651","481355","HierDyencvfh9k","sub04","04","6","rl","test","70","img/o_d_check.png","3","68","color,pattern,shape","196","0",""
"null","482361","HierDyencvfh9k","sub04","04","6","feedback","test","null","","","na","","196","",""
"null","484874","HierDyencvfh9k","sub04","04","6","rl","test","null","img/o_d_stripes.png","1","65","color,pattern,shape","197","0",""
"null","485884","HierDyencvfh9k","sub04","04","6","feedback","test","null","","","na","","197","",""
"800.5","486687","HierDyencvfh9k","sub04","04","6","rl","test","68","img/b_s_stripes.png","6","74","color,pattern,shape","198","0",""
"null","487705","HierDyencvfh9k","sub04","04","6","feedback","test","null","","","na","","198","",""
"1241.3999996185303","488948","HierDyencvfh9k","sub04","04","6","rl","test","83","img/o_s_stripes.png","2","83","color,pattern,shape","199","1",""
"null","489955","HierDyencvfh9k","sub04","04","6","feedback","test","null","","","na","","199","",""
"1294.5","491252","HierDyencvfh9k","sub04","04","6","rl","test","83","img/o_s_stripes.png","2","83","color,pattern,shape","200","1",""
"null","492266","HierDyencvfh9k","sub04","04","6","feedback","test","null","","","na","","200","",""
"326.7000002861023","492595","HierDyencvfh9k","sub04","04","6","rl","test","70","img/b_d_check.png","7","75","color,pattern,shape","201","0",""
"null","493603","HierDyencvfh9k","sub04","04","6","feedback","test","null","","","na","","201","",""
"404.1000003814697","494009","HierDyencvfh9k","sub04","04","6","rl","test","65","img/b_s_check.png","8","76","color,pattern,shape","202","0",""
"null","495022","HierDyencvfh9k","sub04","04","6","feedback","test","null","","","na","","202","",""
"311.90000009536743","495336","HierDyencvfh9k","sub04","04","6","rl","test","76","img/b_d_check.png","7","75","color,pattern,shape","203","0",""
"null","496345","HierDyencvfh9k","sub04","04","6","feedback","test","null","","","na","","203","",""
"108.40000009536743","496455","HierDyencvfh9k","sub04","04","6","rl","test","75","img/o_d_check.png","3","68","color,pattern,shape","204","0",""
"null","497477","HierDyencvfh9k","sub04","04","6","feedback","test","null","","","na","","204","",""
"1275.6000003814697","498755","HierDyencvfh9k","sub04","04","6","rl","test","74","img/b_s_stripes.png","6","74","color,pattern,shape","205","1",""
"null","499764","HierDyencvfh9k","sub04","04","6","feedback","test","null","","","na","","205","",""
"647.2999997138977","500413","HierDyencvfh9k","sub04","04","6","rl","test","72","img/b_d_stripes.png","5","72","color,pattern,shape","206","1",""
"null","501434","HierDyencvfh9k","sub04","04","6","feedback","test","null","","","na","","206","",""
"552.6000003814697","501988","HierDyencvfh9k","sub04","04","6","rl","test","75","img/b_d_check.png","7","75","color,pattern,shape","207","1",""
"null","503006","HierDyencvfh9k","sub04","04","6","feedback","test","null","","","na","","207","",""
"744.1999998092651","503753","HierDyencvfh9k","sub04","04","6","rl","test","70","img/o_s_check.png","4","70","color,pattern,shape","208","1",""
"null","504762","HierDyencvfh9k","sub04","04","6","feedback","test","null","","","na","","208","",""
"609","505373","HierDyencvfh9k","sub04","04","6","rl","test","70","img/o_s_check.png","4","70","color,pattern,shape","209","1",""
"null","506384","HierDyencvfh9k","sub04","04","6","feedback","test","null","","","na","","209","",""
"672.0999999046326","507058","HierDyencvfh9k","sub04","04","6","rl","test","65","img/o_d_stripes.png","1","65","color,pattern,shape","210","1",""
"null","508076","HierDyencvfh9k","sub04","04","6","feedback","test","null","","","na","","210","",""
"975.5999999046326","509053","HierDyencvfh9k","sub04","04","6","rl","test","72","img/b_d_stripes.png","5","72","color,pattern,shape","211","1",""
"null","510072","HierDyencvfh9k","sub04","04","6","feedback","test","null","","","na","","211","",""
"1092.2000002861023","511166","HierDyencvfh9k","sub04","04","6","rl","test","83","img/o_s_stripes.png","2","83","color,pattern,shape","212","1",""
"null","512189","HierDyencvfh9k","sub04","04","6","feedback","test","null","","","na","","212","",""
"1096.8000001907349","513288","HierDyencvfh9k","sub04","04","6","rl","test","74","img/b_s_stripes.png","6","74","color,pattern,shape","213","1",""
"null","514308","HierDyencvfh9k","sub04","04","6","feedback","test","null","","","na","","213","",""
"720.4000000953674","515030","HierDyencvfh9k","sub04","04","6","rl","test","65","img/o_d_stripes.png","1","65","color,pattern,shape","214","1",""
"null","516050","HierDyencvfh9k","sub04","04","6","feedback","test","null","","","na","","214","",""
"1016.2000002861023","517068","HierDyencvfh9k","sub04","04","6","rl","test","70","img/o_s_check.png","4","70","color,pattern,shape","215","1",""
"null","518078","HierDyencvfh9k","sub04","04","6","feedback","test","null","","","na","","215","",""
"1024.9000000953674","519105","HierDyencvfh9k","sub04","04","6","rl","test","76","img/b_s_check.png","8","76","color,pattern,shape","216","1",""
"null","520112","HierDyencvfh9k","sub04","04","6","feedback","test","null","","","na","","216","",""
"670.5","520784","HierDyencvfh9k","sub04","04","6","rl","test","68","img/o_d_check.png","3","68","color,pattern,shape","217","1",""
"null","521800","HierDyencvfh9k","sub04","04","6","feedback","test","null","","","na","","217","",""
"750.3000001907349","522552","HierDyencvfh9k","sub04","04","6","rl","test","76","img/b_s_check.png","8","76","color,pattern,shape","218","1",""
"null","523560","HierDyencvfh9k","sub04","04","6","feedback","test","null","","","na","","218","",""
"1145.5999999046326","524708","HierDyencvfh9k","sub04","04","6","rl","test","65","img/o_d_stripes.png","1","65","color,pattern,shape","219","1",""
"null","525712","HierDyencvfh9k","sub04","04","6","feedback","test","null","","","na","","219","",""
"1369.8999996185303","527084","HierDyencvfh9k","sub04","04","6","rl","test","72","img/b_d_stripes.png","5","72","color,pattern,shape","220","1",""
"null","528098","HierDyencvfh9k","sub04","04","6","feedback","test","null","","","na","","220","",""
"725.3000001907349","528825","HierDyencvfh9k","sub04","04","6","rl","test","74","img/o_d_check.png","3","68","color,pattern,shape","221","0",""
"null","529841","HierDyencvfh9k","sub04","04","6","feedback","test","null","","","na","","221","",""
"757.5999999046326","530601","HierDyencvfh9k","sub04","04","6","rl","test","83","img/b_d_check.png","7","75","color,pattern,shape","222","0",""
"null","531619","HierDyencvfh9k","sub04","04","6","feedback","test","null","","","na","","222","",""
"442","532063","HierDyencvfh9k","sub04","04","6","rl","test","68","img/b_s_stripes.png","6","74","color,pattern,shape","223","0",""
"null","533073","HierDyencvfh9k","sub04","04","6","feedback","test","null","","","na","","223","",""
"873.2999997138977","533948","HierDyencvfh9k","sub04","04","6","rl","test","74","img/o_d_check.png","3","68","color,pattern,shape","224","0",""
"null","534952","HierDyencvfh9k","sub04","04","6","feedback","test","null","","","na","","224","",""
"584.9000000953674","535539","HierDyencvfh9k","sub04","04","6","rl","test","75","img/o_d_stripes.png","1","65","color,pattern,shape","225","0",""
"null","536546","HierDyencvfh9k","sub04","04","6","feedback","test","null","","","na","","225","",""
"1181.9000000953674","537731","HierDyencvfh9k","sub04","04","6","rl","test","83","img/o_s_stripes.png","2","83","color,pattern,shape","226","1",""
"null","538740","HierDyencvfh9k","sub04","04","6","feedback","test","null","","","na","","226","",""
"947.4000000953674","539689","HierDyencvfh9k","sub04","04","6","rl","test","70","img/o_s_check.png","4","70","color,pattern,shape","227","1",""
"null","540706","HierDyencvfh9k","sub04","04","6","feedback","test","null","","","na","","227","",""
"1233.2999997138977","541941","HierDyencvfh9k","sub04","04","6","rl","test","74","img/b_d_stripes.png","5","72","color,pattern,shape","228","0",""
"null","542954","HierDyencvfh9k","sub04","04","6","feedback","test","null","","","na","","228","",""
"1297","544253","HierDyencvfh9k","sub04","04","6","rl","test","72","img/b_d_check.png","7","75","color,pattern,shape","229","0",""
"null","545266","HierDyencvfh9k","sub04","04","6","feedback","test","null","","","na","","229","",""
"null","547781","HierDyencvfh9k","sub04","04","6","rl","test","null","img/b_d_stripes.png","5","72","color,pattern,shape","230","0",""
"null","548792","HierDyencvfh9k","sub04","04","6","feedback","test","null","","","na","","230","",""
"677.7000002861023","549471","HierDyencvfh9k","sub04","04","6","rl","test","76","img/o_s_stripes.png","2","83","color,pattern,shape","231","0",""
"null","550484","HierDyencvfh9k","sub04","04","6","feedback","test","null","","","na","","231","",""
"840.5","551327","HierDyencvfh9k","sub04","04","6","rl","test","75","img/b_s_stripes.png","6","74","color,pattern,shape","232","0",""
"null","552349","HierDyencvfh9k","sub04","04","6","feedback","test","null","","","na","","232","",""
"2502.0999999046326","554853","HierDyencvfh9k","sub04","04","6","rl","test","75","img/b_s_check.png","8","76","color,pattern,shape","233","0",""
"null","555859","HierDyencvfh9k","sub04","04","6","feedback","test","null","","","na","","233","",""
"1159.2000002861023","557020","HierDyencvfh9k","sub04","04","6","rl","test","76","img/b_s_check.png","8","76","color,pattern,shape","234","1",""
"null","558029","HierDyencvfh9k","sub04","04","6","feedback","test","null","","","na","","234","",""
"581.8000001907349","558613","HierDyencvfh9k","sub04","04","6","rl","test","75","img/b_d_check.png","7","75","color,pattern,shape","235","1",""
"null","559629","HierDyencvfh9k","sub04","04","6","feedback","test","null","","","na","","235","",""
"1504.5","561135","HierDyencvfh9k","sub04","04","6","rl","test","74","img/o_d_stripes.png","1","65","color,pattern,shape","236","0",""
"null","562158","HierDyencvfh9k","sub04","04","6","feedback","test","null","","","na","","236","",""
"408.6000003814697","562568","HierDyencvfh9k","sub04","04","6","rl","test","76","img/o_s_check.png","4","70","color,pattern,shape","237","0",""
"null","563580","HierDyencvfh9k","sub04","04","6","feedback","test","null","","","na","","237","",""
"1008.5","564591","HierDyencvfh9k","sub04","04","6","rl","test","75","img/b_d_check.png","7","75","color,pattern,shape","238","1",""
"null","565608","HierDyencvfh9k","sub04","04","6","feedback","test","null","","","na","","238","",""
"1213.1999998092651","566823","HierDyencvfh9k","sub04","04","6","rl","test","75","img/o_d_check.png","3","68","color,pattern,shape","239","0",""
"null","567842","HierDyencvfh9k","sub04","04","6","feedback","test","null","","","na","","239","",""
"1220.3000001907349","569064","HierDyencvfh9k","sub04","04","6","rl","test","75","img/b_s_stripes.png","6","74","color,pattern,shape","240","0",""
"null","570075","HierDyencvfh9k","sub04","04","6","feedback","test","null","","","na","","240","",""
"1847.5999999046326","571925","HierDyencvfh9k","sub04","04","6","rl","test","75","img/o_s_stripes.png","2","83","color,pattern,shape","241","0",""
"null","572940","HierDyencvfh9k","sub04","04","6","feedback","test","null","","","na","","241","",""
"744.0999999046326","573686","HierDyencvfh9k","sub04","04","6","rl","test","70","img/o_d_check.png","3","68","color,pattern,shape","242","0",""
"null","574709","HierDyencvfh9k","sub04","04","6","feedback","test","null","","","na","","242","",""
"783.5999999046326","575494","HierDyencvfh9k","sub04","04","6","rl","test","68","img/o_d_stripes.png","1","65","color,pattern,shape","243","0",""
"null","576511","HierDyencvfh9k","sub04","04","6","feedback","test","null","","","na","","243","",""
"817.3000001907349","577331","HierDyencvfh9k","sub04","04","6","rl","test","70","img/b_s_stripes.png","6","74","color,pattern,shape","244","0",""
"null","578348","HierDyencvfh9k","sub04","04","6","feedback","test","null","","","na","","244","",""
"1839.1999998092651","580189","HierDyencvfh9k","sub04","04","6","rl","test","68","img/b_d_stripes.png","5","72","color,pattern,shape","245","0",""
"null","581200","HierDyencvfh9k","sub04","04","6","feedback","test","null","","","na","","245","",""
"301.2999997138977","581503","HierDyencvfh9k","sub04","04","6","rl","test","75","img/o_s_stripes.png","2","83","color,pattern,shape","246","0",""
"null","582514","HierDyencvfh9k","sub04","04","6","feedback","test","null","","","na","","246","",""
"496.7000002861023","583013","HierDyencvfh9k","sub04","04","6","rl","test","75","img/b_s_check.png","8","76","color,pattern,shape","247","0",""
"null","584019","HierDyencvfh9k","sub04","04","6","feedback","test","null","","","na","","247","",""
"607.2000002861023","584628","HierDyencvfh9k","sub04","04","6","rl","test","75","img/o_s_check.png","4","70","color,pattern,shape","248","0",""
"null","585643","HierDyencvfh9k","sub04","04","6","feedback","test","null","","","na","","248","",""
"3809.5999999046326","589460","HierDyencvfh9k","sub04","04","6","","","","","","","","","","{""Q0"":""8""}"
"1133.0999999046326","590599","HierDyencvfh9k","sub04","04","6","","","","","","","","","","{""Q0"":""""}"
"838.9000000953674","591439","HierDyencvfh9k","sub04","04","6","","","","","","","","","",""
