"rt","time_elapsed","subject","subID","group","day","trialType","key_press","stim","corrresp","phase","stimNum","trialNum","corr","repeatTrial","motorSwitch","hierarchy","responses"
"13373","13397","HierDykd4bp8jp","sub05","05","8","","","","","","","","","","","",""
"","15275","HierDykd4bp8jp","sub05","05","8","fullscreen","","","","","","","","","","",""
"37986","53273","HierDykd4bp8jp","sub05","05","8","","","","","","","","","","","",""
"783","54067","HierDykd4bp8jp","sub05","05","8","motor","76","img/motor_8.png","76","motor","8","1","1","0","0","",""
"null","54175","HierDykd4bp8jp","sub05","05","8","iti","null","img/motor_8.png","76","motor","","","","","","",""
"487","54668","HierDykd4bp8jp","sub05","05","8","motor","72","img/motor_5.png","72","motor","5","2","1","0","0","",""
"null","54776","HierDykd4bp8jp","sub05","05","8","iti","null","img/motor_5.png","72","motor","","","","","","",""
"542","55326","HierDykd4bp8jp","sub05","05","8","motor","70","img/motor_4.png","70","motor","4","3","1","0","0","",""
"null","55435","HierDykd4bp8jp","sub05","05","8","iti","null","img/motor_4.png","70","motor","","","","","","",""
"426","55869","HierDykd4bp8jp","sub05","05","8","motor","65","img/motor_1.png","65","motor","1","4","1","0","0","",""
"null","55979","HierDykd4bp8jp","sub05","05","8","iti","null","img/motor_1.png","65","motor","","","","","","",""
"413","56400","HierDykd4bp8jp","sub05","05","8","motor","65","img/motor_1.png","65","motor","1","5","1","0","0","",""
"null","56510","HierDykd4bp8jp","sub05","05","8","iti","null","img/motor_1.png","65","motor","","","","","","",""
"490","57009","HierDykd4bp8jp","sub05","05","8","motor","76","img/motor_8.png","76","motor","8","6","1","0","0","",""
"null","57119","HierDykd4bp8jp","sub05","05","8","iti","null","img/motor_8.png","76","motor","","","","","","",""
"697","57825","HierDykd4bp8jp","sub05","05","8","motor","68","img/motor_3.png","68","motor","3","7","1","0","0","",""
"null","57931","HierDykd4bp8jp","sub05","05","8","iti","null","img/motor_3.png","68","motor","","","","","","",""
"543","58484","HierDykd4bp8jp","sub05","05","8","motor","72","img/motor_5.png","72","motor","5","8","1","0","0","",""
"null","58593","HierDykd4bp8jp","sub05","05","8","iti","null","img/motor_5.png","72","motor","","","","","","",""
"428","59029","HierDykd4bp8jp","sub05","05","8","motor","74","img/motor_6.png","74","motor","6","9","1","0","0","",""
"null","59140","HierDykd4bp8jp","sub05","05","8","iti","null","img/motor_6.png","74","motor","","","","","","",""
"542","59692","HierDykd4bp8jp","sub05","05","8","motor","83","img/motor_2.png","83","motor","2","10","1","0","0","",""
"null","59802","HierDykd4bp8jp","sub05","05","8","iti","null","img/motor_2.png","83","motor","","","","","","",""
"468","60278","HierDykd4bp8jp","sub05","05","8","motor","76","img/motor_8.png","76","motor","8","11","1","0","0","",""
"null","60389","HierDykd4bp8jp","sub05","05","8","iti","null","img/motor_8.png","76","motor","","","","","","",""
"476","60873","HierDykd4bp8jp","sub05","05","8","motor","65","img/motor_1.png","65","motor","1","12","1","0","0","",""
"null","60983","HierDykd4bp8jp","sub05","05","8","iti","null","img/motor_1.png","65","motor","","","","","","",""
"395","61385","HierDykd4bp8jp","sub05","05","8","motor","83","img/motor_2.png","83","motor","2","13","1","0","0","",""
"null","61496","HierDykd4bp8jp","sub05","05","8","iti","null","img/motor_2.png","83","motor","","","","","","",""
"404","61911","HierDykd4bp8jp","sub05","05","8","motor","83","img/motor_2.png","83","motor","2","14","1","0","0","",""
"null","62021","HierDykd4bp8jp","sub05","05","8","iti","null","img/motor_2.png","83","motor","","","","","","",""
"425","62462","HierDykd4bp8jp","sub05","05","8","motor","68","img/motor_3.png","68","motor","3","15","1","0","0","",""
"null","62575","HierDykd4bp8jp","sub05","05","8","iti","null","img/motor_3.png","68","motor","","","","","","",""
"485","63070","HierDykd4bp8jp","sub05","05","8","motor","76","img/motor_8.png","76","motor","8","16","1","0","0","",""
"null","63181","HierDykd4bp8jp","sub05","05","8","iti","null","img/motor_8.png","76","motor","","","","","","",""
"354","63544","HierDykd4bp8jp","sub05","05","8","motor","72","img/motor_5.png","72","motor","5","17","1","0","0","",""
"null","63655","HierDykd4bp8jp","sub05","05","8","iti","null","img/motor_5.png","72","motor","","","","","","",""
"410","64076","HierDykd4bp8jp","sub05","05","8","motor","70","img/motor_4.png","70","motor","4","18","1","0","0","",""
"null","64186","HierDykd4bp8jp","sub05","05","8","iti","null","img/motor_4.png","70","motor","","","","","","",""
"427","64621","HierDykd4bp8jp","sub05","05","8","motor","72","img/motor_5.png","72","motor","5","19","1","0","0","",""
"null","64732","HierDykd4bp8jp","sub05","05","8","iti","null","img/motor_5.png","72","motor","","","","","","",""
"598","65342","HierDykd4bp8jp","sub05","05","8","motor","75","img/motor_7.png","75","motor","7","20","1","0","0","",""
"null","65454","HierDykd4bp8jp","sub05","05","8","iti","null","img/motor_7.png","75","motor","","","","","","",""
"681","66142","HierDykd4bp8jp","sub05","05","8","motor","68","img/motor_3.png","68","motor","3","21","1","0","0","",""
"null","66253","HierDykd4bp8jp","sub05","05","8","iti","null","img/motor_3.png","68","motor","","","","","","",""
"496","66761","HierDykd4bp8jp","sub05","05","8","motor","65","img/motor_1.png","65","motor","1","22","1","0","0","",""
"null","66872","HierDykd4bp8jp","sub05","05","8","iti","null","img/motor_1.png","65","motor","","","","","","",""
"439","67321","HierDykd4bp8jp","sub05","05","8","motor","68","img/motor_3.png","68","motor","3","23","1","0","0","",""
"null","67431","HierDykd4bp8jp","sub05","05","8","iti","null","img/motor_3.png","68","motor","","","","","","",""
"508","67949","HierDykd4bp8jp","sub05","05","8","motor","76","img/motor_8.png","76","motor","8","24","1","0","0","",""
"null","68059","HierDykd4bp8jp","sub05","05","8","iti","null","img/motor_8.png","76","motor","","","","","","",""
"347","68416","HierDykd4bp8jp","sub05","05","8","motor","75","img/motor_7.png","75","motor","7","25","1","0","0","",""
"null","68528","HierDykd4bp8jp","sub05","05","8","iti","null","img/motor_7.png","75","motor","","","","","","",""
"468","69007","HierDykd4bp8jp","sub05","05","8","motor","70","img/motor_4.png","70","motor","4","26","1","0","0","",""
"null","69118","HierDykd4bp8jp","sub05","05","8","iti","null","img/motor_4.png","70","motor","","","","","","",""
"512","69640","HierDykd4bp8jp","sub05","05","8","motor","83","img/motor_2.png","83","motor","2","27","1","0","0","",""
"null","69751","HierDykd4bp8jp","sub05","05","8","iti","null","img/motor_2.png","83","motor","","","","","","",""
"686","70445","HierDykd4bp8jp","sub05","05","8","motor","74","img/motor_6.png","74","motor","6","28","1","0","0","",""
"null","70555","HierDykd4bp8jp","sub05","05","8","iti","null","img/motor_6.png","74","motor","","","","","","",""
"610","71175","HierDykd4bp8jp","sub05","05","8","motor","65","img/motor_1.png","65","motor","1","29","1","0","0","",""
"null","71287","HierDykd4bp8jp","sub05","05","8","iti","null","img/motor_1.png","65","motor","","","","","","",""
"515","71812","HierDykd4bp8jp","sub05","05","8","motor","83","img/motor_2.png","83","motor","2","30","1","0","0","",""
"null","71922","HierDykd4bp8jp","sub05","05","8","iti","null","img/motor_2.png","83","motor","","","","","","",""
"497","72428","HierDykd4bp8jp","sub05","05","8","motor","65","img/motor_1.png","65","motor","1","31","1","0","0","",""
"null","72539","HierDykd4bp8jp","sub05","05","8","iti","null","img/motor_1.png","65","motor","","","","","","",""
"606","73155","HierDykd4bp8jp","sub05","05","8","motor","74","img/motor_6.png","74","motor","6","32","1","0","0","",""
"null","73266","HierDykd4bp8jp","sub05","05","8","iti","null","img/motor_6.png","74","motor","","","","","","",""
"461","73738","HierDykd4bp8jp","sub05","05","8","motor","74","img/motor_6.png","74","motor","6","33","1","0","0","",""
"null","73848","HierDykd4bp8jp","sub05","05","8","iti","null","img/motor_6.png","74","motor","","","","","","",""
"477","74335","HierDykd4bp8jp","sub05","05","8","motor","75","img/motor_7.png","75","motor","7","34","1","0","0","",""
"null","74443","HierDykd4bp8jp","sub05","05","8","iti","null","img/motor_7.png","75","motor","","","","","","",""
"594","75047","HierDykd4bp8jp","sub05","05","8","motor","68","img/motor_3.png","68","motor","3","35","1","0","0","",""
"null","75157","HierDykd4bp8jp","sub05","05","8","iti","null","img/motor_3.png","68","motor","","","","","","",""
"382","75549","HierDykd4bp8jp","sub05","05","8","motor","70","img/motor_4.png","70","motor","4","36","1","0","0","",""
"null","75659","HierDykd4bp8jp","sub05","05","8","iti","null","img/motor_4.png","70","motor","","","","","","",""
"470","76140","HierDykd4bp8jp","sub05","05","8","motor","76","img/motor_8.png","76","motor","8","37","1","0","0","",""
"null","76252","HierDykd4bp8jp","sub05","05","8","iti","null","img/motor_8.png","76","motor","","","","","","",""
"422","76683","HierDykd4bp8jp","sub05","05","8","motor","70","img/motor_4.png","70","motor","4","38","1","0","0","",""
"null","76793","HierDykd4bp8jp","sub05","05","8","iti","null","img/motor_4.png","70","motor","","","","","","",""
"506","77309","HierDykd4bp8jp","sub05","05","8","motor","72","img/motor_5.png","72","motor","5","39","1","0","0","",""
"null","77420","HierDykd4bp8jp","sub05","05","8","iti","null","img/motor_5.png","72","motor","","","","","","",""
"518","77947","HierDykd4bp8jp","sub05","05","8","motor","75","img/motor_7.png","75","motor","7","40","1","0","0","",""
"null","78055","HierDykd4bp8jp","sub05","05","8","iti","null","img/motor_7.png","75","motor","","","","","","",""
"361","78426","HierDykd4bp8jp","sub05","05","8","motor","72","img/motor_5.png","72","motor","5","41","1","0","0","",""
"null","78537","HierDykd4bp8jp","sub05","05","8","iti","null","img/motor_5.png","72","motor","","","","","","",""
"415","78960","HierDykd4bp8jp","sub05","05","8","motor","75","img/motor_7.png","75","motor","7","42","1","0","0","",""
"null","79071","HierDykd4bp8jp","sub05","05","8","iti","null","img/motor_7.png","75","motor","","","","","","",""
"533","79611","HierDykd4bp8jp","sub05","05","8","motor","83","img/motor_2.png","83","motor","2","43","1","0","0","",""
"null","79722","HierDykd4bp8jp","sub05","05","8","iti","null","img/motor_2.png","83","motor","","","","","","",""
"452","80183","HierDykd4bp8jp","sub05","05","8","motor","76","img/motor_8.png","76","motor","8","44","1","0","0","",""
"null","80294","HierDykd4bp8jp","sub05","05","8","iti","null","img/motor_8.png","76","motor","","","","","","",""
"477","80780","HierDykd4bp8jp","sub05","05","8","motor","70","img/motor_4.png","70","motor","4","45","1","0","0","",""
"null","80891","HierDykd4bp8jp","sub05","05","8","iti","null","img/motor_4.png","70","motor","","","","","","",""
"501","81400","HierDykd4bp8jp","sub05","05","8","motor","68","img/motor_3.png","68","motor","3","46","1","0","0","",""
"null","81509","HierDykd4bp8jp","sub05","05","8","iti","null","img/motor_3.png","68","motor","","","","","","",""
"594","82112","HierDykd4bp8jp","sub05","05","8","motor","74","img/motor_6.png","74","motor","6","47","1","0","0","",""
"null","82223","HierDykd4bp8jp","sub05","05","8","iti","null","img/motor_6.png","74","motor","","","","","","",""
"524","82757","HierDykd4bp8jp","sub05","05","8","motor","72","img/motor_5.png","72","motor","5","48","1","0","0","",""
"null","82867","HierDykd4bp8jp","sub05","05","8","iti","null","img/motor_5.png","72","motor","","","","","","",""
"542","83418","HierDykd4bp8jp","sub05","05","8","motor","68","img/motor_3.png","68","motor","3","49","1","0","0","",""
"null","83529","HierDykd4bp8jp","sub05","05","8","iti","null","img/motor_3.png","68","motor","","","","","","",""
"507","84045","HierDykd4bp8jp","sub05","05","8","motor","76","img/motor_8.png","76","motor","8","50","1","0","0","",""
"null","84157","HierDykd4bp8jp","sub05","05","8","iti","null","img/motor_8.png","76","motor","","","","","","",""
"657","84822","HierDykd4bp8jp","sub05","05","8","motor","83","img/motor_2.png","83","motor","2","51","1","0","0","",""
"null","84931","HierDykd4bp8jp","sub05","05","8","iti","null","img/motor_2.png","83","motor","","","","","","",""
"505","85446","HierDykd4bp8jp","sub05","05","8","motor","75","img/motor_7.png","75","motor","7","52","1","0","0","",""
"null","85556","HierDykd4bp8jp","sub05","05","8","iti","null","img/motor_7.png","75","motor","","","","","","",""
"462","86027","HierDykd4bp8jp","sub05","05","8","motor","68","img/motor_3.png","68","motor","3","53","1","0","0","",""
"null","86138","HierDykd4bp8jp","sub05","05","8","iti","null","img/motor_3.png","68","motor","","","","","","",""
"396","86545","HierDykd4bp8jp","sub05","05","8","motor","68","img/motor_3.png","68","motor","3","54","1","0","0","",""
"null","86653","HierDykd4bp8jp","sub05","05","8","iti","null","img/motor_3.png","68","motor","","","","","","",""
"507","87170","HierDykd4bp8jp","sub05","05","8","motor","83","img/motor_2.png","83","motor","2","55","1","0","0","",""
"null","87279","HierDykd4bp8jp","sub05","05","8","iti","null","img/motor_2.png","83","motor","","","","","","",""
"775","88064","HierDykd4bp8jp","sub05","05","8","motor","76","img/motor_8.png","76","motor","8","56","1","0","0","",""
"null","88175","HierDykd4bp8jp","sub05","05","8","iti","null","img/motor_8.png","76","motor","","","","","","",""
"520","88706","HierDykd4bp8jp","sub05","05","8","motor","83","img/motor_2.png","83","motor","2","57","1","0","0","",""
"null","88815","HierDykd4bp8jp","sub05","05","8","iti","null","img/motor_2.png","83","motor","","","","","","",""
"502","89326","HierDykd4bp8jp","sub05","05","8","motor","68","img/motor_3.png","68","motor","3","58","1","0","0","",""
"null","89435","HierDykd4bp8jp","sub05","05","8","iti","null","img/motor_3.png","68","motor","","","","","","",""
"556","90000","HierDykd4bp8jp","sub05","05","8","motor","65","img/motor_1.png","65","motor","1","59","1","0","0","",""
"null","90108","HierDykd4bp8jp","sub05","05","8","iti","null","img/motor_1.png","65","motor","","","","","","",""
"457","90574","HierDykd4bp8jp","sub05","05","8","motor","70","img/motor_4.png","70","motor","4","60","1","0","0","",""
"null","90685","HierDykd4bp8jp","sub05","05","8","iti","null","img/motor_4.png","70","motor","","","","","","",""
"450","91144","HierDykd4bp8jp","sub05","05","8","motor","83","img/motor_2.png","83","motor","2","61","1","0","0","",""
"null","91254","HierDykd4bp8jp","sub05","05","8","iti","null","img/motor_2.png","83","motor","","","","","","",""
"527","91789","HierDykd4bp8jp","sub05","05","8","motor","75","img/motor_7.png","75","motor","7","62","1","0","0","",""
"null","91901","HierDykd4bp8jp","sub05","05","8","iti","null","img/motor_7.png","75","motor","","","","","","",""
"680","92591","HierDykd4bp8jp","sub05","05","8","motor","68","img/motor_4.png","70","motor","4","63","0","1","0","",""
"735","93335","HierDykd4bp8jp","sub05","05","8","motorRepeat","70","img/motor_4.png","70","motor","4","63","1","0","0","",""
"null","93444","HierDykd4bp8jp","sub05","05","8","iti","null","img/motor_4.png","70","motor","","","","","","",""
"656","94110","HierDykd4bp8jp","sub05","05","8","motor","68","img/motor_3.png","68","motor","3","64","1","0","0","",""
"null","94220","HierDykd4bp8jp","sub05","05","8","iti","null","img/motor_3.png","68","motor","","","","","","",""
"541","94771","HierDykd4bp8jp","sub05","05","8","motor","75","img/motor_7.png","75","motor","7","65","1","0","0","",""
"null","94882","HierDykd4bp8jp","sub05","05","8","iti","null","img/motor_7.png","75","motor","","","","","","",""
"491","95382","HierDykd4bp8jp","sub05","05","8","motor","68","img/motor_3.png","68","motor","3","66","1","0","0","",""
"null","95492","HierDykd4bp8jp","sub05","05","8","iti","null","img/motor_3.png","68","motor","","","","","","",""
"688","96189","HierDykd4bp8jp","sub05","05","8","motor","72","img/motor_5.png","72","motor","5","67","1","0","0","",""
"null","96301","HierDykd4bp8jp","sub05","05","8","iti","null","img/motor_5.png","72","motor","","","","","","",""
"484","96792","HierDykd4bp8jp","sub05","05","8","motor","68","img/motor_3.png","68","motor","3","68","1","0","0","",""
"null","96903","HierDykd4bp8jp","sub05","05","8","iti","null","img/motor_3.png","68","motor","","","","","","",""
"376","97288","HierDykd4bp8jp","sub05","05","8","motor","68","img/motor_3.png","68","motor","3","69","1","0","0","",""
"null","97400","HierDykd4bp8jp","sub05","05","8","iti","null","img/motor_3.png","68","motor","","","","","","",""
"491","97900","HierDykd4bp8jp","sub05","05","8","motor","83","img/motor_2.png","83","motor","2","70","1","0","0","",""
"null","98010","HierDykd4bp8jp","sub05","05","8","iti","null","img/motor_2.png","83","motor","","","","","","",""
"523","98543","HierDykd4bp8jp","sub05","05","8","motor","72","img/motor_5.png","72","motor","5","71","1","0","0","",""
"null","98653","HierDykd4bp8jp","sub05","05","8","iti","null","img/motor_5.png","72","motor","","","","","","",""
"414","99076","HierDykd4bp8jp","sub05","05","8","motor","65","img/motor_1.png","65","motor","1","72","1","0","0","",""
"null","99187","HierDykd4bp8jp","sub05","05","8","iti","null","img/motor_1.png","65","motor","","","","","","",""
"386","99582","HierDykd4bp8jp","sub05","05","8","motor","76","img/motor_8.png","76","motor","8","73","1","0","0","",""
"null","99690","HierDykd4bp8jp","sub05","05","8","iti","null","img/motor_8.png","76","motor","","","","","","",""
"776","100476","HierDykd4bp8jp","sub05","05","8","motor","65","img/motor_1.png","65","motor","1","74","1","0","0","",""
"null","100585","HierDykd4bp8jp","sub05","05","8","iti","null","img/motor_1.png","65","motor","","","","","","",""
"510","101105","HierDykd4bp8jp","sub05","05","8","motor","76","img/motor_8.png","76","motor","8","75","1","0","0","",""
"null","101217","HierDykd4bp8jp","sub05","05","8","iti","null","img/motor_8.png","76","motor","","","","","","",""
"446","101673","HierDykd4bp8jp","sub05","05","8","motor","83","img/motor_2.png","83","motor","2","76","1","0","0","",""
"null","101783","HierDykd4bp8jp","sub05","05","8","iti","null","img/motor_2.png","83","motor","","","","","","",""
"596","102390","HierDykd4bp8jp","sub05","05","8","motor","65","img/motor_1.png","65","motor","1","77","1","0","0","",""
"null","102501","HierDykd4bp8jp","sub05","05","8","iti","null","img/motor_1.png","65","motor","","","","","","",""
"386","102896","HierDykd4bp8jp","sub05","05","8","motor","83","img/motor_2.png","83","motor","2","78","1","0","0","",""
"null","103004","HierDykd4bp8jp","sub05","05","8","iti","null","img/motor_2.png","83","motor","","","","","","",""
"449","103464","HierDykd4bp8jp","sub05","05","8","motor","65","img/motor_1.png","65","motor","1","79","1","0","0","",""
"null","103575","HierDykd4bp8jp","sub05","05","8","iti","null","img/motor_1.png","65","motor","","","","","","",""
"446","104029","HierDykd4bp8jp","sub05","05","8","motor","75","img/motor_7.png","75","motor","7","80","1","0","0","",""
"null","104140","HierDykd4bp8jp","sub05","05","8","iti","null","img/motor_7.png","75","motor","","","","","","",""
"383","104531","HierDykd4bp8jp","sub05","05","8","motor","74","img/motor_6.png","74","motor","6","81","1","0","0","",""
"null","104641","HierDykd4bp8jp","sub05","05","8","iti","null","img/motor_6.png","74","motor","","","","","","",""
"499","105151","HierDykd4bp8jp","sub05","05","8","motor","68","img/motor_2.png","83","motor","2","82","0","1","0","",""
"345","105504","HierDykd4bp8jp","sub05","05","8","motorRepeat","83","img/motor_2.png","83","motor","2","82","1","0","0","",""
"null","105613","HierDykd4bp8jp","sub05","05","8","iti","null","img/motor_2.png","83","motor","","","","","","",""
"589","106214","HierDykd4bp8jp","sub05","05","8","motor","70","img/motor_4.png","70","motor","4","83","1","0","0","",""
"null","106322","HierDykd4bp8jp","sub05","05","8","iti","null","img/motor_4.png","70","motor","","","","","","",""
"663","106995","HierDykd4bp8jp","sub05","05","8","motor","76","img/motor_8.png","76","motor","8","84","1","0","0","",""
"null","107103","HierDykd4bp8jp","sub05","05","8","iti","null","img/motor_8.png","76","motor","","","","","","",""
"649","107763","HierDykd4bp8jp","sub05","05","8","motor","83","img/motor_2.png","83","motor","2","85","1","0","0","",""
"null","107870","HierDykd4bp8jp","sub05","05","8","iti","null","img/motor_2.png","83","motor","","","","","","",""
"541","108420","HierDykd4bp8jp","sub05","05","8","motor","70","img/motor_4.png","70","motor","4","86","1","0","0","",""
"null","108531","HierDykd4bp8jp","sub05","05","8","iti","null","img/motor_4.png","70","motor","","","","","","",""
"508","109049","HierDykd4bp8jp","sub05","05","8","motor","75","img/motor_7.png","75","motor","7","87","1","0","0","",""
"null","109160","HierDykd4bp8jp","sub05","05","8","iti","null","img/motor_7.png","75","motor","","","","","","",""
"446","109615","HierDykd4bp8jp","sub05","05","8","motor","76","img/motor_8.png","76","motor","8","88","1","0","0","",""
"null","109726","HierDykd4bp8jp","sub05","05","8","iti","null","img/motor_8.png","76","motor","","","","","","",""
"500","110235","HierDykd4bp8jp","sub05","05","8","motor","72","img/motor_5.png","72","motor","5","89","1","0","0","",""
"null","110345","HierDykd4bp8jp","sub05","05","8","iti","null","img/motor_5.png","72","motor","","","","","","",""
"519","110873","HierDykd4bp8jp","sub05","05","8","motor","83","img/motor_2.png","83","motor","2","90","1","0","0","",""
"null","110982","HierDykd4bp8jp","sub05","05","8","iti","null","img/motor_2.png","83","motor","","","","","","",""
"478","111469","HierDykd4bp8jp","sub05","05","8","motor","72","img/motor_5.png","72","motor","5","91","1","0","0","",""
"null","111580","HierDykd4bp8jp","sub05","05","8","iti","null","img/motor_5.png","72","motor","","","","","","",""
"506","112098","HierDykd4bp8jp","sub05","05","8","motor","65","img/motor_1.png","65","motor","1","92","1","0","0","",""
"null","112208","HierDykd4bp8jp","sub05","05","8","iti","null","img/motor_1.png","65","motor","","","","","","",""
"476","112695","HierDykd4bp8jp","sub05","05","8","motor","83","img/motor_2.png","83","motor","2","93","1","0","0","",""
"null","112806","HierDykd4bp8jp","sub05","05","8","iti","null","img/motor_2.png","83","motor","","","","","","",""
"502","113318","HierDykd4bp8jp","sub05","05","8","motor","75","img/motor_6.png","74","motor","6","94","0","1","0","",""
"369","113697","HierDykd4bp8jp","sub05","05","8","motorRepeat","74","img/motor_6.png","74","motor","6","94","1","0","0","",""
"null","113807","HierDykd4bp8jp","sub05","05","8","iti","null","img/motor_6.png","74","motor","","","","","","",""
"444","114261","HierDykd4bp8jp","sub05","05","8","motor","75","img/motor_7.png","75","motor","7","95","1","0","0","",""
"null","114371","HierDykd4bp8jp","sub05","05","8","iti","null","img/motor_7.png","75","motor","","","","","","",""
"473","114854","HierDykd4bp8jp","sub05","05","8","motor","74","img/motor_6.png","74","motor","6","96","1","0","0","",""
"null","114965","HierDykd4bp8jp","sub05","05","8","iti","null","img/motor_6.png","74","motor","","","","","","",""
"478","115452","HierDykd4bp8jp","sub05","05","8","motor","76","img/motor_8.png","76","motor","8","97","1","0","0","",""
"null","115563","HierDykd4bp8jp","sub05","05","8","iti","null","img/motor_8.png","76","motor","","","","","","",""
"532","116103","HierDykd4bp8jp","sub05","05","8","motor","75","img/motor_7.png","75","motor","7","98","1","0","0","",""
"null","116214","HierDykd4bp8jp","sub05","05","8","iti","null","img/motor_7.png","75","motor","","","","","","",""
"507","116732","HierDykd4bp8jp","sub05","05","8","motor","83","img/motor_2.png","83","motor","2","99","1","0","0","",""
"null","116843","HierDykd4bp8jp","sub05","05","8","iti","null","img/motor_2.png","83","motor","","","","","","",""
"456","117309","HierDykd4bp8jp","sub05","05","8","motor","70","img/motor_4.png","70","motor","4","100","1","0","0","",""
"null","117418","HierDykd4bp8jp","sub05","05","8","iti","null","img/motor_4.png","70","motor","","","","","","",""
"623","118052","HierDykd4bp8jp","sub05","05","8","motor","75","img/motor_7.png","75","motor","7","101","1","0","0","",""
"null","118163","HierDykd4bp8jp","sub05","05","8","iti","null","img/motor_7.png","75","motor","","","","","","",""
"566","118738","HierDykd4bp8jp","sub05","05","8","motor","83","img/motor_2.png","83","motor","2","102","1","0","0","",""
"null","118847","HierDykd4bp8jp","sub05","05","8","iti","null","img/motor_2.png","83","motor","","","","","","",""
"569","119426","HierDykd4bp8jp","sub05","05","8","motor","72","img/motor_5.png","72","motor","5","103","1","0","0","",""
"null","119537","HierDykd4bp8jp","sub05","05","8","iti","null","img/motor_5.png","72","motor","","","","","","",""
"341","119887","HierDykd4bp8jp","sub05","05","8","motor","72","img/motor_5.png","72","motor","5","104","1","0","0","",""
"null","119996","HierDykd4bp8jp","sub05","05","8","iti","null","img/motor_5.png","72","motor","","","","","","",""
"523","120528","HierDykd4bp8jp","sub05","05","8","motor","74","img/motor_6.png","74","motor","6","105","1","0","0","",""
"null","120637","HierDykd4bp8jp","sub05","05","8","iti","null","img/motor_6.png","74","motor","","","","","","",""
"556","121202","HierDykd4bp8jp","sub05","05","8","motor","70","img/motor_4.png","70","motor","4","106","1","0","0","",""
"null","121314","HierDykd4bp8jp","sub05","05","8","iti","null","img/motor_4.png","70","motor","","","","","","",""
"656","121975","HierDykd4bp8jp","sub05","05","8","motor","72","img/motor_5.png","72","motor","5","107","1","0","0","",""
"null","122086","HierDykd4bp8jp","sub05","05","8","iti","null","img/motor_5.png","72","motor","","","","","","",""
"851","122949","HierDykd4bp8jp","sub05","05","8","motor","83","img/motor_2.png","83","motor","2","108","1","0","0","",""
"null","123056","HierDykd4bp8jp","sub05","05","8","iti","null","img/motor_2.png","83","motor","","","","","","",""
"352","123418","HierDykd4bp8jp","sub05","05","8","motor","65","img/motor_1.png","65","motor","1","109","1","0","0","",""
"null","123529","HierDykd4bp8jp","sub05","05","8","iti","null","img/motor_1.png","65","motor","","","","","","",""
"783","124322","HierDykd4bp8jp","sub05","05","8","motor","74","img/motor_6.png","74","motor","6","110","1","0","0","",""
"null","124433","HierDykd4bp8jp","sub05","05","8","iti","null","img/motor_6.png","74","motor","","","","","","",""
"454","124896","HierDykd4bp8jp","sub05","05","8","motor","75","img/motor_7.png","75","motor","7","111","1","0","0","",""
"null","125006","HierDykd4bp8jp","sub05","05","8","iti","null","img/motor_7.png","75","motor","","","","","","",""
"489","125506","HierDykd4bp8jp","sub05","05","8","motor","65","img/motor_1.png","65","motor","1","112","1","0","0","",""
"null","125616","HierDykd4bp8jp","sub05","05","8","iti","null","img/motor_1.png","65","motor","","","","","","",""
"436","126063","HierDykd4bp8jp","sub05","05","8","motor","76","img/motor_8.png","76","motor","8","113","1","0","0","",""
"null","126173","HierDykd4bp8jp","sub05","05","8","iti","null","img/motor_8.png","76","motor","","","","","","",""
"637","126824","HierDykd4bp8jp","sub05","05","8","motor","68","img/motor_3.png","68","motor","3","114","1","0","0","",""
"null","126935","HierDykd4bp8jp","sub05","05","8","iti","null","img/motor_3.png","68","motor","","","","","","",""
"610","127556","HierDykd4bp8jp","sub05","05","8","motor","75","img/motor_7.png","75","motor","7","115","1","0","0","",""
"null","127664","HierDykd4bp8jp","sub05","05","8","iti","null","img/motor_7.png","75","motor","","","","","","",""
"411","128085","HierDykd4bp8jp","sub05","05","8","motor","74","img/motor_6.png","74","motor","6","116","1","0","0","",""
"null","128196","HierDykd4bp8jp","sub05","05","8","iti","null","img/motor_6.png","74","motor","","","","","","",""
"485","128689","HierDykd4bp8jp","sub05","05","8","motor","72","img/motor_5.png","72","motor","5","117","1","0","0","",""
"null","128801","HierDykd4bp8jp","sub05","05","8","iti","null","img/motor_5.png","72","motor","","","","","","",""
"472","129285","HierDykd4bp8jp","sub05","05","8","motor","76","img/motor_8.png","76","motor","8","118","1","0","0","",""
"null","129397","HierDykd4bp8jp","sub05","05","8","iti","null","img/motor_8.png","76","motor","","","","","","",""
"472","129880","HierDykd4bp8jp","sub05","05","8","motor","70","img/motor_4.png","70","motor","4","119","1","0","0","",""
"null","129991","HierDykd4bp8jp","sub05","05","8","iti","null","img/motor_4.png","70","motor","","","","","","",""
"561","130562","HierDykd4bp8jp","sub05","05","8","motor","74","img/motor_6.png","74","motor","6","120","1","0","0","",""
"null","130671","HierDykd4bp8jp","sub05","05","8","iti","null","img/motor_6.png","74","motor","","","","","","",""
"484","131168","HierDykd4bp8jp","sub05","05","8","motor","70","img/motor_5.png","72","motor","5","121","0","1","0","",""
"249","131430","HierDykd4bp8jp","sub05","05","8","motorRepeat","74","img/motor_5.png","72","motor","5","121","0","1","0","",""
"255","131694","HierDykd4bp8jp","sub05","05","8","motorRepeat","72","img/motor_5.png","72","motor","5","121","1","0","0","",""
"null","131806","HierDykd4bp8jp","sub05","05","8","iti","null","img/motor_5.png","72","motor","","","","","","",""
"772","132590","HierDykd4bp8jp","sub05","05","8","motor","68","img/motor_3.png","68","motor","3","122","1","0","0","",""
"null","132701","HierDykd4bp8jp","sub05","05","8","iti","null","img/motor_3.png","68","motor","","","","","","",""
"1011","133720","HierDykd4bp8jp","sub05","05","8","motor","74","img/motor_6.png","74","motor","6","123","1","0","0","",""
"null","133832","HierDykd4bp8jp","sub05","05","8","iti","null","img/motor_6.png","74","motor","","","","","","",""
"513","134353","HierDykd4bp8jp","sub05","05","8","motor","65","img/motor_1.png","65","motor","1","124","1","0","0","",""
"null","134465","HierDykd4bp8jp","sub05","05","8","iti","null","img/motor_1.png","65","motor","","","","","","",""
"500","134977","HierDykd4bp8jp","sub05","05","8","motor","72","img/motor_5.png","72","motor","5","125","1","0","0","",""
"null","135088","HierDykd4bp8jp","sub05","05","8","iti","null","img/motor_5.png","72","motor","","","","","","",""
"654","135753","HierDykd4bp8jp","sub05","05","8","motor","74","img/motor_6.png","74","motor","6","126","1","0","0","",""
"null","135863","HierDykd4bp8jp","sub05","05","8","iti","null","img/motor_6.png","74","motor","","","","","","",""
"575","136448","HierDykd4bp8jp","sub05","05","8","motor","83","img/motor_2.png","83","motor","2","127","1","0","0","",""
"null","136560","HierDykd4bp8jp","sub05","05","8","iti","null","img/motor_2.png","83","motor","","","","","","",""
"528","137094","HierDykd4bp8jp","sub05","05","8","motor","70","img/motor_4.png","70","motor","4","128","1","0","0","",""
"null","137203","HierDykd4bp8jp","sub05","05","8","iti","null","img/motor_4.png","70","motor","","","","","","",""
"471","137681","HierDykd4bp8jp","sub05","05","8","motor","83","img/motor_2.png","83","motor","2","129","1","0","0","",""
"null","137789","HierDykd4bp8jp","sub05","05","8","iti","null","img/motor_2.png","83","motor","","","","","","",""
"471","138269","HierDykd4bp8jp","sub05","05","8","motor","65","img/motor_1.png","65","motor","1","130","1","0","0","",""
"null","138377","HierDykd4bp8jp","sub05","05","8","iti","null","img/motor_1.png","65","motor","","","","","","",""
"654","139038","HierDykd4bp8jp","sub05","05","8","motor","74","img/motor_6.png","74","motor","6","131","1","0","0","",""
"null","139148","HierDykd4bp8jp","sub05","05","8","iti","null","img/motor_6.png","74","motor","","","","","","",""
"457","139614","HierDykd4bp8jp","sub05","05","8","motor","75","img/motor_7.png","75","motor","7","132","1","0","0","",""
"null","139724","HierDykd4bp8jp","sub05","05","8","iti","null","img/motor_7.png","75","motor","","","","","","",""
"393","140127","HierDykd4bp8jp","sub05","05","8","motor","75","img/motor_7.png","75","motor","7","133","1","0","0","",""
"null","140239","HierDykd4bp8jp","sub05","05","8","iti","null","img/motor_7.png","75","motor","","","","","","",""
"552","140800","HierDykd4bp8jp","sub05","05","8","motor","70","img/motor_4.png","70","motor","4","134","1","0","0","",""
"null","140910","HierDykd4bp8jp","sub05","05","8","iti","null","img/motor_4.png","70","motor","","","","","","",""
"416","141338","HierDykd4bp8jp","sub05","05","8","motor","68","img/motor_3.png","68","motor","3","135","1","0","0","",""
"null","141449","HierDykd4bp8jp","sub05","05","8","iti","null","img/motor_3.png","68","motor","","","","","","",""
"463","141920","HierDykd4bp8jp","sub05","05","8","motor","72","img/motor_5.png","72","motor","5","136","1","0","0","",""
"null","142029","HierDykd4bp8jp","sub05","05","8","iti","null","img/motor_5.png","72","motor","","","","","","",""
"413","142452","HierDykd4bp8jp","sub05","05","8","motor","76","img/motor_8.png","76","motor","8","137","1","0","0","",""
"null","142564","HierDykd4bp8jp","sub05","05","8","iti","null","img/motor_8.png","76","motor","","","","","","",""
"525","143098","HierDykd4bp8jp","sub05","05","8","motor","65","img/motor_1.png","65","motor","1","138","1","0","0","",""
"null","143209","HierDykd4bp8jp","sub05","05","8","iti","null","img/motor_1.png","65","motor","","","","","","",""
"530","143750","HierDykd4bp8jp","sub05","05","8","motor","68","img/motor_3.png","68","motor","3","139","1","0","0","",""
"null","143861","HierDykd4bp8jp","sub05","05","8","iti","null","img/motor_3.png","68","motor","","","","","","",""
"361","144231","HierDykd4bp8jp","sub05","05","8","motor","68","img/motor_3.png","68","motor","3","140","1","0","0","",""
"null","144343","HierDykd4bp8jp","sub05","05","8","iti","null","img/motor_3.png","68","motor","","","","","","",""
"791","145145","HierDykd4bp8jp","sub05","05","8","motor","75","img/motor_7.png","75","motor","7","141","1","0","0","",""
"null","145256","HierDykd4bp8jp","sub05","05","8","iti","null","img/motor_7.png","75","motor","","","","","","",""
"420","145688","HierDykd4bp8jp","sub05","05","8","motor","75","img/motor_7.png","75","motor","7","142","1","0","0","",""
"null","145798","HierDykd4bp8jp","sub05","05","8","iti","null","img/motor_7.png","75","motor","","","","","","",""
"627","146436","HierDykd4bp8jp","sub05","05","8","motor","83","img/motor_2.png","83","motor","2","143","1","0","0","",""
"null","146546","HierDykd4bp8jp","sub05","05","8","iti","null","img/motor_2.png","83","motor","","","","","","",""
"518","147076","HierDykd4bp8jp","sub05","05","8","motor","76","img/motor_8.png","76","motor","8","144","1","0","0","",""
"null","147187","HierDykd4bp8jp","sub05","05","8","iti","null","img/motor_8.png","76","motor","","","","","","",""
"465","147662","HierDykd4bp8jp","sub05","05","8","motor","65","img/motor_1.png","65","motor","1","145","1","0","0","",""
"null","147771","HierDykd4bp8jp","sub05","05","8","iti","null","img/motor_1.png","65","motor","","","","","","",""
"509","148291","HierDykd4bp8jp","sub05","05","8","motor","70","img/motor_3.png","68","motor","3","146","0","1","0","",""
"280","148582","HierDykd4bp8jp","sub05","05","8","motorRepeat","68","img/motor_3.png","68","motor","3","146","1","0","0","",""
"null","148694","HierDykd4bp8jp","sub05","05","8","iti","null","img/motor_3.png","68","motor","","","","","","",""
"610","149312","HierDykd4bp8jp","sub05","05","8","motor","76","img/motor_8.png","76","motor","8","147","1","0","0","",""
"null","149423","HierDykd4bp8jp","sub05","05","8","iti","null","img/motor_8.png","76","motor","","","","","","",""
"577","150011","HierDykd4bp8jp","sub05","05","8","motor","68","img/motor_3.png","68","motor","3","148","1","0","0","",""
"null","150122","HierDykd4bp8jp","sub05","05","8","iti","null","img/motor_3.png","68","motor","","","","","","",""
"485","150616","HierDykd4bp8jp","sub05","05","8","motor","76","img/motor_8.png","76","motor","8","149","1","0","0","",""
"null","150726","HierDykd4bp8jp","sub05","05","8","iti","null","img/motor_8.png","76","motor","","","","","","",""
"576","151311","HierDykd4bp8jp","sub05","05","8","motor","65","img/motor_1.png","65","motor","1","150","1","0","0","",""
"null","151421","HierDykd4bp8jp","sub05","05","8","iti","null","img/motor_1.png","65","motor","","","","","","",""
"556","151987","HierDykd4bp8jp","sub05","05","8","motor","75","img/motor_7.png","75","motor","7","151","1","0","0","",""
"null","152100","HierDykd4bp8jp","sub05","05","8","iti","null","img/motor_7.png","75","motor","","","","","","",""
"681","152791","HierDykd4bp8jp","sub05","05","8","motor","83","img/motor_2.png","83","motor","2","152","1","0","0","",""
"null","152903","HierDykd4bp8jp","sub05","05","8","iti","null","img/motor_2.png","83","motor","","","","","","",""
"620","153533","HierDykd4bp8jp","sub05","05","8","motor","76","img/motor_8.png","76","motor","8","153","1","0","0","",""
"null","153642","HierDykd4bp8jp","sub05","05","8","iti","null","img/motor_8.png","76","motor","","","","","","",""
"574","154227","HierDykd4bp8jp","sub05","05","8","motor","75","img/motor_7.png","75","motor","7","154","1","0","0","",""
"null","154338","HierDykd4bp8jp","sub05","05","8","iti","null","img/motor_7.png","75","motor","","","","","","",""
"499","154846","HierDykd4bp8jp","sub05","05","8","motor","76","img/motor_8.png","76","motor","8","155","1","0","0","",""
"null","154958","HierDykd4bp8jp","sub05","05","8","iti","null","img/motor_8.png","76","motor","","","","","","",""
"645","155611","HierDykd4bp8jp","sub05","05","8","motor","74","img/motor_6.png","74","motor","6","156","1","0","0","",""
"null","155723","HierDykd4bp8jp","sub05","05","8","iti","null","img/motor_6.png","74","motor","","","","","","",""
"453","156185","HierDykd4bp8jp","sub05","05","8","motor","72","img/motor_5.png","72","motor","5","157","1","0","0","",""
"null","156294","HierDykd4bp8jp","sub05","05","8","iti","null","img/motor_5.png","72","motor","","","","","","",""
"679","156983","HierDykd4bp8jp","sub05","05","8","motor","76","img/motor_8.png","76","motor","8","158","1","0","0","",""
"null","157094","HierDykd4bp8jp","sub05","05","8","iti","null","img/motor_8.png","76","motor","","","","","","",""
"573","157676","HierDykd4bp8jp","sub05","05","8","motor","74","img/motor_6.png","74","motor","6","159","1","0","0","",""
"null","157788","HierDykd4bp8jp","sub05","05","8","iti","null","img/motor_6.png","74","motor","","","","","","",""
"567","158363","HierDykd4bp8jp","sub05","05","8","motor","76","img/motor_8.png","76","motor","8","160","1","0","0","",""
"null","158475","HierDykd4bp8jp","sub05","05","8","iti","null","img/motor_8.png","76","motor","","","","","","",""
"605","159085","HierDykd4bp8jp","sub05","05","8","motor","68","img/motor_3.png","68","motor","3","161","1","0","0","",""
"null","159196","HierDykd4bp8jp","sub05","05","8","iti","null","img/motor_3.png","68","motor","","","","","","",""
"502","159709","HierDykd4bp8jp","sub05","05","8","motor","83","img/motor_2.png","83","motor","2","162","1","0","0","",""
"null","159819","HierDykd4bp8jp","sub05","05","8","iti","null","img/motor_2.png","83","motor","","","","","","",""
"673","160502","HierDykd4bp8jp","sub05","05","8","motor","74","img/motor_6.png","74","motor","6","163","1","0","0","",""
"null","160612","HierDykd4bp8jp","sub05","05","8","iti","null","img/motor_6.png","74","motor","","","","","","",""
"486","161108","HierDykd4bp8jp","sub05","05","8","motor","74","img/motor_6.png","74","motor","6","164","1","0","0","",""
"null","161220","HierDykd4bp8jp","sub05","05","8","iti","null","img/motor_6.png","74","motor","","","","","","",""
"474","161704","HierDykd4bp8jp","sub05","05","8","motor","75","img/motor_7.png","75","motor","7","165","1","0","0","",""
"null","161815","HierDykd4bp8jp","sub05","05","8","iti","null","img/motor_7.png","75","motor","","","","","","",""
"563","162387","HierDykd4bp8jp","sub05","05","8","motor","68","img/motor_3.png","68","motor","3","166","1","0","0","",""
"null","162499","HierDykd4bp8jp","sub05","05","8","iti","null","img/motor_3.png","68","motor","","","","","","",""
"555","163065","HierDykd4bp8jp","sub05","05","8","motor","74","img/motor_6.png","74","motor","6","167","1","0","0","",""
"null","163178","HierDykd4bp8jp","sub05","05","8","iti","null","img/motor_6.png","74","motor","","","","","","",""
"599","163788","HierDykd4bp8jp","sub05","05","8","motor","68","img/motor_3.png","68","motor","3","168","1","0","0","",""
"null","163897","HierDykd4bp8jp","sub05","05","8","iti","null","img/motor_3.png","68","motor","","","","","","",""
"539","164448","HierDykd4bp8jp","sub05","05","8","motor","83","img/motor_2.png","83","motor","2","169","1","0","0","",""
"null","164560","HierDykd4bp8jp","sub05","05","8","iti","null","img/motor_2.png","83","motor","","","","","","",""
"556","165127","HierDykd4bp8jp","sub05","05","8","motor","74","img/motor_6.png","74","motor","6","170","1","0","0","",""
"null","165238","HierDykd4bp8jp","sub05","05","8","iti","null","img/motor_6.png","74","motor","","","","","","",""
"620","165865","HierDykd4bp8jp","sub05","05","8","motor","68","img/motor_3.png","68","motor","3","171","1","0","0","",""
"null","165976","HierDykd4bp8jp","sub05","05","8","iti","null","img/motor_3.png","68","motor","","","","","","",""
"429","166413","HierDykd4bp8jp","sub05","05","8","motor","70","img/motor_4.png","70","motor","4","172","1","0","0","",""
"null","166524","HierDykd4bp8jp","sub05","05","8","iti","null","img/motor_4.png","70","motor","","","","","","",""
"406","166941","HierDykd4bp8jp","sub05","05","8","motor","72","img/motor_5.png","72","motor","5","173","1","0","0","",""
"null","167053","HierDykd4bp8jp","sub05","05","8","iti","null","img/motor_5.png","72","motor","","","","","","",""
"618","167680","HierDykd4bp8jp","sub05","05","8","motor","70","img/motor_4.png","70","motor","4","174","1","0","0","",""
"null","167793","HierDykd4bp8jp","sub05","05","8","iti","null","img/motor_4.png","70","motor","","","","","","",""
"490","168290","HierDykd4bp8jp","sub05","05","8","motor","65","img/motor_1.png","65","motor","1","175","1","0","0","",""
"null","168397","HierDykd4bp8jp","sub05","05","8","iti","null","img/motor_1.png","65","motor","","","","","","",""
"542","168948","HierDykd4bp8jp","sub05","05","8","motor","72","img/motor_5.png","72","motor","5","176","1","0","0","",""
"null","169060","HierDykd4bp8jp","sub05","05","8","iti","null","img/motor_5.png","72","motor","","","","","","",""
"389","169459","HierDykd4bp8jp","sub05","05","8","motor","72","img/motor_5.png","72","motor","5","177","1","0","0","",""
"null","169571","HierDykd4bp8jp","sub05","05","8","iti","null","img/motor_5.png","72","motor","","","","","","",""
"460","170042","HierDykd4bp8jp","sub05","05","8","motor","83","img/motor_3.png","68","motor","3","178","0","1","0","",""
"305","170357","HierDykd4bp8jp","sub05","05","8","motorRepeat","68","img/motor_3.png","68","motor","3","178","1","0","0","",""
"null","170469","HierDykd4bp8jp","sub05","05","8","iti","null","img/motor_3.png","68","motor","","","","","","",""
"722","171199","HierDykd4bp8jp","sub05","05","8","motor","72","img/motor_5.png","72","motor","5","179","1","0","0","",""
"null","171310","HierDykd4bp8jp","sub05","05","8","iti","null","img/motor_5.png","72","motor","","","","","","",""
"754","172071","HierDykd4bp8jp","sub05","05","8","motor","70","img/motor_4.png","70","motor","4","180","1","0","0","",""
"null","172179","HierDykd4bp8jp","sub05","05","8","iti","null","img/motor_4.png","70","motor","","","","","","",""
"1254","173441","HierDykd4bp8jp","sub05","05","8","motor","72","img/motor_5.png","72","motor","5","181","1","0","0","",""
"null","173551","HierDykd4bp8jp","sub05","05","8","iti","null","img/motor_5.png","72","motor","","","","","","",""
"579","174138","HierDykd4bp8jp","sub05","05","8","motor","68","img/motor_3.png","68","motor","3","182","1","0","0","",""
"null","174246","HierDykd4bp8jp","sub05","05","8","iti","null","img/motor_3.png","68","motor","","","","","","",""
"588","174841","HierDykd4bp8jp","sub05","05","8","motor","65","img/motor_1.png","65","motor","1","183","1","0","0","",""
"null","174953","HierDykd4bp8jp","sub05","05","8","iti","null","img/motor_1.png","65","motor","","","","","","",""
"762","175724","HierDykd4bp8jp","sub05","05","8","motor","75","img/motor_7.png","75","motor","7","184","1","0","0","",""
"null","175835","HierDykd4bp8jp","sub05","05","8","iti","null","img/motor_7.png","75","motor","","","","","","",""
"513","176358","HierDykd4bp8jp","sub05","05","8","motor","72","img/motor_5.png","72","motor","5","185","1","0","0","",""
"null","176471","HierDykd4bp8jp","sub05","05","8","iti","null","img/motor_5.png","72","motor","","","","","","",""
"378","176856","HierDykd4bp8jp","sub05","05","8","motor","72","img/motor_5.png","72","motor","5","186","1","0","0","",""
"null","176964","HierDykd4bp8jp","sub05","05","8","iti","null","img/motor_5.png","72","motor","","","","","","",""
"706","177682","HierDykd4bp8jp","sub05","05","8","motor","83","img/motor_2.png","83","motor","2","187","1","0","0","",""
"null","177792","HierDykd4bp8jp","sub05","05","8","iti","null","img/motor_2.png","83","motor","","","","","","",""
"578","178378","HierDykd4bp8jp","sub05","05","8","motor","72","img/motor_5.png","72","motor","5","188","1","0","0","",""
"null","178488","HierDykd4bp8jp","sub05","05","8","iti","null","img/motor_5.png","72","motor","","","","","","",""
"855","179352","HierDykd4bp8jp","sub05","05","8","motor","75","img/motor_7.png","75","motor","7","189","1","0","0","",""
"null","179461","HierDykd4bp8jp","sub05","05","8","iti","null","img/motor_7.png","75","motor","","","","","","",""
"562","180035","HierDykd4bp8jp","sub05","05","8","motor","72","img/motor_5.png","72","motor","5","190","1","0","0","",""
"null","180144","HierDykd4bp8jp","sub05","05","8","iti","null","img/motor_5.png","72","motor","","","","","","",""
"597","180752","HierDykd4bp8jp","sub05","05","8","motor","70","img/motor_4.png","70","motor","4","191","1","0","0","",""
"null","180862","HierDykd4bp8jp","sub05","05","8","iti","null","img/motor_4.png","70","motor","","","","","","",""
"353","181225","HierDykd4bp8jp","sub05","05","8","motor","70","img/motor_4.png","70","motor","4","192","1","0","0","",""
"null","181334","HierDykd4bp8jp","sub05","05","8","iti","null","img/motor_4.png","70","motor","","","","","","",""
"615","181957","HierDykd4bp8jp","sub05","05","8","motor","74","img/motor_6.png","74","motor","6","193","1","0","0","",""
"null","182066","HierDykd4bp8jp","sub05","05","8","iti","null","img/motor_6.png","74","motor","","","","","","",""
"586","182660","HierDykd4bp8jp","sub05","05","8","motor","65","img/motor_1.png","65","motor","1","194","1","0","0","",""
"null","182768","HierDykd4bp8jp","sub05","05","8","iti","null","img/motor_1.png","65","motor","","","","","","",""
"466","183244","HierDykd4bp8jp","sub05","05","8","motor","70","img/motor_4.png","70","motor","4","195","1","0","0","",""
"null","183353","HierDykd4bp8jp","sub05","05","8","iti","null","img/motor_4.png","70","motor","","","","","","",""
"489","183852","HierDykd4bp8jp","sub05","05","8","motor","83","img/motor_2.png","83","motor","2","196","1","0","0","",""
"null","183959","HierDykd4bp8jp","sub05","05","8","iti","null","img/motor_2.png","83","motor","","","","","","",""
"464","184429","HierDykd4bp8jp","sub05","05","8","motor","68","img/motor_3.png","68","motor","3","197","1","0","0","",""
"null","184537","HierDykd4bp8jp","sub05","05","8","iti","null","img/motor_3.png","68","motor","","","","","","",""
"682","185227","HierDykd4bp8jp","sub05","05","8","motor","75","img/motor_7.png","75","motor","7","198","1","0","0","",""
"null","185336","HierDykd4bp8jp","sub05","05","8","iti","null","img/motor_7.png","75","motor","","","","","","",""
"472","185816","HierDykd4bp8jp","sub05","05","8","motor","76","img/motor_8.png","76","motor","8","199","1","0","0","",""
"null","185925","HierDykd4bp8jp","sub05","05","8","iti","null","img/motor_8.png","76","motor","","","","","","",""
"503","186437","HierDykd4bp8jp","sub05","05","8","motor","75","img/motor_7.png","75","motor","7","200","1","0","0","",""
"null","186547","HierDykd4bp8jp","sub05","05","8","iti","null","img/motor_7.png","75","motor","","","","","","",""
"540","187097","HierDykd4bp8jp","sub05","05","8","motor","65","img/motor_1.png","65","motor","1","201","1","0","0","",""
"null","187210","HierDykd4bp8jp","sub05","05","8","iti","null","img/motor_1.png","65","motor","","","","","","",""
"600","187819","HierDykd4bp8jp","sub05","05","8","motor","72","img/motor_5.png","72","motor","5","202","1","0","0","",""
"null","187930","HierDykd4bp8jp","sub05","05","8","iti","null","img/motor_5.png","72","motor","","","","","","",""
"960","188899","HierDykd4bp8jp","sub05","05","8","motor","65","img/motor_1.png","65","motor","1","203","1","0","0","",""
"null","189008","HierDykd4bp8jp","sub05","05","8","iti","null","img/motor_1.png","65","motor","","","","","","",""
"507","189523","HierDykd4bp8jp","sub05","05","8","motor","76","img/motor_8.png","76","motor","8","204","1","0","0","",""
"null","189632","HierDykd4bp8jp","sub05","05","8","iti","null","img/motor_8.png","76","motor","","","","","","",""
"376","190016","HierDykd4bp8jp","sub05","05","8","motor","75","img/motor_7.png","75","motor","7","205","1","0","0","",""
"null","190127","HierDykd4bp8jp","sub05","05","8","iti","null","img/motor_7.png","75","motor","","","","","","",""
"362","190498","HierDykd4bp8jp","sub05","05","8","motor","74","img/motor_6.png","74","motor","6","206","1","0","0","",""
"null","190607","HierDykd4bp8jp","sub05","05","8","iti","null","img/motor_6.png","74","motor","","","","","","",""
"545","191165","HierDykd4bp8jp","sub05","05","8","motor","65","img/motor_1.png","65","motor","1","207","1","0","0","",""
"null","191278","HierDykd4bp8jp","sub05","05","8","iti","null","img/motor_1.png","65","motor","","","","","","",""
"568","191857","HierDykd4bp8jp","sub05","05","8","motor","83","img/motor_2.png","83","motor","2","208","1","0","0","",""
"null","191969","HierDykd4bp8jp","sub05","05","8","iti","null","img/motor_2.png","83","motor","","","","","","",""
"1003","192979","HierDykd4bp8jp","sub05","05","8","motor","76","img/motor_8.png","76","motor","8","209","1","0","0","",""
"null","193089","HierDykd4bp8jp","sub05","05","8","iti","null","img/motor_8.png","76","motor","","","","","","",""
"368","193464","HierDykd4bp8jp","sub05","05","8","motor","76","img/motor_8.png","76","motor","8","210","1","0","0","",""
"null","193572","HierDykd4bp8jp","sub05","05","8","iti","null","img/motor_8.png","76","motor","","","","","","",""
"654","194237","HierDykd4bp8jp","sub05","05","8","motor","65","img/motor_1.png","65","motor","1","211","1","0","0","",""
"null","194346","HierDykd4bp8jp","sub05","05","8","iti","null","img/motor_1.png","65","motor","","","","","","",""
"978","195338","HierDykd4bp8jp","sub05","05","8","motor","68","img/motor_3.png","68","motor","3","212","1","0","0","",""
"null","195451","HierDykd4bp8jp","sub05","05","8","iti","null","img/motor_3.png","68","motor","","","","","","",""
"1117","196580","HierDykd4bp8jp","sub05","05","8","motor","70","img/motor_4.png","70","motor","4","213","1","0","0","",""
"null","196693","HierDykd4bp8jp","sub05","05","8","iti","null","img/motor_4.png","70","motor","","","","","","",""
"573","197277","HierDykd4bp8jp","sub05","05","8","motor","72","img/motor_5.png","72","motor","5","214","1","0","0","",""
"null","197389","HierDykd4bp8jp","sub05","05","8","iti","null","img/motor_5.png","72","motor","","","","","","",""
"749","198147","HierDykd4bp8jp","sub05","05","8","motor","68","img/motor_3.png","68","motor","3","215","1","0","0","",""
"null","198256","HierDykd4bp8jp","sub05","05","8","iti","null","img/motor_3.png","68","motor","","","","","","",""
"1136","199402","HierDykd4bp8jp","sub05","05","8","motor","72","img/motor_5.png","72","motor","5","216","1","0","0","",""
"null","199511","HierDykd4bp8jp","sub05","05","8","iti","null","img/motor_5.png","72","motor","","","","","","",""
"486","200007","HierDykd4bp8jp","sub05","05","8","motor","74","img/motor_6.png","74","motor","6","217","1","0","0","",""
"null","200118","HierDykd4bp8jp","sub05","05","8","iti","null","img/motor_6.png","74","motor","","","","","","",""
"664","200793","HierDykd4bp8jp","sub05","05","8","motor","70","img/motor_4.png","70","motor","4","218","1","0","0","",""
"null","200905","HierDykd4bp8jp","sub05","05","8","iti","null","img/motor_4.png","70","motor","","","","","","",""
"524","201439","HierDykd4bp8jp","sub05","05","8","motor","68","img/motor_2.png","83","motor","2","219","0","1","0","",""
"282","201731","HierDykd4bp8jp","sub05","05","8","motorRepeat","83","img/motor_2.png","83","motor","2","219","1","0","0","",""
"null","201841","HierDykd4bp8jp","sub05","05","8","iti","null","img/motor_2.png","83","motor","","","","","","",""
"824","202673","HierDykd4bp8jp","sub05","05","8","motor","75","img/motor_7.png","75","motor","7","220","1","0","0","",""
"null","202781","HierDykd4bp8jp","sub05","05","8","iti","null","img/motor_7.png","75","motor","","","","","","",""
"485","203274","HierDykd4bp8jp","sub05","05","8","motor","74","img/motor_6.png","74","motor","6","221","1","0","0","",""
"null","203384","HierDykd4bp8jp","sub05","05","8","iti","null","img/motor_6.png","74","motor","","","","","","",""
"594","203989","HierDykd4bp8jp","sub05","05","8","motor","75","img/motor_7.png","75","motor","7","222","1","0","0","",""
"null","204101","HierDykd4bp8jp","sub05","05","8","iti","null","img/motor_7.png","75","motor","","","","","","",""
"625","204735","HierDykd4bp8jp","sub05","05","8","motor","68","img/motor_3.png","68","motor","3","223","1","0","0","",""
"null","204846","HierDykd4bp8jp","sub05","05","8","iti","null","img/motor_3.png","68","motor","","","","","","",""
"523","205379","HierDykd4bp8jp","sub05","05","8","motor","70","img/motor_4.png","70","motor","4","224","1","0","0","",""
"null","205488","HierDykd4bp8jp","sub05","05","8","iti","null","img/motor_4.png","70","motor","","","","","","",""
"933","206429","HierDykd4bp8jp","sub05","05","8","motor","75","img/motor_7.png","75","motor","7","225","1","0","0","",""
"null","206535","HierDykd4bp8jp","sub05","05","8","iti","null","img/motor_7.png","75","motor","","","","","","",""
"1141","207685","HierDykd4bp8jp","sub05","05","8","motor","68","img/motor_3.png","68","motor","3","226","1","0","0","",""
"null","207794","HierDykd4bp8jp","sub05","05","8","iti","null","img/motor_3.png","68","motor","","","","","","",""
"535","208339","HierDykd4bp8jp","sub05","05","8","motor","83","img/motor_2.png","83","motor","2","227","1","0","0","",""
"null","208450","HierDykd4bp8jp","sub05","05","8","iti","null","img/motor_2.png","83","motor","","","","","","",""
"538","208997","HierDykd4bp8jp","sub05","05","8","motor","68","img/motor_3.png","68","motor","3","228","1","0","0","",""
"null","209108","HierDykd4bp8jp","sub05","05","8","iti","null","img/motor_3.png","68","motor","","","","","","",""
"1153","210270","HierDykd4bp8jp","sub05","05","8","motor","76","img/motor_8.png","76","motor","8","229","1","0","0","",""
"null","210382","HierDykd4bp8jp","sub05","05","8","iti","null","img/motor_8.png","76","motor","","","","","","",""
"900","211291","HierDykd4bp8jp","sub05","05","8","motor","68","img/motor_3.png","68","motor","3","230","1","0","0","",""
"null","211399","HierDykd4bp8jp","sub05","05","8","iti","null","img/motor_3.png","68","motor","","","","","","",""
"536","211942","HierDykd4bp8jp","sub05","05","8","motor","72","img/motor_5.png","72","motor","5","231","1","0","0","",""
"null","212050","HierDykd4bp8jp","sub05","05","8","iti","null","img/motor_5.png","72","motor","","","","","","",""
"504","212562","HierDykd4bp8jp","sub05","05","8","motor","74","img/motor_6.png","74","motor","6","232","1","0","0","",""
"null","212671","HierDykd4bp8jp","sub05","05","8","iti","null","img/motor_6.png","74","motor","","","","","","",""
"841","213521","HierDykd4bp8jp","sub05","05","8","motor","76","img/motor_8.png","76","motor","8","233","1","0","0","",""
"null","213629","HierDykd4bp8jp","sub05","05","8","iti","null","img/motor_8.png","76","motor","","","","","","",""
"677","214315","HierDykd4bp8jp","sub05","05","8","motor","74","img/motor_6.png","74","motor","6","234","1","0","0","",""
"null","214424","HierDykd4bp8jp","sub05","05","8","iti","null","img/motor_6.png","74","motor","","","","","","",""
"652","215084","HierDykd4bp8jp","sub05","05","8","motor","83","img/motor_2.png","83","motor","2","235","1","0","0","",""
"null","215196","HierDykd4bp8jp","sub05","05","8","iti","null","img/motor_2.png","83","motor","","","","","","",""
"506","215714","HierDykd4bp8jp","sub05","05","8","motor","65","img/motor_1.png","65","motor","1","236","1","0","0","",""
"null","215823","HierDykd4bp8jp","sub05","05","8","iti","null","img/motor_1.png","65","motor","","","","","","",""
"596","216431","HierDykd4bp8jp","sub05","05","8","motor","65","img/motor_1.png","65","motor","1","237","1","0","0","",""
"null","216543","HierDykd4bp8jp","sub05","05","8","iti","null","img/motor_1.png","65","motor","","","","","","",""
"579","217131","HierDykd4bp8jp","sub05","05","8","motor","72","img/motor_5.png","72","motor","5","238","1","0","0","",""
"null","217239","HierDykd4bp8jp","sub05","05","8","iti","null","img/motor_5.png","72","motor","","","","","","",""
"676","217923","HierDykd4bp8jp","sub05","05","8","motor","76","img/motor_8.png","76","motor","8","239","1","0","0","",""
"null","218032","HierDykd4bp8jp","sub05","05","8","iti","null","img/motor_8.png","76","motor","","","","","","",""
"560","218601","HierDykd4bp8jp","sub05","05","8","motor","70","img/motor_4.png","70","motor","4","240","1","0","0","",""
"null","218711","HierDykd4bp8jp","sub05","05","8","iti","null","img/motor_4.png","70","motor","","","","","","",""
"585","219303","HierDykd4bp8jp","sub05","05","8","motor","83","img/motor_2.png","83","motor","2","241","1","0","0","",""
"null","219412","HierDykd4bp8jp","sub05","05","8","iti","null","img/motor_2.png","83","motor","","","","","","",""
"542","219962","HierDykd4bp8jp","sub05","05","8","motor","74","img/motor_6.png","74","motor","6","242","1","0","0","",""
"null","220070","HierDykd4bp8jp","sub05","05","8","iti","null","img/motor_6.png","74","motor","","","","","","",""
"854","220933","HierDykd4bp8jp","sub05","05","8","motor","70","img/motor_4.png","70","motor","4","243","1","0","0","",""
"null","221042","HierDykd4bp8jp","sub05","05","8","iti","null","img/motor_4.png","70","motor","","","","","","",""
"1039","222090","HierDykd4bp8jp","sub05","05","8","motor","76","img/motor_8.png","76","motor","8","244","1","0","0","",""
"null","222202","HierDykd4bp8jp","sub05","05","8","iti","null","img/motor_8.png","76","motor","","","","","","",""
"685","222896","HierDykd4bp8jp","sub05","05","8","motor","72","img/motor_5.png","72","motor","5","245","1","0","0","",""
"null","223007","HierDykd4bp8jp","sub05","05","8","iti","null","img/motor_5.png","72","motor","","","","","","",""
"693","223710","HierDykd4bp8jp","sub05","05","8","motor","65","img/motor_1.png","65","motor","1","246","1","0","0","",""
"null","223823","HierDykd4bp8jp","sub05","05","8","iti","null","img/motor_1.png","65","motor","","","","","","",""
"998","224831","HierDykd4bp8jp","sub05","05","8","motor","68","img/motor_3.png","68","motor","3","247","1","0","0","",""
"null","224940","HierDykd4bp8jp","sub05","05","8","iti","null","img/motor_3.png","68","motor","","","","","","",""
"540","225492","HierDykd4bp8jp","sub05","05","8","motor","65","img/motor_1.png","65","motor","1","248","1","0","0","",""
"null","225603","HierDykd4bp8jp","sub05","05","8","iti","null","img/motor_1.png","65","motor","","","","","","",""
"566","226177","HierDykd4bp8jp","sub05","05","8","motor","70","img/motor_4.png","70","motor","4","249","1","0","0","",""
"null","226285","HierDykd4bp8jp","sub05","05","8","iti","null","img/motor_4.png","70","motor","","","","","","",""
"458","226753","HierDykd4bp8jp","sub05","05","8","motor","70","img/motor_4.png","70","motor","4","250","1","0","0","",""
"null","226863","HierDykd4bp8jp","sub05","05","8","iti","null","img/motor_4.png","70","motor","","","","","","",""
"449","227321","HierDykd4bp8jp","sub05","05","8","motor","68","img/motor_3.png","68","motor","3","251","1","0","0","",""
"null","227432","HierDykd4bp8jp","sub05","05","8","iti","null","img/motor_3.png","68","motor","","","","","","",""
"1183","228624","HierDykd4bp8jp","sub05","05","8","motor","74","img/motor_7.png","75","motor","7","252","0","1","0","",""
"920","229554","HierDykd4bp8jp","sub05","05","8","motorRepeat","75","img/motor_7.png","75","motor","7","252","1","0","0","",""
"null","229663","HierDykd4bp8jp","sub05","05","8","iti","null","img/motor_7.png","75","motor","","","","","","",""
"1220","230890","HierDykd4bp8jp","sub05","05","8","motor","83","img/motor_2.png","83","motor","2","253","1","0","0","",""
"null","231000","HierDykd4bp8jp","sub05","05","8","iti","null","img/motor_2.png","83","motor","","","","","","",""
"781","231789","HierDykd4bp8jp","sub05","05","8","motor","72","img/motor_5.png","72","motor","5","254","1","0","0","",""
"null","231899","HierDykd4bp8jp","sub05","05","8","iti","null","img/motor_5.png","72","motor","","","","","","",""
"574","232485","HierDykd4bp8jp","sub05","05","8","motor","70","img/motor_4.png","70","motor","4","255","1","0","0","",""
"null","232594","HierDykd4bp8jp","sub05","05","8","iti","null","img/motor_4.png","70","motor","","","","","","",""
"512","233116","HierDykd4bp8jp","sub05","05","8","motor","76","img/motor_8.png","76","motor","8","256","1","0","0","",""
"null","233227","HierDykd4bp8jp","sub05","05","8","iti","null","img/motor_8.png","76","motor","","","","","","",""
"691","233928","HierDykd4bp8jp","sub05","05","8","motor","83","img/motor_2.png","83","motor","2","257","1","0","0","",""
"null","234037","HierDykd4bp8jp","sub05","05","8","iti","null","img/motor_2.png","83","motor","","","","","","",""
"444","234489","HierDykd4bp8jp","sub05","05","8","motor","75","img/motor_7.png","75","motor","7","258","1","0","0","",""
"null","234598","HierDykd4bp8jp","sub05","05","8","iti","null","img/motor_7.png","75","motor","","","","","","",""
"561","235170","HierDykd4bp8jp","sub05","05","8","motor","70","img/motor_4.png","70","motor","4","259","1","0","0","",""
"null","235279","HierDykd4bp8jp","sub05","05","8","iti","null","img/motor_4.png","70","motor","","","","","","",""
"496","235785","HierDykd4bp8jp","sub05","05","8","motor","76","img/motor_8.png","76","motor","8","260","1","0","0","",""
"null","235895","HierDykd4bp8jp","sub05","05","8","iti","null","img/motor_8.png","76","motor","","","","","","",""
"717","236621","HierDykd4bp8jp","sub05","05","8","motor","68","img/motor_3.png","68","motor","3","261","1","0","0","",""
"null","236732","HierDykd4bp8jp","sub05","05","8","iti","null","img/motor_3.png","68","motor","","","","","","",""
"663","237405","HierDykd4bp8jp","sub05","05","8","motor","72","img/motor_5.png","72","motor","5","262","1","0","0","",""
"null","237515","HierDykd4bp8jp","sub05","05","8","iti","null","img/motor_5.png","72","motor","","","","","","",""
"668","238193","HierDykd4bp8jp","sub05","05","8","motor","76","img/motor_8.png","76","motor","8","263","1","0","0","",""
"null","238304","HierDykd4bp8jp","sub05","05","8","iti","null","img/motor_8.png","76","motor","","","","","","",""
"535","238849","HierDykd4bp8jp","sub05","05","8","motor","76","img/motor_8.png","76","motor","8","264","1","0","0","",""
"null","238958","HierDykd4bp8jp","sub05","05","8","iti","null","img/motor_8.png","76","motor","","","","","","",""
"514","239479","HierDykd4bp8jp","sub05","05","8","motor","75","img/motor_7.png","75","motor","7","265","1","0","0","",""
"null","239588","HierDykd4bp8jp","sub05","05","8","iti","null","img/motor_7.png","75","motor","","","","","","",""
"556","240153","HierDykd4bp8jp","sub05","05","8","motor","65","img/motor_1.png","65","motor","1","266","1","0","0","",""
"null","240264","HierDykd4bp8jp","sub05","05","8","iti","null","img/motor_1.png","65","motor","","","","","","",""
"699","240973","HierDykd4bp8jp","sub05","05","8","motor","75","img/motor_7.png","75","motor","7","267","1","0","0","",""
"null","241083","HierDykd4bp8jp","sub05","05","8","iti","null","img/motor_7.png","75","motor","","","","","","",""
"501","241594","HierDykd4bp8jp","sub05","05","8","motor","76","img/motor_8.png","76","motor","8","268","1","0","0","",""
"null","241705","HierDykd4bp8jp","sub05","05","8","iti","null","img/motor_8.png","76","motor","","","","","","",""
"893","242607","HierDykd4bp8jp","sub05","05","8","motor","83","img/motor_2.png","83","motor","2","269","1","0","0","",""
"null","242718","HierDykd4bp8jp","sub05","05","8","iti","null","img/motor_2.png","83","motor","","","","","","",""
"736","243464","HierDykd4bp8jp","sub05","05","8","motor","83","img/motor_2.png","83","motor","2","270","1","0","0","",""
"null","243573","HierDykd4bp8jp","sub05","05","8","iti","null","img/motor_2.png","83","motor","","","","","","",""
"630","244210","HierDykd4bp8jp","sub05","05","8","motor","72","img/motor_5.png","72","motor","5","271","1","0","0","",""
"null","244321","HierDykd4bp8jp","sub05","05","8","iti","null","img/motor_5.png","72","motor","","","","","","",""
"563","244893","HierDykd4bp8jp","sub05","05","8","motor","68","img/motor_3.png","68","motor","3","272","1","0","0","",""
"null","245002","HierDykd4bp8jp","sub05","05","8","iti","null","img/motor_3.png","68","motor","","","","","","",""
"1284","246296","HierDykd4bp8jp","sub05","05","8","motor","72","img/motor_5.png","72","motor","5","273","1","0","0","",""
"null","246408","HierDykd4bp8jp","sub05","05","8","iti","null","img/motor_5.png","72","motor","","","","","","",""
"1095","247514","HierDykd4bp8jp","sub05","05","8","motor","83","img/motor_2.png","83","motor","2","274","1","0","0","",""
"null","247625","HierDykd4bp8jp","sub05","05","8","iti","null","img/motor_2.png","83","motor","","","","","","",""
"656","248293","HierDykd4bp8jp","sub05","05","8","motor","75","img/motor_7.png","75","motor","7","275","1","0","0","",""
"null","248406","HierDykd4bp8jp","sub05","05","8","iti","null","img/motor_7.png","75","motor","","","","","","",""
"819","249235","HierDykd4bp8jp","sub05","05","8","motor","75","img/motor_7.png","75","motor","7","276","1","0","0","",""
"null","249348","HierDykd4bp8jp","sub05","05","8","iti","null","img/motor_7.png","75","motor","","","","","","",""
"635","249992","HierDykd4bp8jp","sub05","05","8","motor","72","img/motor_5.png","72","motor","5","277","1","0","0","",""
"null","250102","HierDykd4bp8jp","sub05","05","8","iti","null","img/motor_5.png","72","motor","","","","","","",""
"798","250910","HierDykd4bp8jp","sub05","05","8","motor","68","img/motor_3.png","68","motor","3","278","1","0","0","",""
"null","251020","HierDykd4bp8jp","sub05","05","8","iti","null","img/motor_3.png","68","motor","","","","","","",""
"645","251676","HierDykd4bp8jp","sub05","05","8","motor","76","img/motor_8.png","76","motor","8","279","1","0","0","",""
"null","251786","HierDykd4bp8jp","sub05","05","8","iti","null","img/motor_8.png","76","motor","","","","","","",""
"710","252507","HierDykd4bp8jp","sub05","05","8","motor","75","img/motor_7.png","75","motor","7","280","1","0","0","",""
"null","252618","HierDykd4bp8jp","sub05","05","8","iti","null","img/motor_7.png","75","motor","","","","","","",""
"755","253384","HierDykd4bp8jp","sub05","05","8","motor","74","img/motor_6.png","74","motor","6","281","1","0","0","",""
"null","253495","HierDykd4bp8jp","sub05","05","8","iti","null","img/motor_6.png","74","motor","","","","","","",""
"1009","254515","HierDykd4bp8jp","sub05","05","8","motor","76","img/motor_8.png","76","motor","8","282","1","0","0","",""
"null","254625","HierDykd4bp8jp","sub05","05","8","iti","null","img/motor_8.png","76","motor","","","","","","",""
"563","255201","HierDykd4bp8jp","sub05","05","8","motor","70","img/motor_4.png","70","motor","4","283","1","0","0","",""
"null","255311","HierDykd4bp8jp","sub05","05","8","iti","null","img/motor_4.png","70","motor","","","","","","",""
"394","255719","HierDykd4bp8jp","sub05","05","8","motor","70","img/motor_4.png","70","motor","4","284","1","0","0","",""
"null","255830","HierDykd4bp8jp","sub05","05","8","iti","null","img/motor_4.png","70","motor","","","","","","",""
"653","256496","HierDykd4bp8jp","sub05","05","8","motor","74","img/motor_6.png","74","motor","6","285","1","0","0","",""
"null","256606","HierDykd4bp8jp","sub05","05","8","iti","null","img/motor_6.png","74","motor","","","","","","",""
"726","257343","HierDykd4bp8jp","sub05","05","8","motor","68","img/motor_3.png","68","motor","3","286","1","0","0","",""
"null","257455","HierDykd4bp8jp","sub05","05","8","iti","null","img/motor_3.png","68","motor","","","","","","",""
"598","258065","HierDykd4bp8jp","sub05","05","8","motor","65","img/motor_1.png","65","motor","1","287","1","0","0","",""
"null","258177","HierDykd4bp8jp","sub05","05","8","iti","null","img/motor_1.png","65","motor","","","","","","",""
"509","258698","HierDykd4bp8jp","sub05","05","8","motor","83","img/motor_2.png","83","motor","2","288","1","0","0","",""
"null","258810","HierDykd4bp8jp","sub05","05","8","iti","null","img/motor_2.png","83","motor","","","","","","",""
"519","259340","HierDykd4bp8jp","sub05","05","8","motor","70","img/motor_4.png","70","motor","4","289","1","0","0","",""
"null","259453","HierDykd4bp8jp","sub05","05","8","iti","null","img/motor_4.png","70","motor","","","","","","",""
"564","260030","HierDykd4bp8jp","sub05","05","8","motor","83","img/motor_2.png","83","motor","2","290","1","0","0","",""
"null","260143","HierDykd4bp8jp","sub05","05","8","iti","null","img/motor_2.png","83","motor","","","","","","",""
"532","260688","HierDykd4bp8jp","sub05","05","8","motor","68","img/motor_3.png","68","motor","3","291","1","0","0","",""
"null","260800","HierDykd4bp8jp","sub05","05","8","iti","null","img/motor_3.png","68","motor","","","","","","",""
"645","261456","HierDykd4bp8jp","sub05","05","8","motor","83","img/motor_2.png","83","motor","2","292","1","0","0","",""
"null","261569","HierDykd4bp8jp","sub05","05","8","iti","null","img/motor_2.png","83","motor","","","","","","",""
"506","262088","HierDykd4bp8jp","sub05","05","8","motor","76","img/motor_8.png","76","motor","8","293","1","0","0","",""
"null","262199","HierDykd4bp8jp","sub05","05","8","iti","null","img/motor_8.png","76","motor","","","","","","",""
"603","262813","HierDykd4bp8jp","sub05","05","8","motor","72","img/motor_6.png","74","motor","6","294","0","1","0","",""
"282","263106","HierDykd4bp8jp","sub05","05","8","motorRepeat","74","img/motor_6.png","74","motor","6","294","1","0","0","",""
"null","263218","HierDykd4bp8jp","sub05","05","8","iti","null","img/motor_6.png","74","motor","","","","","","",""
"442","263670","HierDykd4bp8jp","sub05","05","8","motor","72","img/motor_5.png","72","motor","5","295","1","0","0","",""
"null","263782","HierDykd4bp8jp","sub05","05","8","iti","null","img/motor_5.png","72","motor","","","","","","",""
"607","264400","HierDykd4bp8jp","sub05","05","8","motor","65","img/motor_1.png","65","motor","1","296","1","0","0","",""
"null","264513","HierDykd4bp8jp","sub05","05","8","iti","null","img/motor_1.png","65","motor","","","","","","",""
"571","265094","HierDykd4bp8jp","sub05","05","8","motor","68","img/motor_3.png","68","motor","3","297","1","0","0","",""
"null","265206","HierDykd4bp8jp","sub05","05","8","iti","null","img/motor_3.png","68","motor","","","","","","",""
"677","265894","HierDykd4bp8jp","sub05","05","8","motor","74","img/motor_6.png","74","motor","6","298","1","0","0","",""
"null","266005","HierDykd4bp8jp","sub05","05","8","iti","null","img/motor_6.png","74","motor","","","","","","",""
"498","266513","HierDykd4bp8jp","sub05","05","8","motor","68","img/motor_3.png","68","motor","3","299","1","0","0","",""
"null","266626","HierDykd4bp8jp","sub05","05","8","iti","null","img/motor_3.png","68","motor","","","","","","",""
"465","267101","HierDykd4bp8jp","sub05","05","8","motor","83","img/motor_2.png","83","motor","2","300","1","0","0","",""
"null","267213","HierDykd4bp8jp","sub05","05","8","iti","null","img/motor_2.png","83","motor","","","","","","",""
"533","267757","HierDykd4bp8jp","sub05","05","8","motor","70","img/motor_4.png","70","motor","4","301","1","0","0","",""
"null","267868","HierDykd4bp8jp","sub05","05","8","iti","null","img/motor_4.png","70","motor","","","","","","",""
"558","268436","HierDykd4bp8jp","sub05","05","8","motor","83","img/motor_2.png","83","motor","2","302","1","0","0","",""
"null","268547","HierDykd4bp8jp","sub05","05","8","iti","null","img/motor_2.png","83","motor","","","","","","",""
"378","268934","HierDykd4bp8jp","sub05","05","8","motor","83","img/motor_2.png","83","motor","2","303","1","0","0","",""
"null","269046","HierDykd4bp8jp","sub05","05","8","iti","null","img/motor_2.png","83","motor","","","","","","",""
"498","269552","HierDykd4bp8jp","sub05","05","8","motor","75","img/motor_7.png","75","motor","7","304","1","0","0","",""
"null","269663","HierDykd4bp8jp","sub05","05","8","iti","null","img/motor_7.png","75","motor","","","","","","",""
"653","270326","HierDykd4bp8jp","sub05","05","8","motor","72","img/motor_5.png","72","motor","5","305","1","0","0","",""
"null","270439","HierDykd4bp8jp","sub05","05","8","iti","null","img/motor_5.png","72","motor","","","","","","",""
"489","270938","HierDykd4bp8jp","sub05","05","8","motor","65","img/motor_1.png","65","motor","1","306","1","0","0","",""
"null","271049","HierDykd4bp8jp","sub05","05","8","iti","null","img/motor_1.png","65","motor","","","","","","",""
"445","271506","HierDykd4bp8jp","sub05","05","8","motor","72","img/motor_5.png","72","motor","5","307","1","0","0","",""
"null","271615","HierDykd4bp8jp","sub05","05","8","iti","null","img/motor_5.png","72","motor","","","","","","",""
"496","272121","HierDykd4bp8jp","sub05","05","8","motor","83","img/motor_2.png","83","motor","2","308","1","0","0","",""
"null","272233","HierDykd4bp8jp","sub05","05","8","iti","null","img/motor_2.png","83","motor","","","","","","",""
"374","272618","HierDykd4bp8jp","sub05","05","8","motor","83","img/motor_2.png","83","motor","2","309","1","0","0","",""
"null","272729","HierDykd4bp8jp","sub05","05","8","iti","null","img/motor_2.png","83","motor","","","","","","",""
"546","273287","HierDykd4bp8jp","sub05","05","8","motor","70","img/motor_4.png","70","motor","4","310","1","0","0","",""
"null","273398","HierDykd4bp8jp","sub05","05","8","iti","null","img/motor_4.png","70","motor","","","","","","",""
"449","273857","HierDykd4bp8jp","sub05","05","8","motor","68","img/motor_3.png","68","motor","3","311","1","0","0","",""
"null","273967","HierDykd4bp8jp","sub05","05","8","iti","null","img/motor_3.png","68","motor","","","","","","",""
"481","274460","HierDykd4bp8jp","sub05","05","8","motor","65","img/motor_1.png","65","motor","1","312","1","0","0","",""
"null","274571","HierDykd4bp8jp","sub05","05","8","iti","null","img/motor_1.png","65","motor","","","","","","",""
"600","275183","HierDykd4bp8jp","sub05","05","8","motor","75","img/motor_7.png","75","motor","7","313","1","0","0","",""
"null","275293","HierDykd4bp8jp","sub05","05","8","iti","null","img/motor_7.png","75","motor","","","","","","",""
"497","275802","HierDykd4bp8jp","sub05","05","8","motor","72","img/motor_5.png","72","motor","5","314","1","0","0","",""
"null","275912","HierDykd4bp8jp","sub05","05","8","iti","null","img/motor_5.png","72","motor","","","","","","",""
"344","276264","HierDykd4bp8jp","sub05","05","8","motor","72","img/motor_5.png","72","motor","5","315","1","0","0","",""
"null","276374","HierDykd4bp8jp","sub05","05","8","iti","null","img/motor_5.png","72","motor","","","","","","",""
"549","276933","HierDykd4bp8jp","sub05","05","8","motor","75","img/motor_7.png","75","motor","7","316","1","0","0","",""
"null","277043","HierDykd4bp8jp","sub05","05","8","iti","null","img/motor_7.png","75","motor","","","","","","",""
"888","277942","HierDykd4bp8jp","sub05","05","8","motor","70","img/motor_1.png","65","motor","1","317","0","1","0","",""
"285","278237","HierDykd4bp8jp","sub05","05","8","motorRepeat","65","img/motor_1.png","65","motor","1","317","1","0","0","",""
"null","278350","HierDykd4bp8jp","sub05","05","8","iti","null","img/motor_1.png","65","motor","","","","","","",""
"518","278877","HierDykd4bp8jp","sub05","05","8","motor","70","img/motor_4.png","70","motor","4","318","1","0","0","",""
"null","278992","HierDykd4bp8jp","sub05","05","8","iti","null","img/motor_4.png","70","motor","","","","","","",""
"454","279457","HierDykd4bp8jp","sub05","05","8","motor","65","img/motor_1.png","65","motor","1","319","1","0","0","",""
"null","279569","HierDykd4bp8jp","sub05","05","8","iti","null","img/motor_1.png","65","motor","","","","","","",""
"468","280049","HierDykd4bp8jp","sub05","05","8","motor","76","img/motor_8.png","76","motor","8","320","1","0","0","",""
"null","280159","HierDykd4bp8jp","sub05","05","8","iti","null","img/motor_8.png","76","motor","","","","","","",""
"696","280865","HierDykd4bp8jp","sub05","05","8","motor","72","img/motor_4.png","70","motor","4","321","0","1","0","",""
"259","281134","HierDykd4bp8jp","sub05","05","8","motorRepeat","70","img/motor_4.png","70","motor","4","321","1","0","0","",""
"null","281245","HierDykd4bp8jp","sub05","05","8","iti","null","img/motor_4.png","70","motor","","","","","","",""
"428","281682","HierDykd4bp8jp","sub05","05","8","motor","72","img/motor_6.png","74","motor","6","322","0","1","0","",""
"256","281949","HierDykd4bp8jp","sub05","05","8","motorRepeat","74","img/motor_6.png","74","motor","6","322","1","0","0","",""
"null","282059","HierDykd4bp8jp","sub05","05","8","iti","null","img/motor_6.png","74","motor","","","","","","",""
"594","282662","HierDykd4bp8jp","sub05","05","8","motor","70","img/motor_4.png","70","motor","4","323","1","0","0","",""
"69","282774","HierDykd4bp8jp","sub05","05","8","iti","70","img/motor_4.png","70","motor","","","","","","",""
"665","283449","HierDykd4bp8jp","sub05","05","8","motor","75","img/motor_7.png","75","motor","7","324","1","0","0","",""
"null","283561","HierDykd4bp8jp","sub05","05","8","iti","null","img/motor_7.png","75","motor","","","","","","",""
"646","284217","HierDykd4bp8jp","sub05","05","8","motor","83","img/motor_2.png","83","motor","2","325","1","0","0","",""
"null","284329","HierDykd4bp8jp","sub05","05","8","iti","null","img/motor_2.png","83","motor","","","","","","",""
"556","284896","HierDykd4bp8jp","sub05","05","8","motor","76","img/motor_8.png","76","motor","8","326","1","0","0","",""
"null","285009","HierDykd4bp8jp","sub05","05","8","iti","null","img/motor_8.png","76","motor","","","","","","",""
"574","285592","HierDykd4bp8jp","sub05","05","8","motor","65","img/motor_1.png","65","motor","1","327","1","0","0","",""
"null","285703","HierDykd4bp8jp","sub05","05","8","iti","null","img/motor_1.png","65","motor","","","","","","",""
"601","286316","HierDykd4bp8jp","sub05","05","8","motor","72","img/motor_5.png","72","motor","5","328","1","0","0","",""
"null","286426","HierDykd4bp8jp","sub05","05","8","iti","null","img/motor_5.png","72","motor","","","","","","",""
"685","287121","HierDykd4bp8jp","sub05","05","8","motor","76","img/motor_8.png","76","motor","8","329","1","0","0","",""
"null","287234","HierDykd4bp8jp","sub05","05","8","iti","null","img/motor_8.png","76","motor","","","","","","",""
"606","287850","HierDykd4bp8jp","sub05","05","8","motor","76","img/motor_8.png","76","motor","8","330","1","0","0","",""
"null","287962","HierDykd4bp8jp","sub05","05","8","iti","null","img/motor_8.png","76","motor","","","","","","",""
"554","288527","HierDykd4bp8jp","sub05","05","8","motor","65","img/motor_1.png","65","motor","1","331","1","0","0","",""
"null","288640","HierDykd4bp8jp","sub05","05","8","iti","null","img/motor_1.png","65","motor","","","","","","",""
"539","289190","HierDykd4bp8jp","sub05","05","8","motor","70","img/motor_4.png","70","motor","4","332","1","0","0","",""
"null","289302","HierDykd4bp8jp","sub05","05","8","iti","null","img/motor_4.png","70","motor","","","","","","",""
"646","289959","HierDykd4bp8jp","sub05","05","8","motor","72","img/motor_5.png","72","motor","5","333","1","0","0","",""
"null","290069","HierDykd4bp8jp","sub05","05","8","iti","null","img/motor_5.png","72","motor","","","","","","",""
"361","290440","HierDykd4bp8jp","sub05","05","8","motor","72","img/motor_5.png","72","motor","5","334","1","0","0","",""
"null","290551","HierDykd4bp8jp","sub05","05","8","iti","null","img/motor_5.png","72","motor","","","","","","",""
"611","291173","HierDykd4bp8jp","sub05","05","8","motor","65","img/motor_1.png","65","motor","1","335","1","0","0","",""
"null","291284","HierDykd4bp8jp","sub05","05","8","iti","null","img/motor_1.png","65","motor","","","","","","",""
"593","291888","HierDykd4bp8jp","sub05","05","8","motor","68","img/motor_3.png","68","motor","3","336","1","0","0","",""
"null","291999","HierDykd4bp8jp","sub05","05","8","iti","null","img/motor_3.png","68","motor","","","","","","",""
"498","292508","HierDykd4bp8jp","sub05","05","8","motor","65","img/motor_1.png","65","motor","1","337","1","0","0","",""
"null","292617","HierDykd4bp8jp","sub05","05","8","iti","null","img/motor_1.png","65","motor","","","","","","",""
"1047","293675","HierDykd4bp8jp","sub05","05","8","motor","75","img/motor_8.png","76","motor","8","338","0","1","0","",""
"326","294011","HierDykd4bp8jp","sub05","05","8","motorRepeat","76","img/motor_8.png","76","motor","8","338","1","0","0","",""
"null","294121","HierDykd4bp8jp","sub05","05","8","iti","null","img/motor_8.png","76","motor","","","","","","",""
"664","294796","HierDykd4bp8jp","sub05","05","8","motor","68","img/motor_3.png","68","motor","3","339","1","0","0","",""
"null","294909","HierDykd4bp8jp","sub05","05","8","iti","null","img/motor_3.png","68","motor","","","","","","",""
"604","295524","HierDykd4bp8jp","sub05","05","8","motor","75","img/motor_7.png","75","motor","7","340","1","0","0","",""
"null","295635","HierDykd4bp8jp","sub05","05","8","iti","null","img/motor_7.png","75","motor","","","","","","",""
"612","296259","HierDykd4bp8jp","sub05","05","8","motor","76","img/motor_8.png","76","motor","8","341","1","0","0","",""
"null","296371","HierDykd4bp8jp","sub05","05","8","iti","null","img/motor_8.png","76","motor","","","","","","",""
"566","296945","HierDykd4bp8jp","sub05","05","8","motor","72","img/motor_5.png","72","motor","5","342","1","0","0","",""
"null","297057","HierDykd4bp8jp","sub05","05","8","iti","null","img/motor_5.png","72","motor","","","","","","",""
"543","297609","HierDykd4bp8jp","sub05","05","8","motor","74","img/motor_6.png","74","motor","6","343","1","0","0","",""
"null","297721","HierDykd4bp8jp","sub05","05","8","iti","null","img/motor_6.png","74","motor","","","","","","",""
"560","298293","HierDykd4bp8jp","sub05","05","8","motor","65","img/motor_1.png","65","motor","1","344","1","0","0","",""
"null","298406","HierDykd4bp8jp","sub05","05","8","iti","null","img/motor_1.png","65","motor","","","","","","",""
"551","298968","HierDykd4bp8jp","sub05","05","8","motor","70","img/motor_4.png","70","motor","4","345","1","0","0","",""
"null","299078","HierDykd4bp8jp","sub05","05","8","iti","null","img/motor_4.png","70","motor","","","","","","",""
"578","299668","HierDykd4bp8jp","sub05","05","8","motor","68","img/motor_3.png","68","motor","3","346","1","0","0","",""
"null","299780","HierDykd4bp8jp","sub05","05","8","iti","null","img/motor_3.png","68","motor","","","","","","",""
"1124","300915","HierDykd4bp8jp","sub05","05","8","motor","70","img/motor_4.png","70","motor","4","347","1","0","0","",""
"null","301027","HierDykd4bp8jp","sub05","05","8","iti","null","img/motor_4.png","70","motor","","","","","","",""
"578","301616","HierDykd4bp8jp","sub05","05","8","motor","75","img/motor_7.png","75","motor","7","348","1","0","0","",""
"null","301728","HierDykd4bp8jp","sub05","05","8","iti","null","img/motor_7.png","75","motor","","","","","","",""
"974","302712","HierDykd4bp8jp","sub05","05","8","motor","70","img/motor_4.png","70","motor","4","349","1","0","0","",""
"null","302825","HierDykd4bp8jp","sub05","05","8","iti","null","img/motor_4.png","70","motor","","","","","","",""
"613","303449","HierDykd4bp8jp","sub05","05","8","motor","76","img/motor_8.png","76","motor","8","350","1","0","0","",""
"null","303562","HierDykd4bp8jp","sub05","05","8","iti","null","img/motor_8.png","76","motor","","","","","","",""
"728","304302","HierDykd4bp8jp","sub05","05","8","motor","72","img/motor_5.png","72","motor","5","351","1","0","0","",""
"null","304414","HierDykd4bp8jp","sub05","05","8","iti","null","img/motor_5.png","72","motor","","","","","","",""
"753","305179","HierDykd4bp8jp","sub05","05","8","motor","75","img/motor_7.png","75","motor","7","352","1","0","0","",""
"null","305288","HierDykd4bp8jp","sub05","05","8","iti","null","img/motor_7.png","75","motor","","","","","","",""
"352","305650","HierDykd4bp8jp","sub05","05","8","motor","75","img/motor_7.png","75","motor","7","353","1","0","0","",""
"null","305760","HierDykd4bp8jp","sub05","05","8","iti","null","img/motor_7.png","75","motor","","","","","","",""
"1129","306900","HierDykd4bp8jp","sub05","05","8","motor","70","img/motor_3.png","68","motor","3","354","0","1","0","",""
"361","307273","HierDykd4bp8jp","sub05","05","8","motorRepeat","68","img/motor_3.png","68","motor","3","354","1","0","0","",""
"null","307384","HierDykd4bp8jp","sub05","05","8","iti","null","img/motor_3.png","68","motor","","","","","","",""
"424","307820","HierDykd4bp8jp","sub05","05","8","motor","70","img/motor_4.png","70","motor","4","355","1","0","0","",""
"null","307933","HierDykd4bp8jp","sub05","05","8","iti","null","img/motor_4.png","70","motor","","","","","","",""
"468","308410","HierDykd4bp8jp","sub05","05","8","motor","72","img/motor_5.png","72","motor","5","356","1","0","0","",""
"null","308521","HierDykd4bp8jp","sub05","05","8","iti","null","img/motor_5.png","72","motor","","","","","","",""
"476","309008","HierDykd4bp8jp","sub05","05","8","motor","65","img/motor_1.png","65","motor","1","357","1","0","0","",""
"null","309118","HierDykd4bp8jp","sub05","05","8","iti","null","img/motor_1.png","65","motor","","","","","","",""
"483","309612","HierDykd4bp8jp","sub05","05","8","motor","74","img/motor_6.png","74","motor","6","358","1","0","0","",""
"null","309723","HierDykd4bp8jp","sub05","05","8","iti","null","img/motor_6.png","74","motor","","","","","","",""
"813","310545","HierDykd4bp8jp","sub05","05","8","motor","68","img/motor_3.png","68","motor","3","359","1","0","0","",""
"null","310656","HierDykd4bp8jp","sub05","05","8","iti","null","img/motor_3.png","68","motor","","","","","","",""
"443","311109","HierDykd4bp8jp","sub05","05","8","motor","65","img/motor_1.png","65","motor","1","360","1","0","0","",""
"null","311221","HierDykd4bp8jp","sub05","05","8","iti","null","img/motor_1.png","65","motor","","","","","","",""
"599","311832","HierDykd4bp8jp","sub05","05","8","motor","83","img/motor_2.png","83","motor","2","361","1","0","0","",""
"null","311943","HierDykd4bp8jp","sub05","05","8","iti","null","img/motor_2.png","83","motor","","","","","","",""
"718","312671","HierDykd4bp8jp","sub05","05","8","motor","65","img/motor_1.png","65","motor","1","362","1","0","0","",""
"null","312783","HierDykd4bp8jp","sub05","05","8","iti","null","img/motor_1.png","65","motor","","","","","","",""
"561","313355","HierDykd4bp8jp","sub05","05","8","motor","70","img/motor_4.png","70","motor","4","363","1","0","0","",""
"null","313466","HierDykd4bp8jp","sub05","05","8","iti","null","img/motor_4.png","70","motor","","","","","","",""
"558","314034","HierDykd4bp8jp","sub05","05","8","motor","75","img/motor_7.png","75","motor","7","364","1","0","0","",""
"null","314147","HierDykd4bp8jp","sub05","05","8","iti","null","img/motor_7.png","75","motor","","","","","","",""
"464","314620","HierDykd4bp8jp","sub05","05","8","motor","65","img/motor_1.png","65","motor","1","365","1","0","0","",""
"null","314733","HierDykd4bp8jp","sub05","05","8","iti","null","img/motor_1.png","65","motor","","","","","","",""
"586","315332","HierDykd4bp8jp","sub05","05","8","motor","68","img/motor_3.png","68","motor","3","366","1","0","0","",""
"null","315444","HierDykd4bp8jp","sub05","05","8","iti","null","img/motor_3.png","68","motor","","","","","","",""
"409","315862","HierDykd4bp8jp","sub05","05","8","motor","68","img/motor_3.png","68","motor","3","367","1","0","0","",""
"null","315974","HierDykd4bp8jp","sub05","05","8","iti","null","img/motor_3.png","68","motor","","","","","","",""
"634","316618","HierDykd4bp8jp","sub05","05","8","motor","74","img/motor_6.png","74","motor","6","368","1","0","0","",""
"null","316730","HierDykd4bp8jp","sub05","05","8","iti","null","img/motor_6.png","74","motor","","","","","","",""
"285","317026","HierDykd4bp8jp","sub05","05","8","motor","74","img/motor_6.png","74","motor","6","369","1","0","0","",""
"null","317138","HierDykd4bp8jp","sub05","05","8","iti","null","img/motor_6.png","74","motor","","","","","","",""
"405","317553","HierDykd4bp8jp","sub05","05","8","motor","72","img/motor_5.png","72","motor","5","370","1","0","0","",""
"null","317665","HierDykd4bp8jp","sub05","05","8","iti","null","img/motor_5.png","72","motor","","","","","","",""
"746","318421","HierDykd4bp8jp","sub05","05","8","motor","75","img/motor_7.png","75","motor","7","371","1","0","0","",""
"null","318531","HierDykd4bp8jp","sub05","05","8","iti","null","img/motor_7.png","75","motor","","","","","","",""
"595","319137","HierDykd4bp8jp","sub05","05","8","motor","65","img/motor_1.png","65","motor","1","372","1","0","0","",""
"null","319249","HierDykd4bp8jp","sub05","05","8","iti","null","img/motor_1.png","65","motor","","","","","","",""
"473","319732","HierDykd4bp8jp","sub05","05","8","motor","65","img/motor_1.png","65","motor","1","373","1","0","0","",""
"null","319845","HierDykd4bp8jp","sub05","05","8","iti","null","img/motor_1.png","65","motor","","","","","","",""
"477","320335","HierDykd4bp8jp","sub05","05","8","motor","76","img/motor_8.png","76","motor","8","374","1","0","0","",""
"null","320447","HierDykd4bp8jp","sub05","05","8","iti","null","img/motor_8.png","76","motor","","","","","","",""
"377","320837","HierDykd4bp8jp","sub05","05","8","motor","75","img/motor_7.png","75","motor","7","375","1","0","0","",""
"null","320947","HierDykd4bp8jp","sub05","05","8","iti","null","img/motor_7.png","75","motor","","","","","","",""
"422","321380","HierDykd4bp8jp","sub05","05","8","motor","72","img/motor_5.png","72","motor","5","376","1","0","0","",""
"null","321494","HierDykd4bp8jp","sub05","05","8","iti","null","img/motor_5.png","72","motor","","","","","","",""
"572","322078","HierDykd4bp8jp","sub05","05","8","motor","83","img/motor_2.png","83","motor","2","377","1","0","0","",""
"null","322190","HierDykd4bp8jp","sub05","05","8","iti","null","img/motor_2.png","83","motor","","","","","","",""
"562","322765","HierDykd4bp8jp","sub05","05","8","motor","72","img/motor_5.png","72","motor","5","378","1","0","0","",""
"null","322876","HierDykd4bp8jp","sub05","05","8","iti","null","img/motor_5.png","72","motor","","","","","","",""
"434","323322","HierDykd4bp8jp","sub05","05","8","motor","83","img/motor_2.png","83","motor","2","379","1","0","0","",""
"null","323433","HierDykd4bp8jp","sub05","05","8","iti","null","img/motor_2.png","83","motor","","","","","","",""
"490","323935","HierDykd4bp8jp","sub05","05","8","motor","65","img/motor_1.png","65","motor","1","380","1","0","0","",""
"null","324046","HierDykd4bp8jp","sub05","05","8","iti","null","img/motor_1.png","65","motor","","","","","","",""
"699","324756","HierDykd4bp8jp","sub05","05","8","motor","74","img/motor_6.png","74","motor","6","381","1","0","0","",""
"null","324868","HierDykd4bp8jp","sub05","05","8","iti","null","img/motor_6.png","74","motor","","","","","","",""
"559","325439","HierDykd4bp8jp","sub05","05","8","motor","68","img/motor_3.png","68","motor","3","382","1","0","0","",""
"null","325552","HierDykd4bp8jp","sub05","05","8","iti","null","img/motor_3.png","68","motor","","","","","","",""
"582","326145","HierDykd4bp8jp","sub05","05","8","motor","74","img/motor_6.png","74","motor","6","383","1","0","0","",""
"null","326259","HierDykd4bp8jp","sub05","05","8","iti","null","img/motor_6.png","74","motor","","","","","","",""
"508","326777","HierDykd4bp8jp","sub05","05","8","motor","76","img/motor_8.png","76","motor","8","384","1","0","0","",""
"null","326890","HierDykd4bp8jp","sub05","05","8","iti","null","img/motor_8.png","76","motor","","","","","","",""
"614","327515","HierDykd4bp8jp","sub05","05","8","motor","76","img/motor_8.png","76","motor","8","385","1","0","0","",""
"null","327625","HierDykd4bp8jp","sub05","05","8","iti","null","img/motor_8.png","76","motor","","","","","","",""
"505","328142","HierDykd4bp8jp","sub05","05","8","motor","74","img/motor_6.png","74","motor","6","386","1","0","0","",""
"null","328254","HierDykd4bp8jp","sub05","05","8","iti","null","img/motor_6.png","74","motor","","","","","","",""
"500","328765","HierDykd4bp8jp","sub05","05","8","motor","70","img/motor_4.png","70","motor","4","387","1","0","0","",""
"null","328875","HierDykd4bp8jp","sub05","05","8","iti","null","img/motor_4.png","70","motor","","","","","","",""
"449","329335","HierDykd4bp8jp","sub05","05","8","motor","65","img/motor_1.png","65","motor","1","388","1","0","0","",""
"null","329447","HierDykd4bp8jp","sub05","05","8","iti","null","img/motor_1.png","65","motor","","","","","","",""
"894","330350","HierDykd4bp8jp","sub05","05","8","motor","65","img/motor_1.png","65","motor","1","389","1","0","0","",""
"null","330462","HierDykd4bp8jp","sub05","05","8","iti","null","img/motor_1.png","65","motor","","","","","","",""
"836","331307","HierDykd4bp8jp","sub05","05","8","motor","75","img/motor_7.png","75","motor","7","390","1","0","0","",""
"null","331419","HierDykd4bp8jp","sub05","05","8","iti","null","img/motor_7.png","75","motor","","","","","","",""
"991","332422","HierDykd4bp8jp","sub05","05","8","motor","72","img/motor_5.png","72","motor","5","391","1","0","0","",""
"null","332533","HierDykd4bp8jp","sub05","05","8","iti","null","img/motor_5.png","72","motor","","","","","","",""
"439","332983","HierDykd4bp8jp","sub05","05","8","motor","74","img/motor_6.png","74","motor","6","392","1","0","0","",""
"null","333095","HierDykd4bp8jp","sub05","05","8","iti","null","img/motor_6.png","74","motor","","","","","","",""
"544","333651","HierDykd4bp8jp","sub05","05","8","motor","65","img/motor_1.png","65","motor","1","393","1","0","0","",""
"null","333762","HierDykd4bp8jp","sub05","05","8","iti","null","img/motor_1.png","65","motor","","","","","","",""
"749","334523","HierDykd4bp8jp","sub05","05","8","motor","74","img/motor_6.png","74","motor","6","394","1","0","0","",""
"null","334634","HierDykd4bp8jp","sub05","05","8","iti","null","img/motor_6.png","74","motor","","","","","","",""
"552","335194","HierDykd4bp8jp","sub05","05","8","motor","68","img/motor_3.png","68","motor","3","395","1","0","0","",""
"null","335303","HierDykd4bp8jp","sub05","05","8","iti","null","img/motor_3.png","68","motor","","","","","","",""
"360","335674","HierDykd4bp8jp","sub05","05","8","motor","68","img/motor_3.png","68","motor","3","396","1","0","0","",""
"null","335786","HierDykd4bp8jp","sub05","05","8","iti","null","img/motor_3.png","68","motor","","","","","","",""
"667","336466","HierDykd4bp8jp","sub05","05","8","motor","76","img/motor_8.png","76","motor","8","397","1","0","0","",""
"null","336579","HierDykd4bp8jp","sub05","05","8","iti","null","img/motor_8.png","76","motor","","","","","","",""
"724","337313","HierDykd4bp8jp","sub05","05","8","motor","70","img/motor_4.png","70","motor","4","398","1","0","0","",""
"null","337425","HierDykd4bp8jp","sub05","05","8","iti","null","img/motor_4.png","70","motor","","","","","","",""
"666","338101","HierDykd4bp8jp","sub05","05","8","motor","68","img/motor_3.png","68","motor","3","399","1","0","0","",""
"null","338214","HierDykd4bp8jp","sub05","05","8","iti","null","img/motor_3.png","68","motor","","","","","","",""
"504","338728","HierDykd4bp8jp","sub05","05","8","motor","70","img/motor_4.png","70","motor","4","400","1","0","0","",""
"null","338838","HierDykd4bp8jp","sub05","05","8","iti","null","img/motor_4.png","70","motor","","","","","","",""
"530","339379","HierDykd4bp8jp","sub05","05","8","motor","74","img/motor_6.png","74","motor","6","401","1","0","0","",""
"null","339491","HierDykd4bp8jp","sub05","05","8","iti","null","img/motor_6.png","74","motor","","","","","","",""
"437","339938","HierDykd4bp8jp","sub05","05","8","motor","74","img/motor_6.png","74","motor","6","402","1","0","0","",""
"null","340049","HierDykd4bp8jp","sub05","05","8","iti","null","img/motor_6.png","74","motor","","","","","","",""
"555","340612","HierDykd4bp8jp","sub05","05","8","motor","76","img/motor_8.png","76","motor","8","403","1","0","0","",""
"null","340723","HierDykd4bp8jp","sub05","05","8","iti","null","img/motor_8.png","76","motor","","","","","","",""
"358","341092","HierDykd4bp8jp","sub05","05","8","motor","72","img/motor_5.png","72","motor","5","404","1","0","0","",""
"null","341203","HierDykd4bp8jp","sub05","05","8","iti","null","img/motor_5.png","72","motor","","","","","","",""
"533","341749","HierDykd4bp8jp","sub05","05","8","motor","83","img/motor_2.png","83","motor","2","405","1","0","0","",""
"null","341860","HierDykd4bp8jp","sub05","05","8","iti","null","img/motor_2.png","83","motor","","","","","","",""
"455","342326","HierDykd4bp8jp","sub05","05","8","motor","68","img/motor_3.png","68","motor","3","406","1","0","0","",""
"null","342437","HierDykd4bp8jp","sub05","05","8","iti","null","img/motor_3.png","68","motor","","","","","","",""
"370","342818","HierDykd4bp8jp","sub05","05","8","motor","70","img/motor_4.png","70","motor","4","407","1","0","0","",""
"null","342931","HierDykd4bp8jp","sub05","05","8","iti","null","img/motor_4.png","70","motor","","","","","","",""
"588","343529","HierDykd4bp8jp","sub05","05","8","motor","75","img/motor_7.png","75","motor","7","408","1","0","0","",""
"null","343642","HierDykd4bp8jp","sub05","05","8","iti","null","img/motor_7.png","75","motor","","","","","","",""
"444","344096","HierDykd4bp8jp","sub05","05","8","motor","65","img/motor_1.png","65","motor","1","409","1","0","0","",""
"null","344210","HierDykd4bp8jp","sub05","05","8","iti","null","img/motor_1.png","65","motor","","","","","","",""
"468","344687","HierDykd4bp8jp","sub05","05","8","motor","72","img/motor_5.png","72","motor","5","410","1","0","0","",""
"null","344799","HierDykd4bp8jp","sub05","05","8","iti","null","img/motor_5.png","72","motor","","","","","","",""
"460","345270","HierDykd4bp8jp","sub05","05","8","motor","70","img/motor_4.png","70","motor","4","411","1","0","0","",""
"null","345382","HierDykd4bp8jp","sub05","05","8","iti","null","img/motor_4.png","70","motor","","","","","","",""
