"rt","time_elapsed","subject","subID","group","day","trialType","key_press","stim","corrresp","phase","stimNum","trialNum","corr","repeatTrial","motorSwitch","hierarchy","responses"
"3138","3156","HierDywwo7grap","02","02","8","","","","","","","","","","","",""
"","4865","HierDywwo7grap","02","02","8","fullscreen","","","","","","","","","","",""
"81650","87414","HierDywwo7grap","02","02","8","","","","","","","","","","","",""
"767","88195","HierDywwo7grap","02","02","8","motor","83","img/motor_2.png","83","motor","2","1","1","0","0","",""
"null","88310","HierDywwo7grap","02","02","8","iti","null","img/motor_2.png","83","motor","","","","","","",""
"652","88973","HierDywwo7grap","02","02","8","motor","74","img/motor_6.png","74","motor","6","2","1","0","0","",""
"null","89084","HierDywwo7grap","02","02","8","iti","null","img/motor_6.png","74","motor","","","","","","",""
"536","89630","HierDywwo7grap","02","02","8","motor","70","img/motor_4.png","70","motor","4","3","1","0","0","",""
"null","89739","HierDywwo7grap","02","02","8","iti","null","img/motor_4.png","70","motor","","","","","","",""
"377","90126","HierDywwo7grap","02","02","8","motor","70","img/motor_4.png","70","motor","4","4","1","0","0","",""
"null","90237","HierDywwo7grap","02","02","8","iti","null","img/motor_4.png","70","motor","","","","","","",""
"502","90747","HierDywwo7grap","02","02","8","motor","72","img/motor_5.png","72","motor","5","5","1","0","0","",""
"null","90857","HierDywwo7grap","02","02","8","iti","null","img/motor_5.png","72","motor","","","","","","",""
"441","91308","HierDywwo7grap","02","02","8","motor","83","img/motor_2.png","83","motor","2","6","1","0","0","",""
"null","91416","HierDywwo7grap","02","02","8","iti","null","img/motor_2.png","83","motor","","","","","","",""
"412","91839","HierDywwo7grap","02","02","8","motor","65","img/motor_1.png","65","motor","1","7","1","0","0","",""
"null","91949","HierDywwo7grap","02","02","8","iti","null","img/motor_1.png","65","motor","","","","","","",""
"689","92648","HierDywwo7grap","02","02","8","motor","68","img/motor_3.png","68","motor","3","8","1","0","0","",""
"null","92756","HierDywwo7grap","02","02","8","iti","null","img/motor_3.png","68","motor","","","","","","",""
"424","93189","HierDywwo7grap","02","02","8","motor","70","img/motor_4.png","70","motor","4","9","1","0","0","",""
"null","93301","HierDywwo7grap","02","02","8","iti","null","img/motor_4.png","70","motor","","","","","","",""
"427","93736","HierDywwo7grap","02","02","8","motor","65","img/motor_1.png","65","motor","1","10","1","0","0","",""
"null","93846","HierDywwo7grap","02","02","8","iti","null","img/motor_1.png","65","motor","","","","","","",""
"977","94834","HierDywwo7grap","02","02","8","motor","68","img/motor_3.png","68","motor","3","11","1","0","0","",""
"null","94945","HierDywwo7grap","02","02","8","iti","null","img/motor_3.png","68","motor","","","","","","",""
"512","95467","HierDywwo7grap","02","02","8","motor","74","img/motor_6.png","74","motor","6","12","1","0","0","",""
"null","95578","HierDywwo7grap","02","02","8","iti","null","img/motor_6.png","74","motor","","","","","","",""
"545","96132","HierDywwo7grap","02","02","8","motor","68","img/motor_3.png","68","motor","3","13","1","0","0","",""
"null","96243","HierDywwo7grap","02","02","8","iti","null","img/motor_3.png","68","motor","","","","","","",""
"463","96711","HierDywwo7grap","02","02","8","motor","76","img/motor_8.png","76","motor","8","14","1","0","0","",""
"null","96819","HierDywwo7grap","02","02","8","iti","null","img/motor_8.png","76","motor","","","","","","",""
"696","97524","HierDywwo7grap","02","02","8","motor","83","img/motor_2.png","83","motor","2","15","1","0","0","",""
"null","97633","HierDywwo7grap","02","02","8","iti","null","img/motor_2.png","83","motor","","","","","","",""
"719","98363","HierDywwo7grap","02","02","8","motor","76","img/motor_8.png","76","motor","8","16","1","0","0","",""
"null","98475","HierDywwo7grap","02","02","8","iti","null","img/motor_8.png","76","motor","","","","","","",""
"471","98956","HierDywwo7grap","02","02","8","motor","72","img/motor_5.png","72","motor","5","17","1","0","0","",""
"null","99064","HierDywwo7grap","02","02","8","iti","null","img/motor_5.png","72","motor","","","","","","",""
"480","99553","HierDywwo7grap","02","02","8","motor","76","img/motor_8.png","76","motor","8","18","1","0","0","",""
"null","99665","HierDywwo7grap","02","02","8","iti","null","img/motor_8.png","76","motor","","","","","","",""
"519","100193","HierDywwo7grap","02","02","8","motor","83","img/motor_2.png","83","motor","2","19","1","0","0","",""
"null","100304","HierDywwo7grap","02","02","8","iti","null","img/motor_2.png","83","motor","","","","","","",""
"610","100922","HierDywwo7grap","02","02","8","motor","72","img/motor_5.png","72","motor","5","20","1","0","0","",""
"null","101032","HierDywwo7grap","02","02","8","iti","null","img/motor_5.png","72","motor","","","","","","",""
"411","101453","HierDywwo7grap","02","02","8","motor","76","img/motor_8.png","76","motor","8","21","1","0","0","",""
"null","101563","HierDywwo7grap","02","02","8","iti","null","img/motor_8.png","76","motor","","","","","","",""
"494","102065","HierDywwo7grap","02","02","8","motor","72","img/motor_5.png","72","motor","5","22","1","0","0","",""
"null","102175","HierDywwo7grap","02","02","8","iti","null","img/motor_5.png","72","motor","","","","","","",""
"512","102697","HierDywwo7grap","02","02","8","motor","83","img/motor_2.png","83","motor","2","23","1","0","0","",""
"null","102809","HierDywwo7grap","02","02","8","iti","null","img/motor_2.png","83","motor","","","","","","",""
"453","103270","HierDywwo7grap","02","02","8","motor","76","img/motor_8.png","76","motor","8","24","1","0","0","",""
"null","103381","HierDywwo7grap","02","02","8","iti","null","img/motor_8.png","76","motor","","","","","","",""
"521","103913","HierDywwo7grap","02","02","8","motor","70","img/motor_4.png","70","motor","4","25","1","0","0","",""
"null","104023","HierDywwo7grap","02","02","8","iti","null","img/motor_4.png","70","motor","","","","","","",""
"572","104605","HierDywwo7grap","02","02","8","motor","75","img/motor_7.png","75","motor","7","26","1","0","0","",""
"null","104715","HierDywwo7grap","02","02","8","iti","null","img/motor_7.png","75","motor","","","","","","",""
"479","105203","HierDywwo7grap","02","02","8","motor","83","img/motor_2.png","83","motor","2","27","1","0","0","",""
"null","105312","HierDywwo7grap","02","02","8","iti","null","img/motor_2.png","83","motor","","","","","","",""
"619","105941","HierDywwo7grap","02","02","8","motor","74","img/motor_6.png","74","motor","6","28","1","0","0","",""
"null","106051","HierDywwo7grap","02","02","8","iti","null","img/motor_6.png","74","motor","","","","","","",""
"503","106564","HierDywwo7grap","02","02","8","motor","83","img/motor_2.png","83","motor","2","29","1","0","0","",""
"null","106675","HierDywwo7grap","02","02","8","iti","null","img/motor_2.png","83","motor","","","","","","",""
"411","107095","HierDywwo7grap","02","02","8","motor","76","img/motor_8.png","76","motor","8","30","1","0","0","",""
"null","107206","HierDywwo7grap","02","02","8","iti","null","img/motor_8.png","76","motor","","","","","","",""
"385","107599","HierDywwo7grap","02","02","8","motor","76","img/motor_8.png","76","motor","8","31","1","0","0","",""
"null","107710","HierDywwo7grap","02","02","8","iti","null","img/motor_8.png","76","motor","","","","","","",""
"381","108100","HierDywwo7grap","02","02","8","motor","65","img/motor_1.png","65","motor","1","32","1","0","0","",""
"null","108210","HierDywwo7grap","02","02","8","iti","null","img/motor_1.png","65","motor","","","","","","",""
"540","108759","HierDywwo7grap","02","02","8","motor","72","img/motor_5.png","72","motor","5","33","1","0","0","",""
"null","108870","HierDywwo7grap","02","02","8","iti","null","img/motor_5.png","72","motor","","","","","","",""
"758","109638","HierDywwo7grap","02","02","8","motor","70","img/motor_4.png","70","motor","4","34","1","0","0","",""
"null","109748","HierDywwo7grap","02","02","8","iti","null","img/motor_4.png","70","motor","","","","","","",""
"502","110260","HierDywwo7grap","02","02","8","motor","74","img/motor_6.png","74","motor","6","35","1","0","0","",""
"null","110370","HierDywwo7grap","02","02","8","iti","null","img/motor_6.png","74","motor","","","","","","",""
"633","111012","HierDywwo7grap","02","02","8","motor","68","img/motor_3.png","68","motor","3","36","1","0","0","",""
"null","111124","HierDywwo7grap","02","02","8","iti","null","img/motor_3.png","68","motor","","","","","","",""
"408","111541","HierDywwo7grap","02","02","8","motor","65","img/motor_1.png","65","motor","1","37","1","0","0","",""
"null","111651","HierDywwo7grap","02","02","8","iti","null","img/motor_1.png","65","motor","","","","","","",""
"488","112147","HierDywwo7grap","02","02","8","motor","72","img/motor_5.png","72","motor","5","38","1","0","0","",""
"null","112255","HierDywwo7grap","02","02","8","iti","null","img/motor_5.png","72","motor","","","","","","",""
"532","112797","HierDywwo7grap","02","02","8","motor","68","img/motor_4.png","70","motor","4","39","0","1","0","",""
"457","113262","HierDywwo7grap","02","02","8","motorRepeat","70","img/motor_4.png","70","motor","4","39","1","0","0","",""
"null","113373","HierDywwo7grap","02","02","8","iti","null","img/motor_4.png","70","motor","","","","","","",""
"819","114202","HierDywwo7grap","02","02","8","motor","75","img/motor_7.png","75","motor","7","40","1","0","0","",""
"null","114311","HierDywwo7grap","02","02","8","iti","null","img/motor_7.png","75","motor","","","","","","",""
"458","114779","HierDywwo7grap","02","02","8","motor","72","img/motor_5.png","72","motor","5","41","1","0","0","",""
"null","114890","HierDywwo7grap","02","02","8","iti","null","img/motor_5.png","72","motor","","","","","","",""
"472","115373","HierDywwo7grap","02","02","8","motor","83","img/motor_1.png","65","motor","1","42","0","1","0","",""
"358","115738","HierDywwo7grap","02","02","8","motorRepeat","65","img/motor_1.png","65","motor","1","42","1","0","0","",""
"null","115849","HierDywwo7grap","02","02","8","iti","null","img/motor_1.png","65","motor","","","","","","",""
"749","116608","HierDywwo7grap","02","02","8","motor","68","img/motor_3.png","68","motor","3","43","1","0","0","",""
"null","116718","HierDywwo7grap","02","02","8","iti","null","img/motor_3.png","68","motor","","","","","","",""
"452","117179","HierDywwo7grap","02","02","8","motor","83","img/motor_2.png","83","motor","2","44","1","0","0","",""
"null","117291","HierDywwo7grap","02","02","8","iti","null","img/motor_2.png","83","motor","","","","","","",""
"456","117756","HierDywwo7grap","02","02","8","motor","68","img/motor_3.png","68","motor","3","45","1","0","0","",""
"null","117867","HierDywwo7grap","02","02","8","iti","null","img/motor_3.png","68","motor","","","","","","",""
"579","118455","HierDywwo7grap","02","02","8","motor","74","img/motor_6.png","74","motor","6","46","1","0","0","",""
"null","118566","HierDywwo7grap","02","02","8","iti","null","img/motor_6.png","74","motor","","","","","","",""
"413","118988","HierDywwo7grap","02","02","8","motor","72","img/motor_5.png","72","motor","5","47","1","0","0","",""
"null","119097","HierDywwo7grap","02","02","8","iti","null","img/motor_5.png","72","motor","","","","","","",""
"444","119549","HierDywwo7grap","02","02","8","motor","76","img/motor_8.png","76","motor","8","48","1","0","0","",""
"null","119661","HierDywwo7grap","02","02","8","iti","null","img/motor_8.png","76","motor","","","","","","",""
"413","120083","HierDywwo7grap","02","02","8","motor","72","img/motor_5.png","72","motor","5","49","1","0","0","",""
"null","120194","HierDywwo7grap","02","02","8","iti","null","img/motor_5.png","72","motor","","","","","","",""
"471","120674","HierDywwo7grap","02","02","8","motor","76","img/motor_8.png","76","motor","8","50","1","0","0","",""
"null","120786","HierDywwo7grap","02","02","8","iti","null","img/motor_8.png","76","motor","","","","","","",""
"352","121147","HierDywwo7grap","02","02","8","motor","65","img/motor_1.png","65","motor","1","51","1","0","0","",""
"null","121257","HierDywwo7grap","02","02","8","iti","null","img/motor_1.png","65","motor","","","","","","",""
"444","121709","HierDywwo7grap","02","02","8","motor","76","img/motor_8.png","76","motor","8","52","1","0","0","",""
"null","121820","HierDywwo7grap","02","02","8","iti","null","img/motor_8.png","76","motor","","","","","","",""
"580","122408","HierDywwo7grap","02","02","8","motor","74","img/motor_6.png","74","motor","6","53","1","0","0","",""
"null","122518","HierDywwo7grap","02","02","8","iti","null","img/motor_6.png","74","motor","","","","","","",""
"532","123058","HierDywwo7grap","02","02","8","motor","70","img/motor_4.png","70","motor","4","54","1","0","0","",""
"null","123168","HierDywwo7grap","02","02","8","iti","null","img/motor_4.png","70","motor","","","","","","",""
"471","123650","HierDywwo7grap","02","02","8","motor","72","img/motor_5.png","72","motor","5","55","1","0","0","",""
"null","123761","HierDywwo7grap","02","02","8","iti","null","img/motor_5.png","72","motor","","","","","","",""
"495","124266","HierDywwo7grap","02","02","8","motor","76","img/motor_8.png","76","motor","8","56","1","0","0","",""
"null","124376","HierDywwo7grap","02","02","8","iti","null","img/motor_8.png","76","motor","","","","","","",""
"549","124933","HierDywwo7grap","02","02","8","motor","72","img/motor_5.png","72","motor","5","57","1","0","0","",""
"null","125043","HierDywwo7grap","02","02","8","iti","null","img/motor_5.png","72","motor","","","","","","",""
"795","125850","HierDywwo7grap","02","02","8","motor","68","img/motor_3.png","68","motor","3","58","1","0","0","",""
"null","125963","HierDywwo7grap","02","02","8","iti","null","img/motor_3.png","68","motor","","","","","","",""
"400","126374","HierDywwo7grap","02","02","8","motor","70","img/motor_4.png","70","motor","4","59","1","0","0","",""
"null","126483","HierDywwo7grap","02","02","8","iti","null","img/motor_4.png","70","motor","","","","","","",""
"504","126995","HierDywwo7grap","02","02","8","motor","83","img/motor_2.png","83","motor","2","60","1","0","0","",""
"null","127106","HierDywwo7grap","02","02","8","iti","null","img/motor_2.png","83","motor","","","","","","",""
"699","127813","HierDywwo7grap","02","02","8","motor","76","img/motor_8.png","76","motor","8","61","1","0","0","",""
"null","127924","HierDywwo7grap","02","02","8","iti","null","img/motor_8.png","76","motor","","","","","","",""
"618","128552","HierDywwo7grap","02","02","8","motor","83","img/motor_2.png","83","motor","2","62","1","0","0","",""
"null","128663","HierDywwo7grap","02","02","8","iti","null","img/motor_2.png","83","motor","","","","","","",""
"564","129237","HierDywwo7grap","02","02","8","motor","74","img/motor_6.png","74","motor","6","63","1","0","0","",""
"null","129348","HierDywwo7grap","02","02","8","iti","null","img/motor_6.png","74","motor","","","","","","",""
"477","129837","HierDywwo7grap","02","02","8","motor","65","img/motor_1.png","65","motor","1","64","1","0","0","",""
"null","129947","HierDywwo7grap","02","02","8","iti","null","img/motor_1.png","65","motor","","","","","","",""
"480","130438","HierDywwo7grap","02","02","8","motor","72","img/motor_5.png","72","motor","5","65","1","0","0","",""
"null","130549","HierDywwo7grap","02","02","8","iti","null","img/motor_5.png","72","motor","","","","","","",""
"552","131111","HierDywwo7grap","02","02","8","motor","83","img/motor_2.png","83","motor","2","66","1","0","0","",""
"null","131223","HierDywwo7grap","02","02","8","iti","null","img/motor_2.png","83","motor","","","","","","",""
"581","131813","HierDywwo7grap","02","02","8","motor","68","img/motor_3.png","68","motor","3","67","1","0","0","",""
"null","131924","HierDywwo7grap","02","02","8","iti","null","img/motor_3.png","68","motor","","","","","","",""
"517","132452","HierDywwo7grap","02","02","8","motor","72","img/motor_5.png","72","motor","5","68","1","0","0","",""
"null","132562","HierDywwo7grap","02","02","8","iti","null","img/motor_5.png","72","motor","","","","","","",""
"611","133184","HierDywwo7grap","02","02","8","motor","75","img/motor_7.png","75","motor","7","69","1","0","0","",""
"null","133295","HierDywwo7grap","02","02","8","iti","null","img/motor_7.png","75","motor","","","","","","",""
"598","133903","HierDywwo7grap","02","02","8","motor","68","img/motor_3.png","68","motor","3","70","1","0","0","",""
"null","134013","HierDywwo7grap","02","02","8","iti","null","img/motor_3.png","68","motor","","","","","","",""
"489","134510","HierDywwo7grap","02","02","8","motor","76","img/motor_8.png","76","motor","8","71","1","0","0","",""
"null","134621","HierDywwo7grap","02","02","8","iti","null","img/motor_8.png","76","motor","","","","","","",""
"518","135147","HierDywwo7grap","02","02","8","motor","75","img/motor_7.png","75","motor","7","72","1","0","0","",""
"null","135258","HierDywwo7grap","02","02","8","iti","null","img/motor_7.png","75","motor","","","","","","",""
"637","135904","HierDywwo7grap","02","02","8","motor","68","img/motor_3.png","68","motor","3","73","1","0","0","",""
"null","136015","HierDywwo7grap","02","02","8","iti","null","img/motor_3.png","68","motor","","","","","","",""
"445","136468","HierDywwo7grap","02","02","8","motor","72","img/motor_5.png","72","motor","5","74","1","0","0","",""
"null","136580","HierDywwo7grap","02","02","8","iti","null","img/motor_5.png","72","motor","","","","","","",""
"718","137307","HierDywwo7grap","02","02","8","motor","68","img/motor_3.png","68","motor","3","75","1","0","0","",""
"null","137418","HierDywwo7grap","02","02","8","iti","null","img/motor_3.png","68","motor","","","","","","",""
"501","137929","HierDywwo7grap","02","02","8","motor","72","img/motor_5.png","72","motor","5","76","1","0","0","",""
"null","138040","HierDywwo7grap","02","02","8","iti","null","img/motor_5.png","72","motor","","","","","","",""
"715","138763","HierDywwo7grap","02","02","8","motor","68","img/motor_3.png","68","motor","3","77","1","0","0","",""
"null","138873","HierDywwo7grap","02","02","8","iti","null","img/motor_3.png","68","motor","","","","","","",""
"386","139270","HierDywwo7grap","02","02","8","motor","68","img/motor_3.png","68","motor","3","78","1","0","0","",""
"null","139382","HierDywwo7grap","02","02","8","iti","null","img/motor_3.png","68","motor","","","","","","",""
"567","139958","HierDywwo7grap","02","02","8","motor","70","img/motor_4.png","70","motor","4","79","1","0","0","",""
"null","140070","HierDywwo7grap","02","02","8","iti","null","img/motor_4.png","70","motor","","","","","","",""
"571","140652","HierDywwo7grap","02","02","8","motor","74","img/motor_6.png","74","motor","6","80","1","0","0","",""
"null","140763","HierDywwo7grap","02","02","8","iti","null","img/motor_6.png","74","motor","","","","","","",""
"541","141315","HierDywwo7grap","02","02","8","motor","70","img/motor_4.png","70","motor","4","81","1","0","0","",""
"null","141424","HierDywwo7grap","02","02","8","iti","null","img/motor_4.png","70","motor","","","","","","",""
"705","142139","HierDywwo7grap","02","02","8","motor","65","img/motor_1.png","65","motor","1","82","1","0","0","",""
"null","142249","HierDywwo7grap","02","02","8","iti","null","img/motor_1.png","65","motor","","","","","","",""
"813","143072","HierDywwo7grap","02","02","8","motor","75","img/motor_7.png","75","motor","7","83","1","0","0","",""
"null","143183","HierDywwo7grap","02","02","8","iti","null","img/motor_7.png","75","motor","","","","","","",""
"486","143680","HierDywwo7grap","02","02","8","motor","65","img/motor_1.png","65","motor","1","84","1","0","0","",""
"null","143791","HierDywwo7grap","02","02","8","iti","null","img/motor_1.png","65","motor","","","","","","",""
"334","144134","HierDywwo7grap","02","02","8","motor","65","img/motor_1.png","65","motor","1","85","1","0","0","",""
"null","144243","HierDywwo7grap","02","02","8","iti","null","img/motor_1.png","65","motor","","","","","","",""
"769","145021","HierDywwo7grap","02","02","8","motor","68","img/motor_3.png","68","motor","3","86","1","0","0","",""
"84","145132","HierDywwo7grap","02","02","8","iti","68","img/motor_3.png","68","motor","","","","","","",""
"775","145915","HierDywwo7grap","02","02","8","motor","75","img/motor_7.png","75","motor","7","87","1","0","0","",""
"null","146023","HierDywwo7grap","02","02","8","iti","null","img/motor_7.png","75","motor","","","","","","",""
"616","146647","HierDywwo7grap","02","02","8","motor","70","img/motor_4.png","70","motor","4","88","1","0","0","",""
"null","146756","HierDywwo7grap","02","02","8","iti","null","img/motor_4.png","70","motor","","","","","","",""
"429","147194","HierDywwo7grap","02","02","8","motor","72","img/motor_5.png","72","motor","5","89","1","0","0","",""
"null","147303","HierDywwo7grap","02","02","8","iti","null","img/motor_5.png","72","motor","","","","","","",""
"569","147884","HierDywwo7grap","02","02","8","motor","65","img/motor_1.png","65","motor","1","90","1","0","0","",""
"null","147992","HierDywwo7grap","02","02","8","iti","null","img/motor_1.png","65","motor","","","","","","",""
"667","148668","HierDywwo7grap","02","02","8","motor","76","img/motor_8.png","76","motor","8","91","1","0","0","",""
"null","148779","HierDywwo7grap","02","02","8","iti","null","img/motor_8.png","76","motor","","","","","","",""
"751","149539","HierDywwo7grap","02","02","8","motor","68","img/motor_3.png","68","motor","3","92","1","0","0","",""
"null","149651","HierDywwo7grap","02","02","8","iti","null","img/motor_3.png","68","motor","","","","","","",""
"521","150184","HierDywwo7grap","02","02","8","motor","75","img/motor_7.png","75","motor","7","93","1","0","0","",""
"null","150292","HierDywwo7grap","02","02","8","iti","null","img/motor_7.png","75","motor","","","","","","",""
"538","150840","HierDywwo7grap","02","02","8","motor","70","img/motor_4.png","70","motor","4","94","1","0","0","",""
"null","150949","HierDywwo7grap","02","02","8","iti","null","img/motor_4.png","70","motor","","","","","","",""
"504","151463","HierDywwo7grap","02","02","8","motor","83","img/motor_2.png","83","motor","2","95","1","0","0","",""
"null","151573","HierDywwo7grap","02","02","8","iti","null","img/motor_2.png","83","motor","","","","","","",""
"513","152096","HierDywwo7grap","02","02","8","motor","68","img/motor_3.png","68","motor","3","96","1","0","0","",""
"null","152206","HierDywwo7grap","02","02","8","iti","null","img/motor_3.png","68","motor","","","","","","",""
"538","152753","HierDywwo7grap","02","02","8","motor","75","img/motor_7.png","75","motor","7","97","1","0","0","",""
"null","152863","HierDywwo7grap","02","02","8","iti","null","img/motor_7.png","75","motor","","","","","","",""
"388","153260","HierDywwo7grap","02","02","8","motor","76","img/motor_8.png","76","motor","8","98","1","0","0","",""
"null","153371","HierDywwo7grap","02","02","8","iti","null","img/motor_8.png","76","motor","","","","","","",""
"337","153718","HierDywwo7grap","02","02","8","motor","76","img/motor_8.png","76","motor","8","99","1","0","0","",""
"null","153830","HierDywwo7grap","02","02","8","iti","null","img/motor_8.png","76","motor","","","","","","",""
"552","154392","HierDywwo7grap","02","02","8","motor","75","img/motor_7.png","75","motor","7","100","1","0","0","",""
"null","154500","HierDywwo7grap","02","02","8","iti","null","img/motor_7.png","75","motor","","","","","","",""
"507","155016","HierDywwo7grap","02","02","8","motor","70","img/motor_4.png","70","motor","4","101","1","0","0","",""
"null","155126","HierDywwo7grap","02","02","8","iti","null","img/motor_4.png","70","motor","","","","","","",""
"415","155551","HierDywwo7grap","02","02","8","motor","76","img/motor_8.png","76","motor","8","102","1","0","0","",""
"null","155663","HierDywwo7grap","02","02","8","iti","null","img/motor_8.png","76","motor","","","","","","",""
"532","156205","HierDywwo7grap","02","02","8","motor","72","img/motor_5.png","72","motor","5","103","1","0","0","",""
"null","156315","HierDywwo7grap","02","02","8","iti","null","img/motor_5.png","72","motor","","","","","","",""
"511","156836","HierDywwo7grap","02","02","8","motor","70","img/motor_4.png","70","motor","4","104","1","0","0","",""
"null","156947","HierDywwo7grap","02","02","8","iti","null","img/motor_4.png","70","motor","","","","","","",""
"348","157302","HierDywwo7grap","02","02","8","motor","70","img/motor_4.png","70","motor","4","105","1","0","0","",""
"null","157413","HierDywwo7grap","02","02","8","iti","null","img/motor_4.png","70","motor","","","","","","",""
"624","158046","HierDywwo7grap","02","02","8","motor","74","img/motor_6.png","74","motor","6","106","1","0","0","",""
"null","158156","HierDywwo7grap","02","02","8","iti","null","img/motor_6.png","74","motor","","","","","","",""
"473","158639","HierDywwo7grap","02","02","8","motor","65","img/motor_1.png","65","motor","1","107","1","0","0","",""
"null","158748","HierDywwo7grap","02","02","8","iti","null","img/motor_1.png","65","motor","","","","","","",""
"821","159576","HierDywwo7grap","02","02","8","motor","68","img/motor_3.png","68","motor","3","108","1","0","0","",""
"null","159688","HierDywwo7grap","02","02","8","iti","null","img/motor_3.png","68","motor","","","","","","",""
"409","160107","HierDywwo7grap","02","02","8","motor","65","img/motor_1.png","65","motor","1","109","1","0","0","",""
"null","160217","HierDywwo7grap","02","02","8","iti","null","img/motor_1.png","65","motor","","","","","","",""
"508","160735","HierDywwo7grap","02","02","8","motor","76","img/motor_8.png","76","motor","8","110","1","0","0","",""
"null","160846","HierDywwo7grap","02","02","8","iti","null","img/motor_8.png","76","motor","","","","","","",""
"489","161344","HierDywwo7grap","02","02","8","motor","75","img/motor_7.png","75","motor","7","111","1","0","0","",""
"null","161455","HierDywwo7grap","02","02","8","iti","null","img/motor_7.png","75","motor","","","","","","",""
"786","162251","HierDywwo7grap","02","02","8","motor","68","img/motor_3.png","68","motor","3","112","1","0","0","",""
"null","162360","HierDywwo7grap","02","02","8","iti","null","img/motor_3.png","68","motor","","","","","","",""
"441","162812","HierDywwo7grap","02","02","8","motor","70","img/motor_4.png","70","motor","4","113","1","0","0","",""
"null","162921","HierDywwo7grap","02","02","8","iti","null","img/motor_4.png","70","motor","","","","","","",""
"662","163592","HierDywwo7grap","02","02","8","motor","83","img/motor_2.png","83","motor","2","114","1","0","0","",""
"null","163702","HierDywwo7grap","02","02","8","iti","null","img/motor_2.png","83","motor","","","","","","",""
"538","164248","HierDywwo7grap","02","02","8","motor","75","img/motor_7.png","75","motor","7","115","1","0","0","",""
"null","164359","HierDywwo7grap","02","02","8","iti","null","img/motor_7.png","75","motor","","","","","","",""
"315","164682","HierDywwo7grap","02","02","8","motor","75","img/motor_7.png","75","motor","7","116","1","0","0","",""
"null","164794","HierDywwo7grap","02","02","8","iti","null","img/motor_7.png","75","motor","","","","","","",""
"616","165420","HierDywwo7grap","02","02","8","motor","83","img/motor_2.png","83","motor","2","117","1","0","0","",""
"null","165531","HierDywwo7grap","02","02","8","iti","null","img/motor_2.png","83","motor","","","","","","",""
"531","166070","HierDywwo7grap","02","02","8","motor","72","img/motor_5.png","72","motor","5","118","1","0","0","",""
"null","166181","HierDywwo7grap","02","02","8","iti","null","img/motor_5.png","72","motor","","","","","","",""
"508","166699","HierDywwo7grap","02","02","8","motor","83","img/motor_2.png","83","motor","2","119","1","0","0","",""
"null","166809","HierDywwo7grap","02","02","8","iti","null","img/motor_2.png","83","motor","","","","","","",""
"492","167313","HierDywwo7grap","02","02","8","motor","70","img/motor_4.png","70","motor","4","120","1","0","0","",""
"null","167424","HierDywwo7grap","02","02","8","iti","null","img/motor_4.png","70","motor","","","","","","",""
"714","168147","HierDywwo7grap","02","02","8","motor","74","img/motor_6.png","74","motor","6","121","1","0","0","",""
"null","168258","HierDywwo7grap","02","02","8","iti","null","img/motor_6.png","74","motor","","","","","","",""
"550","168819","HierDywwo7grap","02","02","8","motor","83","img/motor_2.png","83","motor","2","122","1","0","0","",""
"null","168929","HierDywwo7grap","02","02","8","iti","null","img/motor_2.png","83","motor","","","","","","",""
"708","169647","HierDywwo7grap","02","02","8","motor","75","img/motor_7.png","75","motor","7","123","1","0","0","",""
"null","169759","HierDywwo7grap","02","02","8","iti","null","img/motor_7.png","75","motor","","","","","","",""
"532","170301","HierDywwo7grap","02","02","8","motor","70","img/motor_4.png","70","motor","4","124","1","0","0","",""
"null","170411","HierDywwo7grap","02","02","8","iti","null","img/motor_4.png","70","motor","","","","","","",""
"594","171015","HierDywwo7grap","02","02","8","motor","83","img/motor_2.png","83","motor","2","125","1","0","0","",""
"null","171122","HierDywwo7grap","02","02","8","iti","null","img/motor_2.png","83","motor","","","","","","",""
"669","171801","HierDywwo7grap","02","02","8","motor","72","img/motor_5.png","72","motor","5","126","1","0","0","",""
"null","171910","HierDywwo7grap","02","02","8","iti","null","img/motor_5.png","72","motor","","","","","","",""
"579","172498","HierDywwo7grap","02","02","8","motor","75","img/motor_7.png","75","motor","7","127","1","0","0","",""
"null","172610","HierDywwo7grap","02","02","8","iti","null","img/motor_7.png","75","motor","","","","","","",""
"372","172990","HierDywwo7grap","02","02","8","motor","76","img/motor_8.png","76","motor","8","128","1","0","0","",""
"null","173101","HierDywwo7grap","02","02","8","iti","null","img/motor_8.png","76","motor","","","","","","",""
"619","173730","HierDywwo7grap","02","02","8","motor","74","img/motor_6.png","74","motor","6","129","1","0","0","",""
"null","173841","HierDywwo7grap","02","02","8","iti","null","img/motor_6.png","74","motor","","","","","","",""
"382","174233","HierDywwo7grap","02","02","8","motor","74","img/motor_6.png","74","motor","6","130","1","0","0","",""
"null","174345","HierDywwo7grap","02","02","8","iti","null","img/motor_6.png","74","motor","","","","","","",""
"505","174858","HierDywwo7grap","02","02","8","motor","75","img/motor_7.png","75","motor","7","131","1","0","0","",""
"null","174968","HierDywwo7grap","02","02","8","iti","null","img/motor_7.png","75","motor","","","","","","",""
"604","175582","HierDywwo7grap","02","02","8","motor","83","img/motor_2.png","83","motor","2","132","1","0","0","",""
"null","175694","HierDywwo7grap","02","02","8","iti","null","img/motor_2.png","83","motor","","","","","","",""
"326","176028","HierDywwo7grap","02","02","8","motor","83","img/motor_2.png","83","motor","2","133","1","0","0","",""
"null","176138","HierDywwo7grap","02","02","8","iti","null","img/motor_2.png","83","motor","","","","","","",""
"545","176693","HierDywwo7grap","02","02","8","motor","70","img/motor_4.png","70","motor","4","134","1","0","0","",""
"null","176802","HierDywwo7grap","02","02","8","iti","null","img/motor_4.png","70","motor","","","","","","",""
"543","177354","HierDywwo7grap","02","02","8","motor","76","img/motor_8.png","76","motor","8","135","1","0","0","",""
"null","177465","HierDywwo7grap","02","02","8","iti","null","img/motor_8.png","76","motor","","","","","","",""
"646","178119","HierDywwo7grap","02","02","8","motor","83","img/motor_2.png","83","motor","2","136","1","0","0","",""
"null","178230","HierDywwo7grap","02","02","8","iti","null","img/motor_2.png","83","motor","","","","","","",""
"556","178797","HierDywwo7grap","02","02","8","motor","70","img/motor_4.png","70","motor","4","137","1","0","0","",""
"null","178908","HierDywwo7grap","02","02","8","iti","null","img/motor_4.png","70","motor","","","","","","",""
"728","179644","HierDywwo7grap","02","02","8","motor","75","img/motor_7.png","75","motor","7","138","1","0","0","",""
"null","179756","HierDywwo7grap","02","02","8","iti","null","img/motor_7.png","75","motor","","","","","","",""
"816","180580","HierDywwo7grap","02","02","8","motor","74","img/motor_6.png","74","motor","6","139","1","0","0","",""
"null","180693","HierDywwo7grap","02","02","8","iti","null","img/motor_6.png","74","motor","","","","","","",""
"550","181251","HierDywwo7grap","02","02","8","motor","83","img/motor_2.png","83","motor","2","140","1","0","0","",""
"null","181362","HierDywwo7grap","02","02","8","iti","null","img/motor_2.png","83","motor","","","","","","",""
"321","181694","HierDywwo7grap","02","02","8","motor","65","img/motor_1.png","65","motor","1","141","1","0","0","",""
"null","181804","HierDywwo7grap","02","02","8","iti","null","img/motor_1.png","65","motor","","","","","","",""
"539","182354","HierDywwo7grap","02","02","8","motor","83","img/motor_2.png","83","motor","2","142","1","0","0","",""
"null","182465","HierDywwo7grap","02","02","8","iti","null","img/motor_2.png","83","motor","","","","","","",""
"640","183116","HierDywwo7grap","02","02","8","motor","70","img/motor_4.png","70","motor","4","143","1","0","0","",""
"null","183226","HierDywwo7grap","02","02","8","iti","null","img/motor_4.png","70","motor","","","","","","",""
"541","183778","HierDywwo7grap","02","02","8","motor","65","img/motor_1.png","65","motor","1","144","1","0","0","",""
"null","183889","HierDywwo7grap","02","02","8","iti","null","img/motor_1.png","65","motor","","","","","","",""
"908","184808","HierDywwo7grap","02","02","8","motor","74","img/motor_6.png","74","motor","6","145","1","0","0","",""
"null","184919","HierDywwo7grap","02","02","8","iti","null","img/motor_6.png","74","motor","","","","","","",""
"280","185209","HierDywwo7grap","02","02","8","motor","74","img/motor_6.png","74","motor","6","146","1","0","0","",""
"null","185321","HierDywwo7grap","02","02","8","iti","null","img/motor_6.png","74","motor","","","","","","",""
"622","185954","HierDywwo7grap","02","02","8","motor","65","img/motor_1.png","65","motor","1","147","1","0","0","",""
"null","186063","HierDywwo7grap","02","02","8","iti","null","img/motor_1.png","65","motor","","","","","","",""
"613","186686","HierDywwo7grap","02","02","8","motor","70","img/motor_4.png","70","motor","4","148","1","0","0","",""
"null","186796","HierDywwo7grap","02","02","8","iti","null","img/motor_4.png","70","motor","","","","","","",""
"494","187301","HierDywwo7grap","02","02","8","motor","76","img/motor_8.png","76","motor","8","149","1","0","0","",""
"null","187410","HierDywwo7grap","02","02","8","iti","null","img/motor_8.png","76","motor","","","","","","",""
"636","188057","HierDywwo7grap","02","02","8","motor","70","img/motor_4.png","70","motor","4","150","1","0","0","",""
"null","188166","HierDywwo7grap","02","02","8","iti","null","img/motor_4.png","70","motor","","","","","","",""
"555","188730","HierDywwo7grap","02","02","8","motor","68","img/motor_3.png","68","motor","3","151","1","0","0","",""
"null","188841","HierDywwo7grap","02","02","8","iti","null","img/motor_3.png","68","motor","","","","","","",""
"457","189306","HierDywwo7grap","02","02","8","motor","65","img/motor_1.png","65","motor","1","152","1","0","0","",""
"null","189415","HierDywwo7grap","02","02","8","iti","null","img/motor_1.png","65","motor","","","","","","",""
"619","190048","HierDywwo7grap","02","02","8","motor","74","img/motor_6.png","74","motor","6","153","1","0","0","",""
"null","190161","HierDywwo7grap","02","02","8","iti","null","img/motor_6.png","74","motor","","","","","","",""
"772","190946","HierDywwo7grap","02","02","8","motor","68","img/motor_3.png","68","motor","3","154","1","0","0","",""
"null","191056","HierDywwo7grap","02","02","8","iti","null","img/motor_3.png","68","motor","","","","","","",""
"344","191412","HierDywwo7grap","02","02","8","motor","65","img/motor_1.png","65","motor","1","155","1","0","0","",""
"null","191524","HierDywwo7grap","02","02","8","iti","null","img/motor_1.png","65","motor","","","","","","",""
"724","192259","HierDywwo7grap","02","02","8","motor","74","img/motor_6.png","74","motor","6","156","1","0","0","",""
"null","192372","HierDywwo7grap","02","02","8","iti","null","img/motor_6.png","74","motor","","","","","","",""
"739","193120","HierDywwo7grap","02","02","8","motor","68","img/motor_3.png","68","motor","3","157","1","0","0","",""
"null","193232","HierDywwo7grap","02","02","8","iti","null","img/motor_3.png","68","motor","","","","","","",""
"474","193717","HierDywwo7grap","02","02","8","motor","76","img/motor_8.png","76","motor","8","158","1","0","0","",""
"null","193829","HierDywwo7grap","02","02","8","iti","null","img/motor_8.png","76","motor","","","","","","",""
"526","194368","HierDywwo7grap","02","02","8","motor","72","img/motor_5.png","72","motor","5","159","1","0","0","",""
"null","194481","HierDywwo7grap","02","02","8","iti","null","img/motor_5.png","72","motor","","","","","","",""
"669","195161","HierDywwo7grap","02","02","8","motor","68","img/motor_3.png","68","motor","3","160","1","0","0","",""
"null","195273","HierDywwo7grap","02","02","8","iti","null","img/motor_3.png","68","motor","","","","","","",""
"519","195802","HierDywwo7grap","02","02","8","motor","72","img/motor_5.png","72","motor","5","161","1","0","0","",""
"null","195915","HierDywwo7grap","02","02","8","iti","null","img/motor_5.png","72","motor","","","","","","",""
"331","196256","HierDywwo7grap","02","02","8","motor","72","img/motor_5.png","72","motor","5","162","1","0","0","",""
"null","196368","HierDywwo7grap","02","02","8","iti","null","img/motor_5.png","72","motor","","","","","","",""
"542","196920","HierDywwo7grap","02","02","8","motor","74","img/motor_6.png","74","motor","6","163","1","0","0","",""
"null","197033","HierDywwo7grap","02","02","8","iti","null","img/motor_6.png","74","motor","","","","","","",""
"514","197558","HierDywwo7grap","02","02","8","motor","65","img/motor_1.png","65","motor","1","164","1","0","0","",""
"null","197669","HierDywwo7grap","02","02","8","iti","null","img/motor_1.png","65","motor","","","","","","",""
"471","198151","HierDywwo7grap","02","02","8","motor","83","img/motor_2.png","83","motor","2","165","1","0","0","",""
"null","198260","HierDywwo7grap","02","02","8","iti","null","img/motor_2.png","83","motor","","","","","","",""
"645","198914","HierDywwo7grap","02","02","8","motor","72","img/motor_5.png","72","motor","5","166","1","0","0","",""
"null","199026","HierDywwo7grap","02","02","8","iti","null","img/motor_5.png","72","motor","","","","","","",""
"520","199557","HierDywwo7grap","02","02","8","motor","65","img/motor_1.png","65","motor","1","167","1","0","0","",""
"null","199669","HierDywwo7grap","02","02","8","iti","null","img/motor_1.png","65","motor","","","","","","",""
"376","200051","HierDywwo7grap","02","02","8","motor","65","img/motor_1.png","65","motor","1","168","1","0","0","",""
"null","200164","HierDywwo7grap","02","02","8","iti","null","img/motor_1.png","65","motor","","","","","","",""
"492","200666","HierDywwo7grap","02","02","8","motor","70","img/motor_4.png","70","motor","4","169","1","0","0","",""
"null","200776","HierDywwo7grap","02","02","8","iti","null","img/motor_4.png","70","motor","","","","","","",""
"537","201323","HierDywwo7grap","02","02","8","motor","75","img/motor_7.png","75","motor","7","170","1","0","0","",""
"null","201432","HierDywwo7grap","02","02","8","iti","null","img/motor_7.png","75","motor","","","","","","",""
"613","202054","HierDywwo7grap","02","02","8","motor","74","img/motor_6.png","74","motor","6","171","1","0","0","",""
"null","202165","HierDywwo7grap","02","02","8","iti","null","img/motor_6.png","74","motor","","","","","","",""
"415","202591","HierDywwo7grap","02","02","8","motor","72","img/motor_5.png","72","motor","5","172","1","0","0","",""
"null","202701","HierDywwo7grap","02","02","8","iti","null","img/motor_5.png","72","motor","","","","","","",""
"581","203292","HierDywwo7grap","02","02","8","motor","83","img/motor_2.png","83","motor","2","173","1","0","0","",""
"null","203403","HierDywwo7grap","02","02","8","iti","null","img/motor_2.png","83","motor","","","","","","",""
"552","203965","HierDywwo7grap","02","02","8","motor","74","img/motor_6.png","74","motor","6","174","1","0","0","",""
"null","204077","HierDywwo7grap","02","02","8","iti","null","img/motor_6.png","74","motor","","","","","","",""
"341","204428","HierDywwo7grap","02","02","8","motor","75","img/motor_7.png","75","motor","7","175","1","0","0","",""
"null","204540","HierDywwo7grap","02","02","8","iti","null","img/motor_7.png","75","motor","","","","","","",""
"395","204944","HierDywwo7grap","02","02","8","motor","76","img/motor_8.png","76","motor","8","176","1","0","0","",""
"null","205052","HierDywwo7grap","02","02","8","iti","null","img/motor_8.png","76","motor","","","","","","",""
"499","205562","HierDywwo7grap","02","02","8","motor","75","img/motor_7.png","75","motor","7","177","1","0","0","",""
"null","205673","HierDywwo7grap","02","02","8","iti","null","img/motor_7.png","75","motor","","","","","","",""
"687","206370","HierDywwo7grap","02","02","8","motor","70","img/motor_4.png","70","motor","4","178","1","0","0","",""
"null","206481","HierDywwo7grap","02","02","8","iti","null","img/motor_4.png","70","motor","","","","","","",""
"492","206983","HierDywwo7grap","02","02","8","motor","74","img/motor_5.png","72","motor","5","179","0","1","0","",""
"368","207361","HierDywwo7grap","02","02","8","motorRepeat","72","img/motor_5.png","72","motor","5","179","1","0","0","",""
"null","207473","HierDywwo7grap","02","02","8","iti","null","img/motor_5.png","72","motor","","","","","","",""
"812","208295","HierDywwo7grap","02","02","8","motor","65","img/motor_1.png","65","motor","1","180","1","0","0","",""
"null","208406","HierDywwo7grap","02","02","8","iti","null","img/motor_1.png","65","motor","","","","","","",""
"567","208983","HierDywwo7grap","02","02","8","motor","75","img/motor_7.png","75","motor","7","181","1","0","0","",""
"null","209094","HierDywwo7grap","02","02","8","iti","null","img/motor_7.png","75","motor","","","","","","",""
"561","209665","HierDywwo7grap","02","02","8","motor","74","img/motor_6.png","74","motor","6","182","1","0","0","",""
"null","209777","HierDywwo7grap","02","02","8","iti","null","img/motor_6.png","74","motor","","","","","","",""
"427","210213","HierDywwo7grap","02","02","8","motor","75","img/motor_7.png","75","motor","7","183","1","0","0","",""
"null","210325","HierDywwo7grap","02","02","8","iti","null","img/motor_7.png","75","motor","","","","","","",""
"588","210922","HierDywwo7grap","02","02","8","motor","72","img/motor_5.png","72","motor","5","184","1","0","0","",""
"null","211032","HierDywwo7grap","02","02","8","iti","null","img/motor_5.png","72","motor","","","","","","",""
"405","211447","HierDywwo7grap","02","02","8","motor","76","img/motor_8.png","76","motor","8","185","1","0","0","",""
"null","211559","HierDywwo7grap","02","02","8","iti","null","img/motor_8.png","76","motor","","","","","","",""
"292","211861","HierDywwo7grap","02","02","8","motor","76","img/motor_8.png","76","motor","8","186","1","0","0","",""
"null","211973","HierDywwo7grap","02","02","8","iti","null","img/motor_8.png","76","motor","","","","","","",""
"580","212563","HierDywwo7grap","02","02","8","motor","83","img/motor_2.png","83","motor","2","187","1","0","0","",""
"null","212675","HierDywwo7grap","02","02","8","iti","null","img/motor_2.png","83","motor","","","","","","",""
"656","213341","HierDywwo7grap","02","02","8","motor","75","img/motor_7.png","75","motor","7","188","1","0","0","",""
"null","213452","HierDywwo7grap","02","02","8","iti","null","img/motor_7.png","75","motor","","","","","","",""
"614","214075","HierDywwo7grap","02","02","8","motor","83","img/motor_2.png","83","motor","2","189","1","0","0","",""
"null","214187","HierDywwo7grap","02","02","8","iti","null","img/motor_2.png","83","motor","","","","","","",""
"585","214781","HierDywwo7grap","02","02","8","motor","70","img/motor_4.png","70","motor","4","190","1","0","0","",""
"null","214894","HierDywwo7grap","02","02","8","iti","null","img/motor_4.png","70","motor","","","","","","",""
"508","215411","HierDywwo7grap","02","02","8","motor","65","img/motor_1.png","65","motor","1","191","1","0","0","",""
"null","215522","HierDywwo7grap","02","02","8","iti","null","img/motor_1.png","65","motor","","","","","","",""
"657","216189","HierDywwo7grap","02","02","8","motor","74","img/motor_6.png","74","motor","6","192","1","0","0","",""
"null","216301","HierDywwo7grap","02","02","8","iti","null","img/motor_6.png","74","motor","","","","","","",""
"464","216774","HierDywwo7grap","02","02","8","motor","76","img/motor_8.png","76","motor","8","193","1","0","0","",""
"null","216886","HierDywwo7grap","02","02","8","iti","null","img/motor_8.png","76","motor","","","","","","",""
"683","217578","HierDywwo7grap","02","02","8","motor","68","img/motor_3.png","68","motor","3","194","1","0","0","",""
"null","217689","HierDywwo7grap","02","02","8","iti","null","img/motor_3.png","68","motor","","","","","","",""
"644","218343","HierDywwo7grap","02","02","8","motor","74","img/motor_6.png","74","motor","6","195","1","0","0","",""
"null","218455","HierDywwo7grap","02","02","8","iti","null","img/motor_6.png","74","motor","","","","","","",""
"478","218942","HierDywwo7grap","02","02","8","motor","72","img/motor_5.png","72","motor","5","196","1","0","0","",""
"null","219054","HierDywwo7grap","02","02","8","iti","null","img/motor_5.png","72","motor","","","","","","",""
"419","219482","HierDywwo7grap","02","02","8","motor","74","img/motor_6.png","74","motor","6","197","1","0","0","",""
"null","219593","HierDywwo7grap","02","02","8","iti","null","img/motor_6.png","74","motor","","","","","","",""
"403","220004","HierDywwo7grap","02","02","8","motor","76","img/motor_8.png","76","motor","8","198","1","0","0","",""
"null","220116","HierDywwo7grap","02","02","8","iti","null","img/motor_8.png","76","motor","","","","","","",""
"526","220653","HierDywwo7grap","02","02","8","motor","65","img/motor_1.png","65","motor","1","199","1","0","0","",""
"null","220762","HierDywwo7grap","02","02","8","iti","null","img/motor_1.png","65","motor","","","","","","",""
"714","221485","HierDywwo7grap","02","02","8","motor","75","img/motor_7.png","75","motor","7","200","1","0","0","",""
"null","221595","HierDywwo7grap","02","02","8","iti","null","img/motor_7.png","75","motor","","","","","","",""
"348","221953","HierDywwo7grap","02","02","8","motor","76","img/motor_8.png","76","motor","8","201","1","0","0","",""
"null","222064","HierDywwo7grap","02","02","8","iti","null","img/motor_8.png","76","motor","","","","","","",""
"445","222521","HierDywwo7grap","02","02","8","motor","75","img/motor_7.png","75","motor","7","202","1","0","0","",""
"null","222633","HierDywwo7grap","02","02","8","iti","null","img/motor_7.png","75","motor","","","","","","",""
"356","222997","HierDywwo7grap","02","02","8","motor","75","img/motor_7.png","75","motor","7","203","1","0","0","",""
"null","223105","HierDywwo7grap","02","02","8","iti","null","img/motor_7.png","75","motor","","","","","","",""
"480","223594","HierDywwo7grap","02","02","8","motor","65","img/motor_1.png","65","motor","1","204","1","0","0","",""
"null","223705","HierDywwo7grap","02","02","8","iti","null","img/motor_1.png","65","motor","","","","","","",""
"300","224015","HierDywwo7grap","02","02","8","motor","65","img/motor_1.png","65","motor","1","205","1","0","0","",""
"null","224125","HierDywwo7grap","02","02","8","iti","null","img/motor_1.png","65","motor","","","","","","",""
"590","224727","HierDywwo7grap","02","02","8","motor","74","img/motor_6.png","74","motor","6","206","1","0","0","",""
"null","224840","HierDywwo7grap","02","02","8","iti","null","img/motor_6.png","74","motor","","","","","","",""
"384","225234","HierDywwo7grap","02","02","8","motor","76","img/motor_8.png","76","motor","8","207","1","0","0","",""
"null","225345","HierDywwo7grap","02","02","8","iti","null","img/motor_8.png","76","motor","","","","","","",""
"536","225891","HierDywwo7grap","02","02","8","motor","74","img/motor_6.png","74","motor","6","208","1","0","0","",""
"null","226001","HierDywwo7grap","02","02","8","iti","null","img/motor_6.png","74","motor","","","","","","",""
"401","226412","HierDywwo7grap","02","02","8","motor","75","img/motor_7.png","75","motor","7","209","1","0","0","",""
"null","226524","HierDywwo7grap","02","02","8","iti","null","img/motor_7.png","75","motor","","","","","","",""
"473","227006","HierDywwo7grap","02","02","8","motor","65","img/motor_1.png","65","motor","1","210","1","0","0","",""
"null","227116","HierDywwo7grap","02","02","8","iti","null","img/motor_1.png","65","motor","","","","","","",""
"727","227853","HierDywwo7grap","02","02","8","motor","74","img/motor_6.png","74","motor","6","211","1","0","0","",""
"null","227965","HierDywwo7grap","02","02","8","iti","null","img/motor_6.png","74","motor","","","","","","",""
"682","228656","HierDywwo7grap","02","02","8","motor","70","img/motor_4.png","70","motor","4","212","1","0","0","",""
"null","228768","HierDywwo7grap","02","02","8","iti","null","img/motor_4.png","70","motor","","","","","","",""
"559","229335","HierDywwo7grap","02","02","8","motor","74","img/motor_5.png","72","motor","5","213","0","1","0","",""
"618","229964","HierDywwo7grap","02","02","8","motorRepeat","72","img/motor_5.png","72","motor","5","213","1","0","0","",""
"null","230075","HierDywwo7grap","02","02","8","iti","null","img/motor_5.png","72","motor","","","","","","",""
"340","230426","HierDywwo7grap","02","02","8","motor","72","img/motor_5.png","72","motor","5","214","1","0","0","",""
"null","230535","HierDywwo7grap","02","02","8","iti","null","img/motor_5.png","72","motor","","","","","","",""
"608","231154","HierDywwo7grap","02","02","8","motor","70","img/motor_4.png","70","motor","4","215","1","0","0","",""
"null","231265","HierDywwo7grap","02","02","8","iti","null","img/motor_4.png","70","motor","","","","","","",""
"380","231654","HierDywwo7grap","02","02","8","motor","70","img/motor_4.png","70","motor","4","216","1","0","0","",""
"null","231764","HierDywwo7grap","02","02","8","iti","null","img/motor_4.png","70","motor","","","","","","",""
"655","232430","HierDywwo7grap","02","02","8","motor","75","img/motor_7.png","75","motor","7","217","1","0","0","",""
"null","232540","HierDywwo7grap","02","02","8","iti","null","img/motor_7.png","75","motor","","","","","","",""
"603","233154","HierDywwo7grap","02","02","8","motor","70","img/motor_4.png","70","motor","4","218","1","0","0","",""
"null","233266","HierDywwo7grap","02","02","8","iti","null","img/motor_4.png","70","motor","","","","","","",""
"550","233825","HierDywwo7grap","02","02","8","motor","75","img/motor_7.png","75","motor","7","219","1","0","0","",""
"null","233937","HierDywwo7grap","02","02","8","iti","null","img/motor_7.png","75","motor","","","","","","",""
"446","234391","HierDywwo7grap","02","02","8","motor","75","img/motor_7.png","75","motor","7","220","1","0","0","",""
"null","234502","HierDywwo7grap","02","02","8","iti","null","img/motor_7.png","75","motor","","","","","","",""
"687","235200","HierDywwo7grap","02","02","8","motor","83","img/motor_2.png","83","motor","2","221","1","0","0","",""
"null","235312","HierDywwo7grap","02","02","8","iti","null","img/motor_2.png","83","motor","","","","","","",""
"505","235828","HierDywwo7grap","02","02","8","motor","70","img/motor_4.png","70","motor","4","222","1","0","0","",""
"null","235938","HierDywwo7grap","02","02","8","iti","null","img/motor_4.png","70","motor","","","","","","",""
"640","236586","HierDywwo7grap","02","02","8","motor","68","img/motor_3.png","68","motor","3","223","1","0","0","",""
"null","236695","HierDywwo7grap","02","02","8","iti","null","img/motor_3.png","68","motor","","","","","","",""
"649","237353","HierDywwo7grap","02","02","8","motor","75","img/motor_7.png","75","motor","7","224","1","0","0","",""
"null","237460","HierDywwo7grap","02","02","8","iti","null","img/motor_7.png","75","motor","","","","","","",""
"327","237795","HierDywwo7grap","02","02","8","motor","76","img/motor_8.png","76","motor","8","225","1","0","0","",""
"null","237904","HierDywwo7grap","02","02","8","iti","null","img/motor_8.png","76","motor","","","","","","",""
"489","238403","HierDywwo7grap","02","02","8","motor","75","img/motor_7.png","75","motor","7","226","1","0","0","",""
"null","238513","HierDywwo7grap","02","02","8","iti","null","img/motor_7.png","75","motor","","","","","","",""
"302","238826","HierDywwo7grap","02","02","8","motor","75","img/motor_7.png","75","motor","7","227","1","0","0","",""
"null","238939","HierDywwo7grap","02","02","8","iti","null","img/motor_7.png","75","motor","","","","","","",""
"574","239524","HierDywwo7grap","02","02","8","motor","74","img/motor_6.png","74","motor","6","228","1","0","0","",""
"null","239636","HierDywwo7grap","02","02","8","iti","null","img/motor_6.png","74","motor","","","","","","",""
"406","240053","HierDywwo7grap","02","02","8","motor","74","img/motor_6.png","74","motor","6","229","1","0","0","",""
"null","240164","HierDywwo7grap","02","02","8","iti","null","img/motor_6.png","74","motor","","","","","","",""
"344","240519","HierDywwo7grap","02","02","8","motor","65","img/motor_1.png","65","motor","1","230","1","0","0","",""
"null","240631","HierDywwo7grap","02","02","8","iti","null","img/motor_1.png","65","motor","","","","","","",""
"555","241197","HierDywwo7grap","02","02","8","motor","74","img/motor_6.png","74","motor","6","231","1","0","0","",""
"null","241308","HierDywwo7grap","02","02","8","iti","null","img/motor_6.png","74","motor","","","","","","",""
"902","242222","HierDywwo7grap","02","02","8","motor","68","img/motor_3.png","68","motor","3","232","1","0","0","",""
"null","242334","HierDywwo7grap","02","02","8","iti","null","img/motor_3.png","68","motor","","","","","","",""
"574","242918","HierDywwo7grap","02","02","8","motor","72","img/motor_5.png","72","motor","5","233","1","0","0","",""
"null","243028","HierDywwo7grap","02","02","8","iti","null","img/motor_5.png","72","motor","","","","","","",""
"755","243793","HierDywwo7grap","02","02","8","motor","70","img/motor_4.png","70","motor","4","234","1","0","0","",""
"null","243905","HierDywwo7grap","02","02","8","iti","null","img/motor_4.png","70","motor","","","","","","",""
"500","244416","HierDywwo7grap","02","02","8","motor","76","img/motor_8.png","76","motor","8","235","1","0","0","",""
"null","244529","HierDywwo7grap","02","02","8","iti","null","img/motor_8.png","76","motor","","","","","","",""
"748","245287","HierDywwo7grap","02","02","8","motor","68","img/motor_3.png","68","motor","3","236","1","0","0","",""
"null","245398","HierDywwo7grap","02","02","8","iti","null","img/motor_3.png","68","motor","","","","","","",""
"589","245996","HierDywwo7grap","02","02","8","motor","72","img/motor_5.png","72","motor","5","237","1","0","0","",""
"null","246107","HierDywwo7grap","02","02","8","iti","null","img/motor_5.png","72","motor","","","","","","",""
"538","246656","HierDywwo7grap","02","02","8","motor","74","img/motor_6.png","74","motor","6","238","1","0","0","",""
"null","246766","HierDywwo7grap","02","02","8","iti","null","img/motor_6.png","74","motor","","","","","","",""
"711","247486","HierDywwo7grap","02","02","8","motor","68","img/motor_3.png","68","motor","3","239","1","0","0","",""
"null","247598","HierDywwo7grap","02","02","8","iti","null","img/motor_3.png","68","motor","","","","","","",""
"655","248264","HierDywwo7grap","02","02","8","motor","74","img/motor_6.png","74","motor","6","240","1","0","0","",""
"null","248375","HierDywwo7grap","02","02","8","iti","null","img/motor_6.png","74","motor","","","","","","",""
"544","248930","HierDywwo7grap","02","02","8","motor","83","img/motor_2.png","83","motor","2","241","1","0","0","",""
"null","249041","HierDywwo7grap","02","02","8","iti","null","img/motor_2.png","83","motor","","","","","","",""
"524","249575","HierDywwo7grap","02","02","8","motor","70","img/motor_4.png","70","motor","4","242","1","0","0","",""
"null","249686","HierDywwo7grap","02","02","8","iti","null","img/motor_4.png","70","motor","","","","","","",""
"315","250011","HierDywwo7grap","02","02","8","motor","70","img/motor_4.png","70","motor","4","243","1","0","0","",""
"null","250119","HierDywwo7grap","02","02","8","iti","null","img/motor_4.png","70","motor","","","","","","",""
"508","250637","HierDywwo7grap","02","02","8","motor","68","img/motor_3.png","68","motor","3","244","1","0","0","",""
"null","250748","HierDywwo7grap","02","02","8","iti","null","img/motor_3.png","68","motor","","","","","","",""
"517","251275","HierDywwo7grap","02","02","8","motor","70","img/motor_4.png","70","motor","4","245","1","0","0","",""
"null","251386","HierDywwo7grap","02","02","8","iti","null","img/motor_4.png","70","motor","","","","","","",""
"572","251968","HierDywwo7grap","02","02","8","motor","74","img/motor_6.png","74","motor","6","246","1","0","0","",""
"null","252080","HierDywwo7grap","02","02","8","iti","null","img/motor_6.png","74","motor","","","","","","",""
"530","252620","HierDywwo7grap","02","02","8","motor","65","img/motor_1.png","65","motor","1","247","1","0","0","",""
"null","252733","HierDywwo7grap","02","02","8","iti","null","img/motor_1.png","65","motor","","","","","","",""
"627","253369","HierDywwo7grap","02","02","8","motor","76","img/motor_8.png","76","motor","8","248","1","0","0","",""
"null","253480","HierDywwo7grap","02","02","8","iti","null","img/motor_8.png","76","motor","","","","","","",""
"1085","254578","HierDywwo7grap","02","02","8","motor","83","img/motor_3.png","68","motor","3","249","0","1","0","",""
"241","254832","HierDywwo7grap","02","02","8","motorRepeat","68","img/motor_3.png","68","motor","3","249","1","0","0","",""
"null","254946","HierDywwo7grap","02","02","8","iti","null","img/motor_3.png","68","motor","","","","","","",""
"605","255561","HierDywwo7grap","02","02","8","motor","75","img/motor_7.png","75","motor","7","250","1","0","0","",""
"null","255673","HierDywwo7grap","02","02","8","iti","null","img/motor_7.png","75","motor","","","","","","",""
"583","256268","HierDywwo7grap","02","02","8","motor","68","img/motor_3.png","68","motor","3","251","1","0","0","",""
"null","256381","HierDywwo7grap","02","02","8","iti","null","img/motor_3.png","68","motor","","","","","","",""
"473","256864","HierDywwo7grap","02","02","8","motor","83","img/motor_2.png","83","motor","2","252","1","0","0","",""
"null","256977","HierDywwo7grap","02","02","8","iti","null","img/motor_2.png","83","motor","","","","","","",""
"666","257654","HierDywwo7grap","02","02","8","motor","75","img/motor_7.png","75","motor","7","253","1","0","0","",""
"null","257765","HierDywwo7grap","02","02","8","iti","null","img/motor_7.png","75","motor","","","","","","",""
"932","258711","HierDywwo7grap","02","02","8","motor","83","img/motor_2.png","83","motor","2","254","1","0","0","",""
"null","258823","HierDywwo7grap","02","02","8","iti","null","img/motor_2.png","83","motor","","","","","","",""
"705","259540","HierDywwo7grap","02","02","8","motor","75","img/motor_7.png","75","motor","7","255","1","0","0","",""
"null","259652","HierDywwo7grap","02","02","8","iti","null","img/motor_7.png","75","motor","","","","","","",""
"391","260055","HierDywwo7grap","02","02","8","motor","76","img/motor_8.png","76","motor","8","256","1","0","0","",""
"null","260168","HierDywwo7grap","02","02","8","iti","null","img/motor_8.png","76","motor","","","","","","",""
"540","260717","HierDywwo7grap","02","02","8","motor","65","img/motor_1.png","65","motor","1","257","1","0","0","",""
"null","260830","HierDywwo7grap","02","02","8","iti","null","img/motor_1.png","65","motor","","","","","","",""
"529","261369","HierDywwo7grap","02","02","8","motor","76","img/motor_8.png","76","motor","8","258","1","0","0","",""
"null","261481","HierDywwo7grap","02","02","8","iti","null","img/motor_8.png","76","motor","","","","","","",""
"606","262099","HierDywwo7grap","02","02","8","motor","70","img/motor_4.png","70","motor","4","259","1","0","0","",""
"null","262211","HierDywwo7grap","02","02","8","iti","null","img/motor_4.png","70","motor","","","","","","",""
"625","262846","HierDywwo7grap","02","02","8","motor","83","img/motor_2.png","83","motor","2","260","1","0","0","",""
"null","262958","HierDywwo7grap","02","02","8","iti","null","img/motor_2.png","83","motor","","","","","","",""
"623","263592","HierDywwo7grap","02","02","8","motor","74","img/motor_6.png","74","motor","6","261","1","0","0","",""
"null","263704","HierDywwo7grap","02","02","8","iti","null","img/motor_6.png","74","motor","","","","","","",""
"687","264402","HierDywwo7grap","02","02","8","motor","65","img/motor_1.png","65","motor","1","262","1","0","0","",""
"null","264511","HierDywwo7grap","02","02","8","iti","null","img/motor_1.png","65","motor","","","","","","",""
"543","265063","HierDywwo7grap","02","02","8","motor","75","img/motor_7.png","75","motor","7","263","1","0","0","",""
"null","265175","HierDywwo7grap","02","02","8","iti","null","img/motor_7.png","75","motor","","","","","","",""
"387","265572","HierDywwo7grap","02","02","8","motor","76","img/motor_8.png","76","motor","8","264","1","0","0","",""
"null","265684","HierDywwo7grap","02","02","8","iti","null","img/motor_8.png","76","motor","","","","","","",""
"344","266039","HierDywwo7grap","02","02","8","motor","76","img/motor_8.png","76","motor","8","265","1","0","0","",""
"null","266151","HierDywwo7grap","02","02","8","iti","null","img/motor_8.png","76","motor","","","","","","",""
"461","266622","HierDywwo7grap","02","02","8","motor","70","img/motor_4.png","70","motor","4","266","1","0","0","",""
"null","266734","HierDywwo7grap","02","02","8","iti","null","img/motor_4.png","70","motor","","","","","","",""
"774","267518","HierDywwo7grap","02","02","8","motor","75","img/motor_7.png","75","motor","7","267","1","0","0","",""
"null","267629","HierDywwo7grap","02","02","8","iti","null","img/motor_7.png","75","motor","","","","","","",""
"514","268153","HierDywwo7grap","02","02","8","motor","65","img/motor_1.png","65","motor","1","268","1","0","0","",""
"null","268264","HierDywwo7grap","02","02","8","iti","null","img/motor_1.png","65","motor","","","","","","",""
"613","268887","HierDywwo7grap","02","02","8","motor","72","img/motor_5.png","72","motor","5","269","1","0","0","",""
"null","268998","HierDywwo7grap","02","02","8","iti","null","img/motor_5.png","72","motor","","","","","","",""
"577","269584","HierDywwo7grap","02","02","8","motor","75","img/motor_7.png","75","motor","7","270","1","0","0","",""
"null","269695","HierDywwo7grap","02","02","8","iti","null","img/motor_7.png","75","motor","","","","","","",""
"559","270263","HierDywwo7grap","02","02","8","motor","72","img/motor_5.png","72","motor","5","271","1","0","0","",""
"null","270376","HierDywwo7grap","02","02","8","iti","null","img/motor_5.png","72","motor","","","","","","",""
"765","271152","HierDywwo7grap","02","02","8","motor","68","img/motor_3.png","68","motor","3","272","1","0","0","",""
"null","271262","HierDywwo7grap","02","02","8","iti","null","img/motor_3.png","68","motor","","","","","","",""
"507","271779","HierDywwo7grap","02","02","8","motor","68","img/motor_3.png","68","motor","3","273","1","0","0","",""
"null","271888","HierDywwo7grap","02","02","8","iti","null","img/motor_3.png","68","motor","","","","","","",""
"413","272312","HierDywwo7grap","02","02","8","motor","76","img/motor_8.png","76","motor","8","274","1","0","0","",""
"null","272423","HierDywwo7grap","02","02","8","iti","null","img/motor_8.png","76","motor","","","","","","",""
"607","273039","HierDywwo7grap","02","02","8","motor","74","img/motor_6.png","74","motor","6","275","1","0","0","",""
"null","273151","HierDywwo7grap","02","02","8","iti","null","img/motor_6.png","74","motor","","","","","","",""
"453","273614","HierDywwo7grap","02","02","8","motor","75","img/motor_7.png","75","motor","7","276","1","0","0","",""
"null","273725","HierDywwo7grap","02","02","8","iti","null","img/motor_7.png","75","motor","","","","","","",""
"634","274370","HierDywwo7grap","02","02","8","motor","65","img/motor_1.png","65","motor","1","277","1","0","0","",""
"null","274480","HierDywwo7grap","02","02","8","iti","null","img/motor_1.png","65","motor","","","","","","",""
"518","275006","HierDywwo7grap","02","02","8","motor","70","img/motor_4.png","70","motor","4","278","1","0","0","",""
"null","275118","HierDywwo7grap","02","02","8","iti","null","img/motor_4.png","70","motor","","","","","","",""
"624","275753","HierDywwo7grap","02","02","8","motor","68","img/motor_3.png","68","motor","3","279","1","0","0","",""
"null","275865","HierDywwo7grap","02","02","8","iti","null","img/motor_3.png","68","motor","","","","","","",""
"509","276384","HierDywwo7grap","02","02","8","motor","70","img/motor_4.png","70","motor","4","280","1","0","0","",""
"null","276493","HierDywwo7grap","02","02","8","iti","null","img/motor_4.png","70","motor","","","","","","",""
"630","277132","HierDywwo7grap","02","02","8","motor","65","img/motor_1.png","65","motor","1","281","1","0","0","",""
"null","277241","HierDywwo7grap","02","02","8","iti","null","img/motor_1.png","65","motor","","","","","","",""
"820","278071","HierDywwo7grap","02","02","8","motor","68","img/motor_3.png","68","motor","3","282","1","0","0","",""
"null","278183","HierDywwo7grap","02","02","8","iti","null","img/motor_3.png","68","motor","","","","","","",""
"721","278915","HierDywwo7grap","02","02","8","motor","74","img/motor_6.png","74","motor","6","283","1","0","0","",""
"null","279027","HierDywwo7grap","02","02","8","iti","null","img/motor_6.png","74","motor","","","","","","",""
"542","279578","HierDywwo7grap","02","02","8","motor","75","img/motor_7.png","75","motor","7","284","1","0","0","",""
"null","279690","HierDywwo7grap","02","02","8","iti","null","img/motor_7.png","75","motor","","","","","","",""
"605","280305","HierDywwo7grap","02","02","8","motor","70","img/motor_4.png","70","motor","4","285","1","0","0","",""
"null","280417","HierDywwo7grap","02","02","8","iti","null","img/motor_4.png","70","motor","","","","","","",""
"658","281085","HierDywwo7grap","02","02","8","motor","75","img/motor_7.png","75","motor","7","286","1","0","0","",""
"null","281196","HierDywwo7grap","02","02","8","iti","null","img/motor_7.png","75","motor","","","","","","",""
"510","281717","HierDywwo7grap","02","02","8","motor","65","img/motor_1.png","65","motor","1","287","1","0","0","",""
"null","281829","HierDywwo7grap","02","02","8","iti","null","img/motor_1.png","65","motor","","","","","","",""
"459","282299","HierDywwo7grap","02","02","8","motor","83","img/motor_2.png","83","motor","2","288","1","0","0","",""
"null","282411","HierDywwo7grap","02","02","8","iti","null","img/motor_2.png","83","motor","","","","","","",""
"386","282808","HierDywwo7grap","02","02","8","motor","83","img/motor_2.png","83","motor","2","289","1","0","0","",""
"null","282917","HierDywwo7grap","02","02","8","iti","null","img/motor_2.png","83","motor","","","","","","",""
"481","283408","HierDywwo7grap","02","02","8","motor","72","img/motor_5.png","72","motor","5","290","1","0","0","",""
"null","283519","HierDywwo7grap","02","02","8","iti","null","img/motor_5.png","72","motor","","","","","","",""
"552","284081","HierDywwo7grap","02","02","8","motor","83","img/motor_2.png","83","motor","2","291","1","0","0","",""
"null","284192","HierDywwo7grap","02","02","8","iti","null","img/motor_2.png","83","motor","","","","","","",""
"530","284734","HierDywwo7grap","02","02","8","motor","65","img/motor_1.png","65","motor","1","292","1","0","0","",""
"null","284845","HierDywwo7grap","02","02","8","iti","null","img/motor_1.png","65","motor","","","","","","",""
"884","285738","HierDywwo7grap","02","02","8","motor","68","img/motor_3.png","68","motor","3","293","1","0","0","",""
"null","285849","HierDywwo7grap","02","02","8","iti","null","img/motor_3.png","68","motor","","","","","","",""
"472","286331","HierDywwo7grap","02","02","8","motor","76","img/motor_8.png","76","motor","8","294","1","0","0","",""
"null","286442","HierDywwo7grap","02","02","8","iti","null","img/motor_8.png","76","motor","","","","","","",""
"547","286998","HierDywwo7grap","02","02","8","motor","65","img/motor_1.png","65","motor","1","295","1","0","0","",""
"null","287110","HierDywwo7grap","02","02","8","iti","null","img/motor_1.png","65","motor","","","","","","",""
"591","287713","HierDywwo7grap","02","02","8","motor","83","img/motor_2.png","83","motor","2","296","1","0","0","",""
"null","287825","HierDywwo7grap","02","02","8","iti","null","img/motor_2.png","83","motor","","","","","","",""
"404","288238","HierDywwo7grap","02","02","8","motor","65","img/motor_1.png","65","motor","1","297","1","0","0","",""
"null","288348","HierDywwo7grap","02","02","8","iti","null","img/motor_1.png","65","motor","","","","","","",""
"596","288953","HierDywwo7grap","02","02","8","motor","72","img/motor_5.png","72","motor","5","298","1","0","0","",""
"null","289064","HierDywwo7grap","02","02","8","iti","null","img/motor_5.png","72","motor","","","","","","",""
"727","289802","HierDywwo7grap","02","02","8","motor","65","img/motor_1.png","65","motor","1","299","1","0","0","",""
"null","289913","HierDywwo7grap","02","02","8","iti","null","img/motor_1.png","65","motor","","","","","","",""
"485","290407","HierDywwo7grap","02","02","8","motor","76","img/motor_8.png","76","motor","8","300","1","0","0","",""
"null","290519","HierDywwo7grap","02","02","8","iti","null","img/motor_8.png","76","motor","","","","","","",""
"452","290981","HierDywwo7grap","02","02","8","motor","65","img/motor_1.png","65","motor","1","301","1","0","0","",""
"null","291093","HierDywwo7grap","02","02","8","iti","null","img/motor_1.png","65","motor","","","","","","",""
"686","291791","HierDywwo7grap","02","02","8","motor","83","img/motor_2.png","83","motor","2","302","1","0","0","",""
"null","291903","HierDywwo7grap","02","02","8","iti","null","img/motor_2.png","83","motor","","","","","","",""
"560","292473","HierDywwo7grap","02","02","8","motor","70","img/motor_4.png","70","motor","4","303","1","0","0","",""
"null","292586","HierDywwo7grap","02","02","8","iti","null","img/motor_4.png","70","motor","","","","","","",""
"584","293183","HierDywwo7grap","02","02","8","motor","68","img/motor_3.png","68","motor","3","304","1","0","0","",""
"null","293294","HierDywwo7grap","02","02","8","iti","null","img/motor_3.png","68","motor","","","","","","",""
"344","293647","HierDywwo7grap","02","02","8","motor","68","img/motor_3.png","68","motor","3","305","1","0","0","",""
"null","293756","HierDywwo7grap","02","02","8","iti","null","img/motor_3.png","68","motor","","","","","","",""
"545","294311","HierDywwo7grap","02","02","8","motor","83","img/motor_2.png","83","motor","2","306","1","0","0","",""
"null","294424","HierDywwo7grap","02","02","8","iti","null","img/motor_2.png","83","motor","","","","","","",""
"510","294944","HierDywwo7grap","02","02","8","motor","75","img/motor_7.png","75","motor","7","307","1","0","0","",""
"null","295056","HierDywwo7grap","02","02","8","iti","null","img/motor_7.png","75","motor","","","","","","",""
"369","295435","HierDywwo7grap","02","02","8","motor","76","img/motor_8.png","76","motor","8","308","1","0","0","",""
"null","295546","HierDywwo7grap","02","02","8","iti","null","img/motor_8.png","76","motor","","","","","","",""
"758","296314","HierDywwo7grap","02","02","8","motor","70","img/motor_4.png","70","motor","4","309","1","0","0","",""
"null","296426","HierDywwo7grap","02","02","8","iti","null","img/motor_4.png","70","motor","","","","","","",""
"568","297003","HierDywwo7grap","02","02","8","motor","68","img/motor_3.png","68","motor","3","310","1","0","0","",""
"null","297114","HierDywwo7grap","02","02","8","iti","null","img/motor_3.png","68","motor","","","","","","",""
"1067","298192","HierDywwo7grap","02","02","8","motor","74","img/motor_6.png","74","motor","6","311","1","0","0","",""
"null","298305","HierDywwo7grap","02","02","8","iti","null","img/motor_6.png","74","motor","","","","","","",""
"430","298745","HierDywwo7grap","02","02","8","motor","76","img/motor_8.png","76","motor","8","312","1","0","0","",""
"null","298856","HierDywwo7grap","02","02","8","iti","null","img/motor_8.png","76","motor","","","","","","",""
"584","299453","HierDywwo7grap","02","02","8","motor","83","img/motor_2.png","83","motor","2","313","1","0","0","",""
"null","299565","HierDywwo7grap","02","02","8","iti","null","img/motor_2.png","83","motor","","","","","","",""
"499","300076","HierDywwo7grap","02","02","8","motor","65","img/motor_1.png","65","motor","1","314","1","0","0","",""
"null","300188","HierDywwo7grap","02","02","8","iti","null","img/motor_1.png","65","motor","","","","","","",""
"801","300997","HierDywwo7grap","02","02","8","motor","68","img/motor_3.png","68","motor","3","315","1","0","0","",""
"null","301107","HierDywwo7grap","02","02","8","iti","null","img/motor_3.png","68","motor","","","","","","",""
"600","301718","HierDywwo7grap","02","02","8","motor","76","img/motor_8.png","76","motor","8","316","1","0","0","",""
"null","301829","HierDywwo7grap","02","02","8","iti","null","img/motor_8.png","76","motor","","","","","","",""
"808","302646","HierDywwo7grap","02","02","8","motor","70","img/motor_4.png","70","motor","4","317","1","0","0","",""
"null","302756","HierDywwo7grap","02","02","8","iti","null","img/motor_4.png","70","motor","","","","","","",""
"573","303339","HierDywwo7grap","02","02","8","motor","74","img/motor_6.png","74","motor","6","318","1","0","0","",""
"null","303451","HierDywwo7grap","02","02","8","iti","null","img/motor_6.png","74","motor","","","","","","",""
"455","303918","HierDywwo7grap","02","02","8","motor","76","img/motor_8.png","76","motor","8","319","1","0","0","",""
"null","304030","HierDywwo7grap","02","02","8","iti","null","img/motor_8.png","76","motor","","","","","","",""
"801","304842","HierDywwo7grap","02","02","8","motor","75","img/motor_7.png","75","motor","7","320","1","0","0","",""
"null","304954","HierDywwo7grap","02","02","8","iti","null","img/motor_7.png","75","motor","","","","","","",""
"371","305335","HierDywwo7grap","02","02","8","motor","74","img/motor_5.png","72","motor","5","321","0","1","0","",""
"285","305630","HierDywwo7grap","02","02","8","motorRepeat","72","img/motor_5.png","72","motor","5","321","1","0","0","",""
"null","305741","HierDywwo7grap","02","02","8","iti","null","img/motor_5.png","72","motor","","","","","","",""
"587","306340","HierDywwo7grap","02","02","8","motor","75","img/motor_7.png","75","motor","7","322","1","0","0","",""
"null","306451","HierDywwo7grap","02","02","8","iti","null","img/motor_7.png","75","motor","","","","","","",""
"530","306990","HierDywwo7grap","02","02","8","motor","65","img/motor_1.png","65","motor","1","323","1","0","0","",""
"null","307099","HierDywwo7grap","02","02","8","iti","null","img/motor_1.png","65","motor","","","","","","",""
"413","307524","HierDywwo7grap","02","02","8","motor","70","img/motor_4.png","70","motor","4","324","1","0","0","",""
"null","307635","HierDywwo7grap","02","02","8","iti","null","img/motor_4.png","70","motor","","","","","","",""
"460","308106","HierDywwo7grap","02","02","8","motor","65","img/motor_1.png","65","motor","1","325","1","0","0","",""
"null","308217","HierDywwo7grap","02","02","8","iti","null","img/motor_1.png","65","motor","","","","","","",""
"551","308778","HierDywwo7grap","02","02","8","motor","70","img/motor_4.png","70","motor","4","326","1","0","0","",""
"null","308890","HierDywwo7grap","02","02","8","iti","null","img/motor_4.png","70","motor","","","","","","",""
"554","309453","HierDywwo7grap","02","02","8","motor","76","img/motor_8.png","76","motor","8","327","1","0","0","",""
"null","309566","HierDywwo7grap","02","02","8","iti","null","img/motor_8.png","76","motor","","","","","","",""
"756","310332","HierDywwo7grap","02","02","8","motor","65","img/motor_1.png","65","motor","1","328","1","0","0","",""
"null","310444","HierDywwo7grap","02","02","8","iti","null","img/motor_1.png","65","motor","","","","","","",""
"456","310912","HierDywwo7grap","02","02","8","motor","83","img/motor_2.png","83","motor","2","329","1","0","0","",""
"null","311024","HierDywwo7grap","02","02","8","iti","null","img/motor_2.png","83","motor","","","","","","",""
"670","311705","HierDywwo7grap","02","02","8","motor","76","img/motor_8.png","76","motor","8","330","1","0","0","",""
"null","311817","HierDywwo7grap","02","02","8","iti","null","img/motor_8.png","76","motor","","","","","","",""
"275","312102","HierDywwo7grap","02","02","8","motor","76","img/motor_8.png","76","motor","8","331","1","0","0","",""
"null","312215","HierDywwo7grap","02","02","8","iti","null","img/motor_8.png","76","motor","","","","","","",""
"737","312963","HierDywwo7grap","02","02","8","motor","74","img/motor_6.png","74","motor","6","332","1","0","0","",""
"null","313076","HierDywwo7grap","02","02","8","iti","null","img/motor_6.png","74","motor","","","","","","",""
"454","313540","HierDywwo7grap","02","02","8","motor","75","img/motor_7.png","75","motor","7","333","1","0","0","",""
"null","313652","HierDywwo7grap","02","02","8","iti","null","img/motor_7.png","75","motor","","","","","","",""
"458","314121","HierDywwo7grap","02","02","8","motor","72","img/motor_5.png","72","motor","5","334","1","0","0","",""
"null","314233","HierDywwo7grap","02","02","8","iti","null","img/motor_5.png","72","motor","","","","","","",""
"545","314787","HierDywwo7grap","02","02","8","motor","74","img/motor_6.png","74","motor","6","335","1","0","0","",""
"null","314899","HierDywwo7grap","02","02","8","iti","null","img/motor_6.png","74","motor","","","","","","",""
"549","315459","HierDywwo7grap","02","02","8","motor","70","img/motor_4.png","70","motor","4","336","1","0","0","",""
"null","315570","HierDywwo7grap","02","02","8","iti","null","img/motor_4.png","70","motor","","","","","","",""
"724","316306","HierDywwo7grap","02","02","8","motor","76","img/motor_8.png","76","motor","8","337","1","0","0","",""
"null","316419","HierDywwo7grap","02","02","8","iti","null","img/motor_8.png","76","motor","","","","","","",""
"825","317253","HierDywwo7grap","02","02","8","motor","68","img/motor_3.png","68","motor","3","338","1","0","0","",""
"null","317365","HierDywwo7grap","02","02","8","iti","null","img/motor_3.png","68","motor","","","","","","",""
"526","317902","HierDywwo7grap","02","02","8","motor","83","img/motor_2.png","83","motor","2","339","1","0","0","",""
"null","318013","HierDywwo7grap","02","02","8","iti","null","img/motor_2.png","83","motor","","","","","","",""
"681","318707","HierDywwo7grap","02","02","8","motor","74","img/motor_6.png","74","motor","6","340","1","0","0","",""
"null","318820","HierDywwo7grap","02","02","8","iti","null","img/motor_6.png","74","motor","","","","","","",""
"768","319601","HierDywwo7grap","02","02","8","motor","75","img/motor_7.png","75","motor","7","341","1","0","0","",""
"null","319714","HierDywwo7grap","02","02","8","iti","null","img/motor_7.png","75","motor","","","","","","",""
"1125","320850","HierDywwo7grap","02","02","8","motor","83","img/motor_2.png","83","motor","2","342","1","0","0","",""
"null","320964","HierDywwo7grap","02","02","8","iti","null","img/motor_2.png","83","motor","","","","","","",""
"792","321767","HierDywwo7grap","02","02","8","motor","75","img/motor_7.png","75","motor","7","343","1","0","0","",""
"null","321881","HierDywwo7grap","02","02","8","iti","null","img/motor_7.png","75","motor","","","","","","",""
"379","322269","HierDywwo7grap","02","02","8","motor","75","img/motor_7.png","75","motor","7","344","1","0","0","",""
"null","322382","HierDywwo7grap","02","02","8","iti","null","img/motor_7.png","75","motor","","","","","","",""
"968","323363","HierDywwo7grap","02","02","8","motor","72","img/motor_5.png","72","motor","5","345","1","0","0","",""
"null","323477","HierDywwo7grap","02","02","8","iti","null","img/motor_5.png","72","motor","","","","","","",""
"659","324147","HierDywwo7grap","02","02","8","motor","75","img/motor_7.png","75","motor","7","346","1","0","0","",""
"null","324258","HierDywwo7grap","02","02","8","iti","null","img/motor_7.png","75","motor","","","","","","",""
"659","324930","HierDywwo7grap","02","02","8","motor","72","img/motor_5.png","72","motor","5","347","1","0","0","",""
"null","325043","HierDywwo7grap","02","02","8","iti","null","img/motor_5.png","72","motor","","","","","","",""
"344","325398","HierDywwo7grap","02","02","8","motor","72","img/motor_5.png","72","motor","5","348","1","0","0","",""
"null","325510","HierDywwo7grap","02","02","8","iti","null","img/motor_5.png","72","motor","","","","","","",""
"603","326120","HierDywwo7grap","02","02","8","motor","76","img/motor_8.png","76","motor","8","349","1","0","0","",""
"null","326232","HierDywwo7grap","02","02","8","iti","null","img/motor_8.png","76","motor","","","","","","",""
"738","326981","HierDywwo7grap","02","02","8","motor","74","img/motor_6.png","74","motor","6","350","1","0","0","",""
"null","327091","HierDywwo7grap","02","02","8","iti","null","img/motor_6.png","74","motor","","","","","","",""
"840","327941","HierDywwo7grap","02","02","8","motor","83","img/motor_2.png","83","motor","2","351","1","0","0","",""
"null","328053","HierDywwo7grap","02","02","8","iti","null","img/motor_2.png","83","motor","","","","","","",""
"735","328798","HierDywwo7grap","02","02","8","motor","72","img/motor_5.png","72","motor","5","352","1","0","0","",""
"null","328909","HierDywwo7grap","02","02","8","iti","null","img/motor_5.png","72","motor","","","","","","",""
"749","329668","HierDywwo7grap","02","02","8","motor","70","img/motor_4.png","70","motor","4","353","1","0","0","",""
"null","329780","HierDywwo7grap","02","02","8","iti","null","img/motor_4.png","70","motor","","","","","","",""
"601","330392","HierDywwo7grap","02","02","8","motor","72","img/motor_5.png","72","motor","5","354","1","0","0","",""
"null","330503","HierDywwo7grap","02","02","8","iti","null","img/motor_5.png","72","motor","","","","","","",""
"677","331189","HierDywwo7grap","02","02","8","motor","74","img/motor_6.png","74","motor","6","355","1","0","0","",""
"null","331300","HierDywwo7grap","02","02","8","iti","null","img/motor_6.png","74","motor","","","","","","",""
"516","331827","HierDywwo7grap","02","02","8","motor","76","img/motor_8.png","76","motor","8","356","1","0","0","",""
"null","331938","HierDywwo7grap","02","02","8","iti","null","img/motor_8.png","76","motor","","","","","","",""
"396","332344","HierDywwo7grap","02","02","8","motor","75","img/motor_7.png","75","motor","7","357","1","0","0","",""
"null","332456","HierDywwo7grap","02","02","8","iti","null","img/motor_7.png","75","motor","","","","","","",""
"587","333053","HierDywwo7grap","02","02","8","motor","74","img/motor_6.png","74","motor","6","358","1","0","0","",""
"null","333165","HierDywwo7grap","02","02","8","iti","null","img/motor_6.png","74","motor","","","","","","",""
"395","333570","HierDywwo7grap","02","02","8","motor","70","img/motor_2.png","83","motor","2","359","0","1","0","",""
"359","333941","HierDywwo7grap","02","02","8","motorRepeat","83","img/motor_2.png","83","motor","2","359","1","0","0","",""
"null","334052","HierDywwo7grap","02","02","8","iti","null","img/motor_2.png","83","motor","","","","","","",""
"838","334900","HierDywwo7grap","02","02","8","motor","75","img/motor_7.png","75","motor","7","360","1","0","0","",""
"null","335013","HierDywwo7grap","02","02","8","iti","null","img/motor_7.png","75","motor","","","","","","",""
"676","335700","HierDywwo7grap","02","02","8","motor","68","img/motor_3.png","68","motor","3","361","1","0","0","",""
"null","335812","HierDywwo7grap","02","02","8","iti","null","img/motor_3.png","68","motor","","","","","","",""
"500","336322","HierDywwo7grap","02","02","8","motor","74","img/motor_6.png","74","motor","6","362","1","0","0","",""
"null","336434","HierDywwo7grap","02","02","8","iti","null","img/motor_6.png","74","motor","","","","","","",""
"434","336879","HierDywwo7grap","02","02","8","motor","72","img/motor_5.png","72","motor","5","363","1","0","0","",""
"null","336990","HierDywwo7grap","02","02","8","iti","null","img/motor_5.png","72","motor","","","","","","",""
"665","337666","HierDywwo7grap","02","02","8","motor","68","img/motor_3.png","68","motor","3","364","1","0","0","",""
"null","337776","HierDywwo7grap","02","02","8","iti","null","img/motor_3.png","68","motor","","","","","","",""
"509","338295","HierDywwo7grap","02","02","8","motor","76","img/motor_8.png","76","motor","8","365","1","0","0","",""
"null","338406","HierDywwo7grap","02","02","8","iti","null","img/motor_8.png","76","motor","","","","","","",""
"1029","339446","HierDywwo7grap","02","02","8","motor","68","img/motor_3.png","68","motor","3","366","1","0","0","",""
"null","339558","HierDywwo7grap","02","02","8","iti","null","img/motor_3.png","68","motor","","","","","","",""
"488","340056","HierDywwo7grap","02","02","8","motor","72","img/motor_5.png","72","motor","5","367","1","0","0","",""
"null","340169","HierDywwo7grap","02","02","8","iti","null","img/motor_5.png","72","motor","","","","","","",""
"801","340981","HierDywwo7grap","02","02","8","motor","74","img/motor_6.png","74","motor","6","368","1","0","0","",""
"null","341093","HierDywwo7grap","02","02","8","iti","null","img/motor_6.png","74","motor","","","","","","",""
"681","341785","HierDywwo7grap","02","02","8","motor","70","img/motor_4.png","70","motor","4","369","1","0","0","",""
"null","341898","HierDywwo7grap","02","02","8","iti","null","img/motor_4.png","70","motor","","","","","","",""
"677","342585","HierDywwo7grap","02","02","8","motor","74","img/motor_6.png","74","motor","6","370","1","0","0","",""
"null","342698","HierDywwo7grap","02","02","8","iti","null","img/motor_6.png","74","motor","","","","","","",""
"517","343227","HierDywwo7grap","02","02","8","motor","72","img/motor_5.png","72","motor","5","371","1","0","0","",""
"null","343339","HierDywwo7grap","02","02","8","iti","null","img/motor_5.png","72","motor","","","","","","",""
"664","344015","HierDywwo7grap","02","02","8","motor","83","img/motor_2.png","83","motor","2","372","1","0","0","",""
"null","344127","HierDywwo7grap","02","02","8","iti","null","img/motor_2.png","83","motor","","","","","","",""
"318","344456","HierDywwo7grap","02","02","8","motor","83","img/motor_2.png","83","motor","2","373","1","0","0","",""
"null","344569","HierDywwo7grap","02","02","8","iti","null","img/motor_2.png","83","motor","","","","","","",""
"545","345124","HierDywwo7grap","02","02","8","motor","68","img/motor_3.png","68","motor","3","374","1","0","0","",""
"null","345235","HierDywwo7grap","02","02","8","iti","null","img/motor_3.png","68","motor","","","","","","",""
"417","345663","HierDywwo7grap","02","02","8","motor","65","img/motor_1.png","65","motor","1","375","1","0","0","",""
"null","345776","HierDywwo7grap","02","02","8","iti","null","img/motor_1.png","65","motor","","","","","","",""
"588","346375","HierDywwo7grap","02","02","8","motor","75","img/motor_7.png","75","motor","7","376","1","0","0","",""
"null","346484","HierDywwo7grap","02","02","8","iti","null","img/motor_7.png","75","motor","","","","","","",""
"608","347103","HierDywwo7grap","02","02","8","motor","72","img/motor_5.png","72","motor","5","377","1","0","0","",""
"null","347215","HierDywwo7grap","02","02","8","iti","null","img/motor_5.png","72","motor","","","","","","",""
"770","347995","HierDywwo7grap","02","02","8","motor","68","img/motor_3.png","68","motor","3","378","1","0","0","",""
"null","348106","HierDywwo7grap","02","02","8","iti","null","img/motor_3.png","68","motor","","","","","","",""
"436","348553","HierDywwo7grap","02","02","8","motor","83","img/motor_2.png","83","motor","2","379","1","0","0","",""
"null","348665","HierDywwo7grap","02","02","8","iti","null","img/motor_2.png","83","motor","","","","","","",""
"321","348994","HierDywwo7grap","02","02","8","motor","83","img/motor_2.png","83","motor","2","380","1","0","0","",""
"null","349102","HierDywwo7grap","02","02","8","iti","null","img/motor_2.png","83","motor","","","","","","",""
"372","349484","HierDywwo7grap","02","02","8","motor","65","img/motor_1.png","65","motor","1","381","1","0","0","",""
"null","349597","HierDywwo7grap","02","02","8","iti","null","img/motor_1.png","65","motor","","","","","","",""
"520","350128","HierDywwo7grap","02","02","8","motor","75","img/motor_7.png","75","motor","7","382","1","0","0","",""
"null","350239","HierDywwo7grap","02","02","8","iti","null","img/motor_7.png","75","motor","","","","","","",""
"737","350987","HierDywwo7grap","02","02","8","motor","68","img/motor_3.png","68","motor","3","383","1","0","0","",""
"null","351099","HierDywwo7grap","02","02","8","iti","null","img/motor_3.png","68","motor","","","","","","",""
"548","351656","HierDywwo7grap","02","02","8","motor","70","img/motor_4.png","70","motor","4","384","1","0","0","",""
"null","351765","HierDywwo7grap","02","02","8","iti","null","img/motor_4.png","70","motor","","","","","","",""
"475","352249","HierDywwo7grap","02","02","8","motor","76","img/motor_8.png","76","motor","8","385","1","0","0","",""
"null","352360","HierDywwo7grap","02","02","8","iti","null","img/motor_8.png","76","motor","","","","","","",""
"533","352903","HierDywwo7grap","02","02","8","motor","74","img/motor_6.png","74","motor","6","386","1","0","0","",""
"null","353014","HierDywwo7grap","02","02","8","iti","null","img/motor_6.png","74","motor","","","","","","",""
"380","353405","HierDywwo7grap","02","02","8","motor","74","img/motor_6.png","74","motor","6","387","1","0","0","",""
"null","353517","HierDywwo7grap","02","02","8","iti","null","img/motor_6.png","74","motor","","","","","","",""
"509","354039","HierDywwo7grap","02","02","8","motor","72","img/motor_5.png","72","motor","5","388","1","0","0","",""
"null","354151","HierDywwo7grap","02","02","8","iti","null","img/motor_5.png","72","motor","","","","","","",""
"327","354488","HierDywwo7grap","02","02","8","motor","72","img/motor_5.png","72","motor","5","389","1","0","0","",""
"null","354600","HierDywwo7grap","02","02","8","iti","null","img/motor_5.png","72","motor","","","","","","",""
"702","355312","HierDywwo7grap","02","02","8","motor","70","img/motor_4.png","70","motor","4","390","1","0","0","",""
"null","355423","HierDywwo7grap","02","02","8","iti","null","img/motor_4.png","70","motor","","","","","","",""
"687","356119","HierDywwo7grap","02","02","8","motor","65","img/motor_1.png","65","motor","1","391","1","0","0","",""
"null","356232","HierDywwo7grap","02","02","8","iti","null","img/motor_1.png","65","motor","","","","","","",""
"632","356876","HierDywwo7grap","02","02","8","motor","72","img/motor_5.png","72","motor","5","392","1","0","0","",""
"null","356988","HierDywwo7grap","02","02","8","iti","null","img/motor_5.png","72","motor","","","","","","",""
"495","357491","HierDywwo7grap","02","02","8","motor","76","img/motor_8.png","76","motor","8","393","1","0","0","",""
"null","357603","HierDywwo7grap","02","02","8","iti","null","img/motor_8.png","76","motor","","","","","","",""
"516","358130","HierDywwo7grap","02","02","8","motor","72","img/motor_5.png","72","motor","5","394","1","0","0","",""
"null","358241","HierDywwo7grap","02","02","8","iti","null","img/motor_5.png","72","motor","","","","","","",""
"542","358793","HierDywwo7grap","02","02","8","motor","75","img/motor_7.png","75","motor","7","395","1","0","0","",""
"null","358906","HierDywwo7grap","02","02","8","iti","null","img/motor_7.png","75","motor","","","","","","",""
"434","359351","HierDywwo7grap","02","02","8","motor","74","img/motor_6.png","74","motor","6","396","1","0","0","",""
"null","359464","HierDywwo7grap","02","02","8","iti","null","img/motor_6.png","74","motor","","","","","","",""
"556","360031","HierDywwo7grap","02","02","8","motor","70","img/motor_4.png","70","motor","4","397","1","0","0","",""
"null","360143","HierDywwo7grap","02","02","8","iti","null","img/motor_4.png","70","motor","","","","","","",""
"703","360858","HierDywwo7grap","02","02","8","motor","83","img/motor_2.png","83","motor","2","398","1","0","0","",""
"null","360970","HierDywwo7grap","02","02","8","iti","null","img/motor_2.png","83","motor","","","","","","",""
"324","361304","HierDywwo7grap","02","02","8","motor","83","img/motor_2.png","83","motor","2","399","1","0","0","",""
"null","361417","HierDywwo7grap","02","02","8","iti","null","img/motor_2.png","83","motor","","","","","","",""
"704","362133","HierDywwo7grap","02","02","8","motor","74","img/motor_6.png","74","motor","6","400","1","0","0","",""
"null","362243","HierDywwo7grap","02","02","8","iti","null","img/motor_6.png","74","motor","","","","","","",""
"537","362791","HierDywwo7grap","02","02","8","motor","72","img/motor_5.png","72","motor","5","401","1","0","0","",""
"null","362904","HierDywwo7grap","02","02","8","iti","null","img/motor_5.png","72","motor","","","","","","",""
"517","363430","HierDywwo7grap","02","02","8","motor","65","img/motor_1.png","65","motor","1","402","1","0","0","",""
"null","363543","HierDywwo7grap","02","02","8","iti","null","img/motor_1.png","65","motor","","","","","","",""
"513","364066","HierDywwo7grap","02","02","8","motor","70","img/motor_4.png","70","motor","4","403","1","0","0","",""
"null","364179","HierDywwo7grap","02","02","8","iti","null","img/motor_4.png","70","motor","","","","","","",""
"570","364758","HierDywwo7grap","02","02","8","motor","72","img/motor_5.png","72","motor","5","404","1","0","0","",""
"null","364870","HierDywwo7grap","02","02","8","iti","null","img/motor_5.png","72","motor","","","","","","",""
"553","365432","HierDywwo7grap","02","02","8","motor","70","img/motor_4.png","70","motor","4","405","1","0","0","",""
"null","365545","HierDywwo7grap","02","02","8","iti","null","img/motor_4.png","70","motor","","","","","","",""
"790","366346","HierDywwo7grap","02","02","8","motor","83","img/motor_2.png","83","motor","2","406","1","0","0","",""
"null","366459","HierDywwo7grap","02","02","8","iti","null","img/motor_2.png","83","motor","","","","","","",""
"257","366728","HierDywwo7grap","02","02","8","motor","83","img/motor_3.png","68","motor","3","407","0","1","0","",""
"486","367225","HierDywwo7grap","02","02","8","motorRepeat","68","img/motor_3.png","68","motor","3","407","1","0","0","",""
"null","367337","HierDywwo7grap","02","02","8","iti","null","img/motor_3.png","68","motor","","","","","","",""
"479","367828","HierDywwo7grap","02","02","8","motor","68","img/motor_3.png","68","motor","3","408","1","0","0","",""
"null","367939","HierDywwo7grap","02","02","8","iti","null","img/motor_3.png","68","motor","","","","","","",""
"666","368616","HierDywwo7grap","02","02","8","motor","74","img/motor_6.png","74","motor","6","409","1","0","0","",""
"null","368726","HierDywwo7grap","02","02","8","iti","null","img/motor_6.png","74","motor","","","","","","",""
"401","369138","HierDywwo7grap","02","02","8","motor","76","img/motor_8.png","76","motor","8","410","1","0","0","",""
"null","369249","HierDywwo7grap","02","02","8","iti","null","img/motor_8.png","76","motor","","","","","","",""
"767","370027","HierDywwo7grap","02","02","8","motor","83","img/motor_2.png","83","motor","2","411","1","0","0","",""
"null","370139","HierDywwo7grap","02","02","8","iti","null","img/motor_2.png","83","motor","","","","","","",""
"539","370690","HierDywwo7grap","02","02","8","motor","68","img/motor_3.png","68","motor","3","412","1","0","0","",""
"null","370803","HierDywwo7grap","02","02","8","iti","null","img/motor_3.png","68","motor","","","","","","",""
"531","371344","HierDywwo7grap","02","02","8","motor","65","img/motor_1.png","65","motor","1","413","1","0","0","",""
"null","371456","HierDywwo7grap","02","02","8","iti","null","img/motor_1.png","65","motor","","","","","","",""
"529","371994","HierDywwo7grap","02","02","8","motor","72","img/motor_5.png","72","motor","5","414","1","0","0","",""
"null","372106","HierDywwo7grap","02","02","8","iti","null","img/motor_5.png","72","motor","","","","","","",""
"531","372649","HierDywwo7grap","02","02","8","motor","74","img/motor_6.png","74","motor","6","415","1","0","0","",""
"null","372759","HierDywwo7grap","02","02","8","iti","null","img/motor_6.png","74","motor","","","","","","",""
"724","373492","HierDywwo7grap","02","02","8","motor","68","img/motor_3.png","68","motor","3","416","1","0","0","",""
"null","373604","HierDywwo7grap","02","02","8","iti","null","img/motor_3.png","68","motor","","","","","","",""
"740","374357","HierDywwo7grap","02","02","8","motor","72","img/motor_5.png","72","motor","5","417","1","0","0","",""
"null","374468","HierDywwo7grap","02","02","8","iti","null","img/motor_5.png","72","motor","","","","","","",""
"444","374925","HierDywwo7grap","02","02","8","motor","74","img/motor_6.png","74","motor","6","418","1","0","0","",""
"null","375038","HierDywwo7grap","02","02","8","iti","null","img/motor_6.png","74","motor","","","","","","",""
"658","375706","HierDywwo7grap","02","02","8","motor","70","img/motor_4.png","70","motor","4","419","1","0","0","",""
"null","375817","HierDywwo7grap","02","02","8","iti","null","img/motor_4.png","70","motor","","","","","","",""
"601","376429","HierDywwo7grap","02","02","8","motor","76","img/motor_8.png","76","motor","8","420","1","0","0","",""
"null","376540","HierDywwo7grap","02","02","8","iti","null","img/motor_8.png","76","motor","","","","","","",""
"777","377326","HierDywwo7grap","02","02","8","motor","74","img/motor_6.png","74","motor","6","421","1","0","0","",""
"null","377438","HierDywwo7grap","02","02","8","iti","null","img/motor_6.png","74","motor","","","","","","",""
"615","378063","HierDywwo7grap","02","02","8","motor","76","img/motor_8.png","76","motor","8","422","1","0","0","",""
"null","378172","HierDywwo7grap","02","02","8","iti","null","img/motor_8.png","76","motor","","","","","","",""
"541","378724","HierDywwo7grap","02","02","8","motor","68","img/motor_3.png","68","motor","3","423","1","0","0","",""
"null","378836","HierDywwo7grap","02","02","8","iti","null","img/motor_3.png","68","motor","","","","","","",""
"557","379404","HierDywwo7grap","02","02","8","motor","65","img/motor_1.png","65","motor","1","424","1","0","0","",""
"null","379516","HierDywwo7grap","02","02","8","iti","null","img/motor_1.png","65","motor","","","","","","",""
"746","380272","HierDywwo7grap","02","02","8","motor","72","img/motor_5.png","72","motor","5","425","1","0","0","",""
"null","380384","HierDywwo7grap","02","02","8","iti","null","img/motor_5.png","72","motor","","","","","","",""
