"rt","time_elapsed","subject","subID","group","day","trialType","phase","key_press","stim","stimNum","corrresp","hierarchy","trialNum","corr","responses"
"3930","3933","HierDy3ftq7mao","sub24","12","03","","","","","","","","","",""
"","6124","HierDy3ftq7mao","sub24","12","03","fullscreen","","","","","","","","",""
"21036.10000014305","27161","HierDy3ftq7mao","sub24","12","03","","prac","","","","","","","",""
"7047","34212","HierDy3ftq7mao","sub24","12","03","","","32","","","","","","",""
"2728.4000000953674","36942","HierDy3ftq7mao","sub24","12","03","","prac","","","","","","","",""
"1311.1999998092651","38256","HierDy3ftq7mao","sub24","12","03","rl","test","72","img/r_d_stripes.png","5","72","shape,color,pattern","1","1",""
"null","39268","HierDy3ftq7mao","sub24","12","03","feedback","test","null","","","na","","1","",""
"1687.7999999523163","40959","HierDy3ftq7mao","sub24","12","03","rl","test","76","img/b_d_check.png","8","76","shape,color,pattern","2","1",""
"null","41971","HierDy3ftq7mao","sub24","12","03","feedback","test","null","","","na","","2","",""
"1324.7999999523163","43298","HierDy3ftq7mao","sub24","12","03","rl","test","65","img/r_t_stripes.png","1","65","shape,color,pattern","3","1",""
"null","44304","HierDy3ftq7mao","sub24","12","03","feedback","test","null","","","na","","3","",""
"1494.5","45800","HierDy3ftq7mao","sub24","12","03","rl","test","74","img/r_d_check.png","6","74","shape,color,pattern","4","1",""
"null","46810","HierDy3ftq7mao","sub24","12","03","feedback","test","null","","","na","","4","",""
"1110.2000000476837","47922","HierDy3ftq7mao","sub24","12","03","rl","test","70","img/b_t_check.png","4","70","shape,color,pattern","5","1",""
"null","48930","HierDy3ftq7mao","sub24","12","03","feedback","test","null","","","na","","5","",""
"1065.5","49997","HierDy3ftq7mao","sub24","12","03","rl","test","83","img/r_t_check.png","2","83","shape,color,pattern","6","1",""
"null","51011","HierDy3ftq7mao","sub24","12","03","feedback","test","null","","","na","","6","",""
"1418.2999999523163","52432","HierDy3ftq7mao","sub24","12","03","rl","test","74","img/b_d_stripes.png","7","75","shape,color,pattern","7","0",""
"null","53441","HierDy3ftq7mao","sub24","12","03","feedback","test","null","","","na","","7","",""
"971.6000001430511","54415","HierDy3ftq7mao","sub24","12","03","rl","test","68","img/b_t_stripes.png","3","68","shape,color,pattern","8","1",""
"null","55424","HierDy3ftq7mao","sub24","12","03","feedback","test","null","","","na","","8","",""
"1215.6000001430511","56642","HierDy3ftq7mao","sub24","12","03","rl","test","83","img/r_t_check.png","2","83","shape,color,pattern","9","1",""
"null","57648","HierDy3ftq7mao","sub24","12","03","feedback","test","null","","","na","","9","",""
"1217.3999998569489","58868","HierDy3ftq7mao","sub24","12","03","rl","test","65","img/r_t_stripes.png","1","65","shape,color,pattern","10","1",""
"null","59875","HierDy3ftq7mao","sub24","12","03","feedback","test","null","","","na","","10","",""
"1029.5","60907","HierDy3ftq7mao","sub24","12","03","rl","test","68","img/b_t_stripes.png","3","68","shape,color,pattern","11","1",""
"null","61911","HierDy3ftq7mao","sub24","12","03","feedback","test","null","","","na","","11","",""
"2452.300000190735","64365","HierDy3ftq7mao","sub24","12","03","rl","test","76","img/b_d_stripes.png","7","75","shape,color,pattern","12","0",""
"null","65379","HierDy3ftq7mao","sub24","12","03","feedback","test","null","","","na","","12","",""
"481.2999999523163","65862","HierDy3ftq7mao","sub24","12","03","rl","test","75","img/b_d_check.png","8","76","shape,color,pattern","13","0",""
"null","66874","HierDy3ftq7mao","sub24","12","03","feedback","test","null","","","na","","13","",""
"1341.3999998569489","68217","HierDy3ftq7mao","sub24","12","03","rl","test","72","img/r_d_stripes.png","5","72","shape,color,pattern","14","1",""
"null","69226","HierDy3ftq7mao","sub24","12","03","feedback","test","null","","","na","","14","",""
"717.5999999046326","69945","HierDy3ftq7mao","sub24","12","03","rl","test","72","img/r_d_stripes.png","5","72","shape,color,pattern","15","1",""
"null","70955","HierDy3ftq7mao","sub24","12","03","feedback","test","null","","","na","","15","",""
"813.2000000476837","71770","HierDy3ftq7mao","sub24","12","03","rl","test","74","img/r_d_check.png","6","74","shape,color,pattern","16","1",""
"null","72777","HierDy3ftq7mao","sub24","12","03","feedback","test","null","","","na","","16","",""
"1032.4000000953674","73811","HierDy3ftq7mao","sub24","12","03","rl","test","76","img/b_d_check.png","8","76","shape,color,pattern","17","1",""
"null","74814","HierDy3ftq7mao","sub24","12","03","feedback","test","null","","","na","","17","",""
"1577.5999999046326","76394","HierDy3ftq7mao","sub24","12","03","rl","test","83","img/r_t_check.png","2","83","shape,color,pattern","18","1",""
"null","77399","HierDy3ftq7mao","sub24","12","03","feedback","test","null","","","na","","18","",""
"1076.5","78477","HierDy3ftq7mao","sub24","12","03","rl","test","70","img/b_t_check.png","4","70","shape,color,pattern","19","1",""
"null","79490","HierDy3ftq7mao","sub24","12","03","feedback","test","null","","","na","","19","",""
"2405.2000000476837","81897","HierDy3ftq7mao","sub24","12","03","rl","test","75","img/b_d_stripes.png","7","75","shape,color,pattern","20","1",""
"null","82904","HierDy3ftq7mao","sub24","12","03","feedback","test","null","","","na","","20","",""
"975.2999999523163","83881","HierDy3ftq7mao","sub24","12","03","rl","test","70","img/b_t_check.png","4","70","shape,color,pattern","21","1",""
"null","84891","HierDy3ftq7mao","sub24","12","03","feedback","test","null","","","na","","21","",""
"1471.8000001907349","86364","HierDy3ftq7mao","sub24","12","03","rl","test","74","img/r_d_check.png","6","74","shape,color,pattern","22","1",""
"null","87374","HierDy3ftq7mao","sub24","12","03","feedback","test","null","","","na","","22","",""
"1697.2000000476837","89074","HierDy3ftq7mao","sub24","12","03","rl","test","83","img/r_t_check.png","2","83","shape,color,pattern","23","1",""
"null","90081","HierDy3ftq7mao","sub24","12","03","feedback","test","null","","","na","","23","",""
"424.39999985694885","90507","HierDy3ftq7mao","sub24","12","03","rl","test","65","img/r_t_stripes.png","1","65","shape,color,pattern","24","1",""
"null","91510","HierDy3ftq7mao","sub24","12","03","feedback","test","null","","","na","","24","",""
"741.5","92253","HierDy3ftq7mao","sub24","12","03","rl","test","68","img/b_t_stripes.png","3","68","shape,color,pattern","25","1",""
"null","93262","HierDy3ftq7mao","sub24","12","03","feedback","test","null","","","na","","25","",""
"879.6000001430511","94144","HierDy3ftq7mao","sub24","12","03","rl","test","68","img/b_t_stripes.png","3","68","shape,color,pattern","26","1",""
"null","95150","HierDy3ftq7mao","sub24","12","03","feedback","test","null","","","na","","26","",""
"null","97658","HierDy3ftq7mao","sub24","12","03","rl","test","null","img/b_d_stripes.png","7","75","shape,color,pattern","27","0",""
"null","98662","HierDy3ftq7mao","sub24","12","03","feedback","test","null","","","na","","27","",""
"866.4000000953674","99530","HierDy3ftq7mao","sub24","12","03","rl","test","76","img/b_d_check.png","8","76","shape,color,pattern","28","1",""
"null","100537","HierDy3ftq7mao","sub24","12","03","feedback","test","null","","","na","","28","",""
"1188.1000001430511","101727","HierDy3ftq7mao","sub24","12","03","rl","test","65","img/r_t_stripes.png","1","65","shape,color,pattern","29","1",""
"null","102734","HierDy3ftq7mao","sub24","12","03","feedback","test","null","","","na","","29","",""
"1595.3999998569489","104331","HierDy3ftq7mao","sub24","12","03","rl","test","72","img/r_d_stripes.png","5","72","shape,color,pattern","30","1",""
"null","105345","HierDy3ftq7mao","sub24","12","03","feedback","test","null","","","na","","30","",""
"982.0999999046326","106329","HierDy3ftq7mao","sub24","12","03","rl","test","70","img/b_t_check.png","4","70","shape,color,pattern","31","1",""
"null","107338","HierDy3ftq7mao","sub24","12","03","feedback","test","null","","","na","","31","",""
"1358.2000000476837","108698","HierDy3ftq7mao","sub24","12","03","rl","test","74","img/r_d_check.png","6","74","shape,color,pattern","32","1",""
"null","109702","HierDy3ftq7mao","sub24","12","03","feedback","test","null","","","na","","32","",""
"1023.8999998569489","110728","HierDy3ftq7mao","sub24","12","03","rl","test","70","img/b_t_check.png","4","70","shape,color,pattern","33","1",""
"null","111737","HierDy3ftq7mao","sub24","12","03","feedback","test","null","","","na","","33","",""
"1180","112918","HierDy3ftq7mao","sub24","12","03","rl","test","68","img/b_t_stripes.png","3","68","shape,color,pattern","34","1",""
"null","113928","HierDy3ftq7mao","sub24","12","03","feedback","test","null","","","na","","34","",""
"1093.7000000476837","115024","HierDy3ftq7mao","sub24","12","03","rl","test","83","img/r_t_check.png","2","83","shape,color,pattern","35","1",""
"null","116032","HierDy3ftq7mao","sub24","12","03","feedback","test","null","","","na","","35","",""
"966.2999999523163","117000","HierDy3ftq7mao","sub24","12","03","rl","test","65","img/r_t_stripes.png","1","65","shape,color,pattern","36","1",""
"null","118007","HierDy3ftq7mao","sub24","12","03","feedback","test","null","","","na","","36","",""
"892.7999999523163","118902","HierDy3ftq7mao","sub24","12","03","rl","test","65","img/r_t_stripes.png","1","65","shape,color,pattern","37","1",""
"null","119910","HierDy3ftq7mao","sub24","12","03","feedback","test","null","","","na","","37","",""
"1543.9000000953674","121456","HierDy3ftq7mao","sub24","12","03","rl","test","74","img/r_d_check.png","6","74","shape,color,pattern","38","1",""
"null","122461","HierDy3ftq7mao","sub24","12","03","feedback","test","null","","","na","","38","",""
"954.7999999523163","123418","HierDy3ftq7mao","sub24","12","03","rl","test","76","img/b_d_check.png","8","76","shape,color,pattern","39","1",""
"null","124423","HierDy3ftq7mao","sub24","12","03","feedback","test","null","","","na","","39","",""
"812.4000000953674","125237","HierDy3ftq7mao","sub24","12","03","rl","test","75","img/b_d_stripes.png","7","75","shape,color,pattern","40","1",""
"null","126246","HierDy3ftq7mao","sub24","12","03","feedback","test","null","","","na","","40","",""
"1258.2000000476837","127506","HierDy3ftq7mao","sub24","12","03","rl","test","74","img/r_d_check.png","6","74","shape,color,pattern","41","1",""
"null","128509","HierDy3ftq7mao","sub24","12","03","feedback","test","null","","","na","","41","",""
"1168.7999999523163","129679","HierDy3ftq7mao","sub24","12","03","rl","test","76","img/b_d_stripes.png","7","75","shape,color,pattern","42","0",""
"null","130686","HierDy3ftq7mao","sub24","12","03","feedback","test","null","","","na","","42","",""
"801.7000000476837","131490","HierDy3ftq7mao","sub24","12","03","rl","test","68","img/b_t_stripes.png","3","68","shape,color,pattern","43","1",""
"null","132494","HierDy3ftq7mao","sub24","12","03","feedback","test","null","","","na","","43","",""
"922.2999999523163","133418","HierDy3ftq7mao","sub24","12","03","rl","test","72","img/r_d_stripes.png","5","72","shape,color,pattern","44","1",""
"null","134425","HierDy3ftq7mao","sub24","12","03","feedback","test","null","","","na","","44","",""
"1288.7999999523163","135716","HierDy3ftq7mao","sub24","12","03","rl","test","76","img/b_d_check.png","8","76","shape,color,pattern","45","1",""
"null","136729","HierDy3ftq7mao","sub24","12","03","feedback","test","null","","","na","","45","",""
"1309.3000001907349","138040","HierDy3ftq7mao","sub24","12","03","rl","test","70","img/b_t_check.png","4","70","shape,color,pattern","46","1",""
"null","139047","HierDy3ftq7mao","sub24","12","03","feedback","test","null","","","na","","46","",""
"995.7999999523163","140045","HierDy3ftq7mao","sub24","12","03","rl","test","68","img/b_t_stripes.png","3","68","shape,color,pattern","47","1",""
"null","141057","HierDy3ftq7mao","sub24","12","03","feedback","test","null","","","na","","47","",""
"1011.7000000476837","142071","HierDy3ftq7mao","sub24","12","03","rl","test","72","img/r_d_stripes.png","5","72","shape,color,pattern","48","1",""
"null","143081","HierDy3ftq7mao","sub24","12","03","feedback","test","null","","","na","","48","",""
"1091.2000000476837","144174","HierDy3ftq7mao","sub24","12","03","rl","test","70","img/b_t_check.png","4","70","shape,color,pattern","49","1",""
"null","145183","HierDy3ftq7mao","sub24","12","03","feedback","test","null","","","na","","49","",""
"1712.3000001907349","146897","HierDy3ftq7mao","sub24","12","03","rl","test","83","img/r_t_check.png","2","83","shape,color,pattern","50","1",""
"null","147902","HierDy3ftq7mao","sub24","12","03","feedback","test","null","","","na","","50","",""
"1188","149092","HierDy3ftq7mao","sub24","12","03","rl","test","74","img/r_d_check.png","6","74","shape,color,pattern","51","1",""
"null","150101","HierDy3ftq7mao","sub24","12","03","feedback","test","null","","","na","","51","",""
"892.3999998569489","150995","HierDy3ftq7mao","sub24","12","03","rl","test","65","img/r_t_stripes.png","1","65","shape,color,pattern","52","1",""
"null","152009","HierDy3ftq7mao","sub24","12","03","feedback","test","null","","","na","","52","",""
"2002.9000000953674","154014","HierDy3ftq7mao","sub24","12","03","rl","test","76","img/b_d_check.png","8","76","shape,color,pattern","53","1",""
"null","155024","HierDy3ftq7mao","sub24","12","03","feedback","test","null","","","na","","53","",""
"1072.8000001907349","156099","HierDy3ftq7mao","sub24","12","03","rl","test","75","img/b_d_stripes.png","7","75","shape,color,pattern","54","1",""
"null","157113","HierDy3ftq7mao","sub24","12","03","feedback","test","null","","","na","","54","",""
"864.1000001430511","157979","HierDy3ftq7mao","sub24","12","03","rl","test","72","img/r_d_stripes.png","5","72","shape,color,pattern","55","1",""
"null","158993","HierDy3ftq7mao","sub24","12","03","feedback","test","null","","","na","","55","",""
"493.39999985694885","159488","HierDy3ftq7mao","sub24","12","03","rl","test","74","img/r_d_check.png","6","74","shape,color,pattern","56","1",""
"null","160494","HierDy3ftq7mao","sub24","12","03","feedback","test","null","","","na","","56","",""
"1462.7000000476837","161959","HierDy3ftq7mao","sub24","12","03","rl","test","83","img/r_t_check.png","2","83","shape,color,pattern","57","1",""
"null","162964","HierDy3ftq7mao","sub24","12","03","feedback","test","null","","","na","","57","",""
"788.2000000476837","163754","HierDy3ftq7mao","sub24","12","03","rl","test","70","img/b_t_check.png","4","70","shape,color,pattern","58","1",""
"null","164767","HierDy3ftq7mao","sub24","12","03","feedback","test","null","","","na","","58","",""
"797.1000001430511","165566","HierDy3ftq7mao","sub24","12","03","rl","test","70","img/r_t_check.png","2","83","shape,color,pattern","59","0",""
"null","166573","HierDy3ftq7mao","sub24","12","03","feedback","test","null","","","na","","59","",""
"2283.699999809265","168859","HierDy3ftq7mao","sub24","12","03","rl","test","75","img/b_d_stripes.png","7","75","shape,color,pattern","60","1",""
"null","169868","HierDy3ftq7mao","sub24","12","03","feedback","test","null","","","na","","60","",""
"649.8000001907349","170520","HierDy3ftq7mao","sub24","12","03","rl","test","76","img/b_d_check.png","8","76","shape,color,pattern","61","1",""
"null","171527","HierDy3ftq7mao","sub24","12","03","feedback","test","null","","","na","","61","",""
"852.7999999523163","172381","HierDy3ftq7mao","sub24","12","03","rl","test","68","img/b_t_stripes.png","3","68","shape,color,pattern","62","1",""
"null","173388","HierDy3ftq7mao","sub24","12","03","feedback","test","null","","","na","","62","",""
"1023","174413","HierDy3ftq7mao","sub24","12","03","rl","test","65","img/r_t_stripes.png","1","65","shape,color,pattern","63","1",""
"null","175419","HierDy3ftq7mao","sub24","12","03","feedback","test","null","","","na","","63","",""
"944.0999999046326","176366","HierDy3ftq7mao","sub24","12","03","rl","test","72","img/r_d_stripes.png","5","72","shape,color,pattern","64","1",""
"null","177376","HierDy3ftq7mao","sub24","12","03","feedback","test","null","","","na","","64","",""
"938.5999999046326","178317","HierDy3ftq7mao","sub24","12","03","rl","test","72","img/r_d_stripes.png","5","72","shape,color,pattern","65","1",""
"null","179324","HierDy3ftq7mao","sub24","12","03","feedback","test","null","","","na","","65","",""
"1398.2999999523163","180724","HierDy3ftq7mao","sub24","12","03","rl","test","74","img/r_d_check.png","6","74","shape,color,pattern","66","1",""
"null","181733","HierDy3ftq7mao","sub24","12","03","feedback","test","null","","","na","","66","",""
"1388.1000001430511","183123","HierDy3ftq7mao","sub24","12","03","rl","test","65","img/r_t_stripes.png","1","65","shape,color,pattern","67","1",""
"null","184136","HierDy3ftq7mao","sub24","12","03","feedback","test","null","","","na","","67","",""
"1741.7000000476837","185880","HierDy3ftq7mao","sub24","12","03","rl","test","72","img/r_d_stripes.png","5","72","shape,color,pattern","68","1",""
"null","186884","HierDy3ftq7mao","sub24","12","03","feedback","test","null","","","na","","68","",""
"903","187788","HierDy3ftq7mao","sub24","12","03","rl","test","70","img/b_t_check.png","4","70","shape,color,pattern","69","1",""
"null","188797","HierDy3ftq7mao","sub24","12","03","feedback","test","null","","","na","","69","",""
"1755.5","190555","HierDy3ftq7mao","sub24","12","03","rl","test","76","img/b_d_check.png","8","76","shape,color,pattern","70","1",""
"null","191564","HierDy3ftq7mao","sub24","12","03","feedback","test","null","","","na","","70","",""
"1616.9000000953674","193183","HierDy3ftq7mao","sub24","12","03","rl","test","83","img/r_t_check.png","2","83","shape,color,pattern","71","1",""
"null","194191","HierDy3ftq7mao","sub24","12","03","feedback","test","null","","","na","","71","",""
"1061.5999999046326","195255","HierDy3ftq7mao","sub24","12","03","rl","test","65","img/r_t_stripes.png","1","65","shape,color,pattern","72","1",""
"null","196263","HierDy3ftq7mao","sub24","12","03","feedback","test","null","","","na","","72","",""
"1586.3999998569489","197851","HierDy3ftq7mao","sub24","12","03","rl","test","75","img/b_d_stripes.png","7","75","shape,color,pattern","73","1",""
"null","198863","HierDy3ftq7mao","sub24","12","03","feedback","test","null","","","na","","73","",""
"897.6000001430511","199762","HierDy3ftq7mao","sub24","12","03","rl","test","68","img/b_t_stripes.png","3","68","shape,color,pattern","74","1",""
"null","200775","HierDy3ftq7mao","sub24","12","03","feedback","test","null","","","na","","74","",""
"754.1000001430511","201532","HierDy3ftq7mao","sub24","12","03","rl","test","68","img/b_t_stripes.png","3","68","shape,color,pattern","75","1",""
"null","202541","HierDy3ftq7mao","sub24","12","03","feedback","test","null","","","na","","75","",""
"1232.2999999523163","203775","HierDy3ftq7mao","sub24","12","03","rl","test","75","img/b_d_stripes.png","7","75","shape,color,pattern","76","1",""
"null","204783","HierDy3ftq7mao","sub24","12","03","feedback","test","null","","","na","","76","",""
"886.7999999523163","205672","HierDy3ftq7mao","sub24","12","03","rl","test","70","img/b_t_check.png","4","70","shape,color,pattern","77","1",""
"null","206685","HierDy3ftq7mao","sub24","12","03","feedback","test","null","","","na","","77","",""
"1259.7999999523163","207947","HierDy3ftq7mao","sub24","12","03","rl","test","83","img/r_t_check.png","2","83","shape,color,pattern","78","1",""
"null","208956","HierDy3ftq7mao","sub24","12","03","feedback","test","null","","","na","","78","",""
"1519.1999998092651","210478","HierDy3ftq7mao","sub24","12","03","rl","test","74","img/r_d_check.png","6","74","shape,color,pattern","79","1",""
"null","211483","HierDy3ftq7mao","sub24","12","03","feedback","test","null","","","na","","79","",""
"2398.7000000476837","213883","HierDy3ftq7mao","sub24","12","03","rl","test","75","img/b_d_check.png","8","76","shape,color,pattern","80","0",""
"null","214893","HierDy3ftq7mao","sub24","12","03","feedback","test","null","","","na","","80","",""
"1284.8999998569489","216180","HierDy3ftq7mao","sub24","12","03","rl","test","70","img/b_t_check.png","4","70","shape,color,pattern","81","1",""
"null","217187","HierDy3ftq7mao","sub24","12","03","feedback","test","null","","","na","","81","",""
"710.2999999523163","217900","HierDy3ftq7mao","sub24","12","03","rl","test","72","img/r_d_stripes.png","5","72","shape,color,pattern","82","1",""
"null","218907","HierDy3ftq7mao","sub24","12","03","feedback","test","null","","","na","","82","",""
"1562.7000000476837","220472","HierDy3ftq7mao","sub24","12","03","rl","test","83","img/r_t_check.png","2","83","shape,color,pattern","83","1",""
"null","221475","HierDy3ftq7mao","sub24","12","03","feedback","test","null","","","na","","83","",""
"833","222310","HierDy3ftq7mao","sub24","12","03","rl","test","72","img/r_d_stripes.png","5","72","shape,color,pattern","84","1",""
"null","223318","HierDy3ftq7mao","sub24","12","03","feedback","test","null","","","na","","84","",""
"817.6000001430511","224138","HierDy3ftq7mao","sub24","12","03","rl","test","74","img/r_d_check.png","6","74","shape,color,pattern","85","1",""
"null","225146","HierDy3ftq7mao","sub24","12","03","feedback","test","null","","","na","","85","",""
"1013.3000001907349","226162","HierDy3ftq7mao","sub24","12","03","rl","test","68","img/b_t_stripes.png","3","68","shape,color,pattern","86","1",""
"null","227173","HierDy3ftq7mao","sub24","12","03","feedback","test","null","","","na","","86","",""
"1170.5","228345","HierDy3ftq7mao","sub24","12","03","rl","test","65","img/r_t_stripes.png","1","65","shape,color,pattern","87","1",""
"null","229354","HierDy3ftq7mao","sub24","12","03","feedback","test","null","","","na","","87","",""
"855.5999999046326","230212","HierDy3ftq7mao","sub24","12","03","rl","test","65","img/r_t_stripes.png","1","65","shape,color,pattern","88","1",""
"null","231223","HierDy3ftq7mao","sub24","12","03","feedback","test","null","","","na","","88","",""
"1606.7999999523163","232831","HierDy3ftq7mao","sub24","12","03","rl","test","75","img/b_d_stripes.png","7","75","shape,color,pattern","89","1",""
"null","233843","HierDy3ftq7mao","sub24","12","03","feedback","test","null","","","na","","89","",""
"1066.7000000476837","234911","HierDy3ftq7mao","sub24","12","03","rl","test","76","img/b_d_check.png","8","76","shape,color,pattern","90","1",""
"null","235917","HierDy3ftq7mao","sub24","12","03","feedback","test","null","","","na","","90","",""
"1573.2999999523163","237492","HierDy3ftq7mao","sub24","12","03","rl","test","65","img/r_t_check.png","2","83","shape,color,pattern","91","0",""
"null","238500","HierDy3ftq7mao","sub24","12","03","feedback","test","null","","","na","","91","",""
"2196.7999999523163","240699","HierDy3ftq7mao","sub24","12","03","rl","test","74","img/r_d_check.png","6","74","shape,color,pattern","92","1",""
"null","241707","HierDy3ftq7mao","sub24","12","03","feedback","test","null","","","na","","92","",""
"1253.1000001430511","242962","HierDy3ftq7mao","sub24","12","03","rl","test","70","img/b_t_check.png","4","70","shape,color,pattern","93","1",""
"null","243970","HierDy3ftq7mao","sub24","12","03","feedback","test","null","","","na","","93","",""
"1599.5999999046326","245570","HierDy3ftq7mao","sub24","12","03","rl","test","76","img/b_d_check.png","8","76","shape,color,pattern","94","1",""
"null","246581","HierDy3ftq7mao","sub24","12","03","feedback","test","null","","","na","","94","",""
"811.5","247395","HierDy3ftq7mao","sub24","12","03","rl","test","74","img/b_t_stripes.png","3","68","shape,color,pattern","95","0",""
"null","248404","HierDy3ftq7mao","sub24","12","03","feedback","test","null","","","na","","95","",""
"740.0999999046326","249146","HierDy3ftq7mao","sub24","12","03","rl","test","68","img/b_t_stripes.png","3","68","shape,color,pattern","96","1",""
"null","250158","HierDy3ftq7mao","sub24","12","03","feedback","test","null","","","na","","96","",""
"1418.7000000476837","251579","HierDy3ftq7mao","sub24","12","03","rl","test","83","img/r_t_check.png","2","83","shape,color,pattern","97","1",""
"null","252586","HierDy3ftq7mao","sub24","12","03","feedback","test","null","","","na","","97","",""
"915.1999998092651","253502","HierDy3ftq7mao","sub24","12","03","rl","test","72","img/r_d_stripes.png","5","72","shape,color,pattern","98","1",""
"null","254510","HierDy3ftq7mao","sub24","12","03","feedback","test","null","","","na","","98","",""
"1040.5999999046326","255553","HierDy3ftq7mao","sub24","12","03","rl","test","65","img/r_t_stripes.png","1","65","shape,color,pattern","99","1",""
"null","256566","HierDy3ftq7mao","sub24","12","03","feedback","test","null","","","na","","99","",""
"2275.5999999046326","258844","HierDy3ftq7mao","sub24","12","03","rl","test","75","img/b_d_stripes.png","7","75","shape,color,pattern","100","1",""
"null","259854","HierDy3ftq7mao","sub24","12","03","feedback","test","null","","","na","","100","",""
"1663.7999999523163","261520","HierDy3ftq7mao","sub24","12","03","rl","test","83","img/r_t_check.png","2","83","shape,color,pattern","101","1",""
"null","262533","HierDy3ftq7mao","sub24","12","03","feedback","test","null","","","na","","101","",""
"1094.8999998569489","263630","HierDy3ftq7mao","sub24","12","03","rl","test","75","img/b_d_stripes.png","7","75","shape,color,pattern","102","1",""
"null","264635","HierDy3ftq7mao","sub24","12","03","feedback","test","null","","","na","","102","",""
"728.4000000953674","265365","HierDy3ftq7mao","sub24","12","03","rl","test","72","img/r_d_stripes.png","5","72","shape,color,pattern","103","1",""
"null","266373","HierDy3ftq7mao","sub24","12","03","feedback","test","null","","","na","","103","",""
"1158.5","267533","HierDy3ftq7mao","sub24","12","03","rl","test","76","img/b_d_check.png","8","76","shape,color,pattern","104","1",""
"null","268542","HierDy3ftq7mao","sub24","12","03","feedback","test","null","","","na","","104","",""
"1167.2000000476837","269711","HierDy3ftq7mao","sub24","12","03","rl","test","74","img/r_d_check.png","6","74","shape,color,pattern","105","1",""
"null","270725","HierDy3ftq7mao","sub24","12","03","feedback","test","null","","","na","","105","",""
"668.6000001430511","271395","HierDy3ftq7mao","sub24","12","03","rl","test","72","img/r_d_stripes.png","5","72","shape,color,pattern","106","1",""
"null","272402","HierDy3ftq7mao","sub24","12","03","feedback","test","null","","","na","","106","",""
"1387.0999999046326","273792","HierDy3ftq7mao","sub24","12","03","rl","test","70","img/b_t_check.png","4","70","shape,color,pattern","107","1",""
"null","274802","HierDy3ftq7mao","sub24","12","03","feedback","test","null","","","na","","107","",""
"763.6000001430511","275568","HierDy3ftq7mao","sub24","12","03","rl","test","70","img/b_t_check.png","4","70","shape,color,pattern","108","1",""
"null","276581","HierDy3ftq7mao","sub24","12","03","feedback","test","null","","","na","","108","",""
"2000.3999998569489","278584","HierDy3ftq7mao","sub24","12","03","rl","test","76","img/b_d_check.png","8","76","shape,color,pattern","109","1",""
"null","279597","HierDy3ftq7mao","sub24","12","03","feedback","test","null","","","na","","109","",""
"2098.4000000953674","281697","HierDy3ftq7mao","sub24","12","03","rl","test","68","img/b_t_stripes.png","3","68","shape,color,pattern","110","1",""
"null","282707","HierDy3ftq7mao","sub24","12","03","feedback","test","null","","","na","","110","",""
"1224.5","283934","HierDy3ftq7mao","sub24","12","03","rl","test","75","img/b_d_stripes.png","7","75","shape,color,pattern","111","1",""
"null","284940","HierDy3ftq7mao","sub24","12","03","feedback","test","null","","","na","","111","",""
"2222.2000000476837","287164","HierDy3ftq7mao","sub24","12","03","rl","test","74","img/r_d_check.png","6","74","shape,color,pattern","112","1",""
"null","288169","HierDy3ftq7mao","sub24","12","03","feedback","test","null","","","na","","112","",""
"1153.2999999523163","289325","HierDy3ftq7mao","sub24","12","03","rl","test","75","img/b_d_stripes.png","7","75","shape,color,pattern","113","1",""
"null","290329","HierDy3ftq7mao","sub24","12","03","feedback","test","null","","","na","","113","",""
"1527.2999999523163","291859","HierDy3ftq7mao","sub24","12","03","rl","test","65","img/r_t_stripes.png","1","65","shape,color,pattern","114","1",""
"null","292866","HierDy3ftq7mao","sub24","12","03","feedback","test","null","","","na","","114","",""
"1706.8000001907349","294575","HierDy3ftq7mao","sub24","12","03","rl","test","76","img/b_d_check.png","8","76","shape,color,pattern","115","1",""
"null","295589","HierDy3ftq7mao","sub24","12","03","feedback","test","null","","","na","","115","",""
"1552.1000001430511","297143","HierDy3ftq7mao","sub24","12","03","rl","test","83","img/r_t_check.png","2","83","shape,color,pattern","116","1",""
"null","298153","HierDy3ftq7mao","sub24","12","03","feedback","test","null","","","na","","116","",""
"946.6000001430511","299101","HierDy3ftq7mao","sub24","12","03","rl","test","65","img/r_t_stripes.png","1","65","shape,color,pattern","117","1",""
"null","300106","HierDy3ftq7mao","sub24","12","03","feedback","test","null","","","na","","117","",""
"924.2999999523163","301033","HierDy3ftq7mao","sub24","12","03","rl","test","68","img/b_t_stripes.png","3","68","shape,color,pattern","118","1",""
"null","302040","HierDy3ftq7mao","sub24","12","03","feedback","test","null","","","na","","118","",""
"542.5","302585","HierDy3ftq7mao","sub24","12","03","rl","test","70","img/b_t_check.png","4","70","shape,color,pattern","119","1",""
"null","303594","HierDy3ftq7mao","sub24","12","03","feedback","test","null","","","na","","119","",""
"1188.5","304784","HierDy3ftq7mao","sub24","12","03","rl","test","74","img/r_d_check.png","6","74","shape,color,pattern","120","1",""
"null","305794","HierDy3ftq7mao","sub24","12","03","feedback","test","null","","","na","","120","",""
"464.2999999523163","306261","HierDy3ftq7mao","sub24","12","03","rl","test","72","img/r_d_stripes.png","5","72","shape,color,pattern","121","1",""
"null","307268","HierDy3ftq7mao","sub24","12","03","feedback","test","null","","","na","","121","",""
"1407.7000000476837","308677","HierDy3ftq7mao","sub24","12","03","rl","test","65","img/r_t_stripes.png","1","65","shape,color,pattern","122","1",""
"null","309683","HierDy3ftq7mao","sub24","12","03","feedback","test","null","","","na","","122","",""
"1650.5","311336","HierDy3ftq7mao","sub24","12","03","rl","test","75","img/b_d_stripes.png","7","75","shape,color,pattern","123","1",""
"null","312346","HierDy3ftq7mao","sub24","12","03","feedback","test","null","","","na","","123","",""
"1070.4000000953674","313418","HierDy3ftq7mao","sub24","12","03","rl","test","74","img/r_d_check.png","6","74","shape,color,pattern","124","1",""
"null","314428","HierDy3ftq7mao","sub24","12","03","feedback","test","null","","","na","","124","",""
"892.0999999046326","315323","HierDy3ftq7mao","sub24","12","03","rl","test","68","img/b_t_stripes.png","3","68","shape,color,pattern","125","1",""
"null","316331","HierDy3ftq7mao","sub24","12","03","feedback","test","null","","","na","","125","",""
"1401.2999999523163","317735","HierDy3ftq7mao","sub24","12","03","rl","test","74","img/r_d_check.png","6","74","shape,color,pattern","126","1",""
"null","318746","HierDy3ftq7mao","sub24","12","03","feedback","test","null","","","na","","126","",""
"1689.2000000476837","320438","HierDy3ftq7mao","sub24","12","03","rl","test","76","img/b_d_check.png","8","76","shape,color,pattern","127","1",""
"null","321452","HierDy3ftq7mao","sub24","12","03","feedback","test","null","","","na","","127","",""
"1346","322800","HierDy3ftq7mao","sub24","12","03","rl","test","83","img/r_t_check.png","2","83","shape,color,pattern","128","1",""
"null","323808","HierDy3ftq7mao","sub24","12","03","feedback","test","null","","","na","","128","",""
"1223.4000000953674","325034","HierDy3ftq7mao","sub24","12","03","rl","test","75","img/b_d_stripes.png","7","75","shape,color,pattern","129","1",""
"null","326040","HierDy3ftq7mao","sub24","12","03","feedback","test","null","","","na","","129","",""
"686","326728","HierDy3ftq7mao","sub24","12","03","rl","test","72","img/r_d_stripes.png","5","72","shape,color,pattern","130","1",""
"null","327738","HierDy3ftq7mao","sub24","12","03","feedback","test","null","","","na","","130","",""
"1302.8000001907349","329042","HierDy3ftq7mao","sub24","12","03","rl","test","83","img/r_t_check.png","2","83","shape,color,pattern","131","1",""
"null","330049","HierDy3ftq7mao","sub24","12","03","feedback","test","null","","","na","","131","",""
"829.0999999046326","330880","HierDy3ftq7mao","sub24","12","03","rl","test","70","img/b_t_check.png","4","70","shape,color,pattern","132","1",""
"null","331892","HierDy3ftq7mao","sub24","12","03","feedback","test","null","","","na","","132","",""
"540.5","332434","HierDy3ftq7mao","sub24","12","03","rl","test","70","img/b_t_check.png","4","70","shape,color,pattern","133","1",""
"null","333441","HierDy3ftq7mao","sub24","12","03","feedback","test","null","","","na","","133","",""
"1451.1000001430511","334894","HierDy3ftq7mao","sub24","12","03","rl","test","65","img/r_t_stripes.png","1","65","shape,color,pattern","134","1",""
"null","335908","HierDy3ftq7mao","sub24","12","03","feedback","test","null","","","na","","134","",""
"1113.2999999523163","337023","HierDy3ftq7mao","sub24","12","03","rl","test","68","img/b_t_stripes.png","3","68","shape,color,pattern","135","1",""
"null","338036","HierDy3ftq7mao","sub24","12","03","feedback","test","null","","","na","","135","",""
"1860.2999999523163","339898","HierDy3ftq7mao","sub24","12","03","rl","test","74","img/b_d_check.png","8","76","shape,color,pattern","136","0",""
"null","340905","HierDy3ftq7mao","sub24","12","03","feedback","test","null","","","na","","136","",""
"1165.1000001430511","342072","HierDy3ftq7mao","sub24","12","03","rl","test","74","img/r_d_check.png","6","74","shape,color,pattern","137","1",""
"null","343082","HierDy3ftq7mao","sub24","12","03","feedback","test","null","","","na","","137","",""
"1253.7999999523163","344338","HierDy3ftq7mao","sub24","12","03","rl","test","65","img/r_t_stripes.png","1","65","shape,color,pattern","138","1",""
"null","345344","HierDy3ftq7mao","sub24","12","03","feedback","test","null","","","na","","138","",""
"1025.6000001430511","346372","HierDy3ftq7mao","sub24","12","03","rl","test","70","img/b_t_check.png","4","70","shape,color,pattern","139","1",""
"null","347380","HierDy3ftq7mao","sub24","12","03","feedback","test","null","","","na","","139","",""
"617.4000000953674","347999","HierDy3ftq7mao","sub24","12","03","rl","test","68","img/b_t_stripes.png","3","68","shape,color,pattern","140","1",""
"null","349011","HierDy3ftq7mao","sub24","12","03","feedback","test","null","","","na","","140","",""
"689.7000000476837","349703","HierDy3ftq7mao","sub24","12","03","rl","test","70","img/b_t_check.png","4","70","shape,color,pattern","141","1",""
"null","350716","HierDy3ftq7mao","sub24","12","03","feedback","test","null","","","na","","141","",""
"1722.7000000476837","352440","HierDy3ftq7mao","sub24","12","03","rl","test","75","img/b_d_stripes.png","7","75","shape,color,pattern","142","1",""
"null","353451","HierDy3ftq7mao","sub24","12","03","feedback","test","null","","","na","","142","",""
"615.7999999523163","354069","HierDy3ftq7mao","sub24","12","03","rl","test","76","img/b_d_check.png","8","76","shape,color,pattern","143","1",""
"null","355080","HierDy3ftq7mao","sub24","12","03","feedback","test","null","","","na","","143","",""
"680.2999999523163","355762","HierDy3ftq7mao","sub24","12","03","rl","test","72","img/r_d_stripes.png","5","72","shape,color,pattern","144","1",""
"null","356770","HierDy3ftq7mao","sub24","12","03","feedback","test","null","","","na","","144","",""
"1210.7999999523163","357983","HierDy3ftq7mao","sub24","12","03","rl","test","83","img/r_t_check.png","2","83","shape,color,pattern","145","1",""
"null","358995","HierDy3ftq7mao","sub24","12","03","feedback","test","null","","","na","","145","",""
"581.2000000476837","359578","HierDy3ftq7mao","sub24","12","03","rl","test","83","img/r_t_check.png","2","83","shape,color,pattern","146","1",""
"null","360586","HierDy3ftq7mao","sub24","12","03","feedback","test","null","","","na","","146","",""
"1830.5","362419","HierDy3ftq7mao","sub24","12","03","rl","test","72","img/r_d_stripes.png","5","72","shape,color,pattern","147","1",""
"null","363423","HierDy3ftq7mao","sub24","12","03","feedback","test","null","","","na","","147","",""
"851.8999998569489","364277","HierDy3ftq7mao","sub24","12","03","rl","test","68","img/b_t_stripes.png","3","68","shape,color,pattern","148","1",""
"null","365286","HierDy3ftq7mao","sub24","12","03","feedback","test","null","","","na","","148","",""
"null","367791","HierDy3ftq7mao","sub24","12","03","rl","test","null","img/b_d_stripes.png","7","75","shape,color,pattern","149","0",""
"null","368800","HierDy3ftq7mao","sub24","12","03","feedback","test","null","","","na","","149","",""
"1010.7999999523163","369813","HierDy3ftq7mao","sub24","12","03","rl","test","74","img/r_d_check.png","6","74","shape,color,pattern","150","1",""
"null","370819","HierDy3ftq7mao","sub24","12","03","feedback","test","null","","","na","","150","",""
"903.5999999046326","371725","HierDy3ftq7mao","sub24","12","03","rl","test","76","img/b_d_check.png","8","76","shape,color,pattern","151","1",""
"null","372738","HierDy3ftq7mao","sub24","12","03","feedback","test","null","","","na","","151","",""
"1158.7000000476837","373899","HierDy3ftq7mao","sub24","12","03","rl","test","65","img/r_t_stripes.png","1","65","shape,color,pattern","152","1",""
"null","374904","HierDy3ftq7mao","sub24","12","03","feedback","test","null","","","na","","152","",""
"699.4000000953674","375606","HierDy3ftq7mao","sub24","12","03","rl","test","70","img/b_t_check.png","4","70","shape,color,pattern","153","1",""
"null","376619","HierDy3ftq7mao","sub24","12","03","feedback","test","null","","","na","","153","",""
"2174.899999856949","378796","HierDy3ftq7mao","sub24","12","03","rl","test","74","img/b_d_check.png","8","76","shape,color,pattern","154","0",""
"null","379806","HierDy3ftq7mao","sub24","12","03","feedback","test","null","","","na","","154","",""
"1835.7000000476837","381644","HierDy3ftq7mao","sub24","12","03","rl","test","65","img/r_t_check.png","2","83","shape,color,pattern","155","0",""
"null","382656","HierDy3ftq7mao","sub24","12","03","feedback","test","null","","","na","","155","",""
"2048.7000000476837","384707","HierDy3ftq7mao","sub24","12","03","rl","test","74","img/r_d_check.png","6","74","shape,color,pattern","156","1",""
"null","385713","HierDy3ftq7mao","sub24","12","03","feedback","test","null","","","na","","156","",""
"570.2000000476837","386285","HierDy3ftq7mao","sub24","12","03","rl","test","72","img/r_d_stripes.png","5","72","shape,color,pattern","157","1",""
"null","387295","HierDy3ftq7mao","sub24","12","03","feedback","test","null","","","na","","157","",""
"1148.6000001430511","388446","HierDy3ftq7mao","sub24","12","03","rl","test","75","img/b_d_stripes.png","7","75","shape,color,pattern","158","1",""
"null","389458","HierDy3ftq7mao","sub24","12","03","feedback","test","null","","","na","","158","",""
"876.6000001430511","390337","HierDy3ftq7mao","sub24","12","03","rl","test","68","img/b_t_stripes.png","3","68","shape,color,pattern","159","1",""
"null","391342","HierDy3ftq7mao","sub24","12","03","feedback","test","null","","","na","","159","",""
"1060.0999999046326","392405","HierDy3ftq7mao","sub24","12","03","rl","test","83","img/r_t_check.png","2","83","shape,color,pattern","160","1",""
"null","393415","HierDy3ftq7mao","sub24","12","03","feedback","test","null","","","na","","160","",""
"955","394372","HierDy3ftq7mao","sub24","12","03","rl","test","68","img/b_t_stripes.png","3","68","shape,color,pattern","161","1",""
"null","395382","HierDy3ftq7mao","sub24","12","03","feedback","test","null","","","na","","161","",""
"1516.5","396900","HierDy3ftq7mao","sub24","12","03","rl","test","65","img/r_t_stripes.png","1","65","shape,color,pattern","162","1",""
"null","397914","HierDy3ftq7mao","sub24","12","03","feedback","test","null","","","na","","162","",""
"699.9000000953674","398616","HierDy3ftq7mao","sub24","12","03","rl","test","65","img/r_t_stripes.png","1","65","shape,color,pattern","163","1",""
"null","399626","HierDy3ftq7mao","sub24","12","03","feedback","test","null","","","na","","163","",""
"2322.7000000476837","401951","HierDy3ftq7mao","sub24","12","03","rl","test","72","img/r_d_stripes.png","5","72","shape,color,pattern","164","1",""
"null","402962","HierDy3ftq7mao","sub24","12","03","feedback","test","null","","","na","","164","",""
"2102.2000000476837","405066","HierDy3ftq7mao","sub24","12","03","rl","test","70","img/b_t_check.png","4","70","shape,color,pattern","165","1",""
"null","406074","HierDy3ftq7mao","sub24","12","03","feedback","test","null","","","na","","165","",""
"2210.7000000476837","408287","HierDy3ftq7mao","sub24","12","03","rl","test","75","img/b_d_stripes.png","7","75","shape,color,pattern","166","1",""
"null","409293","HierDy3ftq7mao","sub24","12","03","feedback","test","null","","","na","","166","",""
"1809.8000001907349","411105","HierDy3ftq7mao","sub24","12","03","rl","test","65","img/r_t_stripes.png","1","65","shape,color,pattern","167","1",""
"null","412114","HierDy3ftq7mao","sub24","12","03","feedback","test","null","","","na","","167","",""
"1141.5","413258","HierDy3ftq7mao","sub24","12","03","rl","test","75","img/b_d_check.png","8","76","shape,color,pattern","168","0",""
"null","414266","HierDy3ftq7mao","sub24","12","03","feedback","test","null","","","na","","168","",""
"1297.2000000476837","415565","HierDy3ftq7mao","sub24","12","03","rl","test","74","img/r_d_check.png","6","74","shape,color,pattern","169","1",""
"null","416576","HierDy3ftq7mao","sub24","12","03","feedback","test","null","","","na","","169","",""
"914.9000000953674","417493","HierDy3ftq7mao","sub24","12","03","rl","test","76","img/b_d_check.png","8","76","shape,color,pattern","170","1",""
"null","418495","HierDy3ftq7mao","sub24","12","03","feedback","test","null","","","na","","170","",""
"1302.2000000476837","419800","HierDy3ftq7mao","sub24","12","03","rl","test","83","img/r_t_check.png","2","83","shape,color,pattern","171","1",""
"null","420806","HierDy3ftq7mao","sub24","12","03","feedback","test","null","","","na","","171","",""
"1876","422684","HierDy3ftq7mao","sub24","12","03","rl","test","74","img/r_d_check.png","6","74","shape,color,pattern","172","1",""
"null","423693","HierDy3ftq7mao","sub24","12","03","feedback","test","null","","","na","","172","",""
"570.6000001430511","424265","HierDy3ftq7mao","sub24","12","03","rl","test","74","img/r_d_check.png","6","74","shape,color,pattern","173","1",""
"null","425270","HierDy3ftq7mao","sub24","12","03","feedback","test","null","","","na","","173","",""
"925.2999999523163","426198","HierDy3ftq7mao","sub24","12","03","rl","test","70","img/b_t_check.png","4","70","shape,color,pattern","174","1",""
"null","427209","HierDy3ftq7mao","sub24","12","03","feedback","test","null","","","na","","174","",""
"551.2999999523163","427763","HierDy3ftq7mao","sub24","12","03","rl","test","70","img/r_t_check.png","2","83","shape,color,pattern","175","0",""
"null","428777","HierDy3ftq7mao","sub24","12","03","feedback","test","null","","","na","","175","",""
"894.3999998569489","429674","HierDy3ftq7mao","sub24","12","03","rl","test","68","img/b_t_stripes.png","3","68","shape,color,pattern","176","1",""
"null","430678","HierDy3ftq7mao","sub24","12","03","feedback","test","null","","","na","","176","",""
"1518.0999999046326","432198","HierDy3ftq7mao","sub24","12","03","rl","test","75","img/b_d_stripes.png","7","75","shape,color,pattern","177","1",""
"null","433207","HierDy3ftq7mao","sub24","12","03","feedback","test","null","","","na","","177","",""
"881","434090","HierDy3ftq7mao","sub24","12","03","rl","test","72","img/r_d_stripes.png","5","72","shape,color,pattern","178","1",""
"null","435095","HierDy3ftq7mao","sub24","12","03","feedback","test","null","","","na","","178","",""
"995.4000000953674","436093","HierDy3ftq7mao","sub24","12","03","rl","test","70","img/b_t_check.png","4","70","shape,color,pattern","179","1",""
"null","437101","HierDy3ftq7mao","sub24","12","03","feedback","test","null","","","na","","179","",""
"null","439605","HierDy3ftq7mao","sub24","12","03","rl","test","null","img/r_d_stripes.png","5","72","shape,color,pattern","180","0",""
"null","440615","HierDy3ftq7mao","sub24","12","03","feedback","test","null","","","na","","180","",""
"1090.2000000476837","441707","HierDy3ftq7mao","sub24","12","03","rl","test","75","img/b_d_stripes.png","7","75","shape,color,pattern","181","1",""
"null","442720","HierDy3ftq7mao","sub24","12","03","feedback","test","null","","","na","","181","",""
"1812","444534","HierDy3ftq7mao","sub24","12","03","rl","test","65","img/r_t_stripes.png","1","65","shape,color,pattern","182","1",""
"null","445543","HierDy3ftq7mao","sub24","12","03","feedback","test","null","","","na","","182","",""
"923.7999999523163","446469","HierDy3ftq7mao","sub24","12","03","rl","test","68","img/b_t_stripes.png","3","68","shape,color,pattern","183","1",""
"null","447476","HierDy3ftq7mao","sub24","12","03","feedback","test","null","","","na","","183","",""
"620.4000000953674","448099","HierDy3ftq7mao","sub24","12","03","rl","test","70","img/b_t_check.png","4","70","shape,color,pattern","184","1",""
"null","449113","HierDy3ftq7mao","sub24","12","03","feedback","test","null","","","na","","184","",""
"1397.5999999046326","450513","HierDy3ftq7mao","sub24","12","03","rl","test","76","img/b_d_check.png","8","76","shape,color,pattern","185","1",""
"null","451519","HierDy3ftq7mao","sub24","12","03","feedback","test","null","","","na","","185","",""
"1124.9000000953674","452646","HierDy3ftq7mao","sub24","12","03","rl","test","72","img/r_d_stripes.png","5","72","shape,color,pattern","186","1",""
"null","453655","HierDy3ftq7mao","sub24","12","03","feedback","test","null","","","na","","186","",""
"1243.6999998092651","454901","HierDy3ftq7mao","sub24","12","03","rl","test","83","img/r_t_check.png","2","83","shape,color,pattern","187","1",""
"null","455910","HierDy3ftq7mao","sub24","12","03","feedback","test","null","","","na","","187","",""
"1143.5","457056","HierDy3ftq7mao","sub24","12","03","rl","test","74","img/r_d_check.png","6","74","shape,color,pattern","188","1",""
"null","458060","HierDy3ftq7mao","sub24","12","03","feedback","test","null","","","na","","188","",""
"1077.4000000953674","459139","HierDy3ftq7mao","sub24","12","03","rl","test","68","img/b_t_stripes.png","3","68","shape,color,pattern","189","1",""
"null","460153","HierDy3ftq7mao","sub24","12","03","feedback","test","null","","","na","","189","",""
"1301.7999999523163","461457","HierDy3ftq7mao","sub24","12","03","rl","test","65","img/r_t_stripes.png","1","65","shape,color,pattern","190","1",""
"null","462464","HierDy3ftq7mao","sub24","12","03","feedback","test","null","","","na","","190","",""
"1881.5","464347","HierDy3ftq7mao","sub24","12","03","rl","test","75","img/b_d_stripes.png","7","75","shape,color,pattern","191","1",""
"null","465360","HierDy3ftq7mao","sub24","12","03","feedback","test","null","","","na","","191","",""
"868.2000000476837","466231","HierDy3ftq7mao","sub24","12","03","rl","test","76","img/b_d_check.png","8","76","shape,color,pattern","192","1",""
"null","467238","HierDy3ftq7mao","sub24","12","03","feedback","test","null","","","na","","192","",""
"1006.6000001430511","468247","HierDy3ftq7mao","sub24","12","03","rl","test","76","img/b_d_check.png","8","76","shape,color,pattern","193","1",""
"null","469253","HierDy3ftq7mao","sub24","12","03","feedback","test","null","","","na","","193","",""
"847.7000000476837","470103","HierDy3ftq7mao","sub24","12","03","rl","test","75","img/b_d_stripes.png","7","75","shape,color,pattern","194","1",""
"null","471112","HierDy3ftq7mao","sub24","12","03","feedback","test","null","","","na","","194","",""
"927.7000000476837","472042","HierDy3ftq7mao","sub24","12","03","rl","test","68","img/b_t_stripes.png","3","68","shape,color,pattern","195","1",""
"null","473052","HierDy3ftq7mao","sub24","12","03","feedback","test","null","","","na","","195","",""
"1111.1000001430511","474165","HierDy3ftq7mao","sub24","12","03","rl","test","72","img/r_d_stripes.png","5","72","shape,color,pattern","196","1",""
"null","475172","HierDy3ftq7mao","sub24","12","03","feedback","test","null","","","na","","196","",""
"900.8999998569489","476075","HierDy3ftq7mao","sub24","12","03","rl","test","70","img/b_t_check.png","4","70","shape,color,pattern","197","1",""
"null","477084","HierDy3ftq7mao","sub24","12","03","feedback","test","null","","","na","","197","",""
"1477.3999998569489","478563","HierDy3ftq7mao","sub24","12","03","rl","test","83","img/r_t_check.png","2","83","shape,color,pattern","198","1",""
"null","479576","HierDy3ftq7mao","sub24","12","03","feedback","test","null","","","na","","198","",""
"742.3999998569489","480321","HierDy3ftq7mao","sub24","12","03","rl","test","65","img/r_t_stripes.png","1","65","shape,color,pattern","199","1",""
"null","481328","HierDy3ftq7mao","sub24","12","03","feedback","test","null","","","na","","199","",""
"2128.7999999523163","483459","HierDy3ftq7mao","sub24","12","03","rl","test","74","img/r_d_check.png","6","74","shape,color,pattern","200","1",""
"null","484471","HierDy3ftq7mao","sub24","12","03","feedback","test","null","","","na","","200","",""
"527.7999999523163","485001","HierDy3ftq7mao","sub24","12","03","rl","test","72","img/r_d_stripes.png","5","72","shape,color,pattern","201","1",""
"null","486012","HierDy3ftq7mao","sub24","12","03","feedback","test","null","","","na","","201","",""
"1153.0999999046326","487167","HierDy3ftq7mao","sub24","12","03","rl","test","75","img/b_d_stripes.png","7","75","shape,color,pattern","202","1",""
"null","488172","HierDy3ftq7mao","sub24","12","03","feedback","test","null","","","na","","202","",""
"784","488958","HierDy3ftq7mao","sub24","12","03","rl","test","74","img/r_d_check.png","6","74","shape,color,pattern","203","1",""
"null","489968","HierDy3ftq7mao","sub24","12","03","feedback","test","null","","","na","","203","",""
"1037.7999999523163","491008","HierDy3ftq7mao","sub24","12","03","rl","test","65","img/r_t_stripes.png","1","65","shape,color,pattern","204","1",""
"null","492014","HierDy3ftq7mao","sub24","12","03","feedback","test","null","","","na","","204","",""
"1092.9000000953674","493110","HierDy3ftq7mao","sub24","12","03","rl","test","83","img/r_t_check.png","2","83","shape,color,pattern","205","1",""
"null","494120","HierDy3ftq7mao","sub24","12","03","feedback","test","null","","","na","","205","",""
"null","496628","HierDy3ftq7mao","sub24","12","03","rl","test","null","img/b_d_check.png","8","76","shape,color,pattern","206","0",""
"null","497636","HierDy3ftq7mao","sub24","12","03","feedback","test","null","","","na","","206","",""
"1647.4000000953674","499285","HierDy3ftq7mao","sub24","12","03","rl","test","83","img/r_t_check.png","2","83","shape,color,pattern","207","1",""
"null","500292","HierDy3ftq7mao","sub24","12","03","feedback","test","null","","","na","","207","",""
"1153.2000000476837","501448","HierDy3ftq7mao","sub24","12","03","rl","test","70","img/b_t_check.png","4","70","shape,color,pattern","208","1",""
"null","502454","HierDy3ftq7mao","sub24","12","03","feedback","test","null","","","na","","208","",""
"472.7000000476837","502929","HierDy3ftq7mao","sub24","12","03","rl","test","68","img/b_t_stripes.png","3","68","shape,color,pattern","209","1",""
"null","503941","HierDy3ftq7mao","sub24","12","03","feedback","test","null","","","na","","209","",""
"807.7000000476837","504751","HierDy3ftq7mao","sub24","12","03","rl","test","68","img/b_t_stripes.png","3","68","shape,color,pattern","210","1",""
"null","505758","HierDy3ftq7mao","sub24","12","03","feedback","test","null","","","na","","210","",""
"1316.7000000476837","507077","HierDy3ftq7mao","sub24","12","03","rl","test","83","img/r_t_check.png","2","83","shape,color,pattern","211","1",""
"null","508087","HierDy3ftq7mao","sub24","12","03","feedback","test","null","","","na","","211","",""
"1353","509442","HierDy3ftq7mao","sub24","12","03","rl","test","76","img/b_d_check.png","8","76","shape,color,pattern","212","1",""
"null","510455","HierDy3ftq7mao","sub24","12","03","feedback","test","null","","","na","","212","",""
"1244.9000000953674","511702","HierDy3ftq7mao","sub24","12","03","rl","test","65","img/r_t_stripes.png","1","65","shape,color,pattern","213","1",""
"null","512708","HierDy3ftq7mao","sub24","12","03","feedback","test","null","","","na","","213","",""
"1192.3999998569489","513902","HierDy3ftq7mao","sub24","12","03","rl","test","75","img/b_d_stripes.png","7","75","shape,color,pattern","214","1",""
"null","514910","HierDy3ftq7mao","sub24","12","03","feedback","test","null","","","na","","214","",""
"727.1000001430511","515639","HierDy3ftq7mao","sub24","12","03","rl","test","72","img/r_d_stripes.png","5","72","shape,color,pattern","215","1",""
"null","516647","HierDy3ftq7mao","sub24","12","03","feedback","test","null","","","na","","215","",""
"776.2000000476837","517425","HierDy3ftq7mao","sub24","12","03","rl","test","76","img/b_d_check.png","8","76","shape,color,pattern","216","1",""
"null","518435","HierDy3ftq7mao","sub24","12","03","feedback","test","null","","","na","","216","",""
"816.7999999523163","519254","HierDy3ftq7mao","sub24","12","03","rl","test","70","img/b_t_check.png","4","70","shape,color,pattern","217","1",""
"null","520262","HierDy3ftq7mao","sub24","12","03","feedback","test","null","","","na","","217","",""
"1099.6000001430511","521364","HierDy3ftq7mao","sub24","12","03","rl","test","74","img/r_d_check.png","6","74","shape,color,pattern","218","1",""
"null","522374","HierDy3ftq7mao","sub24","12","03","feedback","test","null","","","na","","218","",""
"566.8999998569489","522943","HierDy3ftq7mao","sub24","12","03","rl","test","74","img/r_d_check.png","6","74","shape,color,pattern","219","1",""
"null","523947","HierDy3ftq7mao","sub24","12","03","feedback","test","null","","","na","","219","",""
"1014.4000000953674","524963","HierDy3ftq7mao","sub24","12","03","rl","test","70","img/b_t_check.png","4","70","shape,color,pattern","220","1",""
"null","525972","HierDy3ftq7mao","sub24","12","03","feedback","test","null","","","na","","220","",""
"816.7999999523163","526791","HierDy3ftq7mao","sub24","12","03","rl","test","65","img/r_t_stripes.png","1","65","shape,color,pattern","221","1",""
"null","527795","HierDy3ftq7mao","sub24","12","03","feedback","test","null","","","na","","221","",""
"1223.2999999523163","529021","HierDy3ftq7mao","sub24","12","03","rl","test","70","img/b_t_check.png","4","70","shape,color,pattern","222","1",""
"null","530031","HierDy3ftq7mao","sub24","12","03","feedback","test","null","","","na","","222","",""
"924.2999999523163","530957","HierDy3ftq7mao","sub24","12","03","rl","test","68","img/b_t_stripes.png","3","68","shape,color,pattern","223","1",""
"null","531965","HierDy3ftq7mao","sub24","12","03","feedback","test","null","","","na","","223","",""
"1552.9000000953674","533520","HierDy3ftq7mao","sub24","12","03","rl","test","75","img/b_d_stripes.png","7","75","shape,color,pattern","224","1",""
"null","534535","HierDy3ftq7mao","sub24","12","03","feedback","test","null","","","na","","224","",""
"1480.9000000953674","536018","HierDy3ftq7mao","sub24","12","03","rl","test","72","img/r_d_stripes.png","5","72","shape,color,pattern","225","1",""
"null","537029","HierDy3ftq7mao","sub24","12","03","feedback","test","null","","","na","","225","",""
"1859.7000000476837","538891","HierDy3ftq7mao","sub24","12","03","rl","test","83","img/r_t_check.png","2","83","shape,color,pattern","226","1",""
"null","539900","HierDy3ftq7mao","sub24","12","03","feedback","test","null","","","na","","226","",""
"845.4000000953674","540748","HierDy3ftq7mao","sub24","12","03","rl","test","68","img/b_t_stripes.png","3","68","shape,color,pattern","227","1",""
"null","541754","HierDy3ftq7mao","sub24","12","03","feedback","test","null","","","na","","227","",""
"2204.5","543961","HierDy3ftq7mao","sub24","12","03","rl","test","76","img/b_d_check.png","8","76","shape,color,pattern","228","1",""
"null","544970","HierDy3ftq7mao","sub24","12","03","feedback","test","null","","","na","","228","",""
"502.2000000476837","545475","HierDy3ftq7mao","sub24","12","03","rl","test","75","img/b_d_stripes.png","7","75","shape,color,pattern","229","1",""
"null","546482","HierDy3ftq7mao","sub24","12","03","feedback","test","null","","","na","","229","",""
"795.5","547279","HierDy3ftq7mao","sub24","12","03","rl","test","74","img/r_d_check.png","6","74","shape,color,pattern","230","1",""
"null","548282","HierDy3ftq7mao","sub24","12","03","feedback","test","null","","","na","","230","",""
"554.6000001430511","548839","HierDy3ftq7mao","sub24","12","03","rl","test","72","img/r_d_stripes.png","5","72","shape,color,pattern","231","1",""
"null","549854","HierDy3ftq7mao","sub24","12","03","feedback","test","null","","","na","","231","",""
"586.8999998569489","550443","HierDy3ftq7mao","sub24","12","03","rl","test","74","img/r_d_check.png","6","74","shape,color,pattern","232","1",""
"null","551450","HierDy3ftq7mao","sub24","12","03","feedback","test","null","","","na","","232","",""
"1551.9000000953674","553004","HierDy3ftq7mao","sub24","12","03","rl","test","83","img/r_t_check.png","2","83","shape,color,pattern","233","1",""
"null","554013","HierDy3ftq7mao","sub24","12","03","feedback","test","null","","","na","","233","",""
"1023.7000000476837","555038","HierDy3ftq7mao","sub24","12","03","rl","test","65","img/r_t_stripes.png","1","65","shape,color,pattern","234","1",""
"null","556044","HierDy3ftq7mao","sub24","12","03","feedback","test","null","","","na","","234","",""
"642.5","556689","HierDy3ftq7mao","sub24","12","03","rl","test","65","img/r_t_stripes.png","1","65","shape,color,pattern","235","1",""
"null","557699","HierDy3ftq7mao","sub24","12","03","feedback","test","null","","","na","","235","",""
"1745.2000000476837","559446","HierDy3ftq7mao","sub24","12","03","rl","test","76","img/b_d_check.png","8","76","shape,color,pattern","236","1",""
"null","560454","HierDy3ftq7mao","sub24","12","03","feedback","test","null","","","na","","236","",""
"941.7000000476837","561398","HierDy3ftq7mao","sub24","12","03","rl","test","70","img/b_t_check.png","4","70","shape,color,pattern","237","1",""
"null","562405","HierDy3ftq7mao","sub24","12","03","feedback","test","null","","","na","","237","",""
"997.1000001430511","563404","HierDy3ftq7mao","sub24","12","03","rl","test","65","img/r_t_stripes.png","1","65","shape,color,pattern","238","1",""
"null","564412","HierDy3ftq7mao","sub24","12","03","feedback","test","null","","","na","","238","",""
"989.2999999523163","565404","HierDy3ftq7mao","sub24","12","03","rl","test","75","img/b_d_stripes.png","7","75","shape,color,pattern","239","1",""
"null","566414","HierDy3ftq7mao","sub24","12","03","feedback","test","null","","","na","","239","",""
"1002.6999998092651","567419","HierDy3ftq7mao","sub24","12","03","rl","test","72","img/r_d_stripes.png","5","72","shape,color,pattern","240","1",""
"null","568430","HierDy3ftq7mao","sub24","12","03","feedback","test","null","","","na","","240","",""
"1232.3999998569489","569664","HierDy3ftq7mao","sub24","12","03","rl","test","68","img/b_t_stripes.png","3","68","shape,color,pattern","241","1",""
"null","570674","HierDy3ftq7mao","sub24","12","03","feedback","test","null","","","na","","241","",""
"null","573185","HierDy3ftq7mao","sub24","12","03","rl","test","null","img/b_d_check.png","8","76","shape,color,pattern","242","0",""
"null","574197","HierDy3ftq7mao","sub24","12","03","feedback","test","null","","","na","","242","",""
"1382.3999998569489","575582","HierDy3ftq7mao","sub24","12","03","rl","test","68","img/b_t_stripes.png","3","68","shape,color,pattern","243","1",""
"null","576589","HierDy3ftq7mao","sub24","12","03","feedback","test","null","","","na","","243","",""
"1155.9000000953674","577747","HierDy3ftq7mao","sub24","12","03","rl","test","75","img/b_d_stripes.png","7","75","shape,color,pattern","244","1",""
"null","578753","HierDy3ftq7mao","sub24","12","03","feedback","test","null","","","na","","244","",""
"1500.7999999523163","580256","HierDy3ftq7mao","sub24","12","03","rl","test","70","img/b_t_check.png","4","70","shape,color,pattern","245","1",""
"null","581266","HierDy3ftq7mao","sub24","12","03","feedback","test","null","","","na","","245","",""
"1131.2000000476837","582399","HierDy3ftq7mao","sub24","12","03","rl","test","83","img/r_t_check.png","2","83","shape,color,pattern","246","1",""
"null","583412","HierDy3ftq7mao","sub24","12","03","feedback","test","null","","","na","","246","",""
"1528.3999998569489","584942","HierDy3ftq7mao","sub24","12","03","rl","test","74","img/r_d_check.png","6","74","shape,color,pattern","247","1",""
"null","585952","HierDy3ftq7mao","sub24","12","03","feedback","test","null","","","na","","247","",""
"763.7000000476837","586718","HierDy3ftq7mao","sub24","12","03","rl","test","75","img/b_d_stripes.png","7","75","shape,color,pattern","248","1",""
"null","587733","HierDy3ftq7mao","sub24","12","03","feedback","test","null","","","na","","248","",""
"13971","601711","HierDy3ftq7mao","sub24","12","03","","","","","","","","","","{""Q0"":""9""}"
"33078.699999809265","634792","HierDy3ftq7mao","sub24","12","03","","","","","","","","","","{""Q0"":""I looked at the shapes and tried to remember as quickly as possible the keys associated with them""}"
"2078.0999999046326","636872","HierDy3ftq7mao","sub24","12","03","","","","","","","","","",""
