"rt","time_elapsed","subject","subID","group","day","trialType","phase","key_press","stim","stimNum","corrresp","hierarchy","trialNum","corr","responses"
"147800.00000000003","147799","HierDyju990l3k","sub05","05","3","","","","","","","","","",""
"","181498","HierDyju990l3k","sub05","05","3","fullscreen","","","","","","","","",""
"18460.00000000003","199959","HierDyju990l3k","sub05","05","3","","prac","","","","","","","",""
"1722.000000000029","201686","HierDyju990l3k","sub05","05","3","","","32","","","","","","",""
"2395","204083","HierDyju990l3k","sub05","05","3","","prac","","","","","","","",""
"null","206587","HierDyju990l3k","sub05","05","3","rl","test","null","img/p_d_diag.png","4","70","pattern,shape,color","1","0",""
"null","207591","HierDyju990l3k","sub05","05","3","feedback","test","null","","","na","","1","",""
"1949.000000000029","209543","HierDyju990l3k","sub05","05","3","rl","test","74","img/p_c_dots.png","6","74","pattern,shape,color","2","1",""
"null","210547","HierDyju990l3k","sub05","05","3","feedback","test","null","","","na","","2","",""
"1171","211721","HierDyju990l3k","sub05","05","3","rl","test","68","img/b_d_diag.png","3","68","pattern,shape,color","3","1",""
"null","212724","HierDyju990l3k","sub05","05","3","feedback","test","null","","","na","","3","",""
"1099","213826","HierDyju990l3k","sub05","05","3","rl","test","65","img/b_c_diag.png","1","65","pattern,shape,color","4","1",""
"null","214829","HierDyju990l3k","sub05","05","3","feedback","test","null","","","na","","4","",""
"1367","216199","HierDyju990l3k","sub05","05","3","rl","test","75","img/b_d_dots.png","7","75","pattern,shape,color","5","1",""
"null","217202","HierDyju990l3k","sub05","05","3","feedback","test","null","","","na","","5","",""
"1591","218796","HierDyju990l3k","sub05","05","3","rl","test","72","img/b_c_dots.png","5","72","pattern,shape,color","6","1",""
"null","219799","HierDyju990l3k","sub05","05","3","feedback","test","null","","","na","","6","",""
"1089","220890","HierDyju990l3k","sub05","05","3","rl","test","83","img/p_c_diag.png","2","83","pattern,shape,color","7","1",""
"null","221893","HierDyju990l3k","sub05","05","3","feedback","test","null","","","na","","7","",""
"null","224397","HierDyju990l3k","sub05","05","3","rl","test","null","img/b_d_dots.png","7","75","pattern,shape,color","8","0",""
"null","225401","HierDyju990l3k","sub05","05","3","feedback","test","null","","","na","","8","",""
"1867","227269","HierDyju990l3k","sub05","05","3","rl","test","74","img/p_c_dots.png","6","74","pattern,shape,color","9","1",""
"null","228273","HierDyju990l3k","sub05","05","3","feedback","test","null","","","na","","9","",""
"731.0000000000291","229006","HierDyju990l3k","sub05","05","3","rl","test","74","img/p_d_dots.png","8","76","pattern,shape,color","10","0",""
"null","230009","HierDyju990l3k","sub05","05","3","feedback","test","null","","","na","","10","",""
"760","230772","HierDyju990l3k","sub05","05","3","rl","test","76","img/p_d_dots.png","8","76","pattern,shape,color","11","1",""
"null","231774","HierDyju990l3k","sub05","05","3","feedback","test","null","","","na","","11","",""
"799","232575","HierDyju990l3k","sub05","05","3","rl","test","65","img/b_c_diag.png","1","65","pattern,shape,color","12","1",""
"null","233578","HierDyju990l3k","sub05","05","3","feedback","test","null","","","na","","12","",""
"669","234249","HierDyju990l3k","sub05","05","3","rl","test","70","img/p_d_diag.png","4","70","pattern,shape,color","13","1",""
"null","235252","HierDyju990l3k","sub05","05","3","feedback","test","null","","","na","","13","",""
"866","236120","HierDyju990l3k","sub05","05","3","rl","test","68","img/b_d_diag.png","3","68","pattern,shape,color","14","1",""
"null","237123","HierDyju990l3k","sub05","05","3","feedback","test","null","","","na","","14","",""
"817.0000000000291","237942","HierDyju990l3k","sub05","05","3","rl","test","70","img/p_d_diag.png","4","70","pattern,shape,color","15","1",""
"null","238945","HierDyju990l3k","sub05","05","3","feedback","test","null","","","na","","15","",""
"1165.999999999971","240113","HierDyju990l3k","sub05","05","3","rl","test","83","img/p_c_diag.png","2","83","pattern,shape,color","16","1",""
"null","241116","HierDyju990l3k","sub05","05","3","feedback","test","null","","","na","","16","",""
"1111","242229","HierDyju990l3k","sub05","05","3","rl","test","76","img/p_d_dots.png","8","76","pattern,shape,color","17","1",""
"null","243232","HierDyju990l3k","sub05","05","3","feedback","test","null","","","na","","17","",""
"1460","244693","HierDyju990l3k","sub05","05","3","rl","test","72","img/b_c_dots.png","5","72","pattern,shape,color","18","1",""
"null","245695","HierDyju990l3k","sub05","05","3","feedback","test","null","","","na","","18","",""
"1640","247336","HierDyju990l3k","sub05","05","3","rl","test","83","img/p_c_diag.png","2","83","pattern,shape,color","19","1",""
"null","248339","HierDyju990l3k","sub05","05","3","feedback","test","null","","","na","","19","",""
"1287","249628","HierDyju990l3k","sub05","05","3","rl","test","72","img/b_c_dots.png","5","72","pattern,shape,color","20","1",""
"null","250631","HierDyju990l3k","sub05","05","3","feedback","test","null","","","na","","20","",""
"851","251484","HierDyju990l3k","sub05","05","3","rl","test","70","img/b_d_diag.png","3","68","pattern,shape,color","21","0",""
"null","252488","HierDyju990l3k","sub05","05","3","feedback","test","null","","","na","","21","",""
"1629.000000000029","254119","HierDyju990l3k","sub05","05","3","rl","test","75","img/b_d_dots.png","7","75","pattern,shape,color","22","1",""
"null","255123","HierDyju990l3k","sub05","05","3","feedback","test","null","","","na","","22","",""
"1247","256372","HierDyju990l3k","sub05","05","3","rl","test","74","img/p_c_dots.png","6","74","pattern,shape,color","23","1",""
"null","257375","HierDyju990l3k","sub05","05","3","feedback","test","null","","","na","","23","",""
"1185","258563","HierDyju990l3k","sub05","05","3","rl","test","83","img/p_c_diag.png","2","83","pattern,shape,color","24","1",""
"null","259566","HierDyju990l3k","sub05","05","3","feedback","test","null","","","na","","24","",""
"1426","260994","HierDyju990l3k","sub05","05","3","rl","test","65","img/b_c_diag.png","1","65","pattern,shape,color","25","1",""
"null","261997","HierDyju990l3k","sub05","05","3","feedback","test","null","","","na","","25","",""
"1042","263042","HierDyju990l3k","sub05","05","3","rl","test","75","img/b_d_dots.png","7","75","pattern,shape,color","26","1",""
"null","264045","HierDyju990l3k","sub05","05","3","feedback","test","null","","","na","","26","",""
"1361.0000000000582","265408","HierDyju990l3k","sub05","05","3","rl","test","76","img/p_d_dots.png","8","76","pattern,shape,color","27","1",""
"null","266410","HierDyju990l3k","sub05","05","3","feedback","test","null","","","na","","27","",""
"1410","267823","HierDyju990l3k","sub05","05","3","rl","test","65","img/b_c_diag.png","1","65","pattern,shape,color","28","1",""
"null","268826","HierDyju990l3k","sub05","05","3","feedback","test","null","","","na","","28","",""
"1092","269920","HierDyju990l3k","sub05","05","3","rl","test","65","img/b_c_diag.png","1","65","pattern,shape,color","29","1",""
"null","270923","HierDyju990l3k","sub05","05","3","feedback","test","null","","","na","","29","",""
"776","271701","HierDyju990l3k","sub05","05","3","rl","test","70","img/p_d_diag.png","4","70","pattern,shape,color","30","1",""
"null","272704","HierDyju990l3k","sub05","05","3","feedback","test","null","","","na","","30","",""
"1041.9999999999418","273748","HierDyju990l3k","sub05","05","3","rl","test","68","img/b_d_diag.png","3","68","pattern,shape,color","31","1",""
"null","274751","HierDyju990l3k","sub05","05","3","feedback","test","null","","","na","","31","",""
"2160","276912","HierDyju990l3k","sub05","05","3","rl","test","75","img/b_c_dots.png","5","72","pattern,shape,color","32","0",""
"null","277915","HierDyju990l3k","sub05","05","3","feedback","test","null","","","na","","32","",""
"1302","279220","HierDyju990l3k","sub05","05","3","rl","test","75","img/b_d_dots.png","7","75","pattern,shape,color","33","1",""
"null","280223","HierDyju990l3k","sub05","05","3","feedback","test","null","","","na","","33","",""
"2334","282559","HierDyju990l3k","sub05","05","3","rl","test","76","img/p_c_dots.png","6","74","pattern,shape,color","34","0",""
"null","283562","HierDyju990l3k","sub05","05","3","feedback","test","null","","","na","","34","",""
"1742.0000000000582","285306","HierDyju990l3k","sub05","05","3","rl","test","68","img/b_d_diag.png","3","68","pattern,shape,color","35","1",""
"null","286309","HierDyju990l3k","sub05","05","3","feedback","test","null","","","na","","35","",""
"1020.0000000000582","287330","HierDyju990l3k","sub05","05","3","rl","test","74","img/p_c_dots.png","6","74","pattern,shape,color","36","1",""
"null","288333","HierDyju990l3k","sub05","05","3","feedback","test","null","","","na","","36","",""
"1115","289451","HierDyju990l3k","sub05","05","3","rl","test","83","img/p_c_diag.png","2","83","pattern,shape,color","37","1",""
"null","290454","HierDyju990l3k","sub05","05","3","feedback","test","null","","","na","","37","",""
"2073","292529","HierDyju990l3k","sub05","05","3","rl","test","75","img/b_d_dots.png","7","75","pattern,shape,color","38","1",""
"null","293532","HierDyju990l3k","sub05","05","3","feedback","test","null","","","na","","38","",""
"1102","294637","HierDyju990l3k","sub05","05","3","rl","test","70","img/p_d_diag.png","4","70","pattern,shape,color","39","1",""
"null","295640","HierDyju990l3k","sub05","05","3","feedback","test","null","","","na","","39","",""
"1175","296816","HierDyju990l3k","sub05","05","3","rl","test","72","img/b_c_dots.png","5","72","pattern,shape,color","40","1",""
"null","297820","HierDyju990l3k","sub05","05","3","feedback","test","null","","","na","","40","",""
"1288","299110","HierDyju990l3k","sub05","05","3","rl","test","76","img/p_d_dots.png","8","76","pattern,shape,color","41","1",""
"null","300114","HierDyju990l3k","sub05","05","3","feedback","test","null","","","na","","41","",""
"null","302617","HierDyju990l3k","sub05","05","3","rl","test","null","img/p_c_dots.png","6","74","pattern,shape,color","42","0",""
"null","303621","HierDyju990l3k","sub05","05","3","feedback","test","null","","","na","","42","",""
"846","304470","HierDyju990l3k","sub05","05","3","rl","test","74","img/p_c_dots.png","6","74","pattern,shape,color","43","1",""
"null","305473","HierDyju990l3k","sub05","05","3","feedback","test","null","","","na","","43","",""
"1021","306496","HierDyju990l3k","sub05","05","3","rl","test","65","img/b_c_diag.png","1","65","pattern,shape,color","44","1",""
"null","307499","HierDyju990l3k","sub05","05","3","feedback","test","null","","","na","","44","",""
"683","308184","HierDyju990l3k","sub05","05","3","rl","test","70","img/p_d_diag.png","4","70","pattern,shape,color","45","1",""
"null","309187","HierDyju990l3k","sub05","05","3","feedback","test","null","","","na","","45","",""
"892","310081","HierDyju990l3k","sub05","05","3","rl","test","68","img/b_d_diag.png","3","68","pattern,shape,color","46","1",""
"null","311084","HierDyju990l3k","sub05","05","3","feedback","test","null","","","na","","46","",""
"923","312010","HierDyju990l3k","sub05","05","3","rl","test","83","img/p_c_diag.png","2","83","pattern,shape,color","47","1",""
"null","313013","HierDyju990l3k","sub05","05","3","feedback","test","null","","","na","","47","",""
"1786.9999999999418","314802","HierDyju990l3k","sub05","05","3","rl","test","76","img/p_d_dots.png","8","76","pattern,shape,color","48","1",""
"null","315805","HierDyju990l3k","sub05","05","3","feedback","test","null","","","na","","48","",""
"1004","316811","HierDyju990l3k","sub05","05","3","rl","test","72","img/b_c_dots.png","5","72","pattern,shape,color","49","1",""
"null","317814","HierDyju990l3k","sub05","05","3","feedback","test","null","","","na","","49","",""
"1907","319723","HierDyju990l3k","sub05","05","3","rl","test","75","img/b_d_dots.png","7","75","pattern,shape,color","50","1",""
"null","320725","HierDyju990l3k","sub05","05","3","feedback","test","null","","","na","","50","",""
"1230","321957","HierDyju990l3k","sub05","05","3","rl","test","72","img/b_c_dots.png","5","72","pattern,shape,color","51","1",""
"null","322960","HierDyju990l3k","sub05","05","3","feedback","test","null","","","na","","51","",""
"1493.0000000000582","324455","HierDyju990l3k","sub05","05","3","rl","test","76","img/p_d_dots.png","8","76","pattern,shape,color","52","1",""
"null","325458","HierDyju990l3k","sub05","05","3","feedback","test","null","","","na","","52","",""
"1077","326537","HierDyju990l3k","sub05","05","3","rl","test","70","img/p_d_diag.png","4","70","pattern,shape,color","53","1",""
"null","327540","HierDyju990l3k","sub05","05","3","feedback","test","null","","","na","","53","",""
"1207","328749","HierDyju990l3k","sub05","05","3","rl","test","68","img/b_d_diag.png","3","68","pattern,shape,color","54","1",""
"null","329752","HierDyju990l3k","sub05","05","3","feedback","test","null","","","na","","54","",""
"null","332255","HierDyju990l3k","sub05","05","3","rl","test","null","img/p_d_dots.png","8","76","pattern,shape,color","55","0",""
"null","333258","HierDyju990l3k","sub05","05","3","feedback","test","null","","","na","","55","",""
"1616","334876","HierDyju990l3k","sub05","05","3","rl","test","72","img/b_c_dots.png","5","72","pattern,shape,color","56","1",""
"null","335879","HierDyju990l3k","sub05","05","3","feedback","test","null","","","na","","56","",""
"1094","336975","HierDyju990l3k","sub05","05","3","rl","test","83","img/b_c_diag.png","1","65","pattern,shape,color","57","0",""
"null","337978","HierDyju990l3k","sub05","05","3","feedback","test","null","","","na","","57","",""
"1940","339920","HierDyju990l3k","sub05","05","3","rl","test","74","img/p_c_dots.png","6","74","pattern,shape,color","58","1",""
"null","340923","HierDyju990l3k","sub05","05","3","feedback","test","null","","","na","","58","",""
"1330","342255","HierDyju990l3k","sub05","05","3","rl","test","83","img/p_c_diag.png","2","83","pattern,shape,color","59","1",""
"null","343258","HierDyju990l3k","sub05","05","3","feedback","test","null","","","na","","59","",""
"1260","344520","HierDyju990l3k","sub05","05","3","rl","test","83","img/p_c_diag.png","2","83","pattern,shape,color","60","1",""
"null","345523","HierDyju990l3k","sub05","05","3","feedback","test","null","","","na","","60","",""
"1740","347266","HierDyju990l3k","sub05","05","3","rl","test","65","img/b_c_diag.png","1","65","pattern,shape,color","61","1",""
"null","348269","HierDyju990l3k","sub05","05","3","feedback","test","null","","","na","","61","",""
"841","349112","HierDyju990l3k","sub05","05","3","rl","test","70","img/p_d_diag.png","4","70","pattern,shape,color","62","1",""
"null","350115","HierDyju990l3k","sub05","05","3","feedback","test","null","","","na","","62","",""
"1022.0000000000582","351140","HierDyju990l3k","sub05","05","3","rl","test","75","img/b_d_dots.png","7","75","pattern,shape,color","63","1",""
"null","352143","HierDyju990l3k","sub05","05","3","feedback","test","null","","","na","","63","",""
"988.9999999999418","353134","HierDyju990l3k","sub05","05","3","rl","test","68","img/b_d_diag.png","3","68","pattern,shape,color","64","1",""
"null","354137","HierDyju990l3k","sub05","05","3","feedback","test","null","","","na","","64","",""
"1664","355802","HierDyju990l3k","sub05","05","3","rl","test","74","img/p_c_dots.png","6","74","pattern,shape,color","65","1",""
"null","356805","HierDyju990l3k","sub05","05","3","feedback","test","null","","","na","","65","",""
"1299","358107","HierDyju990l3k","sub05","05","3","rl","test","65","img/b_c_diag.png","1","65","pattern,shape,color","66","1",""
"null","359109","HierDyju990l3k","sub05","05","3","feedback","test","null","","","na","","66","",""
"1430","360541","HierDyju990l3k","sub05","05","3","rl","test","72","img/b_c_dots.png","5","72","pattern,shape,color","67","1",""
"null","361544","HierDyju990l3k","sub05","05","3","feedback","test","null","","","na","","67","",""
"1058","362604","HierDyju990l3k","sub05","05","3","rl","test","70","img/p_d_diag.png","4","70","pattern,shape,color","68","1",""
"null","363607","HierDyju990l3k","sub05","05","3","feedback","test","null","","","na","","68","",""
"1097","364706","HierDyju990l3k","sub05","05","3","rl","test","76","img/p_d_dots.png","8","76","pattern,shape,color","69","1",""
"null","365709","HierDyju990l3k","sub05","05","3","feedback","test","null","","","na","","69","",""
"1114","366825","HierDyju990l3k","sub05","05","3","rl","test","76","img/p_d_dots.png","8","76","pattern,shape,color","70","1",""
"null","367828","HierDyju990l3k","sub05","05","3","feedback","test","null","","","na","","70","",""
"817","368647","HierDyju990l3k","sub05","05","3","rl","test","70","img/p_d_diag.png","4","70","pattern,shape,color","71","1",""
"null","369650","HierDyju990l3k","sub05","05","3","feedback","test","null","","","na","","71","",""
"1793","371445","HierDyju990l3k","sub05","05","3","rl","test","75","img/b_d_dots.png","7","75","pattern,shape,color","72","1",""
"null","372448","HierDyju990l3k","sub05","05","3","feedback","test","null","","","na","","72","",""
"1768","374218","HierDyju990l3k","sub05","05","3","rl","test","83","img/p_c_diag.png","2","83","pattern,shape,color","73","1",""
"null","375221","HierDyju990l3k","sub05","05","3","feedback","test","null","","","na","","73","",""
"949","376172","HierDyju990l3k","sub05","05","3","rl","test","68","img/b_d_diag.png","3","68","pattern,shape,color","74","1",""
"null","377175","HierDyju990l3k","sub05","05","3","feedback","test","null","","","na","","74","",""
"1848","379024","HierDyju990l3k","sub05","05","3","rl","test","83","img/p_c_diag.png","2","83","pattern,shape,color","75","1",""
"null","380027","HierDyju990l3k","sub05","05","3","feedback","test","null","","","na","","75","",""
"1058","381087","HierDyju990l3k","sub05","05","3","rl","test","75","img/b_d_dots.png","7","75","pattern,shape,color","76","1",""
"null","382090","HierDyju990l3k","sub05","05","3","feedback","test","null","","","na","","76","",""
"870","382962","HierDyju990l3k","sub05","05","3","rl","test","68","img/b_d_diag.png","3","68","pattern,shape,color","77","1",""
"null","383965","HierDyju990l3k","sub05","05","3","feedback","test","null","","","na","","77","",""
"1078","385044","HierDyju990l3k","sub05","05","3","rl","test","72","img/b_c_dots.png","5","72","pattern,shape,color","78","1",""
"null","386048","HierDyju990l3k","sub05","05","3","feedback","test","null","","","na","","78","",""
"1708.9999999999418","387758","HierDyju990l3k","sub05","05","3","rl","test","74","img/p_c_dots.png","6","74","pattern,shape,color","79","1",""
"null","388762","HierDyju990l3k","sub05","05","3","feedback","test","null","","","na","","79","",""
"1933.9999999999418","390697","HierDyju990l3k","sub05","05","3","rl","test","65","img/b_c_diag.png","1","65","pattern,shape,color","80","1",""
"null","391700","HierDyju990l3k","sub05","05","3","feedback","test","null","","","na","","80","",""
"1760","393463","HierDyju990l3k","sub05","05","3","rl","test","72","img/p_c_dots.png","6","74","pattern,shape,color","81","0",""
"null","394466","HierDyju990l3k","sub05","05","3","feedback","test","null","","","na","","81","",""
"966","395434","HierDyju990l3k","sub05","05","3","rl","test","76","img/p_d_dots.png","8","76","pattern,shape,color","82","1",""
"null","396437","HierDyju990l3k","sub05","05","3","feedback","test","null","","","na","","82","",""
"820","397258","HierDyju990l3k","sub05","05","3","rl","test","68","img/b_d_diag.png","3","68","pattern,shape,color","83","1",""
"null","398261","HierDyju990l3k","sub05","05","3","feedback","test","null","","","na","","83","",""
"977.0000000000582","399239","HierDyju990l3k","sub05","05","3","rl","test","75","img/b_d_dots.png","7","75","pattern,shape,color","84","1",""
"null","400243","HierDyju990l3k","sub05","05","3","feedback","test","null","","","na","","84","",""
"1408","401652","HierDyju990l3k","sub05","05","3","rl","test","65","img/b_c_diag.png","1","65","pattern,shape,color","85","1",""
"null","402656","HierDyju990l3k","sub05","05","3","feedback","test","null","","","na","","85","",""
"1285","403942","HierDyju990l3k","sub05","05","3","rl","test","70","img/p_d_diag.png","4","70","pattern,shape,color","86","1",""
"null","404945","HierDyju990l3k","sub05","05","3","feedback","test","null","","","na","","86","",""
"1694","406641","HierDyju990l3k","sub05","05","3","rl","test","83","img/p_c_diag.png","2","83","pattern,shape,color","87","1",""
"null","407644","HierDyju990l3k","sub05","05","3","feedback","test","null","","","na","","87","",""
"1186","408832","HierDyju990l3k","sub05","05","3","rl","test","72","img/b_c_dots.png","5","72","pattern,shape,color","88","1",""
"null","409835","HierDyju990l3k","sub05","05","3","feedback","test","null","","","na","","88","",""
"799","410636","HierDyju990l3k","sub05","05","3","rl","test","72","img/b_c_dots.png","5","72","pattern,shape,color","89","1",""
"null","411639","HierDyju990l3k","sub05","05","3","feedback","test","null","","","na","","89","",""
"1377.0000000000582","413018","HierDyju990l3k","sub05","05","3","rl","test","68","img/b_d_diag.png","3","68","pattern,shape,color","90","1",""
"null","414021","HierDyju990l3k","sub05","05","3","feedback","test","null","","","na","","90","",""
"1030","415054","HierDyju990l3k","sub05","05","3","rl","test","75","img/b_d_dots.png","7","75","pattern,shape,color","91","1",""
"null","416057","HierDyju990l3k","sub05","05","3","feedback","test","null","","","na","","91","",""
"1238","417297","HierDyju990l3k","sub05","05","3","rl","test","83","img/p_c_diag.png","2","83","pattern,shape,color","92","1",""
"null","418300","HierDyju990l3k","sub05","05","3","feedback","test","null","","","na","","92","",""
"1028","419330","HierDyju990l3k","sub05","05","3","rl","test","76","img/p_d_dots.png","8","76","pattern,shape,color","93","1",""
"null","420333","HierDyju990l3k","sub05","05","3","feedback","test","null","","","na","","93","",""
"1580","421915","HierDyju990l3k","sub05","05","3","rl","test","65","img/b_c_diag.png","1","65","pattern,shape,color","94","1",""
"null","422919","HierDyju990l3k","sub05","05","3","feedback","test","null","","","na","","94","",""
"1522","424443","HierDyju990l3k","sub05","05","3","rl","test","74","img/p_c_dots.png","6","74","pattern,shape,color","95","1",""
"null","425446","HierDyju990l3k","sub05","05","3","feedback","test","null","","","na","","95","",""
"1661","427110","HierDyju990l3k","sub05","05","3","rl","test","65","img/b_c_diag.png","1","65","pattern,shape,color","96","1",""
"null","428113","HierDyju990l3k","sub05","05","3","feedback","test","null","","","na","","96","",""
"1209","429324","HierDyju990l3k","sub05","05","3","rl","test","70","img/p_d_diag.png","4","70","pattern,shape,color","97","1",""
"null","430327","HierDyju990l3k","sub05","05","3","feedback","test","null","","","na","","97","",""
"980","431309","HierDyju990l3k","sub05","05","3","rl","test","68","img/b_d_diag.png","3","68","pattern,shape,color","98","1",""
"null","432312","HierDyju990l3k","sub05","05","3","feedback","test","null","","","na","","98","",""
"1626","433940","HierDyju990l3k","sub05","05","3","rl","test","74","img/p_c_dots.png","6","74","pattern,shape,color","99","1",""
"null","434943","HierDyju990l3k","sub05","05","3","feedback","test","null","","","na","","99","",""
"930","435875","HierDyju990l3k","sub05","05","3","rl","test","70","img/p_d_diag.png","4","70","pattern,shape,color","100","1",""
"null","436878","HierDyju990l3k","sub05","05","3","feedback","test","null","","","na","","100","",""
"1121.0000000000582","438001","HierDyju990l3k","sub05","05","3","rl","test","76","img/p_d_dots.png","8","76","pattern,shape,color","101","1",""
"null","439004","HierDyju990l3k","sub05","05","3","feedback","test","null","","","na","","101","",""
"2000","441005","HierDyju990l3k","sub05","05","3","rl","test","72","img/b_c_dots.png","5","72","pattern,shape,color","102","1",""
"null","442008","HierDyju990l3k","sub05","05","3","feedback","test","null","","","na","","102","",""
"606","442617","HierDyju990l3k","sub05","05","3","rl","test","72","img/b_c_dots.png","5","72","pattern,shape,color","103","1",""
"null","443620","HierDyju990l3k","sub05","05","3","feedback","test","null","","","na","","103","",""
"953","444576","HierDyju990l3k","sub05","05","3","rl","test","68","img/b_d_diag.png","3","68","pattern,shape,color","104","1",""
"null","445579","HierDyju990l3k","sub05","05","3","feedback","test","null","","","na","","104","",""
"1849","447430","HierDyju990l3k","sub05","05","3","rl","test","83","img/p_c_diag.png","2","83","pattern,shape,color","105","1",""
"null","448432","HierDyju990l3k","sub05","05","3","feedback","test","null","","","na","","105","",""
"1544","449979","HierDyju990l3k","sub05","05","3","rl","test","75","img/b_d_dots.png","7","75","pattern,shape,color","106","1",""
"null","450982","HierDyju990l3k","sub05","05","3","feedback","test","null","","","na","","106","",""
"1211","452194","HierDyju990l3k","sub05","05","3","rl","test","83","img/p_c_diag.png","2","83","pattern,shape,color","107","1",""
"null","453197","HierDyju990l3k","sub05","05","3","feedback","test","null","","","na","","107","",""
"1307","454506","HierDyju990l3k","sub05","05","3","rl","test","65","img/b_c_diag.png","1","65","pattern,shape,color","108","1",""
"null","455510","HierDyju990l3k","sub05","05","3","feedback","test","null","","","na","","108","",""
"1803","457315","HierDyju990l3k","sub05","05","3","rl","test","75","img/b_d_dots.png","7","75","pattern,shape,color","109","1",""
"null","458318","HierDyju990l3k","sub05","05","3","feedback","test","null","","","na","","109","",""
"841.0000000000582","459161","HierDyju990l3k","sub05","05","3","rl","test","76","img/p_d_dots.png","8","76","pattern,shape,color","110","1",""
"null","460164","HierDyju990l3k","sub05","05","3","feedback","test","null","","","na","","110","",""
"736.9999999999418","460903","HierDyju990l3k","sub05","05","3","rl","test","70","img/p_d_diag.png","4","70","pattern,shape,color","111","1",""
"null","461906","HierDyju990l3k","sub05","05","3","feedback","test","null","","","na","","111","",""
"610","462518","HierDyju990l3k","sub05","05","3","rl","test","70","img/p_d_diag.png","4","70","pattern,shape,color","112","1",""
"null","463520","HierDyju990l3k","sub05","05","3","feedback","test","null","","","na","","112","",""
"974","464496","HierDyju990l3k","sub05","05","3","rl","test","74","img/p_c_dots.png","6","74","pattern,shape,color","113","1",""
"null","465499","HierDyju990l3k","sub05","05","3","feedback","test","null","","","na","","113","",""
"1366","466867","HierDyju990l3k","sub05","05","3","rl","test","65","img/b_c_diag.png","1","65","pattern,shape,color","114","1",""
"null","467870","HierDyju990l3k","sub05","05","3","feedback","test","null","","","na","","114","",""
"1361.0000000000582","469233","HierDyju990l3k","sub05","05","3","rl","test","76","img/p_d_dots.png","8","76","pattern,shape,color","115","1",""
"null","470236","HierDyju990l3k","sub05","05","3","feedback","test","null","","","na","","115","",""
"1465.9999999999418","471705","HierDyju990l3k","sub05","05","3","rl","test","75","img/b_d_dots.png","7","75","pattern,shape,color","116","1",""
"null","472708","HierDyju990l3k","sub05","05","3","feedback","test","null","","","na","","116","",""
"1218.0000000000582","473928","HierDyju990l3k","sub05","05","3","rl","test","83","img/p_c_diag.png","2","83","pattern,shape,color","117","1",""
"null","474930","HierDyju990l3k","sub05","05","3","feedback","test","null","","","na","","117","",""
"1672","476604","HierDyju990l3k","sub05","05","3","rl","test","72","img/b_c_dots.png","5","72","pattern,shape,color","118","1",""
"null","477607","HierDyju990l3k","sub05","05","3","feedback","test","null","","","na","","118","",""
"912","478521","HierDyju990l3k","sub05","05","3","rl","test","68","img/b_d_diag.png","3","68","pattern,shape,color","119","1",""
"null","479524","HierDyju990l3k","sub05","05","3","feedback","test","null","","","na","","119","",""
"1205","480731","HierDyju990l3k","sub05","05","3","rl","test","74","img/p_c_dots.png","6","74","pattern,shape,color","120","1",""
"null","481734","HierDyju990l3k","sub05","05","3","feedback","test","null","","","na","","120","",""
"1162","482898","HierDyju990l3k","sub05","05","3","rl","test","83","img/p_c_diag.png","2","83","pattern,shape,color","121","1",""
"null","483901","HierDyju990l3k","sub05","05","3","feedback","test","null","","","na","","121","",""
"1046","484949","HierDyju990l3k","sub05","05","3","rl","test","65","img/b_c_diag.png","1","65","pattern,shape,color","122","1",""
"null","485952","HierDyju990l3k","sub05","05","3","feedback","test","null","","","na","","122","",""
"1583","487537","HierDyju990l3k","sub05","05","3","rl","test","74","img/b_c_dots.png","5","72","pattern,shape,color","123","0",""
"null","488541","HierDyju990l3k","sub05","05","3","feedback","test","null","","","na","","123","",""
"1236.0000000000582","489779","HierDyju990l3k","sub05","05","3","rl","test","76","img/p_d_dots.png","8","76","pattern,shape,color","124","1",""
"null","490782","HierDyju990l3k","sub05","05","3","feedback","test","null","","","na","","124","",""
"1042","491825","HierDyju990l3k","sub05","05","3","rl","test","70","img/p_d_diag.png","4","70","pattern,shape,color","125","1",""
"null","492829","HierDyju990l3k","sub05","05","3","feedback","test","null","","","na","","125","",""
"1139","493970","HierDyju990l3k","sub05","05","3","rl","test","74","img/p_c_dots.png","6","74","pattern,shape,color","126","1",""
"null","494974","HierDyju990l3k","sub05","05","3","feedback","test","null","","","na","","126","",""
"498","495474","HierDyju990l3k","sub05","05","3","rl","test","72","img/b_c_dots.png","5","72","pattern,shape,color","127","1",""
"null","496477","HierDyju990l3k","sub05","05","3","feedback","test","null","","","na","","127","",""
"707","497186","HierDyju990l3k","sub05","05","3","rl","test","75","img/b_d_dots.png","7","75","pattern,shape,color","128","1",""
"null","498188","HierDyju990l3k","sub05","05","3","feedback","test","null","","","na","","128","",""
"899.9999999999418","499089","HierDyju990l3k","sub05","05","3","rl","test","68","img/b_d_diag.png","3","68","pattern,shape,color","129","1",""
"null","500092","HierDyju990l3k","sub05","05","3","feedback","test","null","","","na","","129","",""
"1172","501266","HierDyju990l3k","sub05","05","3","rl","test","70","img/b_d_diag.png","3","68","pattern,shape,color","130","0",""
"null","502268","HierDyju990l3k","sub05","05","3","feedback","test","null","","","na","","130","",""
"1793","504064","HierDyju990l3k","sub05","05","3","rl","test","75","img/b_d_dots.png","7","75","pattern,shape,color","131","1",""
"null","505066","HierDyju990l3k","sub05","05","3","feedback","test","null","","","na","","131","",""
"939","506008","HierDyju990l3k","sub05","05","3","rl","test","65","img/b_c_diag.png","1","65","pattern,shape,color","132","1",""
"null","507011","HierDyju990l3k","sub05","05","3","feedback","test","null","","","na","","132","",""
"1311","508324","HierDyju990l3k","sub05","05","3","rl","test","76","img/p_d_dots.png","8","76","pattern,shape,color","133","1",""
"null","509327","HierDyju990l3k","sub05","05","3","feedback","test","null","","","na","","133","",""
"1347","510676","HierDyju990l3k","sub05","05","3","rl","test","83","img/p_c_diag.png","2","83","pattern,shape,color","134","1",""
"null","511679","HierDyju990l3k","sub05","05","3","feedback","test","null","","","na","","134","",""
"1397.0000000000582","513077","HierDyju990l3k","sub05","05","3","rl","test","76","img/p_d_dots.png","8","76","pattern,shape,color","135","1",""
"null","514080","HierDyju990l3k","sub05","05","3","feedback","test","null","","","na","","135","",""
"1034","515117","HierDyju990l3k","sub05","05","3","rl","test","70","img/p_d_diag.png","4","70","pattern,shape,color","136","1",""
"null","516119","HierDyju990l3k","sub05","05","3","feedback","test","null","","","na","","136","",""
"801.9999999998836","516924","HierDyju990l3k","sub05","05","3","rl","test","68","img/b_d_diag.png","3","68","pattern,shape,color","137","1",""
"null","517927","HierDyju990l3k","sub05","05","3","feedback","test","null","","","na","","137","",""
"1088.9999999999418","519018","HierDyju990l3k","sub05","05","3","rl","test","74","img/p_c_dots.png","6","74","pattern,shape,color","138","1",""
"null","520021","HierDyju990l3k","sub05","05","3","feedback","test","null","","","na","","138","",""
"1071","521094","HierDyju990l3k","sub05","05","3","rl","test","75","img/b_d_dots.png","7","75","pattern,shape,color","139","1",""
"null","522097","HierDyju990l3k","sub05","05","3","feedback","test","null","","","na","","139","",""
"1176","523274","HierDyju990l3k","sub05","05","3","rl","test","70","img/p_d_diag.png","4","70","pattern,shape,color","140","1",""
"null","524277","HierDyju990l3k","sub05","05","3","feedback","test","null","","","na","","140","",""
"1680.9999999998836","525960","HierDyju990l3k","sub05","05","3","rl","test","72","img/b_c_dots.png","5","72","pattern,shape,color","141","1",""
"null","526963","HierDyju990l3k","sub05","05","3","feedback","test","null","","","na","","141","",""
"1672","528637","HierDyju990l3k","sub05","05","3","rl","test","83","img/p_c_diag.png","2","83","pattern,shape,color","142","1",""
"null","529640","HierDyju990l3k","sub05","05","3","feedback","test","null","","","na","","142","",""
"2432","532075","HierDyju990l3k","sub05","05","3","rl","test","74","img/p_c_dots.png","6","74","pattern,shape,color","143","1",""
"null","533078","HierDyju990l3k","sub05","05","3","feedback","test","null","","","na","","143","",""
"1247","534326","HierDyju990l3k","sub05","05","3","rl","test","83","img/b_c_diag.png","1","65","pattern,shape,color","144","0",""
"null","535329","HierDyju990l3k","sub05","05","3","feedback","test","null","","","na","","144","",""
"1821","537152","HierDyju990l3k","sub05","05","3","rl","test","74","img/p_c_dots.png","6","74","pattern,shape,color","145","1",""
"null","538155","HierDyju990l3k","sub05","05","3","feedback","test","null","","","na","","145","",""
"1426","539584","HierDyju990l3k","sub05","05","3","rl","test","70","img/p_d_diag.png","4","70","pattern,shape,color","146","1",""
"null","540587","HierDyju990l3k","sub05","05","3","feedback","test","null","","","na","","146","",""
"null","543090","HierDyju990l3k","sub05","05","3","rl","test","null","img/b_c_diag.png","1","65","pattern,shape,color","147","0",""
"null","544094","HierDyju990l3k","sub05","05","3","feedback","test","null","","","na","","147","",""
"1937","546032","HierDyju990l3k","sub05","05","3","rl","test","76","img/p_d_dots.png","8","76","pattern,shape,color","148","1",""
"null","547035","HierDyju990l3k","sub05","05","3","feedback","test","null","","","na","","148","",""
"1010","548047","HierDyju990l3k","sub05","05","3","rl","test","83","img/p_c_diag.png","2","83","pattern,shape,color","149","1",""
"null","549050","HierDyju990l3k","sub05","05","3","feedback","test","null","","","na","","149","",""
"1903","550955","HierDyju990l3k","sub05","05","3","rl","test","75","img/b_d_dots.png","7","75","pattern,shape,color","150","1",""
"null","551958","HierDyju990l3k","sub05","05","3","feedback","test","null","","","na","","150","",""
"931","552890","HierDyju990l3k","sub05","05","3","rl","test","68","img/b_d_diag.png","3","68","pattern,shape,color","151","1",""
"null","553893","HierDyju990l3k","sub05","05","3","feedback","test","null","","","na","","151","",""
"714","554609","HierDyju990l3k","sub05","05","3","rl","test","68","img/b_d_diag.png","3","68","pattern,shape,color","152","1",""
"null","555612","HierDyju990l3k","sub05","05","3","feedback","test","null","","","na","","152","",""
"1423","557038","HierDyju990l3k","sub05","05","3","rl","test","76","img/p_d_dots.png","8","76","pattern,shape,color","153","1",""
"null","558041","HierDyju990l3k","sub05","05","3","feedback","test","null","","","na","","153","",""
"1043","559086","HierDyju990l3k","sub05","05","3","rl","test","75","img/b_d_dots.png","7","75","pattern,shape,color","154","1",""
"null","560090","HierDyju990l3k","sub05","05","3","feedback","test","null","","","na","","154","",""
"1241","561332","HierDyju990l3k","sub05","05","3","rl","test","72","img/b_c_dots.png","5","72","pattern,shape,color","155","1",""
"null","562335","HierDyju990l3k","sub05","05","3","feedback","test","null","","","na","","155","",""
"1455","563792","HierDyju990l3k","sub05","05","3","rl","test","65","img/b_c_diag.png","1","65","pattern,shape,color","156","1",""
"null","564794","HierDyju990l3k","sub05","05","3","feedback","test","null","","","na","","156","",""
"1102","565898","HierDyju990l3k","sub05","05","3","rl","test","72","img/b_c_dots.png","5","72","pattern,shape,color","157","1",""
"null","566901","HierDyju990l3k","sub05","05","3","feedback","test","null","","","na","","157","",""
"749","567652","HierDyju990l3k","sub05","05","3","rl","test","74","img/p_c_dots.png","6","74","pattern,shape,color","158","1",""
"null","568655","HierDyju990l3k","sub05","05","3","feedback","test","null","","","na","","158","",""
"1903","570559","HierDyju990l3k","sub05","05","3","rl","test","83","img/p_c_diag.png","2","83","pattern,shape,color","159","1",""
"null","571562","HierDyju990l3k","sub05","05","3","feedback","test","null","","","na","","159","",""
"714.0000000001164","572279","HierDyju990l3k","sub05","05","3","rl","test","70","img/p_d_diag.png","4","70","pattern,shape,color","160","1",""
"null","573281","HierDyju990l3k","sub05","05","3","feedback","test","null","","","na","","160","",""
"581.9999999998836","573866","HierDyju990l3k","sub05","05","3","rl","test","70","img/p_d_diag.png","4","70","pattern,shape,color","161","1",""
"null","574868","HierDyju990l3k","sub05","05","3","feedback","test","null","","","na","","161","",""
"1181","576052","HierDyju990l3k","sub05","05","3","rl","test","83","img/p_c_diag.png","2","83","pattern,shape,color","162","1",""
"null","577055","HierDyju990l3k","sub05","05","3","feedback","test","null","","","na","","162","",""
"2157.9999999998836","579215","HierDyju990l3k","sub05","05","3","rl","test","72","img/b_c_dots.png","5","72","pattern,shape,color","163","1",""
"null","580218","HierDyju990l3k","sub05","05","3","feedback","test","null","","","na","","163","",""
"1959","582179","HierDyju990l3k","sub05","05","3","rl","test","68","img/b_d_diag.png","3","68","pattern,shape,color","164","1",""
"null","583183","HierDyju990l3k","sub05","05","3","feedback","test","null","","","na","","164","",""
"1133","584317","HierDyju990l3k","sub05","05","3","rl","test","74","img/p_c_dots.png","6","74","pattern,shape,color","165","1",""
"null","585320","HierDyju990l3k","sub05","05","3","feedback","test","null","","","na","","165","",""
"1572","586894","HierDyju990l3k","sub05","05","3","rl","test","65","img/b_c_diag.png","1","65","pattern,shape,color","166","1",""
"null","587897","HierDyju990l3k","sub05","05","3","feedback","test","null","","","na","","166","",""
"751","588650","HierDyju990l3k","sub05","05","3","rl","test","65","img/b_c_diag.png","1","65","pattern,shape,color","167","1",""
"null","589653","HierDyju990l3k","sub05","05","3","feedback","test","null","","","na","","167","",""
"1145","590800","HierDyju990l3k","sub05","05","3","rl","test","76","img/p_d_dots.png","8","76","pattern,shape,color","168","1",""
"null","591803","HierDyju990l3k","sub05","05","3","feedback","test","null","","","na","","168","",""
"1343.0000000001164","593148","HierDyju990l3k","sub05","05","3","rl","test","75","img/b_d_dots.png","7","75","pattern,shape,color","169","1",""
"null","594151","HierDyju990l3k","sub05","05","3","feedback","test","null","","","na","","169","",""
"2072.9999999998836","596226","HierDyju990l3k","sub05","05","3","rl","test","74","img/p_c_dots.png","6","74","pattern,shape,color","170","1",""
"null","597228","HierDyju990l3k","sub05","05","3","feedback","test","null","","","na","","170","",""
"1059.9999999998836","598290","HierDyju990l3k","sub05","05","3","rl","test","72","img/b_c_dots.png","5","72","pattern,shape,color","171","1",""
"null","599293","HierDyju990l3k","sub05","05","3","feedback","test","null","","","na","","171","",""
"1320","600615","HierDyju990l3k","sub05","05","3","rl","test","76","img/p_d_dots.png","8","76","pattern,shape,color","172","1",""
"null","601618","HierDyju990l3k","sub05","05","3","feedback","test","null","","","na","","172","",""
"1506","603126","HierDyju990l3k","sub05","05","3","rl","test","68","img/b_d_diag.png","3","68","pattern,shape,color","173","1",""
"null","604129","HierDyju990l3k","sub05","05","3","feedback","test","null","","","na","","173","",""
"1883","606013","HierDyju990l3k","sub05","05","3","rl","test","76","img/p_d_dots.png","8","76","pattern,shape,color","174","1",""
"null","607017","HierDyju990l3k","sub05","05","3","feedback","test","null","","","na","","174","",""
"2378","609397","HierDyju990l3k","sub05","05","3","rl","test","75","img/b_d_dots.png","7","75","pattern,shape,color","175","1",""
"null","610400","HierDyju990l3k","sub05","05","3","feedback","test","null","","","na","","175","",""
"980","611382","HierDyju990l3k","sub05","05","3","rl","test","70","img/p_d_diag.png","4","70","pattern,shape,color","176","1",""
"null","612385","HierDyju990l3k","sub05","05","3","feedback","test","null","","","na","","176","",""
"1092","613479","HierDyju990l3k","sub05","05","3","rl","test","83","img/p_c_diag.png","2","83","pattern,shape,color","177","1",""
"null","614482","HierDyju990l3k","sub05","05","3","feedback","test","null","","","na","","177","",""
"1872","616357","HierDyju990l3k","sub05","05","3","rl","test","75","img/b_d_dots.png","7","75","pattern,shape,color","178","1",""
"null","617359","HierDyju990l3k","sub05","05","3","feedback","test","null","","","na","","178","",""
"1867","619229","HierDyju990l3k","sub05","05","3","rl","test","72","img/b_c_dots.png","5","72","pattern,shape,color","179","1",""
"null","620232","HierDyju990l3k","sub05","05","3","feedback","test","null","","","na","","179","",""
"1249","621483","HierDyju990l3k","sub05","05","3","rl","test","68","img/b_d_diag.png","3","68","pattern,shape,color","180","1",""
"null","622486","HierDyju990l3k","sub05","05","3","feedback","test","null","","","na","","180","",""
"1069","623557","HierDyju990l3k","sub05","05","3","rl","test","74","img/p_c_dots.png","6","74","pattern,shape,color","181","1",""
"null","624561","HierDyju990l3k","sub05","05","3","feedback","test","null","","","na","","181","",""
"1180","625743","HierDyju990l3k","sub05","05","3","rl","test","65","img/b_c_diag.png","1","65","pattern,shape,color","182","1",""
"null","626746","HierDyju990l3k","sub05","05","3","feedback","test","null","","","na","","182","",""
"948","627695","HierDyju990l3k","sub05","05","3","rl","test","83","img/p_c_diag.png","2","83","pattern,shape,color","183","1",""
"null","628699","HierDyju990l3k","sub05","05","3","feedback","test","null","","","na","","183","",""
"1358.9999999998836","630060","HierDyju990l3k","sub05","05","3","rl","test","72","img/b_c_dots.png","5","72","pattern,shape,color","184","1",""
"null","631063","HierDyju990l3k","sub05","05","3","feedback","test","null","","","na","","184","",""
"928","631994","HierDyju990l3k","sub05","05","3","rl","test","70","img/p_d_diag.png","4","70","pattern,shape,color","185","1",""
"null","632997","HierDyju990l3k","sub05","05","3","feedback","test","null","","","na","","185","",""
"2056.9999999998836","635055","HierDyju990l3k","sub05","05","3","rl","test","65","img/b_c_diag.png","1","65","pattern,shape,color","186","1",""
"null","636058","HierDyju990l3k","sub05","05","3","feedback","test","null","","","na","","186","",""
"918","636978","HierDyju990l3k","sub05","05","3","rl","test","70","img/p_d_diag.png","4","70","pattern,shape,color","187","1",""
"null","637981","HierDyju990l3k","sub05","05","3","feedback","test","null","","","na","","187","",""
"1233","639216","HierDyju990l3k","sub05","05","3","rl","test","75","img/p_d_dots.png","8","76","pattern,shape,color","188","0",""
"null","640221","HierDyju990l3k","sub05","05","3","feedback","test","null","","","na","","188","",""
"2180.0000000001164","642403","HierDyju990l3k","sub05","05","3","rl","test","75","img/b_d_dots.png","7","75","pattern,shape,color","189","1",""
"null","643406","HierDyju990l3k","sub05","05","3","feedback","test","null","","","na","","189","",""
"906","644315","HierDyju990l3k","sub05","05","3","rl","test","68","img/b_d_diag.png","3","68","pattern,shape,color","190","1",""
"null","645317","HierDyju990l3k","sub05","05","3","feedback","test","null","","","na","","190","",""
"666","645985","HierDyju990l3k","sub05","05","3","rl","test","68","img/b_d_diag.png","3","68","pattern,shape,color","191","1",""
"null","646988","HierDyju990l3k","sub05","05","3","feedback","test","null","","","na","","191","",""
"1063","648055","HierDyju990l3k","sub05","05","3","rl","test","72","img/p_c_dots.png","6","74","pattern,shape,color","192","0",""
"null","649058","HierDyju990l3k","sub05","05","3","feedback","test","null","","","na","","192","",""
"1231","650291","HierDyju990l3k","sub05","05","3","rl","test","83","img/p_c_diag.png","2","83","pattern,shape,color","193","1",""
"null","651295","HierDyju990l3k","sub05","05","3","feedback","test","null","","","na","","193","",""
"1124.0000000001164","652421","HierDyju990l3k","sub05","05","3","rl","test","65","img/b_c_diag.png","1","65","pattern,shape,color","194","1",""
"null","653424","HierDyju990l3k","sub05","05","3","feedback","test","null","","","na","","194","",""
"1166.9999999998836","654594","HierDyju990l3k","sub05","05","3","rl","test","74","img/p_c_dots.png","6","74","pattern,shape,color","195","1",""
"null","655597","HierDyju990l3k","sub05","05","3","feedback","test","null","","","na","","195","",""
"1048.9999999998836","656648","HierDyju990l3k","sub05","05","3","rl","test","72","img/b_c_dots.png","5","72","pattern,shape,color","196","1",""
"null","657651","HierDyju990l3k","sub05","05","3","feedback","test","null","","","na","","196","",""
"1665","659318","HierDyju990l3k","sub05","05","3","rl","test","70","img/p_d_diag.png","4","70","pattern,shape,color","197","1",""
"null","660322","HierDyju990l3k","sub05","05","3","feedback","test","null","","","na","","197","",""
"1697","662021","HierDyju990l3k","sub05","05","3","rl","test","83","img/p_c_diag.png","2","83","pattern,shape,color","198","1",""
"null","663024","HierDyju990l3k","sub05","05","3","feedback","test","null","","","na","","198","",""
"2452.9999999998836","665481","HierDyju990l3k","sub05","05","3","rl","test","75","img/p_d_dots.png","8","76","pattern,shape,color","199","0",""
"null","666484","HierDyju990l3k","sub05","05","3","feedback","test","null","","","na","","199","",""
"1727","668213","HierDyju990l3k","sub05","05","3","rl","test","65","img/b_c_diag.png","1","65","pattern,shape,color","200","1",""
"null","669216","HierDyju990l3k","sub05","05","3","feedback","test","null","","","na","","200","",""
"1232","670451","HierDyju990l3k","sub05","05","3","rl","test","75","img/b_d_dots.png","7","75","pattern,shape,color","201","1",""
"null","671454","HierDyju990l3k","sub05","05","3","feedback","test","null","","","na","","201","",""
"644","672101","HierDyju990l3k","sub05","05","3","rl","test","75","img/b_d_dots.png","7","75","pattern,shape,color","202","1",""
"null","673104","HierDyju990l3k","sub05","05","3","feedback","test","null","","","na","","202","",""
"457","673563","HierDyju990l3k","sub05","05","3","rl","test","76","img/p_d_dots.png","8","76","pattern,shape,color","203","1",""
"null","674566","HierDyju990l3k","sub05","05","3","feedback","test","null","","","na","","203","",""
"853.0000000001164","675420","HierDyju990l3k","sub05","05","3","rl","test","68","img/b_d_diag.png","3","68","pattern,shape,color","204","1",""
"null","676423","HierDyju990l3k","sub05","05","3","feedback","test","null","","","na","","204","",""
"995","677420","HierDyju990l3k","sub05","05","3","rl","test","72","img/b_c_dots.png","5","72","pattern,shape,color","205","1",""
"null","678423","HierDyju990l3k","sub05","05","3","feedback","test","null","","","na","","205","",""
"2353.9999999998836","680779","HierDyju990l3k","sub05","05","3","rl","test","83","img/p_c_diag.png","2","83","pattern,shape,color","206","1",""
"null","681782","HierDyju990l3k","sub05","05","3","feedback","test","null","","","na","","206","",""
"1256","683040","HierDyju990l3k","sub05","05","3","rl","test","72","img/b_c_dots.png","5","72","pattern,shape,color","207","1",""
"null","684043","HierDyju990l3k","sub05","05","3","feedback","test","null","","","na","","207","",""
"518.9999999998836","684565","HierDyju990l3k","sub05","05","3","rl","test","74","img/p_c_dots.png","6","74","pattern,shape,color","208","1",""
"null","685569","HierDyju990l3k","sub05","05","3","feedback","test","null","","","na","","208","",""
"851","686422","HierDyju990l3k","sub05","05","3","rl","test","75","img/b_d_dots.png","7","75","pattern,shape,color","209","1",""
"null","687426","HierDyju990l3k","sub05","05","3","feedback","test","null","","","na","","209","",""
"947","688374","HierDyju990l3k","sub05","05","3","rl","test","70","img/p_d_diag.png","4","70","pattern,shape,color","210","1",""
"null","689377","HierDyju990l3k","sub05","05","3","feedback","test","null","","","na","","210","",""
"1268","690648","HierDyju990l3k","sub05","05","3","rl","test","74","img/p_c_dots.png","6","74","pattern,shape,color","211","1",""
"null","691651","HierDyju990l3k","sub05","05","3","feedback","test","null","","","na","","211","",""
"1160","692812","HierDyju990l3k","sub05","05","3","rl","test","76","img/p_d_dots.png","8","76","pattern,shape,color","212","1",""
"null","693816","HierDyju990l3k","sub05","05","3","feedback","test","null","","","na","","212","",""
"806","694624","HierDyju990l3k","sub05","05","3","rl","test","70","img/p_d_diag.png","4","70","pattern,shape,color","213","1",""
"null","695627","HierDyju990l3k","sub05","05","3","feedback","test","null","","","na","","213","",""
"1063","696692","HierDyju990l3k","sub05","05","3","rl","test","65","img/b_c_diag.png","1","65","pattern,shape,color","214","1",""
"null","697694","HierDyju990l3k","sub05","05","3","feedback","test","null","","","na","","214","",""
"804","698500","HierDyju990l3k","sub05","05","3","rl","test","70","img/p_d_diag.png","4","70","pattern,shape,color","215","1",""
"null","699503","HierDyju990l3k","sub05","05","3","feedback","test","null","","","na","","215","",""
"913","700419","HierDyju990l3k","sub05","05","3","rl","test","68","img/b_d_diag.png","3","68","pattern,shape,color","216","1",""
"null","701422","HierDyju990l3k","sub05","05","3","feedback","test","null","","","na","","216","",""
"1006.0000000001164","702430","HierDyju990l3k","sub05","05","3","rl","test","68","img/b_d_diag.png","3","68","pattern,shape,color","217","1",""
"null","703434","HierDyju990l3k","sub05","05","3","feedback","test","null","","","na","","217","",""
"1032.0000000001164","704468","HierDyju990l3k","sub05","05","3","rl","test","65","img/b_c_diag.png","1","65","pattern,shape,color","218","1",""
"null","705471","HierDyju990l3k","sub05","05","3","feedback","test","null","","","na","","218","",""
"877.9999999998836","706351","HierDyju990l3k","sub05","05","3","rl","test","83","img/p_c_diag.png","2","83","pattern,shape,color","219","1",""
"null","707354","HierDyju990l3k","sub05","05","3","feedback","test","null","","","na","","219","",""
"645","708001","HierDyju990l3k","sub05","05","3","rl","test","83","img/p_c_diag.png","2","83","pattern,shape,color","220","1",""
"null","709005","HierDyju990l3k","sub05","05","3","feedback","test","null","","","na","","220","",""
"1083","710091","HierDyju990l3k","sub05","05","3","rl","test","72","img/b_c_dots.png","5","72","pattern,shape,color","221","1",""
"null","711094","HierDyju990l3k","sub05","05","3","feedback","test","null","","","na","","221","",""
"947","712043","HierDyju990l3k","sub05","05","3","rl","test","76","img/p_d_dots.png","8","76","pattern,shape,color","222","1",""
"null","713047","HierDyju990l3k","sub05","05","3","feedback","test","null","","","na","","222","",""
"544.0000000001164","713593","HierDyju990l3k","sub05","05","3","rl","test","75","img/b_d_dots.png","7","75","pattern,shape,color","223","1",""
"null","714597","HierDyju990l3k","sub05","05","3","feedback","test","null","","","na","","223","",""
"1790","716389","HierDyju990l3k","sub05","05","3","rl","test","65","img/b_c_diag.png","1","65","pattern,shape,color","224","1",""
"null","717392","HierDyju990l3k","sub05","05","3","feedback","test","null","","","na","","224","",""
"1136","718530","HierDyju990l3k","sub05","05","3","rl","test","83","img/p_c_diag.png","2","83","pattern,shape,color","225","1",""
"null","719534","HierDyju990l3k","sub05","05","3","feedback","test","null","","","na","","225","",""
"1758","721294","HierDyju990l3k","sub05","05","3","rl","test","74","img/p_c_dots.png","6","74","pattern,shape,color","226","1",""
"null","722297","HierDyju990l3k","sub05","05","3","feedback","test","null","","","na","","226","",""
"723","723022","HierDyju990l3k","sub05","05","3","rl","test","72","img/b_c_dots.png","5","72","pattern,shape,color","227","1",""
"null","724025","HierDyju990l3k","sub05","05","3","feedback","test","null","","","na","","227","",""
"665","724692","HierDyju990l3k","sub05","05","3","rl","test","74","img/p_c_dots.png","6","74","pattern,shape,color","228","1",""
"null","725695","HierDyju990l3k","sub05","05","3","feedback","test","null","","","na","","228","",""
"889","726586","HierDyju990l3k","sub05","05","3","rl","test","76","img/p_d_dots.png","8","76","pattern,shape,color","229","1",""
"null","727589","HierDyju990l3k","sub05","05","3","feedback","test","null","","","na","","229","",""
"1197","728789","HierDyju990l3k","sub05","05","3","rl","test","70","img/p_d_diag.png","4","70","pattern,shape,color","230","1",""
"null","729792","HierDyju990l3k","sub05","05","3","feedback","test","null","","","na","","230","",""
"986.9999999998836","730782","HierDyju990l3k","sub05","05","3","rl","test","75","img/b_d_dots.png","7","75","pattern,shape,color","231","1",""
"null","731785","HierDyju990l3k","sub05","05","3","feedback","test","null","","","na","","231","",""
"865","732652","HierDyju990l3k","sub05","05","3","rl","test","70","img/b_d_diag.png","3","68","pattern,shape,color","232","0",""
"null","733656","HierDyju990l3k","sub05","05","3","feedback","test","null","","","na","","232","",""
"668","734327","HierDyju990l3k","sub05","05","3","rl","test","70","img/p_d_diag.png","4","70","pattern,shape,color","233","1",""
"null","735330","HierDyju990l3k","sub05","05","3","feedback","test","null","","","na","","233","",""
"1015.0000000001164","736348","HierDyju990l3k","sub05","05","3","rl","test","83","img/p_c_diag.png","2","83","pattern,shape,color","234","1",""
"null","737350","HierDyju990l3k","sub05","05","3","feedback","test","null","","","na","","234","",""
"912.9999999998836","738265","HierDyju990l3k","sub05","05","3","rl","test","75","img/b_d_dots.png","7","75","pattern,shape,color","235","1",""
"null","739269","HierDyju990l3k","sub05","05","3","feedback","test","null","","","na","","235","",""
"748.9999999998836","740020","HierDyju990l3k","sub05","05","3","rl","test","76","img/p_d_dots.png","8","76","pattern,shape,color","236","1",""
"null","741023","HierDyju990l3k","sub05","05","3","feedback","test","null","","","na","","236","",""
"1536","742560","HierDyju990l3k","sub05","05","3","rl","test","68","img/b_d_diag.png","3","68","pattern,shape,color","237","1",""
"null","743564","HierDyju990l3k","sub05","05","3","feedback","test","null","","","na","","237","",""
"1010","744576","HierDyju990l3k","sub05","05","3","rl","test","75","img/b_c_dots.png","5","72","pattern,shape,color","238","0",""
"null","745579","HierDyju990l3k","sub05","05","3","feedback","test","null","","","na","","238","",""
"1210","746790","HierDyju990l3k","sub05","05","3","rl","test","65","img/b_c_diag.png","1","65","pattern,shape,color","239","1",""
"null","747793","HierDyju990l3k","sub05","05","3","feedback","test","null","","","na","","239","",""
"859","748654","HierDyju990l3k","sub05","05","3","rl","test","74","img/p_c_dots.png","6","74","pattern,shape,color","240","1",""
"null","749658","HierDyju990l3k","sub05","05","3","feedback","test","null","","","na","","240","",""
"769.0000000001164","750429","HierDyju990l3k","sub05","05","3","rl","test","72","img/b_c_dots.png","5","72","pattern,shape,color","241","1",""
"null","751433","HierDyju990l3k","sub05","05","3","feedback","test","null","","","na","","241","",""
"860","752296","HierDyju990l3k","sub05","05","3","rl","test","75","img/b_d_dots.png","7","75","pattern,shape,color","242","1",""
"null","753299","HierDyju990l3k","sub05","05","3","feedback","test","null","","","na","","242","",""
"979.0000000001164","754280","HierDyju990l3k","sub05","05","3","rl","test","83","img/p_c_diag.png","2","83","pattern,shape,color","243","1",""
"null","755283","HierDyju990l3k","sub05","05","3","feedback","test","null","","","na","","243","",""
"1313","756598","HierDyju990l3k","sub05","05","3","rl","test","65","img/b_c_diag.png","1","65","pattern,shape,color","244","1",""
"null","757602","HierDyju990l3k","sub05","05","3","feedback","test","null","","","na","","244","",""
"854","758459","HierDyju990l3k","sub05","05","3","rl","test","70","img/p_d_diag.png","4","70","pattern,shape,color","245","1",""
"null","759462","HierDyju990l3k","sub05","05","3","feedback","test","null","","","na","","245","",""
"1337","760802","HierDyju990l3k","sub05","05","3","rl","test","75","img/p_d_dots.png","8","76","pattern,shape,color","246","0",""
"null","761805","HierDyju990l3k","sub05","05","3","feedback","test","null","","","na","","246","",""
"1194.0000000001164","763002","HierDyju990l3k","sub05","05","3","rl","test","83","img/p_c_diag.png","2","83","pattern,shape,color","247","1",""
"null","764005","HierDyju990l3k","sub05","05","3","feedback","test","null","","","na","","247","",""
"1151","765158","HierDyju990l3k","sub05","05","3","rl","test","74","img/p_c_dots.png","6","74","pattern,shape,color","248","1",""
"null","766161","HierDyju990l3k","sub05","05","3","feedback","test","null","","","na","","248","",""
"22760","788954","HierDyju990l3k","sub05","05","3","","","","","","","","","","{""Q0"":""6""}"
"51597","840553","HierDyju990l3k","sub05","05","3","","","","","","","","","","{""Q0"":""shapes and design are kind of blocked off (every two keys) and colors alternate every other key""}"
"3022","843575","HierDyju990l3k","sub05","05","3","","","","","","","","","",""
