"rt","time_elapsed","subject","subID","group","day","trialType","phase","key_press","stim","stimNum","corrresp","hierarchy","trialNum","corr","responses"
"3342.5","3346","HierDy5483c11d","sub12","12","05","","","","","","","","","",""
"","8412","HierDy5483c11d","sub12","12","05","fullscreen","","","","","","","","",""
"7882.900000095367","16297","HierDy5483c11d","sub12","12","05","","prac","","","","","","","",""
"2113.600000023842","18419","HierDy5483c11d","sub12","12","05","","","32","","","","","","",""
"1952","20373","HierDy5483c11d","sub12","12","05","","prac","","","","","","","",""
"812.3999999761581","21190","HierDy5483c11d","sub12","12","05","rl","test","83","img/r_t_check.png","2","83","shape,color,pattern","1","1",""
"null","22202","HierDy5483c11d","sub12","12","05","feedback","test","null","","","na","","1","",""
"1596.1000000238419","23829","HierDy5483c11d","sub12","12","05","rl","test","75","img/b_d_stripes.png","7","75","shape,color,pattern","2","1",""
"null","24848","HierDy5483c11d","sub12","12","05","feedback","test","null","","","na","","2","",""
"487.5","25339","HierDy5483c11d","sub12","12","05","rl","test","72","img/r_d_stripes.png","5","72","shape,color,pattern","3","1",""
"null","26348","HierDy5483c11d","sub12","12","05","feedback","test","null","","","na","","3","",""
"734.7000000476837","27086","HierDy5483c11d","sub12","12","05","rl","test","65","img/r_t_stripes.png","1","65","shape,color,pattern","4","1",""
"null","28102","HierDy5483c11d","sub12","12","05","feedback","test","null","","","na","","4","",""
"889.0999999046326","28993","HierDy5483c11d","sub12","12","05","rl","test","70","img/b_t_check.png","4","70","shape,color,pattern","5","1",""
"null","30005","HierDy5483c11d","sub12","12","05","feedback","test","null","","","na","","5","",""
"1008.3000000715256","31015","HierDy5483c11d","sub12","12","05","rl","test","74","img/r_d_check.png","6","74","shape,color,pattern","6","1",""
"null","32026","HierDy5483c11d","sub12","12","05","feedback","test","null","","","na","","6","",""
"915.5999999046326","32944","HierDy5483c11d","sub12","12","05","rl","test","68","img/b_t_stripes.png","3","68","shape,color,pattern","7","1",""
"null","33964","HierDy5483c11d","sub12","12","05","feedback","test","null","","","na","","7","",""
"1055","35021","HierDy5483c11d","sub12","12","05","rl","test","74","img/r_d_check.png","6","74","shape,color,pattern","8","1",""
"null","36031","HierDy5483c11d","sub12","12","05","feedback","test","null","","","na","","8","",""
"808","36840","HierDy5483c11d","sub12","12","05","rl","test","65","img/r_t_stripes.png","1","65","shape,color,pattern","9","1",""
"null","37854","HierDy5483c11d","sub12","12","05","feedback","test","null","","","na","","9","",""
"1128.0999999046326","38985","HierDy5483c11d","sub12","12","05","rl","test","76","img/b_d_check.png","8","76","shape,color,pattern","10","1",""
"null","40008","HierDy5483c11d","sub12","12","05","feedback","test","null","","","na","","10","",""
"528","40538","HierDy5483c11d","sub12","12","05","rl","test","76","img/b_d_check.png","8","76","shape,color,pattern","11","1",""
"null","41544","HierDy5483c11d","sub12","12","05","feedback","test","null","","","na","","11","",""
"1595.4000000953674","43141","HierDy5483c11d","sub12","12","05","rl","test","68","img/b_t_stripes.png","3","68","shape,color,pattern","12","1",""
"null","44161","HierDy5483c11d","sub12","12","05","feedback","test","null","","","na","","12","",""
"1294.1999999284744","45458","HierDy5483c11d","sub12","12","05","rl","test","72","img/r_d_stripes.png","5","72","shape,color,pattern","13","1",""
"null","46468","HierDy5483c11d","sub12","12","05","feedback","test","null","","","na","","13","",""
"941.3999999761581","47412","HierDy5483c11d","sub12","12","05","rl","test","83","img/r_t_check.png","2","83","shape,color,pattern","14","1",""
"null","48429","HierDy5483c11d","sub12","12","05","feedback","test","null","","","na","","14","",""
"1179.8999999761581","49611","HierDy5483c11d","sub12","12","05","rl","test","72","img/r_d_stripes.png","5","72","shape,color,pattern","15","1",""
"null","50653","HierDy5483c11d","sub12","12","05","feedback","test","null","","","na","","15","",""
"1029.3999999761581","51686","HierDy5483c11d","sub12","12","05","rl","test","75","img/b_d_stripes.png","7","75","shape,color,pattern","16","1",""
"null","52706","HierDy5483c11d","sub12","12","05","feedback","test","null","","","na","","16","",""
"1236","53945","HierDy5483c11d","sub12","12","05","rl","test","70","img/b_t_check.png","4","70","shape,color,pattern","17","1",""
"null","54963","HierDy5483c11d","sub12","12","05","feedback","test","null","","","na","","17","",""
"923.7999999523163","55887","HierDy5483c11d","sub12","12","05","rl","test","83","img/r_t_check.png","2","83","shape,color,pattern","18","1",""
"null","56907","HierDy5483c11d","sub12","12","05","feedback","test","null","","","na","","18","",""
"1574.2000000476837","58484","HierDy5483c11d","sub12","12","05","rl","test","68","img/b_t_stripes.png","3","68","shape,color,pattern","19","1",""
"null","59504","HierDy5483c11d","sub12","12","05","feedback","test","null","","","na","","19","",""
"1236.8999999761581","60742","HierDy5483c11d","sub12","12","05","rl","test","76","img/b_d_check.png","8","76","shape,color,pattern","20","1",""
"null","61759","HierDy5483c11d","sub12","12","05","feedback","test","null","","","na","","20","",""
"1224.9000000953674","62986","HierDy5483c11d","sub12","12","05","rl","test","74","img/r_d_check.png","6","74","shape,color,pattern","21","1",""
"null","64007","HierDy5483c11d","sub12","12","05","feedback","test","null","","","na","","21","",""
"924.3999999761581","64934","HierDy5483c11d","sub12","12","05","rl","test","75","img/b_d_stripes.png","7","75","shape,color,pattern","22","1",""
"null","65954","HierDy5483c11d","sub12","12","05","feedback","test","null","","","na","","22","",""
"888.5","66844","HierDy5483c11d","sub12","12","05","rl","test","65","img/r_t_stripes.png","1","65","shape,color,pattern","23","1",""
"null","67852","HierDy5483c11d","sub12","12","05","feedback","test","null","","","na","","23","",""
"1116.1000000238419","68971","HierDy5483c11d","sub12","12","05","rl","test","76","img/b_d_check.png","8","76","shape,color,pattern","24","1",""
"null","69991","HierDy5483c11d","sub12","12","05","feedback","test","null","","","na","","24","",""
"1393.1000000238419","71386","HierDy5483c11d","sub12","12","05","rl","test","70","img/b_t_check.png","4","70","shape,color,pattern","25","1",""
"null","72407","HierDy5483c11d","sub12","12","05","feedback","test","null","","","na","","25","",""
"844.5","73253","HierDy5483c11d","sub12","12","05","rl","test","65","img/r_t_stripes.png","1","65","shape,color,pattern","26","1",""
"null","74268","HierDy5483c11d","sub12","12","05","feedback","test","null","","","na","","26","",""
"1074.7000000476837","75345","HierDy5483c11d","sub12","12","05","rl","test","72","img/r_d_stripes.png","5","72","shape,color,pattern","27","1",""
"null","76361","HierDy5483c11d","sub12","12","05","feedback","test","null","","","na","","27","",""
"792.3999999761581","77155","HierDy5483c11d","sub12","12","05","rl","test","83","img/r_t_check.png","2","83","shape,color,pattern","28","1",""
"null","78176","HierDy5483c11d","sub12","12","05","feedback","test","null","","","na","","28","",""
"720.3999999761581","78899","HierDy5483c11d","sub12","12","05","rl","test","83","img/r_t_check.png","2","83","shape,color,pattern","29","1",""
"null","79918","HierDy5483c11d","sub12","12","05","feedback","test","null","","","na","","29","",""
"709.8000000715256","80630","HierDy5483c11d","sub12","12","05","rl","test","68","img/b_t_stripes.png","3","68","shape,color,pattern","30","1",""
"null","81652","HierDy5483c11d","sub12","12","05","feedback","test","null","","","na","","30","",""
"649.3999999761581","82304","HierDy5483c11d","sub12","12","05","rl","test","70","img/b_t_check.png","4","70","shape,color,pattern","31","1",""
"null","83322","HierDy5483c11d","sub12","12","05","feedback","test","null","","","na","","31","",""
"1040.6000000238419","84364","HierDy5483c11d","sub12","12","05","rl","test","74","img/r_d_check.png","6","74","shape,color,pattern","32","1",""
"null","85387","HierDy5483c11d","sub12","12","05","feedback","test","null","","","na","","32","",""
"1353.6999999284744","86743","HierDy5483c11d","sub12","12","05","rl","test","70","img/b_t_check.png","4","70","shape,color,pattern","33","1",""
"null","87752","HierDy5483c11d","sub12","12","05","feedback","test","null","","","na","","33","",""
"849.6000000238419","88604","HierDy5483c11d","sub12","12","05","rl","test","72","img/r_d_stripes.png","5","72","shape,color,pattern","34","1",""
"null","89614","HierDy5483c11d","sub12","12","05","feedback","test","null","","","na","","34","",""
"1111.6000000238419","90728","HierDy5483c11d","sub12","12","05","rl","test","75","img/b_d_stripes.png","7","75","shape,color,pattern","35","1",""
"null","91744","HierDy5483c11d","sub12","12","05","feedback","test","null","","","na","","35","",""
"534.2000000476837","92281","HierDy5483c11d","sub12","12","05","rl","test","75","img/b_d_stripes.png","7","75","shape,color,pattern","36","1",""
"null","93295","HierDy5483c11d","sub12","12","05","feedback","test","null","","","na","","36","",""
"1336.7999999523163","94635","HierDy5483c11d","sub12","12","05","rl","test","74","img/r_d_check.png","6","74","shape,color,pattern","37","1",""
"null","95656","HierDy5483c11d","sub12","12","05","feedback","test","null","","","na","","37","",""
"709.7000000476837","96368","HierDy5483c11d","sub12","12","05","rl","test","76","img/b_d_check.png","8","76","shape,color,pattern","38","1",""
"null","97372","HierDy5483c11d","sub12","12","05","feedback","test","null","","","na","","38","",""
"1160.3999999761581","98535","HierDy5483c11d","sub12","12","05","rl","test","68","img/b_t_stripes.png","3","68","shape,color,pattern","39","1",""
"null","99548","HierDy5483c11d","sub12","12","05","feedback","test","null","","","na","","39","",""
"645.8999999761581","100196","HierDy5483c11d","sub12","12","05","rl","test","65","img/r_t_stripes.png","1","65","shape,color,pattern","40","1",""
"null","101213","HierDy5483c11d","sub12","12","05","feedback","test","null","","","na","","40","",""
"1149.8999999761581","102365","HierDy5483c11d","sub12","12","05","rl","test","76","img/b_d_check.png","8","76","shape,color,pattern","41","1",""
"null","103376","HierDy5483c11d","sub12","12","05","feedback","test","null","","","na","","41","",""
"1514.2000000476837","104892","HierDy5483c11d","sub12","12","05","rl","test","72","img/r_d_stripes.png","5","72","shape,color,pattern","42","1",""
"null","105898","HierDy5483c11d","sub12","12","05","feedback","test","null","","","na","","42","",""
"938.3999999761581","106839","HierDy5483c11d","sub12","12","05","rl","test","68","img/b_t_stripes.png","3","68","shape,color,pattern","43","1",""
"null","107852","HierDy5483c11d","sub12","12","05","feedback","test","null","","","na","","43","",""
"831.5","108686","HierDy5483c11d","sub12","12","05","rl","test","83","img/r_t_check.png","2","83","shape,color,pattern","44","1",""
"null","109693","HierDy5483c11d","sub12","12","05","feedback","test","null","","","na","","44","",""
"1135.1000000238419","110830","HierDy5483c11d","sub12","12","05","rl","test","75","img/b_d_stripes.png","7","75","shape,color,pattern","45","1",""
"null","111848","HierDy5483c11d","sub12","12","05","feedback","test","null","","","na","","45","",""
"735.2999999523163","112585","HierDy5483c11d","sub12","12","05","rl","test","65","img/r_t_stripes.png","1","65","shape,color,pattern","46","1",""
"null","113589","HierDy5483c11d","sub12","12","05","feedback","test","null","","","na","","46","",""
"1214.7000000476837","114806","HierDy5483c11d","sub12","12","05","rl","test","74","img/r_d_check.png","6","74","shape,color,pattern","47","1",""
"null","115817","HierDy5483c11d","sub12","12","05","feedback","test","null","","","na","","47","",""
"1163","116984","HierDy5483c11d","sub12","12","05","rl","test","70","img/b_t_check.png","4","70","shape,color,pattern","48","1",""
"null","117999","HierDy5483c11d","sub12","12","05","feedback","test","null","","","na","","48","",""
"1109","119110","HierDy5483c11d","sub12","12","05","rl","test","74","img/r_d_check.png","6","74","shape,color,pattern","49","1",""
"null","120121","HierDy5483c11d","sub12","12","05","feedback","test","null","","","na","","49","",""
"689.7000000476837","120812","HierDy5483c11d","sub12","12","05","rl","test","65","img/r_t_stripes.png","1","65","shape,color,pattern","50","1",""
"null","121831","HierDy5483c11d","sub12","12","05","feedback","test","null","","","na","","50","",""
"1161.7000000476837","122995","HierDy5483c11d","sub12","12","05","rl","test","68","img/b_t_stripes.png","3","68","shape,color,pattern","51","1",""
"null","124012","HierDy5483c11d","sub12","12","05","feedback","test","null","","","na","","51","",""
"1237.3999999761581","125252","HierDy5483c11d","sub12","12","05","rl","test","75","img/b_d_stripes.png","7","75","shape,color,pattern","52","1",""
"null","126255","HierDy5483c11d","sub12","12","05","feedback","test","null","","","na","","52","",""
"1021.2999999523163","127279","HierDy5483c11d","sub12","12","05","rl","test","76","img/b_d_check.png","8","76","shape,color,pattern","53","1",""
"null","128290","HierDy5483c11d","sub12","12","05","feedback","test","null","","","na","","53","",""
"1286.3999999761581","129579","HierDy5483c11d","sub12","12","05","rl","test","70","img/b_t_check.png","4","70","shape,color,pattern","54","1",""
"null","130598","HierDy5483c11d","sub12","12","05","feedback","test","null","","","na","","54","",""
"956.7000000476837","131557","HierDy5483c11d","sub12","12","05","rl","test","83","img/r_t_check.png","2","83","shape,color,pattern","55","1",""
"null","132576","HierDy5483c11d","sub12","12","05","feedback","test","null","","","na","","55","",""
"869","133447","HierDy5483c11d","sub12","12","05","rl","test","76","img/b_d_check.png","8","76","shape,color,pattern","56","1",""
"null","134469","HierDy5483c11d","sub12","12","05","feedback","test","null","","","na","","56","",""
"1506.5999999046326","135978","HierDy5483c11d","sub12","12","05","rl","test","72","img/r_d_stripes.png","5","72","shape,color,pattern","57","1",""
"null","136996","HierDy5483c11d","sub12","12","05","feedback","test","null","","","na","","57","",""
"539","137537","HierDy5483c11d","sub12","12","05","rl","test","72","img/r_d_stripes.png","5","72","shape,color,pattern","58","1",""
"null","138544","HierDy5483c11d","sub12","12","05","feedback","test","null","","","na","","58","",""
"836.8000000715256","139382","HierDy5483c11d","sub12","12","05","rl","test","70","img/b_t_check.png","4","70","shape,color,pattern","59","1",""
"null","140387","HierDy5483c11d","sub12","12","05","feedback","test","null","","","na","","59","",""
"1017.6000000238419","141407","HierDy5483c11d","sub12","12","05","rl","test","75","img/b_d_stripes.png","7","75","shape,color,pattern","60","1",""
"null","142423","HierDy5483c11d","sub12","12","05","feedback","test","null","","","na","","60","",""
"811.8000000715256","143237","HierDy5483c11d","sub12","12","05","rl","test","74","img/r_d_check.png","6","74","shape,color,pattern","61","1",""
"null","144260","HierDy5483c11d","sub12","12","05","feedback","test","null","","","na","","61","",""
"1078.2000000476837","145340","HierDy5483c11d","sub12","12","05","rl","test","83","img/r_t_check.png","2","83","shape,color,pattern","62","1",""
"null","146362","HierDy5483c11d","sub12","12","05","feedback","test","null","","","na","","62","",""
"738.6999999284744","147103","HierDy5483c11d","sub12","12","05","rl","test","65","img/r_t_stripes.png","1","65","shape,color,pattern","63","1",""
"null","148113","HierDy5483c11d","sub12","12","05","feedback","test","null","","","na","","63","",""
"1238","149358","HierDy5483c11d","sub12","12","05","rl","test","68","img/b_t_stripes.png","3","68","shape,color,pattern","64","1",""
"null","150377","HierDy5483c11d","sub12","12","05","feedback","test","null","","","na","","64","",""
"558.5","150938","HierDy5483c11d","sub12","12","05","rl","test","68","img/b_t_stripes.png","3","68","shape,color,pattern","65","1",""
"null","151954","HierDy5483c11d","sub12","12","05","feedback","test","null","","","na","","65","",""
"937.6999999284744","152895","HierDy5483c11d","sub12","12","05","rl","test","76","img/b_d_check.png","8","76","shape,color,pattern","66","1",""
"null","153907","HierDy5483c11d","sub12","12","05","feedback","test","null","","","na","","66","",""
"696.3999999761581","154605","HierDy5483c11d","sub12","12","05","rl","test","65","img/r_t_stripes.png","1","65","shape,color,pattern","67","1",""
"null","155621","HierDy5483c11d","sub12","12","05","feedback","test","null","","","na","","67","",""
"1180.3000000715256","156803","HierDy5483c11d","sub12","12","05","rl","test","70","img/b_t_check.png","4","70","shape,color,pattern","68","1",""
"null","157830","HierDy5483c11d","sub12","12","05","feedback","test","null","","","na","","68","",""
"1010.5999999046326","158843","HierDy5483c11d","sub12","12","05","rl","test","72","img/r_d_stripes.png","5","72","shape,color,pattern","69","1",""
"null","159853","HierDy5483c11d","sub12","12","05","feedback","test","null","","","na","","69","",""
"896.5","160752","HierDy5483c11d","sub12","12","05","rl","test","75","img/b_d_stripes.png","7","75","shape,color,pattern","70","1",""
"null","161767","HierDy5483c11d","sub12","12","05","feedback","test","null","","","na","","70","",""
"855.1000000238419","162624","HierDy5483c11d","sub12","12","05","rl","test","76","img/b_d_check.png","8","76","shape,color,pattern","71","1",""
"null","163635","HierDy5483c11d","sub12","12","05","feedback","test","null","","","na","","71","",""
"695.6000000238419","164333","HierDy5483c11d","sub12","12","05","rl","test","75","img/b_d_stripes.png","7","75","shape,color,pattern","72","1",""
"null","165344","HierDy5483c11d","sub12","12","05","feedback","test","null","","","na","","72","",""
"838.1000000238419","166184","HierDy5483c11d","sub12","12","05","rl","test","83","img/r_t_check.png","2","83","shape,color,pattern","73","1",""
"null","167192","HierDy5483c11d","sub12","12","05","feedback","test","null","","","na","","73","",""
"1457.1999999284744","168651","HierDy5483c11d","sub12","12","05","rl","test","74","img/r_d_check.png","6","74","shape,color,pattern","74","1",""
"null","169655","HierDy5483c11d","sub12","12","05","feedback","test","null","","","na","","74","",""
"704.2999999523163","170362","HierDy5483c11d","sub12","12","05","rl","test","72","img/r_d_stripes.png","5","72","shape,color,pattern","75","1",""
"null","171370","HierDy5483c11d","sub12","12","05","feedback","test","null","","","na","","75","",""
"988.8000000715256","172361","HierDy5483c11d","sub12","12","05","rl","test","83","img/r_t_check.png","2","83","shape,color,pattern","76","1",""
"null","173372","HierDy5483c11d","sub12","12","05","feedback","test","null","","","na","","76","",""
"680.5","174054","HierDy5483c11d","sub12","12","05","rl","test","70","img/b_t_check.png","4","70","shape,color,pattern","77","1",""
"null","175070","HierDy5483c11d","sub12","12","05","feedback","test","null","","","na","","77","",""
"1015.3999999761581","176087","HierDy5483c11d","sub12","12","05","rl","test","74","img/r_d_check.png","6","74","shape,color,pattern","78","1",""
"null","177107","HierDy5483c11d","sub12","12","05","feedback","test","null","","","na","","78","",""
"1335.4000000953674","178445","HierDy5483c11d","sub12","12","05","rl","test","68","img/b_t_stripes.png","3","68","shape,color,pattern","79","1",""
"null","179459","HierDy5483c11d","sub12","12","05","feedback","test","null","","","na","","79","",""
"1092.8999999761581","180555","HierDy5483c11d","sub12","12","05","rl","test","75","img/b_d_stripes.png","7","75","shape,color,pattern","80","1",""
"null","181560","HierDy5483c11d","sub12","12","05","feedback","test","null","","","na","","80","",""
"704.1999999284744","182266","HierDy5483c11d","sub12","12","05","rl","test","65","img/r_t_stripes.png","1","65","shape,color,pattern","81","1",""
"null","183280","HierDy5483c11d","sub12","12","05","feedback","test","null","","","na","","81","",""
"980.6999999284744","184263","HierDy5483c11d","sub12","12","05","rl","test","70","img/b_t_check.png","4","70","shape,color,pattern","82","1",""
"null","185274","HierDy5483c11d","sub12","12","05","feedback","test","null","","","na","","82","",""
"631.5999999046326","185907","HierDy5483c11d","sub12","12","05","rl","test","65","img/r_t_stripes.png","1","65","shape,color,pattern","83","1",""
"null","186912","HierDy5483c11d","sub12","12","05","feedback","test","null","","","na","","83","",""
"477.7999999523163","187392","HierDy5483c11d","sub12","12","05","rl","test","65","img/r_t_stripes.png","1","65","shape,color,pattern","84","1",""
"null","188412","HierDy5483c11d","sub12","12","05","feedback","test","null","","","na","","84","",""
"838.6000000238419","189253","HierDy5483c11d","sub12","12","05","rl","test","74","img/r_d_check.png","6","74","shape,color,pattern","85","1",""
"null","190256","HierDy5483c11d","sub12","12","05","feedback","test","null","","","na","","85","",""
"1152.1000000238419","191411","HierDy5483c11d","sub12","12","05","rl","test","76","img/b_d_check.png","8","76","shape,color,pattern","86","1",""
"null","192418","HierDy5483c11d","sub12","12","05","feedback","test","null","","","na","","86","",""
"1017","193437","HierDy5483c11d","sub12","12","05","rl","test","72","img/r_d_stripes.png","5","72","shape,color,pattern","87","1",""
"null","194455","HierDy5483c11d","sub12","12","05","feedback","test","null","","","na","","87","",""
"799.6000000238419","195257","HierDy5483c11d","sub12","12","05","rl","test","83","img/r_t_check.png","2","83","shape,color,pattern","88","1",""
"null","196271","HierDy5483c11d","sub12","12","05","feedback","test","null","","","na","","88","",""
"801.2999999523163","197075","HierDy5483c11d","sub12","12","05","rl","test","68","img/b_t_stripes.png","3","68","shape,color,pattern","89","1",""
"null","198093","HierDy5483c11d","sub12","12","05","feedback","test","null","","","na","","89","",""
"816","198911","HierDy5483c11d","sub12","12","05","rl","test","72","img/r_d_stripes.png","5","72","shape,color,pattern","90","1",""
"null","199929","HierDy5483c11d","sub12","12","05","feedback","test","null","","","na","","90","",""
"908.4000000953674","200839","HierDy5483c11d","sub12","12","05","rl","test","75","img/b_d_stripes.png","7","75","shape,color,pattern","91","1",""
"null","201850","HierDy5483c11d","sub12","12","05","feedback","test","null","","","na","","91","",""
"1267.6999999284744","203120","HierDy5483c11d","sub12","12","05","rl","test","76","img/b_d_check.png","8","76","shape,color,pattern","92","1",""
"null","204140","HierDy5483c11d","sub12","12","05","feedback","test","null","","","na","","92","",""
"1278.1000000238419","205420","HierDy5483c11d","sub12","12","05","rl","test","68","img/b_t_stripes.png","3","68","shape,color,pattern","93","1",""
"null","206445","HierDy5483c11d","sub12","12","05","feedback","test","null","","","na","","93","",""
"1561","208008","HierDy5483c11d","sub12","12","05","rl","test","74","img/r_d_check.png","6","74","shape,color,pattern","94","1",""
"null","209017","HierDy5483c11d","sub12","12","05","feedback","test","null","","","na","","94","",""
"1765.5","210784","HierDy5483c11d","sub12","12","05","rl","test","70","img/b_t_check.png","4","70","shape,color,pattern","95","1",""
"null","211806","HierDy5483c11d","sub12","12","05","feedback","test","null","","","na","","95","",""
"824","212632","HierDy5483c11d","sub12","12","05","rl","test","83","img/r_t_check.png","2","83","shape,color,pattern","96","1",""
"null","213642","HierDy5483c11d","sub12","12","05","feedback","test","null","","","na","","96","",""
"1200.3999999761581","214845","HierDy5483c11d","sub12","12","05","rl","test","74","img/r_d_check.png","6","74","shape,color,pattern","97","1",""
"null","215859","HierDy5483c11d","sub12","12","05","feedback","test","null","","","na","","97","",""
"1358.5","217220","HierDy5483c11d","sub12","12","05","rl","test","68","img/b_t_stripes.png","3","68","shape,color,pattern","98","1",""
"null","218232","HierDy5483c11d","sub12","12","05","feedback","test","null","","","na","","98","",""
"567.8999999761581","218802","HierDy5483c11d","sub12","12","05","rl","test","65","img/r_t_stripes.png","1","65","shape,color,pattern","99","1",""
"null","219817","HierDy5483c11d","sub12","12","05","feedback","test","null","","","na","","99","",""
"1083.2000000476837","220901","HierDy5483c11d","sub12","12","05","rl","test","83","img/r_t_check.png","2","83","shape,color,pattern","100","1",""
"null","221926","HierDy5483c11d","sub12","12","05","feedback","test","null","","","na","","100","",""
"772.1000000238419","222701","HierDy5483c11d","sub12","12","05","rl","test","83","img/r_t_check.png","2","83","shape,color,pattern","101","1",""
"null","223725","HierDy5483c11d","sub12","12","05","feedback","test","null","","","na","","101","",""
"736.8999999761581","224465","HierDy5483c11d","sub12","12","05","rl","test","70","img/b_t_check.png","4","70","shape,color,pattern","102","1",""
"null","225478","HierDy5483c11d","sub12","12","05","feedback","test","null","","","na","","102","",""
"1613.3999999761581","227094","HierDy5483c11d","sub12","12","05","rl","test","75","img/b_d_stripes.png","7","75","shape,color,pattern","103","1",""
"null","228108","HierDy5483c11d","sub12","12","05","feedback","test","null","","","na","","103","",""
"537.6000000238419","228647","HierDy5483c11d","sub12","12","05","rl","test","72","img/r_d_stripes.png","5","72","shape,color,pattern","104","1",""
"null","229666","HierDy5483c11d","sub12","12","05","feedback","test","null","","","na","","104","",""
"572.6000000238419","230242","HierDy5483c11d","sub12","12","05","rl","test","74","img/b_d_check.png","8","76","shape,color,pattern","105","0",""
"null","231258","HierDy5483c11d","sub12","12","05","feedback","test","null","","","na","","105","",""
"1260.5999999046326","232520","HierDy5483c11d","sub12","12","05","rl","test","72","img/r_d_stripes.png","5","72","shape,color,pattern","106","1",""
"null","233528","HierDy5483c11d","sub12","12","05","feedback","test","null","","","na","","106","",""
"688.3000000715256","234219","HierDy5483c11d","sub12","12","05","rl","test","65","img/r_t_stripes.png","1","65","shape,color,pattern","107","1",""
"null","235233","HierDy5483c11d","sub12","12","05","feedback","test","null","","","na","","107","",""
"null","237754","HierDy5483c11d","sub12","12","05","rl","test","null","img/b_t_stripes.png","3","68","shape,color,pattern","108","0",""
"null","238767","HierDy5483c11d","sub12","12","05","feedback","test","null","","","na","","108","",""
"1243.8999999761581","240012","HierDy5483c11d","sub12","12","05","rl","test","75","img/b_d_stripes.png","7","75","shape,color,pattern","109","1",""
"null","241033","HierDy5483c11d","sub12","12","05","feedback","test","null","","","na","","109","",""
"1015.6000000238419","242050","HierDy5483c11d","sub12","12","05","rl","test","76","img/b_d_check.png","8","76","shape,color,pattern","110","1",""
"null","243063","HierDy5483c11d","sub12","12","05","feedback","test","null","","","na","","110","",""
"1548.8999999761581","244613","HierDy5483c11d","sub12","12","05","rl","test","74","img/r_d_check.png","6","74","shape,color,pattern","111","1",""
"null","245626","HierDy5483c11d","sub12","12","05","feedback","test","null","","","na","","111","",""
"476.7999999523163","246104","HierDy5483c11d","sub12","12","05","rl","test","74","img/r_d_check.png","6","74","shape,color,pattern","112","1",""
"null","247115","HierDy5483c11d","sub12","12","05","feedback","test","null","","","na","","112","",""
"1540.8999999761581","248658","HierDy5483c11d","sub12","12","05","rl","test","70","img/b_t_check.png","4","70","shape,color,pattern","113","1",""
"null","249673","HierDy5483c11d","sub12","12","05","feedback","test","null","","","na","","113","",""
"1430.1000000238419","251105","HierDy5483c11d","sub12","12","05","rl","test","65","img/r_t_stripes.png","1","65","shape,color,pattern","114","1",""
"null","252126","HierDy5483c11d","sub12","12","05","feedback","test","null","","","na","","114","",""
"802","252930","HierDy5483c11d","sub12","12","05","rl","test","70","img/b_t_check.png","4","70","shape,color,pattern","115","1",""
"null","253937","HierDy5483c11d","sub12","12","05","feedback","test","null","","","na","","115","",""
"971.8999999761581","254911","HierDy5483c11d","sub12","12","05","rl","test","83","img/r_t_check.png","2","83","shape,color,pattern","116","1",""
"null","255925","HierDy5483c11d","sub12","12","05","feedback","test","null","","","na","","116","",""
"1053.3999999761581","256981","HierDy5483c11d","sub12","12","05","rl","test","68","img/b_t_stripes.png","3","68","shape,color,pattern","117","1",""
"null","258001","HierDy5483c11d","sub12","12","05","feedback","test","null","","","na","","117","",""
"1752.1000000238419","259756","HierDy5483c11d","sub12","12","05","rl","test","76","img/b_d_check.png","8","76","shape,color,pattern","118","1",""
"null","260783","HierDy5483c11d","sub12","12","05","feedback","test","null","","","na","","118","",""
"870.7000000476837","261655","HierDy5483c11d","sub12","12","05","rl","test","75","img/b_d_stripes.png","7","75","shape,color,pattern","119","1",""
"null","262664","HierDy5483c11d","sub12","12","05","feedback","test","null","","","na","","119","",""
"1264.4000000953674","263930","HierDy5483c11d","sub12","12","05","rl","test","72","img/r_d_stripes.png","5","72","shape,color,pattern","120","1",""
"null","264936","HierDy5483c11d","sub12","12","05","feedback","test","null","","","na","","120","",""
"1077.2000000476837","266014","HierDy5483c11d","sub12","12","05","rl","test","76","img/b_d_check.png","8","76","shape,color,pattern","121","1",""
"null","267035","HierDy5483c11d","sub12","12","05","feedback","test","null","","","na","","121","",""
"1278.8000000715256","268315","HierDy5483c11d","sub12","12","05","rl","test","65","img/r_d_stripes.png","5","72","shape,color,pattern","122","0",""
"null","269320","HierDy5483c11d","sub12","12","05","feedback","test","null","","","na","","122","",""
"1610.5","270932","HierDy5483c11d","sub12","12","05","rl","test","74","img/r_d_check.png","6","74","shape,color,pattern","123","1",""
"null","271934","HierDy5483c11d","sub12","12","05","feedback","test","null","","","na","","123","",""
"1212.1000000238419","273149","HierDy5483c11d","sub12","12","05","rl","test","70","img/b_t_check.png","4","70","shape,color,pattern","124","1",""
"null","274173","HierDy5483c11d","sub12","12","05","feedback","test","null","","","na","","124","",""
"1007.1999999284744","275183","HierDy5483c11d","sub12","12","05","rl","test","75","img/b_d_stripes.png","7","75","shape,color,pattern","125","1",""
"null","276193","HierDy5483c11d","sub12","12","05","feedback","test","null","","","na","","125","",""
"1111.5","277307","HierDy5483c11d","sub12","12","05","rl","test","65","img/r_t_stripes.png","1","65","shape,color,pattern","126","1",""
"null","278313","HierDy5483c11d","sub12","12","05","feedback","test","null","","","na","","126","",""
"661.5","278977","HierDy5483c11d","sub12","12","05","rl","test","68","img/b_t_stripes.png","3","68","shape,color,pattern","127","1",""
"null","279987","HierDy5483c11d","sub12","12","05","feedback","test","null","","","na","","127","",""
"1314.1999999284744","281308","HierDy5483c11d","sub12","12","05","rl","test","75","img/b_d_stripes.png","7","75","shape,color,pattern","128","1",""
"null","282322","HierDy5483c11d","sub12","12","05","feedback","test","null","","","na","","128","",""
"1259.7000000476837","283584","HierDy5483c11d","sub12","12","05","rl","test","83","img/r_t_check.png","2","83","shape,color,pattern","129","1",""
"null","284597","HierDy5483c11d","sub12","12","05","feedback","test","null","","","na","","129","",""
"602.3000000715256","285201","HierDy5483c11d","sub12","12","05","rl","test","65","img/r_t_stripes.png","1","65","shape,color,pattern","130","1",""
"null","286220","HierDy5483c11d","sub12","12","05","feedback","test","null","","","na","","130","",""
"714.3999999761581","286937","HierDy5483c11d","sub12","12","05","rl","test","70","img/b_t_check.png","4","70","shape,color,pattern","131","1",""
"null","287947","HierDy5483c11d","sub12","12","05","feedback","test","null","","","na","","131","",""
"457","288406","HierDy5483c11d","sub12","12","05","rl","test","68","img/b_t_stripes.png","3","68","shape,color,pattern","132","1",""
"null","289417","HierDy5483c11d","sub12","12","05","feedback","test","null","","","na","","132","",""
"745.1000000238419","290164","HierDy5483c11d","sub12","12","05","rl","test","76","img/b_d_check.png","8","76","shape,color,pattern","133","1",""
"null","291180","HierDy5483c11d","sub12","12","05","feedback","test","null","","","na","","133","",""
"858.7000000476837","292041","HierDy5483c11d","sub12","12","05","rl","test","83","img/r_t_check.png","2","83","shape,color,pattern","134","1",""
"null","293054","HierDy5483c11d","sub12","12","05","feedback","test","null","","","na","","134","",""
"947.0999999046326","294003","HierDy5483c11d","sub12","12","05","rl","test","72","img/r_d_stripes.png","5","72","shape,color,pattern","135","1",""
"null","295017","HierDy5483c11d","sub12","12","05","feedback","test","null","","","na","","135","",""
"501.10000002384186","295520","HierDy5483c11d","sub12","12","05","rl","test","72","img/r_d_stripes.png","5","72","shape,color,pattern","136","1",""
"null","296538","HierDy5483c11d","sub12","12","05","feedback","test","null","","","na","","136","",""
"703.5","297244","HierDy5483c11d","sub12","12","05","rl","test","74","img/r_d_check.png","6","74","shape,color,pattern","137","1",""
"null","298248","HierDy5483c11d","sub12","12","05","feedback","test","null","","","na","","137","",""
"1199.0999999046326","299449","HierDy5483c11d","sub12","12","05","rl","test","65","img/r_t_stripes.png","1","65","shape,color,pattern","138","1",""
"null","300463","HierDy5483c11d","sub12","12","05","feedback","test","null","","","na","","138","",""
"1354.1000000238419","301819","HierDy5483c11d","sub12","12","05","rl","test","74","img/r_d_check.png","6","74","shape,color,pattern","139","1",""
"null","302845","HierDy5483c11d","sub12","12","05","feedback","test","null","","","na","","139","",""
"1035.0999999046326","303882","HierDy5483c11d","sub12","12","05","rl","test","76","img/b_d_check.png","8","76","shape,color,pattern","140","1",""
"null","304904","HierDy5483c11d","sub12","12","05","feedback","test","null","","","na","","140","",""
"1627.9000000953674","306534","HierDy5483c11d","sub12","12","05","rl","test","68","img/b_t_stripes.png","3","68","shape,color,pattern","141","1",""
"null","307549","HierDy5483c11d","sub12","12","05","feedback","test","null","","","na","","141","",""
"701.1999999284744","308253","HierDy5483c11d","sub12","12","05","rl","test","70","img/b_t_check.png","4","70","shape,color,pattern","142","1",""
"null","309264","HierDy5483c11d","sub12","12","05","feedback","test","null","","","na","","142","",""
"1528.3999999761581","310795","HierDy5483c11d","sub12","12","05","rl","test","75","img/b_d_stripes.png","7","75","shape,color,pattern","143","1",""
"null","311813","HierDy5483c11d","sub12","12","05","feedback","test","null","","","na","","143","",""
"955.8999999761581","312771","HierDy5483c11d","sub12","12","05","rl","test","65","img/r_t_stripes.png","1","65","shape,color,pattern","144","1",""
"null","313784","HierDy5483c11d","sub12","12","05","feedback","test","null","","","na","","144","",""
"794.3999999761581","314580","HierDy5483c11d","sub12","12","05","rl","test","68","img/b_t_stripes.png","3","68","shape,color,pattern","145","1",""
"null","315590","HierDy5483c11d","sub12","12","05","feedback","test","null","","","na","","145","",""
"1024.2000000476837","316618","HierDy5483c11d","sub12","12","05","rl","test","83","img/r_t_check.png","2","83","shape,color,pattern","146","1",""
"null","317637","HierDy5483c11d","sub12","12","05","feedback","test","null","","","na","","146","",""
"716.3000000715256","318355","HierDy5483c11d","sub12","12","05","rl","test","83","img/r_t_check.png","2","83","shape,color,pattern","147","1",""
"null","319368","HierDy5483c11d","sub12","12","05","feedback","test","null","","","na","","147","",""
"1239.0999999046326","320609","HierDy5483c11d","sub12","12","05","rl","test","76","img/b_d_check.png","8","76","shape,color,pattern","148","1",""
"null","321615","HierDy5483c11d","sub12","12","05","feedback","test","null","","","na","","148","",""
"832","322449","HierDy5483c11d","sub12","12","05","rl","test","75","img/b_d_stripes.png","7","75","shape,color,pattern","149","1",""
"null","323465","HierDy5483c11d","sub12","12","05","feedback","test","null","","","na","","149","",""
"1166.9000000953674","324633","HierDy5483c11d","sub12","12","05","rl","test","83","img/r_t_check.png","2","83","shape,color,pattern","150","1",""
"null","325672","HierDy5483c11d","sub12","12","05","feedback","test","null","","","na","","150","",""
"1071.8999999761581","326747","HierDy5483c11d","sub12","12","05","rl","test","72","img/r_d_stripes.png","5","72","shape,color,pattern","151","1",""
"null","327803","HierDy5483c11d","sub12","12","05","feedback","test","null","","","na","","151","",""
"1060.2000000476837","328865","HierDy5483c11d","sub12","12","05","rl","test","70","img/b_t_check.png","4","70","shape,color,pattern","152","1",""
"null","329870","HierDy5483c11d","sub12","12","05","feedback","test","null","","","na","","152","",""
"1359.6000000238419","331233","HierDy5483c11d","sub12","12","05","rl","test","74","img/r_d_check.png","6","74","shape,color,pattern","153","1",""
"null","332250","HierDy5483c11d","sub12","12","05","feedback","test","null","","","na","","153","",""
"1119","333371","HierDy5483c11d","sub12","12","05","rl","test","68","img/b_t_stripes.png","3","68","shape,color,pattern","154","1",""
"null","334382","HierDy5483c11d","sub12","12","05","feedback","test","null","","","na","","154","",""
"821.7999999523163","335207","HierDy5483c11d","sub12","12","05","rl","test","70","img/b_t_check.png","4","70","shape,color,pattern","155","1",""
"null","336226","HierDy5483c11d","sub12","12","05","feedback","test","null","","","na","","155","",""
"1187.7000000476837","337415","HierDy5483c11d","sub12","12","05","rl","test","72","img/r_d_stripes.png","5","72","shape,color,pattern","156","1",""
"null","338422","HierDy5483c11d","sub12","12","05","feedback","test","null","","","na","","156","",""
"526.8000000715256","338951","HierDy5483c11d","sub12","12","05","rl","test","74","img/r_d_check.png","6","74","shape,color,pattern","157","1",""
"null","339980","HierDy5483c11d","sub12","12","05","feedback","test","null","","","na","","157","",""
"641.1000000238419","340623","HierDy5483c11d","sub12","12","05","rl","test","75","img/b_d_stripes.png","7","75","shape,color,pattern","158","1",""
"null","341634","HierDy5483c11d","sub12","12","05","feedback","test","null","","","na","","158","",""
"924.8000000715256","342562","HierDy5483c11d","sub12","12","05","rl","test","65","img/r_t_stripes.png","1","65","shape,color,pattern","159","1",""
"null","343577","HierDy5483c11d","sub12","12","05","feedback","test","null","","","na","","159","",""
"1433.4000000953674","345012","HierDy5483c11d","sub12","12","05","rl","test","75","img/b_d_stripes.png","7","75","shape,color,pattern","160","1",""
"null","346029","HierDy5483c11d","sub12","12","05","feedback","test","null","","","na","","160","",""
"583.6999999284744","346616","HierDy5483c11d","sub12","12","05","rl","test","76","img/b_d_check.png","8","76","shape,color,pattern","161","1",""
"null","347632","HierDy5483c11d","sub12","12","05","feedback","test","null","","","na","","161","",""
"874.3999999761581","348509","HierDy5483c11d","sub12","12","05","rl","test","76","img/b_d_check.png","8","76","shape,color,pattern","162","1",""
"null","349519","HierDy5483c11d","sub12","12","05","feedback","test","null","","","na","","162","",""
"788","350309","HierDy5483c11d","sub12","12","05","rl","test","72","img/r_d_stripes.png","5","72","shape,color,pattern","163","1",""
"null","351319","HierDy5483c11d","sub12","12","05","feedback","test","null","","","na","","163","",""
"1151.1000000238419","352472","HierDy5483c11d","sub12","12","05","rl","test","65","img/r_t_stripes.png","1","65","shape,color,pattern","164","1",""
"null","353487","HierDy5483c11d","sub12","12","05","feedback","test","null","","","na","","164","",""
"732.1999999284744","354220","HierDy5483c11d","sub12","12","05","rl","test","83","img/r_t_check.png","2","83","shape,color,pattern","165","1",""
"null","355243","HierDy5483c11d","sub12","12","05","feedback","test","null","","","na","","165","",""
"662.2000000476837","355908","HierDy5483c11d","sub12","12","05","rl","test","70","img/b_t_check.png","4","70","shape,color,pattern","166","1",""
"null","356925","HierDy5483c11d","sub12","12","05","feedback","test","null","","","na","","166","",""
"1390.6999999284744","358318","HierDy5483c11d","sub12","12","05","rl","test","68","img/b_t_stripes.png","3","68","shape,color,pattern","167","1",""
"null","359334","HierDy5483c11d","sub12","12","05","feedback","test","null","","","na","","167","",""
"971.8000000715256","360308","HierDy5483c11d","sub12","12","05","rl","test","74","img/r_d_check.png","6","74","shape,color,pattern","168","1",""
"null","361320","HierDy5483c11d","sub12","12","05","feedback","test","null","","","na","","168","",""
"1574.8000000715256","362896","HierDy5483c11d","sub12","12","05","rl","test","68","img/b_t_stripes.png","3","68","shape,color,pattern","169","1",""
"null","363910","HierDy5483c11d","sub12","12","05","feedback","test","null","","","na","","169","",""
"955.3999999761581","364867","HierDy5483c11d","sub12","12","05","rl","test","72","img/r_d_stripes.png","5","72","shape,color,pattern","170","1",""
"null","365880","HierDy5483c11d","sub12","12","05","feedback","test","null","","","na","","170","",""
"542.8999999761581","366425","HierDy5483c11d","sub12","12","05","rl","test","74","img/r_d_check.png","6","74","shape,color,pattern","171","1",""
"null","367441","HierDy5483c11d","sub12","12","05","feedback","test","null","","","na","","171","",""
"674.8999999761581","368118","HierDy5483c11d","sub12","12","05","rl","test","75","img/b_d_stripes.png","7","75","shape,color,pattern","172","1",""
"null","369128","HierDy5483c11d","sub12","12","05","feedback","test","null","","","na","","172","",""
"1682","370812","HierDy5483c11d","sub12","12","05","rl","test","83","img/r_t_check.png","2","83","shape,color,pattern","173","1",""
"null","371836","HierDy5483c11d","sub12","12","05","feedback","test","null","","","na","","173","",""
"559.1999999284744","372397","HierDy5483c11d","sub12","12","05","rl","test","65","img/r_t_stripes.png","1","65","shape,color,pattern","174","1",""
"null","373413","HierDy5483c11d","sub12","12","05","feedback","test","null","","","na","","174","",""
"531.6000000238419","373947","HierDy5483c11d","sub12","12","05","rl","test","65","img/r_t_stripes.png","1","65","shape,color,pattern","175","1",""
"null","374968","HierDy5483c11d","sub12","12","05","feedback","test","null","","","na","","175","",""
"797.2000000476837","375767","HierDy5483c11d","sub12","12","05","rl","test","76","img/b_d_check.png","8","76","shape,color,pattern","176","1",""
"null","376785","HierDy5483c11d","sub12","12","05","feedback","test","null","","","na","","176","",""
"900.5","377687","HierDy5483c11d","sub12","12","05","rl","test","83","img/r_t_check.png","2","83","shape,color,pattern","177","1",""
"null","378708","HierDy5483c11d","sub12","12","05","feedback","test","null","","","na","","177","",""
"875.6999999284744","379586","HierDy5483c11d","sub12","12","05","rl","test","70","img/b_t_check.png","4","70","shape,color,pattern","178","1",""
"null","380591","HierDy5483c11d","sub12","12","05","feedback","test","null","","","na","","178","",""
"561.3999999761581","381155","HierDy5483c11d","sub12","12","05","rl","test","70","img/b_t_check.png","4","70","shape,color,pattern","179","1",""
"null","382162","HierDy5483c11d","sub12","12","05","feedback","test","null","","","na","","179","",""
"1203.1999999284744","383367","HierDy5483c11d","sub12","12","05","rl","test","76","img/b_d_check.png","8","76","shape,color,pattern","180","1",""
"null","384379","HierDy5483c11d","sub12","12","05","feedback","test","null","","","na","","180","",""
"884.8999999761581","385267","HierDy5483c11d","sub12","12","05","rl","test","65","img/r_t_stripes.png","1","65","shape,color,pattern","181","1",""
"null","386278","HierDy5483c11d","sub12","12","05","feedback","test","null","","","na","","181","",""
"1612.7000000476837","387893","HierDy5483c11d","sub12","12","05","rl","test","75","img/b_d_stripes.png","7","75","shape,color,pattern","182","1",""
"null","388916","HierDy5483c11d","sub12","12","05","feedback","test","null","","","na","","182","",""
"1694.5","390612","HierDy5483c11d","sub12","12","05","rl","test","72","img/r_d_stripes.png","5","72","shape,color,pattern","183","1",""
"null","391629","HierDy5483c11d","sub12","12","05","feedback","test","null","","","na","","183","",""
"1276.3000000715256","392907","HierDy5483c11d","sub12","12","05","rl","test","68","img/b_t_stripes.png","3","68","shape,color,pattern","184","1",""
"null","393929","HierDy5483c11d","sub12","12","05","feedback","test","null","","","na","","184","",""
"1708.7000000476837","395640","HierDy5483c11d","sub12","12","05","rl","test","74","img/r_d_check.png","6","74","shape,color,pattern","185","1",""
"null","396646","HierDy5483c11d","sub12","12","05","feedback","test","null","","","na","","185","",""
"1394.1000000238419","398043","HierDy5483c11d","sub12","12","05","rl","test","76","img/b_d_check.png","8","76","shape,color,pattern","186","1",""
"null","399058","HierDy5483c11d","sub12","12","05","feedback","test","null","","","na","","186","",""
"1118.5","400178","HierDy5483c11d","sub12","12","05","rl","test","75","img/b_d_stripes.png","7","75","shape,color,pattern","187","1",""
"null","401200","HierDy5483c11d","sub12","12","05","feedback","test","null","","","na","","187","",""
"1596.7000000476837","402800","HierDy5483c11d","sub12","12","05","rl","test","70","img/b_t_check.png","4","70","shape,color,pattern","188","1",""
"null","403809","HierDy5483c11d","sub12","12","05","feedback","test","null","","","na","","188","",""
"858.1999999284744","404670","HierDy5483c11d","sub12","12","05","rl","test","74","img/r_d_check.png","6","74","shape,color,pattern","189","1",""
"null","405679","HierDy5483c11d","sub12","12","05","feedback","test","null","","","na","","189","",""
"560.2000000476837","406242","HierDy5483c11d","sub12","12","05","rl","test","72","img/r_d_stripes.png","5","72","shape,color,pattern","190","1",""
"null","407260","HierDy5483c11d","sub12","12","05","feedback","test","null","","","na","","190","",""
"1340.8000000715256","408603","HierDy5483c11d","sub12","12","05","rl","test","83","img/r_t_check.png","2","83","shape,color,pattern","191","1",""
"null","409625","HierDy5483c11d","sub12","12","05","feedback","test","null","","","na","","191","",""
"1394.2999999523163","411021","HierDy5483c11d","sub12","12","05","rl","test","68","img/b_t_stripes.png","3","68","shape,color,pattern","192","1",""
"null","412050","HierDy5483c11d","sub12","12","05","feedback","test","null","","","na","","192","",""
"1228.1000000238419","413309","HierDy5483c11d","sub12","12","05","rl","test","83","img/r_t_check.png","2","83","shape,color,pattern","193","1",""
"null","414329","HierDy5483c11d","sub12","12","05","feedback","test","null","","","na","","193","",""
"821.6000000238419","415153","HierDy5483c11d","sub12","12","05","rl","test","68","img/b_t_stripes.png","3","68","shape,color,pattern","194","1",""
"null","416161","HierDy5483c11d","sub12","12","05","feedback","test","null","","","na","","194","",""
"1072.2999999523163","417235","HierDy5483c11d","sub12","12","05","rl","test","72","img/r_d_stripes.png","5","72","shape,color,pattern","195","1",""
"null","418240","HierDy5483c11d","sub12","12","05","feedback","test","null","","","na","","195","",""
"544.8000000715256","418786","HierDy5483c11d","sub12","12","05","rl","test","65","img/r_t_stripes.png","1","65","shape,color,pattern","196","1",""
"null","419809","HierDy5483c11d","sub12","12","05","feedback","test","null","","","na","","196","",""
"561.6000000238419","420373","HierDy5483c11d","sub12","12","05","rl","test","76","img/b_d_check.png","8","76","shape,color,pattern","197","1",""
"null","421393","HierDy5483c11d","sub12","12","05","feedback","test","null","","","na","","197","",""
"615.8999999761581","422011","HierDy5483c11d","sub12","12","05","rl","test","75","img/b_d_stripes.png","7","75","shape,color,pattern","198","1",""
"null","423022","HierDy5483c11d","sub12","12","05","feedback","test","null","","","na","","198","",""
"479.89999997615814","423505","HierDy5483c11d","sub12","12","05","rl","test","74","img/r_d_check.png","6","74","shape,color,pattern","199","1",""
"null","424518","HierDy5483c11d","sub12","12","05","feedback","test","null","","","na","","199","",""
"907.6000000238419","425428","HierDy5483c11d","sub12","12","05","rl","test","70","img/b_t_check.png","4","70","shape,color,pattern","200","1",""
"null","426449","HierDy5483c11d","sub12","12","05","feedback","test","null","","","na","","200","",""
"1323.3999999761581","427775","HierDy5483c11d","sub12","12","05","rl","test","75","img/b_d_stripes.png","7","75","shape,color,pattern","201","1",""
"null","428788","HierDy5483c11d","sub12","12","05","feedback","test","null","","","na","","201","",""
"958","429748","HierDy5483c11d","sub12","12","05","rl","test","68","img/b_t_stripes.png","3","68","shape,color,pattern","202","1",""
"null","430767","HierDy5483c11d","sub12","12","05","feedback","test","null","","","na","","202","",""
"1766.8999999761581","432537","HierDy5483c11d","sub12","12","05","rl","test","76","img/b_d_check.png","8","76","shape,color,pattern","203","1",""
"null","433543","HierDy5483c11d","sub12","12","05","feedback","test","null","","","na","","203","",""
"2058.9000000953674","435604","HierDy5483c11d","sub12","12","05","rl","test","72","img/r_d_stripes.png","5","72","shape,color,pattern","204","1",""
"null","436624","HierDy5483c11d","sub12","12","05","feedback","test","null","","","na","","204","",""
"1026.7999999523163","437653","HierDy5483c11d","sub12","12","05","rl","test","65","img/r_t_stripes.png","1","65","shape,color,pattern","205","1",""
"null","438659","HierDy5483c11d","sub12","12","05","feedback","test","null","","","na","","205","",""
"809.8999999761581","439471","HierDy5483c11d","sub12","12","05","rl","test","83","img/r_t_check.png","2","83","shape,color,pattern","206","1",""
"null","440489","HierDy5483c11d","sub12","12","05","feedback","test","null","","","na","","206","",""
"1739.2999999523163","442230","HierDy5483c11d","sub12","12","05","rl","test","68","img/b_t_check.png","4","70","shape,color,pattern","207","0",""
"null","443245","HierDy5483c11d","sub12","12","05","feedback","test","null","","","na","","207","",""
"1412.2999999523163","444660","HierDy5483c11d","sub12","12","05","rl","test","70","img/b_t_check.png","4","70","shape,color,pattern","208","1",""
"null","445681","HierDy5483c11d","sub12","12","05","feedback","test","null","","","na","","208","",""
"2350.5","448033","HierDy5483c11d","sub12","12","05","rl","test","72","img/r_d_check.png","6","74","shape,color,pattern","209","0",""
"null","449047","HierDy5483c11d","sub12","12","05","feedback","test","null","","","na","","209","",""
"1316.8999999761581","450366","HierDy5483c11d","sub12","12","05","rl","test","83","img/r_t_check.png","2","83","shape,color,pattern","210","1",""
"null","451375","HierDy5483c11d","sub12","12","05","feedback","test","null","","","na","","210","",""
"649.5","452027","HierDy5483c11d","sub12","12","05","rl","test","65","img/r_t_stripes.png","1","65","shape,color,pattern","211","1",""
"null","453046","HierDy5483c11d","sub12","12","05","feedback","test","null","","","na","","211","",""
"1089.2000000476837","454137","HierDy5483c11d","sub12","12","05","rl","test","74","img/r_d_check.png","6","74","shape,color,pattern","212","1",""
"null","455161","HierDy5483c11d","sub12","12","05","feedback","test","null","","","na","","212","",""
"775.5","455938","HierDy5483c11d","sub12","12","05","rl","test","68","img/b_t_stripes.png","3","68","shape,color,pattern","213","1",""
"null","456959","HierDy5483c11d","sub12","12","05","feedback","test","null","","","na","","213","",""
"1356","458316","HierDy5483c11d","sub12","12","05","rl","test","75","img/b_d_stripes.png","7","75","shape,color,pattern","214","1",""
"null","459328","HierDy5483c11d","sub12","12","05","feedback","test","null","","","na","","214","",""
"1152","460482","HierDy5483c11d","sub12","12","05","rl","test","76","img/b_d_check.png","8","76","shape,color,pattern","215","1",""
"null","461493","HierDy5483c11d","sub12","12","05","feedback","test","null","","","na","","215","",""
"870.5","462366","HierDy5483c11d","sub12","12","05","rl","test","72","img/r_d_stripes.png","5","72","shape,color,pattern","216","1",""
"null","463386","HierDy5483c11d","sub12","12","05","feedback","test","null","","","na","","216","",""
"1229.9000000953674","464619","HierDy5483c11d","sub12","12","05","rl","test","83","img/r_t_check.png","2","83","shape,color,pattern","217","1",""
"null","465629","HierDy5483c11d","sub12","12","05","feedback","test","null","","","na","","217","",""
"1293.1999999284744","466924","HierDy5483c11d","sub12","12","05","rl","test","72","img/r_d_stripes.png","5","72","shape,color,pattern","218","1",""
"null","467945","HierDy5483c11d","sub12","12","05","feedback","test","null","","","na","","218","",""
"1603","469551","HierDy5483c11d","sub12","12","05","rl","test","65","img/r_t_stripes.png","1","65","shape,color,pattern","219","1",""
"null","470558","HierDy5483c11d","sub12","12","05","feedback","test","null","","","na","","219","",""
"1024.7999999523163","471585","HierDy5483c11d","sub12","12","05","rl","test","76","img/b_d_check.png","8","76","shape,color,pattern","220","1",""
"null","472589","HierDy5483c11d","sub12","12","05","feedback","test","null","","","na","","220","",""
"1605.1999999284744","474196","HierDy5483c11d","sub12","12","05","rl","test","74","img/r_d_check.png","6","74","shape,color,pattern","221","1",""
"null","475217","HierDy5483c11d","sub12","12","05","feedback","test","null","","","na","","221","",""
"1663.6000000238419","476883","HierDy5483c11d","sub12","12","05","rl","test","70","img/b_t_check.png","4","70","shape,color,pattern","222","1",""
"null","477896","HierDy5483c11d","sub12","12","05","feedback","test","null","","","na","","222","",""
"515.1000000238419","478413","HierDy5483c11d","sub12","12","05","rl","test","70","img/b_t_check.png","4","70","shape,color,pattern","223","1",""
"null","479425","HierDy5483c11d","sub12","12","05","feedback","test","null","","","na","","223","",""
"1295.8999999761581","480723","HierDy5483c11d","sub12","12","05","rl","test","75","img/b_d_stripes.png","7","75","shape,color,pattern","224","1",""
"null","481734","HierDy5483c11d","sub12","12","05","feedback","test","null","","","na","","224","",""
"827.5","482563","HierDy5483c11d","sub12","12","05","rl","test","76","img/b_d_check.png","8","76","shape,color,pattern","225","1",""
"null","483567","HierDy5483c11d","sub12","12","05","feedback","test","null","","","na","","225","",""
"1658.9000000953674","485229","HierDy5483c11d","sub12","12","05","rl","test","68","img/b_t_stripes.png","3","68","shape,color,pattern","226","1",""
"null","486248","HierDy5483c11d","sub12","12","05","feedback","test","null","","","na","","226","",""
"2122.6999999284744","488373","HierDy5483c11d","sub12","12","05","rl","test","75","img/b_d_stripes.png","7","75","shape,color,pattern","227","1",""
"null","489397","HierDy5483c11d","sub12","12","05","feedback","test","null","","","na","","227","",""
"1084.1000000238419","490483","HierDy5483c11d","sub12","12","05","rl","test","74","img/r_d_check.png","6","74","shape,color,pattern","228","1",""
"null","491498","HierDy5483c11d","sub12","12","05","feedback","test","null","","","na","","228","",""
"1509.6000000238419","493009","HierDy5483c11d","sub12","12","05","rl","test","68","img/b_t_stripes.png","3","68","shape,color,pattern","229","1",""
"null","494021","HierDy5483c11d","sub12","12","05","feedback","test","null","","","na","","229","",""
"974.1000000238419","494998","HierDy5483c11d","sub12","12","05","rl","test","65","img/r_t_stripes.png","1","65","shape,color,pattern","230","1",""
"null","496017","HierDy5483c11d","sub12","12","05","feedback","test","null","","","na","","230","",""
"1292.1000000238419","497311","HierDy5483c11d","sub12","12","05","rl","test","83","img/r_t_check.png","2","83","shape,color,pattern","231","1",""
"null","498331","HierDy5483c11d","sub12","12","05","feedback","test","null","","","na","","231","",""
"1984.8999999761581","500318","HierDy5483c11d","sub12","12","05","rl","test","74","img/r_d_check.png","6","74","shape,color,pattern","232","1",""
"null","501330","HierDy5483c11d","sub12","12","05","feedback","test","null","","","na","","232","",""
"623.1000000238419","501955","HierDy5483c11d","sub12","12","05","rl","test","72","img/r_d_stripes.png","5","72","shape,color,pattern","233","1",""
"null","502972","HierDy5483c11d","sub12","12","05","feedback","test","null","","","na","","233","",""
"1169.3000000715256","504144","HierDy5483c11d","sub12","12","05","rl","test","72","img/r_d_stripes.png","5","72","shape,color,pattern","234","1",""
"null","505154","HierDy5483c11d","sub12","12","05","feedback","test","null","","","na","","234","",""
"1210.7000000476837","506367","HierDy5483c11d","sub12","12","05","rl","test","68","img/b_t_stripes.png","3","68","shape,color,pattern","235","1",""
"null","507387","HierDy5483c11d","sub12","12","05","feedback","test","null","","","na","","235","",""
"1733.8999999761581","509124","HierDy5483c11d","sub12","12","05","rl","test","72","img/r_d_stripes.png","5","72","shape,color,pattern","236","1",""
"null","510140","HierDy5483c11d","sub12","12","05","feedback","test","null","","","na","","236","",""
"750.2000000476837","510897","HierDy5483c11d","sub12","12","05","rl","test","65","img/r_t_stripes.png","1","65","shape,color,pattern","237","1",""
"null","511910","HierDy5483c11d","sub12","12","05","feedback","test","null","","","na","","237","",""
"1185.1000000238419","513097","HierDy5483c11d","sub12","12","05","rl","test","70","img/b_t_check.png","4","70","shape,color,pattern","238","1",""
"null","514106","HierDy5483c11d","sub12","12","05","feedback","test","null","","","na","","238","",""
"924.3000000715256","515033","HierDy5483c11d","sub12","12","05","rl","test","83","img/r_t_check.png","2","83","shape,color,pattern","239","1",""
"null","516045","HierDy5483c11d","sub12","12","05","feedback","test","null","","","na","","239","",""
"1371.6000000238419","517418","HierDy5483c11d","sub12","12","05","rl","test","76","img/b_d_check.png","8","76","shape,color,pattern","240","1",""
"null","518433","HierDy5483c11d","sub12","12","05","feedback","test","null","","","na","","240","",""
"671.2000000476837","519107","HierDy5483c11d","sub12","12","05","rl","test","75","img/b_d_stripes.png","7","75","shape,color,pattern","241","1",""
"null","520130","HierDy5483c11d","sub12","12","05","feedback","test","null","","","na","","241","",""
"747.5","520880","HierDy5483c11d","sub12","12","05","rl","test","76","img/b_d_check.png","8","76","shape,color,pattern","242","1",""
"null","521890","HierDy5483c11d","sub12","12","05","feedback","test","null","","","na","","242","",""
"892.6999999284744","522784","HierDy5483c11d","sub12","12","05","rl","test","70","img/b_t_check.png","4","70","shape,color,pattern","243","1",""
"null","523797","HierDy5483c11d","sub12","12","05","feedback","test","null","","","na","","243","",""
"2078.3000000715256","525877","HierDy5483c11d","sub12","12","05","rl","test","75","img/b_d_stripes.png","7","75","shape,color,pattern","244","1",""
"null","526899","HierDy5483c11d","sub12","12","05","feedback","test","null","","","na","","244","",""
"779.2999999523163","527681","HierDy5483c11d","sub12","12","05","rl","test","65","img/r_t_stripes.png","1","65","shape,color,pattern","245","1",""
"null","528694","HierDy5483c11d","sub12","12","05","feedback","test","null","","","na","","245","",""
"810.3999999761581","529507","HierDy5483c11d","sub12","12","05","rl","test","68","img/b_t_stripes.png","3","68","shape,color,pattern","246","1",""
"null","530528","HierDy5483c11d","sub12","12","05","feedback","test","null","","","na","","246","",""
"1615.3000000715256","532146","HierDy5483c11d","sub12","12","05","rl","test","76","img/r_d_check.png","6","74","shape,color,pattern","247","0",""
"null","533162","HierDy5483c11d","sub12","12","05","feedback","test","null","","","na","","247","",""
"1164.6000000238419","534328","HierDy5483c11d","sub12","12","05","rl","test","83","img/r_t_check.png","2","83","shape,color,pattern","248","1",""
"null","535346","HierDy5483c11d","sub12","12","05","feedback","test","null","","","na","","248","",""
"40089.39999997616","575449","HierDy5483c11d","sub12","12","05","","","","","","","","","","{""Q0"":""5""}"
"5294.5","580752","HierDy5483c11d","sub12","12","05","","","","","","","","","","{""Q0"":""Red to the left of blue, stripes to the left of squares, and triangles to the left of diamonds. Shapes are grouped next to each other by colors.""}"
"1391","582145","HierDy5483c11d","sub12","12","05","","","","","","","","","",""
