"rt","time_elapsed","subject","subID","group","day","trialType","phase","key_press","stim","stimNum","corrresp","hierarchy","trialNum","corr","responses"
"11628.200000047684","11632","HierDygdavw02p","sub12","12","06","","","","","","","","","",""
"","14504","HierDygdavw02p","sub12","12","06","fullscreen","","","","","","","","",""
"1975.7000000476837","16482","HierDygdavw02p","sub12","12","06","","prac","","","","","","","",""
"1465.1000000238419","17953","HierDygdavw02p","sub12","12","06","","","32","","","","","","",""
"1603.3000000715256","19560","HierDygdavw02p","sub12","12","06","","prac","","","","","","","",""
"1103.7999999523163","20669","HierDygdavw02p","sub12","12","06","rl","test","83","img/r_t_check.png","2","83","shape,color,pattern","1","1",""
"null","21674","HierDygdavw02p","sub12","12","06","feedback","test","null","","","na","","1","",""
"1060.5999999046326","22738","HierDygdavw02p","sub12","12","06","rl","test","75","img/b_d_stripes.png","7","75","shape,color,pattern","2","1",""
"null","23753","HierDygdavw02p","sub12","12","06","feedback","test","null","","","na","","2","",""
"878","24634","HierDygdavw02p","sub12","12","06","rl","test","74","img/r_d_check.png","6","74","shape,color,pattern","3","1",""
"null","25650","HierDygdavw02p","sub12","12","06","feedback","test","null","","","na","","3","",""
"682.6000000238419","26336","HierDygdavw02p","sub12","12","06","rl","test","68","img/b_t_stripes.png","3","68","shape,color,pattern","4","1",""
"null","27356","HierDygdavw02p","sub12","12","06","feedback","test","null","","","na","","4","",""
"871","28229","HierDygdavw02p","sub12","12","06","rl","test","65","img/r_t_stripes.png","1","65","shape,color,pattern","5","1",""
"null","29236","HierDygdavw02p","sub12","12","06","feedback","test","null","","","na","","5","",""
"2220.399999976158","31459","HierDygdavw02p","sub12","12","06","rl","test","70","img/b_t_check.png","4","70","shape,color,pattern","6","1",""
"null","32468","HierDygdavw02p","sub12","12","06","feedback","test","null","","","na","","6","",""
"1082.5","33553","HierDygdavw02p","sub12","12","06","rl","test","74","img/r_d_check.png","6","74","shape,color,pattern","7","1",""
"null","34563","HierDygdavw02p","sub12","12","06","feedback","test","null","","","na","","7","",""
"887.1000000238419","35452","HierDygdavw02p","sub12","12","06","rl","test","76","img/b_d_check.png","8","76","shape,color,pattern","8","1",""
"null","36467","HierDygdavw02p","sub12","12","06","feedback","test","null","","","na","","8","",""
"1307.7999999523163","37777","HierDygdavw02p","sub12","12","06","rl","test","72","img/r_d_stripes.png","5","72","shape,color,pattern","9","1",""
"null","38788","HierDygdavw02p","sub12","12","06","feedback","test","null","","","na","","9","",""
"1189.3999999761581","39981","HierDygdavw02p","sub12","12","06","rl","test","68","img/b_t_stripes.png","3","68","shape,color,pattern","10","1",""
"null","40995","HierDygdavw02p","sub12","12","06","feedback","test","null","","","na","","10","",""
"964.7000000476837","41961","HierDygdavw02p","sub12","12","06","rl","test","72","img/r_d_stripes.png","5","72","shape,color,pattern","11","1",""
"null","42982","HierDygdavw02p","sub12","12","06","feedback","test","null","","","na","","11","",""
"963.2000000476837","43948","HierDygdavw02p","sub12","12","06","rl","test","83","img/r_t_check.png","2","83","shape,color,pattern","12","1",""
"null","44964","HierDygdavw02p","sub12","12","06","feedback","test","null","","","na","","12","",""
"818.2000000476837","45784","HierDygdavw02p","sub12","12","06","rl","test","68","img/b_t_stripes.png","3","68","shape,color,pattern","13","1",""
"null","46802","HierDygdavw02p","sub12","12","06","feedback","test","null","","","na","","13","",""
"775.1000000238419","47580","HierDygdavw02p","sub12","12","06","rl","test","65","img/r_t_stripes.png","1","65","shape,color,pattern","14","1",""
"null","48599","HierDygdavw02p","sub12","12","06","feedback","test","null","","","na","","14","",""
"1341.5","49943","HierDygdavw02p","sub12","12","06","rl","test","75","img/b_d_stripes.png","7","75","shape,color,pattern","15","1",""
"null","50954","HierDygdavw02p","sub12","12","06","feedback","test","null","","","na","","15","",""
"588","51545","HierDygdavw02p","sub12","12","06","rl","test","76","img/b_d_check.png","8","76","shape,color,pattern","16","1",""
"null","52560","HierDygdavw02p","sub12","12","06","feedback","test","null","","","na","","16","",""
"1442.2999999523163","54004","HierDygdavw02p","sub12","12","06","rl","test","70","img/b_t_check.png","4","70","shape,color,pattern","17","1",""
"null","55020","HierDygdavw02p","sub12","12","06","feedback","test","null","","","na","","17","",""
"575.0999999046326","55598","HierDygdavw02p","sub12","12","06","rl","test","70","img/b_t_check.png","4","70","shape,color,pattern","18","1",""
"null","56619","HierDygdavw02p","sub12","12","06","feedback","test","null","","","na","","18","",""
"1242.2999999523163","57863","HierDygdavw02p","sub12","12","06","rl","test","83","img/r_t_check.png","2","83","shape,color,pattern","19","1",""
"null","58876","HierDygdavw02p","sub12","12","06","feedback","test","null","","","na","","19","",""
"1412.5999999046326","60291","HierDygdavw02p","sub12","12","06","rl","test","76","img/b_d_check.png","8","76","shape,color,pattern","20","1",""
"null","61310","HierDygdavw02p","sub12","12","06","feedback","test","null","","","na","","20","",""
"1164.4000000953674","62476","HierDygdavw02p","sub12","12","06","rl","test","74","img/r_d_check.png","6","74","shape,color,pattern","21","1",""
"null","63496","HierDygdavw02p","sub12","12","06","feedback","test","null","","","na","","21","",""
"753.7999999523163","64252","HierDygdavw02p","sub12","12","06","rl","test","65","img/r_t_stripes.png","1","65","shape,color,pattern","22","1",""
"null","65277","HierDygdavw02p","sub12","12","06","feedback","test","null","","","na","","22","",""
"1704.3999999761581","66983","HierDygdavw02p","sub12","12","06","rl","test","72","img/r_d_stripes.png","5","72","shape,color,pattern","23","1",""
"null","67994","HierDygdavw02p","sub12","12","06","feedback","test","null","","","na","","23","",""
"1365.4000000953674","69361","HierDygdavw02p","sub12","12","06","rl","test","75","img/b_d_stripes.png","7","75","shape,color,pattern","24","1",""
"null","70369","HierDygdavw02p","sub12","12","06","feedback","test","null","","","na","","24","",""
"635.2000000476837","71006","HierDygdavw02p","sub12","12","06","rl","test","72","img/r_d_stripes.png","5","72","shape,color,pattern","25","1",""
"null","72020","HierDygdavw02p","sub12","12","06","feedback","test","null","","","na","","25","",""
"1361.1000000238419","73384","HierDygdavw02p","sub12","12","06","rl","test","74","img/r_d_check.png","6","74","shape,color,pattern","26","1",""
"null","74393","HierDygdavw02p","sub12","12","06","feedback","test","null","","","na","","26","",""
"871.6000000238419","75267","HierDygdavw02p","sub12","12","06","rl","test","68","img/b_t_stripes.png","3","68","shape,color,pattern","27","1",""
"null","76288","HierDygdavw02p","sub12","12","06","feedback","test","null","","","na","","27","",""
"930.2999999523163","77222","HierDygdavw02p","sub12","12","06","rl","test","65","img/r_t_stripes.png","1","65","shape,color,pattern","28","1",""
"null","78237","HierDygdavw02p","sub12","12","06","feedback","test","null","","","na","","28","",""
"749.3000000715256","78989","HierDygdavw02p","sub12","12","06","rl","test","83","img/r_t_check.png","2","83","shape,color,pattern","29","1",""
"null","80008","HierDygdavw02p","sub12","12","06","feedback","test","null","","","na","","29","",""
"712.3999999761581","80723","HierDygdavw02p","sub12","12","06","rl","test","83","img/r_t_check.png","2","83","shape,color,pattern","30","1",""
"null","81735","HierDygdavw02p","sub12","12","06","feedback","test","null","","","na","","30","",""
"761.5999999046326","82499","HierDygdavw02p","sub12","12","06","rl","test","70","img/b_t_check.png","4","70","shape,color,pattern","31","1",""
"null","83510","HierDygdavw02p","sub12","12","06","feedback","test","null","","","na","","31","",""
"660.6000000238419","84173","HierDygdavw02p","sub12","12","06","rl","test","70","img/b_t_check.png","4","70","shape,color,pattern","32","1",""
"null","85194","HierDygdavw02p","sub12","12","06","feedback","test","null","","","na","","32","",""
"871.1000000238419","86068","HierDygdavw02p","sub12","12","06","rl","test","76","img/b_d_check.png","8","76","shape,color,pattern","33","1",""
"null","87072","HierDygdavw02p","sub12","12","06","feedback","test","null","","","na","","33","",""
"841.1000000238419","87916","HierDygdavw02p","sub12","12","06","rl","test","75","img/b_d_stripes.png","7","75","shape,color,pattern","34","1",""
"null","88928","HierDygdavw02p","sub12","12","06","feedback","test","null","","","na","","34","",""
"760.8999999761581","89692","HierDygdavw02p","sub12","12","06","rl","test","65","img/r_t_stripes.png","1","65","shape,color,pattern","35","1",""
"null","90718","HierDygdavw02p","sub12","12","06","feedback","test","null","","","na","","35","",""
"1267.3999999761581","91987","HierDygdavw02p","sub12","12","06","rl","test","75","img/b_d_stripes.png","7","75","shape,color,pattern","36","1",""
"null","92996","HierDygdavw02p","sub12","12","06","feedback","test","null","","","na","","36","",""
"1441.3999999761581","94441","HierDygdavw02p","sub12","12","06","rl","test","76","img/b_d_check.png","8","76","shape,color,pattern","37","1",""
"null","95454","HierDygdavw02p","sub12","12","06","feedback","test","null","","","na","","37","",""
"1186.2999999523163","96643","HierDygdavw02p","sub12","12","06","rl","test","68","img/b_t_stripes.png","3","68","shape,color,pattern","38","1",""
"null","97660","HierDygdavw02p","sub12","12","06","feedback","test","null","","","na","","38","",""
"1285.1000000238419","98948","HierDygdavw02p","sub12","12","06","rl","test","72","img/r_d_stripes.png","5","72","shape,color,pattern","39","1",""
"null","99965","HierDygdavw02p","sub12","12","06","feedback","test","null","","","na","","39","",""
"672","100639","HierDygdavw02p","sub12","12","06","rl","test","74","img/r_d_check.png","6","74","shape,color,pattern","40","1",""
"null","101651","HierDygdavw02p","sub12","12","06","feedback","test","null","","","na","","40","",""
"1119.6999999284744","102782","HierDygdavw02p","sub12","12","06","rl","test","75","img/b_d_stripes.png","7","75","shape,color,pattern","41","1",""
"null","103793","HierDygdavw02p","sub12","12","06","feedback","test","null","","","na","","41","",""
"641","104435","HierDygdavw02p","sub12","12","06","rl","test","72","img/r_d_stripes.png","5","72","shape,color,pattern","42","1",""
"null","105449","HierDygdavw02p","sub12","12","06","feedback","test","null","","","na","","42","",""
"941.2000000476837","106392","HierDygdavw02p","sub12","12","06","rl","test","76","img/b_d_check.png","8","76","shape,color,pattern","43","1",""
"null","107408","HierDygdavw02p","sub12","12","06","feedback","test","null","","","na","","43","",""
"857.8000000715256","108267","HierDygdavw02p","sub12","12","06","rl","test","74","img/r_d_check.png","6","74","shape,color,pattern","44","1",""
"null","109274","HierDygdavw02p","sub12","12","06","feedback","test","null","","","na","","44","",""
"1084.2000000476837","110360","HierDygdavw02p","sub12","12","06","rl","test","83","img/r_t_check.png","2","83","shape,color,pattern","45","1",""
"null","111382","HierDygdavw02p","sub12","12","06","feedback","test","null","","","na","","45","",""
"802.8000000715256","112186","HierDygdavw02p","sub12","12","06","rl","test","68","img/b_t_stripes.png","3","68","shape,color,pattern","46","1",""
"null","113197","HierDygdavw02p","sub12","12","06","feedback","test","null","","","na","","46","",""
"667","113867","HierDygdavw02p","sub12","12","06","rl","test","70","img/b_t_check.png","4","70","shape,color,pattern","47","1",""
"null","114877","HierDygdavw02p","sub12","12","06","feedback","test","null","","","na","","47","",""
"743.7999999523163","115622","HierDygdavw02p","sub12","12","06","rl","test","65","img/r_t_stripes.png","1","65","shape,color,pattern","48","1",""
"null","116645","HierDygdavw02p","sub12","12","06","feedback","test","null","","","na","","48","",""
"590.5","117238","HierDygdavw02p","sub12","12","06","rl","test","65","img/r_t_stripes.png","1","65","shape,color,pattern","49","1",""
"null","118253","HierDygdavw02p","sub12","12","06","feedback","test","null","","","na","","49","",""
"891.2000000476837","119144","HierDygdavw02p","sub12","12","06","rl","test","76","img/b_d_check.png","8","76","shape,color,pattern","50","1",""
"null","120155","HierDygdavw02p","sub12","12","06","feedback","test","null","","","na","","50","",""
"934","121090","HierDygdavw02p","sub12","12","06","rl","test","68","img/b_t_stripes.png","3","68","shape,color,pattern","51","1",""
"null","122105","HierDygdavw02p","sub12","12","06","feedback","test","null","","","na","","51","",""
"876.8999999761581","122984","HierDygdavw02p","sub12","12","06","rl","test","72","img/r_d_stripes.png","5","72","shape,color,pattern","52","1",""
"null","124001","HierDygdavw02p","sub12","12","06","feedback","test","null","","","na","","52","",""
"985.5","124989","HierDygdavw02p","sub12","12","06","rl","test","70","img/b_t_check.png","4","70","shape,color,pattern","53","1",""
"null","126001","HierDygdavw02p","sub12","12","06","feedback","test","null","","","na","","53","",""
"1017.9000000953674","127021","HierDygdavw02p","sub12","12","06","rl","test","83","img/r_t_check.png","2","83","shape,color,pattern","54","1",""
"null","128033","HierDygdavw02p","sub12","12","06","feedback","test","null","","","na","","54","",""
"1285","129320","HierDygdavw02p","sub12","12","06","rl","test","74","img/r_d_check.png","6","74","shape,color,pattern","55","1",""
"null","130336","HierDygdavw02p","sub12","12","06","feedback","test","null","","","na","","55","",""
"1192.5","131531","HierDygdavw02p","sub12","12","06","rl","test","75","img/b_d_stripes.png","7","75","shape,color,pattern","56","1",""
"null","132548","HierDygdavw02p","sub12","12","06","feedback","test","null","","","na","","56","",""
"744.9000000953674","133295","HierDygdavw02p","sub12","12","06","rl","test","74","img/r_d_check.png","6","74","shape,color,pattern","57","1",""
"null","134310","HierDygdavw02p","sub12","12","06","feedback","test","null","","","na","","57","",""
"1047.5","135359","HierDygdavw02p","sub12","12","06","rl","test","83","img/r_t_check.png","2","83","shape,color,pattern","58","1",""
"null","136391","HierDygdavw02p","sub12","12","06","feedback","test","null","","","na","","58","",""
"1242.8999999761581","137638","HierDygdavw02p","sub12","12","06","rl","test","75","img/b_d_stripes.png","7","75","shape,color,pattern","59","1",""
"null","138647","HierDygdavw02p","sub12","12","06","feedback","test","null","","","na","","59","",""
"1322.5","139972","HierDygdavw02p","sub12","12","06","rl","test","70","img/b_t_check.png","4","70","shape,color,pattern","60","1",""
"null","140989","HierDygdavw02p","sub12","12","06","feedback","test","null","","","na","","60","",""
"737.6000000238419","141728","HierDygdavw02p","sub12","12","06","rl","test","65","img/r_t_stripes.png","1","65","shape,color,pattern","61","1",""
"null","142739","HierDygdavw02p","sub12","12","06","feedback","test","null","","","na","","61","",""
"1010.6000000238419","143752","HierDygdavw02p","sub12","12","06","rl","test","76","img/b_d_check.png","8","76","shape,color,pattern","62","1",""
"null","144762","HierDygdavw02p","sub12","12","06","feedback","test","null","","","na","","62","",""
"629.6999999284744","145394","HierDygdavw02p","sub12","12","06","rl","test","72","img/r_d_stripes.png","5","72","shape,color,pattern","63","1",""
"null","146412","HierDygdavw02p","sub12","12","06","feedback","test","null","","","na","","63","",""
"841","147255","HierDygdavw02p","sub12","12","06","rl","test","68","img/b_t_stripes.png","3","68","shape,color,pattern","64","1",""
"null","148261","HierDygdavw02p","sub12","12","06","feedback","test","null","","","na","","64","",""
"497","148760","HierDygdavw02p","sub12","12","06","rl","test","68","img/b_t_stripes.png","3","68","shape,color,pattern","65","1",""
"null","149779","HierDygdavw02p","sub12","12","06","feedback","test","null","","","na","","65","",""
"1143.5","150925","HierDygdavw02p","sub12","12","06","rl","test","74","img/r_d_check.png","6","74","shape,color,pattern","66","1",""
"null","151935","HierDygdavw02p","sub12","12","06","feedback","test","null","","","na","","66","",""
"2382.6999999284744","154320","HierDygdavw02p","sub12","12","06","rl","test","75","img/b_d_stripes.png","7","75","shape,color,pattern","67","1",""
"null","155329","HierDygdavw02p","sub12","12","06","feedback","test","null","","","na","","67","",""
"936.2000000476837","156268","HierDygdavw02p","sub12","12","06","rl","test","83","img/r_t_check.png","2","83","shape,color,pattern","68","1",""
"null","157282","HierDygdavw02p","sub12","12","06","feedback","test","null","","","na","","68","",""
"1087.5","158371","HierDygdavw02p","sub12","12","06","rl","test","72","img/r_d_stripes.png","5","72","shape,color,pattern","69","1",""
"null","159386","HierDygdavw02p","sub12","12","06","feedback","test","null","","","na","","69","",""
"1018.6000000238419","160406","HierDygdavw02p","sub12","12","06","rl","test","68","img/b_t_stripes.png","3","68","shape,color,pattern","70","1",""
"null","161426","HierDygdavw02p","sub12","12","06","feedback","test","null","","","na","","70","",""
"927.2999999523163","162355","HierDygdavw02p","sub12","12","06","rl","test","70","img/b_t_check.png","4","70","shape,color,pattern","71","1",""
"null","163376","HierDygdavw02p","sub12","12","06","feedback","test","null","","","na","","71","",""
"1271.8999999761581","164650","HierDygdavw02p","sub12","12","06","rl","test","75","img/b_d_check.png","8","76","shape,color,pattern","72","0",""
"null","165668","HierDygdavw02p","sub12","12","06","feedback","test","null","","","na","","72","",""
"1437.5","167108","HierDygdavw02p","sub12","12","06","rl","test","65","img/r_t_stripes.png","1","65","shape,color,pattern","73","1",""
"null","168129","HierDygdavw02p","sub12","12","06","feedback","test","null","","","na","","73","",""
"1141.4000000953674","169273","HierDygdavw02p","sub12","12","06","rl","test","76","img/b_d_check.png","8","76","shape,color,pattern","74","1",""
"null","170289","HierDygdavw02p","sub12","12","06","feedback","test","null","","","na","","74","",""
"897.3999999761581","171188","HierDygdavw02p","sub12","12","06","rl","test","83","img/r_t_check.png","2","83","shape,color,pattern","75","1",""
"null","172208","HierDygdavw02p","sub12","12","06","feedback","test","null","","","na","","75","",""
"765.5999999046326","172975","HierDygdavw02p","sub12","12","06","rl","test","65","img/r_t_stripes.png","1","65","shape,color,pattern","76","1",""
"null","173988","HierDygdavw02p","sub12","12","06","feedback","test","null","","","na","","76","",""
"911.1000000238419","174902","HierDygdavw02p","sub12","12","06","rl","test","72","img/r_d_stripes.png","5","72","shape,color,pattern","77","1",""
"null","175922","HierDygdavw02p","sub12","12","06","feedback","test","null","","","na","","77","",""
"767.8000000715256","176692","HierDygdavw02p","sub12","12","06","rl","test","74","img/r_d_check.png","6","74","shape,color,pattern","78","1",""
"null","177705","HierDygdavw02p","sub12","12","06","feedback","test","null","","","na","","78","",""
"902","178610","HierDygdavw02p","sub12","12","06","rl","test","76","img/b_d_check.png","8","76","shape,color,pattern","79","1",""
"null","179626","HierDygdavw02p","sub12","12","06","feedback","test","null","","","na","","79","",""
"1290.6000000238419","180919","HierDygdavw02p","sub12","12","06","rl","test","70","img/b_t_check.png","4","70","shape,color,pattern","80","1",""
"null","181943","HierDygdavw02p","sub12","12","06","feedback","test","null","","","na","","80","",""
"1101.5","183046","HierDygdavw02p","sub12","12","06","rl","test","75","img/b_d_stripes.png","7","75","shape,color,pattern","81","1",""
"null","184067","HierDygdavw02p","sub12","12","06","feedback","test","null","","","na","","81","",""
"683","184752","HierDygdavw02p","sub12","12","06","rl","test","65","img/r_t_stripes.png","1","65","shape,color,pattern","82","1",""
"null","185764","HierDygdavw02p","sub12","12","06","feedback","test","null","","","na","","82","",""
"1365.6000000238419","187132","HierDygdavw02p","sub12","12","06","rl","test","68","img/b_t_stripes.png","3","68","shape,color,pattern","83","1",""
"null","188150","HierDygdavw02p","sub12","12","06","feedback","test","null","","","na","","83","",""
"671.6000000238419","188825","HierDygdavw02p","sub12","12","06","rl","test","70","img/b_t_check.png","4","70","shape,color,pattern","84","1",""
"null","189838","HierDygdavw02p","sub12","12","06","feedback","test","null","","","na","","84","",""
"708","190549","HierDygdavw02p","sub12","12","06","rl","test","65","img/r_t_stripes.png","1","65","shape,color,pattern","85","1",""
"null","191574","HierDygdavw02p","sub12","12","06","feedback","test","null","","","na","","85","",""
"1545.7000000476837","193122","HierDygdavw02p","sub12","12","06","rl","test","83","img/r_t_check.png","2","83","shape,color,pattern","86","1",""
"null","194132","HierDygdavw02p","sub12","12","06","feedback","test","null","","","na","","86","",""
"1171.5","195306","HierDygdavw02p","sub12","12","06","rl","test","83","img/r_t_check.png","2","83","shape,color,pattern","87","1",""
"null","196315","HierDygdavw02p","sub12","12","06","feedback","test","null","","","na","","87","",""
"1225.7999999523163","197544","HierDygdavw02p","sub12","12","06","rl","test","75","img/b_d_stripes.png","7","75","shape,color,pattern","88","1",""
"null","198558","HierDygdavw02p","sub12","12","06","feedback","test","null","","","na","","88","",""
"null","201076","HierDygdavw02p","sub12","12","06","rl","test","null","img/b_d_stripes.png","7","75","shape,color,pattern","89","0",""
"null","202097","HierDygdavw02p","sub12","12","06","feedback","test","null","","","na","","89","",""
"1013.3999999761581","203112","HierDygdavw02p","sub12","12","06","rl","test","72","img/r_d_stripes.png","5","72","shape,color,pattern","90","1",""
"null","204123","HierDygdavw02p","sub12","12","06","feedback","test","null","","","na","","90","",""
"1265.8999999761581","205393","HierDygdavw02p","sub12","12","06","rl","test","75","img/b_d_stripes.png","7","75","shape,color,pattern","91","1",""
"null","206413","HierDygdavw02p","sub12","12","06","feedback","test","null","","","na","","91","",""
"1769.7999999523163","208185","HierDygdavw02p","sub12","12","06","rl","test","74","img/r_d_check.png","6","74","shape,color,pattern","92","1",""
"null","209192","HierDygdavw02p","sub12","12","06","feedback","test","null","","","na","","92","",""
"2410.399999976158","211604","HierDygdavw02p","sub12","12","06","rl","test","76","img/b_d_check.png","8","76","shape,color,pattern","93","1",""
"null","212626","HierDygdavw02p","sub12","12","06","feedback","test","null","","","na","","93","",""
"1099.6000000238419","213727","HierDygdavw02p","sub12","12","06","rl","test","72","img/r_d_stripes.png","5","72","shape,color,pattern","94","1",""
"null","214736","HierDygdavw02p","sub12","12","06","feedback","test","null","","","na","","94","",""
"839.5999999046326","215578","HierDygdavw02p","sub12","12","06","rl","test","74","img/r_d_check.png","6","74","shape,color,pattern","95","1",""
"null","216592","HierDygdavw02p","sub12","12","06","feedback","test","null","","","na","","95","",""
"623.4000000953674","217218","HierDygdavw02p","sub12","12","06","rl","test","72","img/r_d_stripes.png","5","72","shape,color,pattern","96","1",""
"null","218238","HierDygdavw02p","sub12","12","06","feedback","test","null","","","na","","96","",""
"1014","219255","HierDygdavw02p","sub12","12","06","rl","test","70","img/b_t_check.png","4","70","shape,color,pattern","97","1",""
"null","220272","HierDygdavw02p","sub12","12","06","feedback","test","null","","","na","","97","",""
"787.1000000238419","221062","HierDygdavw02p","sub12","12","06","rl","test","68","img/b_t_stripes.png","3","68","shape,color,pattern","98","1",""
"null","222083","HierDygdavw02p","sub12","12","06","feedback","test","null","","","na","","98","",""
"994.7000000476837","223080","HierDygdavw02p","sub12","12","06","rl","test","76","img/b_d_check.png","8","76","shape,color,pattern","99","1",""
"null","224095","HierDygdavw02p","sub12","12","06","feedback","test","null","","","na","","99","",""
"954.8000000715256","225051","HierDygdavw02p","sub12","12","06","rl","test","65","img/r_t_stripes.png","1","65","shape,color,pattern","100","1",""
"null","226061","HierDygdavw02p","sub12","12","06","feedback","test","null","","","na","","100","",""
"2116","228179","HierDygdavw02p","sub12","12","06","rl","test","74","img/r_d_check.png","6","74","shape,color,pattern","101","1",""
"null","229188","HierDygdavw02p","sub12","12","06","feedback","test","null","","","na","","101","",""
"1541.6999999284744","230732","HierDygdavw02p","sub12","12","06","rl","test","83","img/r_t_check.png","2","83","shape,color,pattern","102","1",""
"null","231737","HierDygdavw02p","sub12","12","06","feedback","test","null","","","na","","102","",""
"1587.6000000238419","233327","HierDygdavw02p","sub12","12","06","rl","test","68","img/b_t_stripes.png","3","68","shape,color,pattern","103","1",""
"null","234347","HierDygdavw02p","sub12","12","06","feedback","test","null","","","na","","103","",""
"852.2999999523163","235201","HierDygdavw02p","sub12","12","06","rl","test","70","img/b_t_check.png","4","70","shape,color,pattern","104","1",""
"null","236210","HierDygdavw02p","sub12","12","06","feedback","test","null","","","na","","104","",""
"705.3000000715256","236917","HierDygdavw02p","sub12","12","06","rl","test","72","img/r_d_stripes.png","5","72","shape,color,pattern","105","1",""
"null","237930","HierDygdavw02p","sub12","12","06","feedback","test","null","","","na","","105","",""
"1409.3999999761581","239343","HierDygdavw02p","sub12","12","06","rl","test","75","img/b_d_stripes.png","7","75","shape,color,pattern","106","1",""
"null","240362","HierDygdavw02p","sub12","12","06","feedback","test","null","","","na","","106","",""
"1373.7000000476837","241738","HierDygdavw02p","sub12","12","06","rl","test","76","img/b_d_check.png","8","76","shape,color,pattern","107","1",""
"null","242747","HierDygdavw02p","sub12","12","06","feedback","test","null","","","na","","107","",""
"1103.2000000476837","243852","HierDygdavw02p","sub12","12","06","rl","test","70","img/b_t_check.png","4","70","shape,color,pattern","108","1",""
"null","244877","HierDygdavw02p","sub12","12","06","feedback","test","null","","","na","","108","",""
"780","245660","HierDygdavw02p","sub12","12","06","rl","test","74","img/r_d_check.png","6","74","shape,color,pattern","109","1",""
"null","246664","HierDygdavw02p","sub12","12","06","feedback","test","null","","","na","","109","",""
"1166.1000000238419","247832","HierDygdavw02p","sub12","12","06","rl","test","65","img/r_t_stripes.png","1","65","shape,color,pattern","110","1",""
"null","248843","HierDygdavw02p","sub12","12","06","feedback","test","null","","","na","","110","",""
"628.1000000238419","249474","HierDygdavw02p","sub12","12","06","rl","test","83","img/r_t_check.png","2","83","shape,color,pattern","111","1",""
"null","250489","HierDygdavw02p","sub12","12","06","feedback","test","null","","","na","","111","",""
"601.6000000238419","251093","HierDygdavw02p","sub12","12","06","rl","test","65","img/r_t_stripes.png","1","65","shape,color,pattern","112","1",""
"null","252106","HierDygdavw02p","sub12","12","06","feedback","test","null","","","na","","112","",""
"799.6999999284744","252908","HierDygdavw02p","sub12","12","06","rl","test","68","img/b_t_stripes.png","3","68","shape,color,pattern","113","1",""
"null","253911","HierDygdavw02p","sub12","12","06","feedback","test","null","","","na","","113","",""
"867.7999999523163","254781","HierDygdavw02p","sub12","12","06","rl","test","83","img/r_t_check.png","2","83","shape,color,pattern","114","1",""
"null","255790","HierDygdavw02p","sub12","12","06","feedback","test","null","","","na","","114","",""
"1553.7999999523163","257346","HierDygdavw02p","sub12","12","06","rl","test","76","img/b_d_check.png","8","76","shape,color,pattern","115","1",""
"null","258357","HierDygdavw02p","sub12","12","06","feedback","test","null","","","na","","115","",""
"877.7000000476837","259237","HierDygdavw02p","sub12","12","06","rl","test","72","img/r_d_stripes.png","5","72","shape,color,pattern","116","1",""
"null","260257","HierDygdavw02p","sub12","12","06","feedback","test","null","","","na","","116","",""
"1265.3000000715256","261524","HierDygdavw02p","sub12","12","06","rl","test","70","img/b_t_check.png","4","70","shape,color,pattern","117","1",""
"null","262545","HierDygdavw02p","sub12","12","06","feedback","test","null","","","na","","117","",""
"1678","264225","HierDygdavw02p","sub12","12","06","rl","test","75","img/b_d_stripes.png","7","75","shape,color,pattern","118","1",""
"null","265243","HierDygdavw02p","sub12","12","06","feedback","test","null","","","na","","118","",""
"881.1000000238419","266125","HierDygdavw02p","sub12","12","06","rl","test","75","img/b_d_stripes.png","7","75","shape,color,pattern","119","1",""
"null","267141","HierDygdavw02p","sub12","12","06","feedback","test","null","","","na","","119","",""
"724.7999999523163","267868","HierDygdavw02p","sub12","12","06","rl","test","76","img/b_d_check.png","8","76","shape,color,pattern","120","1",""
"null","268880","HierDygdavw02p","sub12","12","06","feedback","test","null","","","na","","120","",""
"800.8999999761581","269683","HierDygdavw02p","sub12","12","06","rl","test","74","img/r_d_check.png","6","74","shape,color,pattern","121","1",""
"null","270699","HierDygdavw02p","sub12","12","06","feedback","test","null","","","na","","121","",""
"1229.7000000476837","271930","HierDygdavw02p","sub12","12","06","rl","test","68","img/b_t_stripes.png","3","68","shape,color,pattern","122","1",""
"null","272944","HierDygdavw02p","sub12","12","06","feedback","test","null","","","na","","122","",""
"652","273598","HierDygdavw02p","sub12","12","06","rl","test","65","img/r_t_stripes.png","1","65","shape,color,pattern","123","1",""
"null","274613","HierDygdavw02p","sub12","12","06","feedback","test","null","","","na","","123","",""
"776.1000000238419","275392","HierDygdavw02p","sub12","12","06","rl","test","68","img/b_t_stripes.png","3","68","shape,color,pattern","124","1",""
"null","276402","HierDygdavw02p","sub12","12","06","feedback","test","null","","","na","","124","",""
"1237.7000000476837","277642","HierDygdavw02p","sub12","12","06","rl","test","74","img/r_d_check.png","6","74","shape,color,pattern","125","1",""
"null","278647","HierDygdavw02p","sub12","12","06","feedback","test","null","","","na","","125","",""
"543.1000000238419","279192","HierDygdavw02p","sub12","12","06","rl","test","72","img/r_d_stripes.png","5","72","shape,color,pattern","126","1",""
"null","280210","HierDygdavw02p","sub12","12","06","feedback","test","null","","","na","","126","",""
"1284.7999999523163","281497","HierDygdavw02p","sub12","12","06","rl","test","83","img/r_t_check.png","2","83","shape,color,pattern","127","1",""
"null","282513","HierDygdavw02p","sub12","12","06","feedback","test","null","","","na","","127","",""
"705.5","283221","HierDygdavw02p","sub12","12","06","rl","test","65","img/r_t_stripes.png","1","65","shape,color,pattern","128","1",""
"null","284238","HierDygdavw02p","sub12","12","06","feedback","test","null","","","na","","128","",""
"805.6999999284744","285046","HierDygdavw02p","sub12","12","06","rl","test","70","img/b_t_check.png","4","70","shape,color,pattern","129","1",""
"null","286068","HierDygdavw02p","sub12","12","06","feedback","test","null","","","na","","129","",""
"654.3999999761581","286725","HierDygdavw02p","sub12","12","06","rl","test","70","img/b_t_check.png","4","70","shape,color,pattern","130","1",""
"null","287747","HierDygdavw02p","sub12","12","06","feedback","test","null","","","na","","130","",""
"727.9000000953674","288477","HierDygdavw02p","sub12","12","06","rl","test","68","img/b_t_stripes.png","3","68","shape,color,pattern","131","1",""
"null","289493","HierDygdavw02p","sub12","12","06","feedback","test","null","","","na","","131","",""
"784.3999999761581","290279","HierDygdavw02p","sub12","12","06","rl","test","72","img/r_d_stripes.png","5","72","shape,color,pattern","132","1",""
"null","291289","HierDygdavw02p","sub12","12","06","feedback","test","null","","","na","","132","",""
"1006.1999999284744","292298","HierDygdavw02p","sub12","12","06","rl","test","75","img/b_d_stripes.png","7","75","shape,color,pattern","133","1",""
"null","293310","HierDygdavw02p","sub12","12","06","feedback","test","null","","","na","","133","",""
"802.3000000715256","294114","HierDygdavw02p","sub12","12","06","rl","test","76","img/b_d_check.png","8","76","shape,color,pattern","134","1",""
"null","295125","HierDygdavw02p","sub12","12","06","feedback","test","null","","","na","","134","",""
"761.5","295889","HierDygdavw02p","sub12","12","06","rl","test","74","img/r_d_check.png","6","74","shape,color,pattern","135","1",""
"null","296906","HierDygdavw02p","sub12","12","06","feedback","test","null","","","na","","135","",""
"812.2999999523163","297721","HierDygdavw02p","sub12","12","06","rl","test","75","img/b_d_stripes.png","7","75","shape,color,pattern","136","1",""
"null","298743","HierDygdavw02p","sub12","12","06","feedback","test","null","","","na","","136","",""
"1228.3000000715256","299973","HierDygdavw02p","sub12","12","06","rl","test","70","img/b_t_check.png","4","70","shape,color,pattern","137","1",""
"null","300990","HierDygdavw02p","sub12","12","06","feedback","test","null","","","na","","137","",""
"860.0999999046326","301852","HierDygdavw02p","sub12","12","06","rl","test","83","img/r_t_check.png","2","83","shape,color,pattern","138","1",""
"null","302857","HierDygdavw02p","sub12","12","06","feedback","test","null","","","na","","138","",""
"775.6999999284744","303635","HierDygdavw02p","sub12","12","06","rl","test","83","img/r_t_check.png","2","83","shape,color,pattern","139","1",""
"null","304644","HierDygdavw02p","sub12","12","06","feedback","test","null","","","na","","139","",""
"1288.1000000238419","305935","HierDygdavw02p","sub12","12","06","rl","test","76","img/b_d_check.png","8","76","shape,color,pattern","140","1",""
"null","306947","HierDygdavw02p","sub12","12","06","feedback","test","null","","","na","","140","",""
"755","307704","HierDygdavw02p","sub12","12","06","rl","test","65","img/r_t_stripes.png","1","65","shape,color,pattern","141","1",""
"null","308713","HierDygdavw02p","sub12","12","06","feedback","test","null","","","na","","141","",""
"908.5999999046326","309623","HierDygdavw02p","sub12","12","06","rl","test","72","img/r_d_stripes.png","5","72","shape,color,pattern","142","1",""
"null","310644","HierDygdavw02p","sub12","12","06","feedback","test","null","","","na","","142","",""
"831.1000000238419","311477","HierDygdavw02p","sub12","12","06","rl","test","83","img/r_t_check.png","2","83","shape,color,pattern","143","1",""
"null","312493","HierDygdavw02p","sub12","12","06","feedback","test","null","","","na","","143","",""
"888.7999999523163","313384","HierDygdavw02p","sub12","12","06","rl","test","75","img/b_d_stripes.png","7","75","shape,color,pattern","144","1",""
"null","314404","HierDygdavw02p","sub12","12","06","feedback","test","null","","","na","","144","",""
"956.3999999761581","315364","HierDygdavw02p","sub12","12","06","rl","test","68","img/b_t_stripes.png","3","68","shape,color,pattern","145","1",""
"null","316376","HierDygdavw02p","sub12","12","06","feedback","test","null","","","na","","145","",""
"1105","317483","HierDygdavw02p","sub12","12","06","rl","test","74","img/r_d_check.png","6","74","shape,color,pattern","146","1",""
"null","318492","HierDygdavw02p","sub12","12","06","feedback","test","null","","","na","","146","",""
"1902.8999999761581","320397","HierDygdavw02p","sub12","12","06","rl","test","68","img/b_t_stripes.png","3","68","shape,color,pattern","147","1",""
"null","321411","HierDygdavw02p","sub12","12","06","feedback","test","null","","","na","","147","",""
"899.5999999046326","322313","HierDygdavw02p","sub12","12","06","rl","test","76","img/b_d_check.png","8","76","shape,color,pattern","148","1",""
"null","323327","HierDygdavw02p","sub12","12","06","feedback","test","null","","","na","","148","",""
"852.7000000476837","324182","HierDygdavw02p","sub12","12","06","rl","test","74","img/r_d_check.png","6","74","shape,color,pattern","149","1",""
"null","325204","HierDygdavw02p","sub12","12","06","feedback","test","null","","","na","","149","",""
"993.1000000238419","326200","HierDygdavw02p","sub12","12","06","rl","test","70","img/b_t_check.png","4","70","shape,color,pattern","150","1",""
"null","327209","HierDygdavw02p","sub12","12","06","feedback","test","null","","","na","","150","",""
"999.7000000476837","328211","HierDygdavw02p","sub12","12","06","rl","test","72","img/r_d_stripes.png","5","72","shape,color,pattern","151","1",""
"null","329216","HierDygdavw02p","sub12","12","06","feedback","test","null","","","na","","151","",""
"1037.5","330255","HierDygdavw02p","sub12","12","06","rl","test","68","img/b_t_stripes.png","3","68","shape,color,pattern","152","1",""
"null","331275","HierDygdavw02p","sub12","12","06","feedback","test","null","","","na","","152","",""
"1061.6000000238419","332339","HierDygdavw02p","sub12","12","06","rl","test","76","img/b_d_check.png","8","76","shape,color,pattern","153","1",""
"null","333357","HierDygdavw02p","sub12","12","06","feedback","test","null","","","na","","153","",""
"1236.3000000715256","334594","HierDygdavw02p","sub12","12","06","rl","test","70","img/b_t_check.png","4","70","shape,color,pattern","154","1",""
"null","335612","HierDygdavw02p","sub12","12","06","feedback","test","null","","","na","","154","",""
"943.8000000715256","336557","HierDygdavw02p","sub12","12","06","rl","test","65","img/r_t_stripes.png","1","65","shape,color,pattern","155","1",""
"null","337569","HierDygdavw02p","sub12","12","06","feedback","test","null","","","na","","155","",""
"1531.1000000238419","339102","HierDygdavw02p","sub12","12","06","rl","test","75","img/b_d_stripes.png","7","75","shape,color,pattern","156","1",""
"null","340118","HierDygdavw02p","sub12","12","06","feedback","test","null","","","na","","156","",""
"1016.6999999284744","341137","HierDygdavw02p","sub12","12","06","rl","test","72","img/r_d_stripes.png","5","72","shape,color,pattern","157","1",""
"null","342148","HierDygdavw02p","sub12","12","06","feedback","test","null","","","na","","157","",""
"910","343060","HierDygdavw02p","sub12","12","06","rl","test","83","img/r_t_check.png","2","83","shape,color,pattern","158","1",""
"null","344067","HierDygdavw02p","sub12","12","06","feedback","test","null","","","na","","158","",""
"942.5","345012","HierDygdavw02p","sub12","12","06","rl","test","68","img/b_t_stripes.png","3","68","shape,color,pattern","159","1",""
"null","346018","HierDygdavw02p","sub12","12","06","feedback","test","null","","","na","","159","",""
"768.7999999523163","346790","HierDygdavw02p","sub12","12","06","rl","test","65","img/r_t_stripes.png","1","65","shape,color,pattern","160","1",""
"null","347806","HierDygdavw02p","sub12","12","06","feedback","test","null","","","na","","160","",""
"1405.6000000238419","349214","HierDygdavw02p","sub12","12","06","rl","test","74","img/r_d_check.png","6","74","shape,color,pattern","161","1",""
"null","350227","HierDygdavw02p","sub12","12","06","feedback","test","null","","","na","","161","",""
"511.5","350741","HierDygdavw02p","sub12","12","06","rl","test","74","img/r_d_check.png","6","74","shape,color,pattern","162","1",""
"null","351752","HierDygdavw02p","sub12","12","06","feedback","test","null","","","na","","162","",""
"954.7999999523163","352709","HierDygdavw02p","sub12","12","06","rl","test","65","img/r_t_stripes.png","1","65","shape,color,pattern","163","1",""
"null","353725","HierDygdavw02p","sub12","12","06","feedback","test","null","","","na","","163","",""
"1273.1000000238419","355000","HierDygdavw02p","sub12","12","06","rl","test","75","img/b_d_stripes.png","7","75","shape,color,pattern","164","1",""
"null","356015","HierDygdavw02p","sub12","12","06","feedback","test","null","","","na","","164","",""
"993.7999999523163","357011","HierDygdavw02p","sub12","12","06","rl","test","65","img/r_t_stripes.png","1","65","shape,color,pattern","165","1",""
"null","358022","HierDygdavw02p","sub12","12","06","feedback","test","null","","","na","","165","",""
"1133.7000000476837","359158","HierDygdavw02p","sub12","12","06","rl","test","72","img/r_d_stripes.png","5","72","shape,color,pattern","166","1",""
"null","360176","HierDygdavw02p","sub12","12","06","feedback","test","null","","","na","","166","",""
"1095.2999999523163","361274","HierDygdavw02p","sub12","12","06","rl","test","70","img/b_t_check.png","4","70","shape,color,pattern","167","1",""
"null","362292","HierDygdavw02p","sub12","12","06","feedback","test","null","","","na","","167","",""
"908.2000000476837","363202","HierDygdavw02p","sub12","12","06","rl","test","76","img/b_d_check.png","8","76","shape,color,pattern","168","1",""
"null","364208","HierDygdavw02p","sub12","12","06","feedback","test","null","","","na","","168","",""
"1048.3999999761581","365258","HierDygdavw02p","sub12","12","06","rl","test","83","img/r_t_check.png","2","83","shape,color,pattern","169","1",""
"null","366269","HierDygdavw02p","sub12","12","06","feedback","test","null","","","na","","169","",""
"1116.2000000476837","367387","HierDygdavw02p","sub12","12","06","rl","test","75","img/b_d_stripes.png","7","75","shape,color,pattern","170","1",""
"null","368404","HierDygdavw02p","sub12","12","06","feedback","test","null","","","na","","170","",""
"1071.5","369478","HierDygdavw02p","sub12","12","06","rl","test","70","img/b_t_check.png","4","70","shape,color,pattern","171","1",""
"null","370495","HierDygdavw02p","sub12","12","06","feedback","test","null","","","na","","171","",""
"938.4000000953674","371436","HierDygdavw02p","sub12","12","06","rl","test","83","img/r_t_check.png","2","83","shape,color,pattern","172","1",""
"null","372453","HierDygdavw02p","sub12","12","06","feedback","test","null","","","na","","172","",""
"1060.7999999523163","373517","HierDygdavw02p","sub12","12","06","rl","test","72","img/r_d_stripes.png","5","72","shape,color,pattern","173","1",""
"null","374531","HierDygdavw02p","sub12","12","06","feedback","test","null","","","na","","173","",""
"1101.2000000476837","375634","HierDygdavw02p","sub12","12","06","rl","test","68","img/b_t_stripes.png","3","68","shape,color,pattern","174","1",""
"null","376640","HierDygdavw02p","sub12","12","06","feedback","test","null","","","na","","174","",""
"475.2000000476837","377119","HierDygdavw02p","sub12","12","06","rl","test","68","img/b_t_stripes.png","3","68","shape,color,pattern","175","1",""
"null","378142","HierDygdavw02p","sub12","12","06","feedback","test","null","","","na","","175","",""
"770.8000000715256","378916","HierDygdavw02p","sub12","12","06","rl","test","74","img/r_d_check.png","6","74","shape,color,pattern","176","1",""
"null","379920","HierDygdavw02p","sub12","12","06","feedback","test","null","","","na","","176","",""
"657.2000000476837","380579","HierDygdavw02p","sub12","12","06","rl","test","76","img/b_d_check.png","8","76","shape,color,pattern","177","1",""
"null","381590","HierDygdavw02p","sub12","12","06","feedback","test","null","","","na","","177","",""
"849","382441","HierDygdavw02p","sub12","12","06","rl","test","74","img/r_d_check.png","6","74","shape,color,pattern","178","1",""
"null","383452","HierDygdavw02p","sub12","12","06","feedback","test","null","","","na","","178","",""
"743.7999999523163","384199","HierDygdavw02p","sub12","12","06","rl","test","76","img/b_d_check.png","8","76","shape,color,pattern","179","1",""
"null","385215","HierDygdavw02p","sub12","12","06","feedback","test","null","","","na","","179","",""
"616","385833","HierDygdavw02p","sub12","12","06","rl","test","65","img/r_t_stripes.png","1","65","shape,color,pattern","180","1",""
"null","386852","HierDygdavw02p","sub12","12","06","feedback","test","null","","","na","","180","",""
"1061.7000000476837","387916","HierDygdavw02p","sub12","12","06","rl","test","72","img/r_d_stripes.png","5","72","shape,color,pattern","181","1",""
"null","388927","HierDygdavw02p","sub12","12","06","feedback","test","null","","","na","","181","",""
"1349.1000000238419","390278","HierDygdavw02p","sub12","12","06","rl","test","83","img/r_t_check.png","2","83","shape,color,pattern","182","1",""
"null","391297","HierDygdavw02p","sub12","12","06","feedback","test","null","","","na","","182","",""
"1106","392405","HierDygdavw02p","sub12","12","06","rl","test","75","img/b_d_stripes.png","7","75","shape,color,pattern","183","1",""
"null","393420","HierDygdavw02p","sub12","12","06","feedback","test","null","","","na","","183","",""
"1133.8999999761581","394556","HierDygdavw02p","sub12","12","06","rl","test","74","img/r_d_check.png","6","74","shape,color,pattern","184","1",""
"null","395568","HierDygdavw02p","sub12","12","06","feedback","test","null","","","na","","184","",""
"931.1000000238419","396501","HierDygdavw02p","sub12","12","06","rl","test","70","img/b_t_check.png","4","70","shape,color,pattern","185","1",""
"null","397522","HierDygdavw02p","sub12","12","06","feedback","test","null","","","na","","185","",""
"1313","398837","HierDygdavw02p","sub12","12","06","rl","test","72","img/r_d_stripes.png","5","72","shape,color,pattern","186","1",""
"null","399852","HierDygdavw02p","sub12","12","06","feedback","test","null","","","na","","186","",""
"1353.5","401208","HierDygdavw02p","sub12","12","06","rl","test","68","img/b_t_stripes.png","3","68","shape,color,pattern","187","1",""
"null","402231","HierDygdavw02p","sub12","12","06","feedback","test","null","","","na","","187","",""
"740","402973","HierDygdavw02p","sub12","12","06","rl","test","70","img/b_t_check.png","4","70","shape,color,pattern","188","1",""
"null","403998","HierDygdavw02p","sub12","12","06","feedback","test","null","","","na","","188","",""
"1009.6000000238419","405010","HierDygdavw02p","sub12","12","06","rl","test","76","img/b_d_check.png","8","76","shape,color,pattern","189","1",""
"null","406026","HierDygdavw02p","sub12","12","06","feedback","test","null","","","na","","189","",""
"707.3999999761581","406735","HierDygdavw02p","sub12","12","06","rl","test","65","img/r_t_stripes.png","1","65","shape,color,pattern","190","1",""
"null","407757","HierDygdavw02p","sub12","12","06","feedback","test","null","","","na","","190","",""
"933.7000000476837","408693","HierDygdavw02p","sub12","12","06","rl","test","68","img/b_t_stripes.png","3","68","shape,color,pattern","191","1",""
"null","409710","HierDygdavw02p","sub12","12","06","feedback","test","null","","","na","","191","",""
"1428.8999999761581","411141","HierDygdavw02p","sub12","12","06","rl","test","75","img/b_d_stripes.png","7","75","shape,color,pattern","192","1",""
"null","412154","HierDygdavw02p","sub12","12","06","feedback","test","null","","","na","","192","",""
"949.6000000238419","413105","HierDygdavw02p","sub12","12","06","rl","test","83","img/r_t_check.png","2","83","shape,color,pattern","193","1",""
"null","414118","HierDygdavw02p","sub12","12","06","feedback","test","null","","","na","","193","",""
"1135","415255","HierDygdavw02p","sub12","12","06","rl","test","83","img/r_t_check.png","2","83","shape,color,pattern","194","1",""
"null","416266","HierDygdavw02p","sub12","12","06","feedback","test","null","","","na","","194","",""
"700.8000000715256","416969","HierDygdavw02p","sub12","12","06","rl","test","70","img/b_t_check.png","4","70","shape,color,pattern","195","1",""
"null","417981","HierDygdavw02p","sub12","12","06","feedback","test","null","","","na","","195","",""
"1268.7000000476837","419251","HierDygdavw02p","sub12","12","06","rl","test","74","img/r_d_check.png","6","74","shape,color,pattern","196","1",""
"null","420269","HierDygdavw02p","sub12","12","06","feedback","test","null","","","na","","196","",""
"1288.6000000238419","421561","HierDygdavw02p","sub12","12","06","rl","test","75","img/b_d_stripes.png","7","75","shape,color,pattern","197","1",""
"null","422573","HierDygdavw02p","sub12","12","06","feedback","test","null","","","na","","197","",""
"559.1000000238419","423134","HierDygdavw02p","sub12","12","06","rl","test","65","img/r_t_stripes.png","1","65","shape,color,pattern","198","1",""
"null","424150","HierDygdavw02p","sub12","12","06","feedback","test","null","","","na","","198","",""
"996.6000000238419","425149","HierDygdavw02p","sub12","12","06","rl","test","72","img/r_d_stripes.png","5","72","shape,color,pattern","199","1",""
"null","426172","HierDygdavw02p","sub12","12","06","feedback","test","null","","","na","","199","",""
"890.3999999761581","427065","HierDygdavw02p","sub12","12","06","rl","test","76","img/b_d_check.png","8","76","shape,color,pattern","200","1",""
"null","428071","HierDygdavw02p","sub12","12","06","feedback","test","null","","","na","","200","",""
"597.7999999523163","428671","HierDygdavw02p","sub12","12","06","rl","test","76","img/b_d_check.png","8","76","shape,color,pattern","201","1",""
"null","429684","HierDygdavw02p","sub12","12","06","feedback","test","null","","","na","","201","",""
"581.6000000238419","430268","HierDygdavw02p","sub12","12","06","rl","test","65","img/r_t_stripes.png","1","65","shape,color,pattern","202","1",""
"null","431284","HierDygdavw02p","sub12","12","06","feedback","test","null","","","na","","202","",""
"1196.5999999046326","432482","HierDygdavw02p","sub12","12","06","rl","test","75","img/b_d_stripes.png","7","75","shape,color,pattern","203","1",""
"null","433493","HierDygdavw02p","sub12","12","06","feedback","test","null","","","na","","203","",""
"1024.1000000238419","434520","HierDygdavw02p","sub12","12","06","rl","test","68","img/b_t_stripes.png","3","68","shape,color,pattern","204","1",""
"null","435533","HierDygdavw02p","sub12","12","06","feedback","test","null","","","na","","204","",""
"764.2000000476837","436300","HierDygdavw02p","sub12","12","06","rl","test","72","img/r_d_stripes.png","5","72","shape,color,pattern","205","1",""
"null","437309","HierDygdavw02p","sub12","12","06","feedback","test","null","","","na","","205","",""
"973.1000000238419","438284","HierDygdavw02p","sub12","12","06","rl","test","75","img/b_d_stripes.png","7","75","shape,color,pattern","206","1",""
"null","439296","HierDygdavw02p","sub12","12","06","feedback","test","null","","","na","","206","",""
"1218.2000000476837","440517","HierDygdavw02p","sub12","12","06","rl","test","72","img/r_d_stripes.png","5","72","shape,color,pattern","207","1",""
"null","441521","HierDygdavw02p","sub12","12","06","feedback","test","null","","","na","","207","",""
"646.1999999284744","442169","HierDygdavw02p","sub12","12","06","rl","test","83","img/r_t_check.png","2","83","shape,color,pattern","208","1",""
"null","443180","HierDygdavw02p","sub12","12","06","feedback","test","null","","","na","","208","",""
"1015.7000000476837","444198","HierDygdavw02p","sub12","12","06","rl","test","76","img/b_d_check.png","8","76","shape,color,pattern","209","1",""
"null","445216","HierDygdavw02p","sub12","12","06","feedback","test","null","","","na","","209","",""
"1047.1999999284744","446265","HierDygdavw02p","sub12","12","06","rl","test","70","img/b_t_check.png","4","70","shape,color,pattern","210","1",""
"null","447273","HierDygdavw02p","sub12","12","06","feedback","test","null","","","na","","210","",""
"1225.8999999761581","448502","HierDygdavw02p","sub12","12","06","rl","test","74","img/r_d_check.png","6","74","shape,color,pattern","211","1",""
"null","449525","HierDygdavw02p","sub12","12","06","feedback","test","null","","","na","","211","",""
"514.3000000715256","450041","HierDygdavw02p","sub12","12","06","rl","test","74","img/r_d_check.png","6","74","shape,color,pattern","212","1",""
"null","451053","HierDygdavw02p","sub12","12","06","feedback","test","null","","","na","","212","",""
"1491.6000000238419","452547","HierDygdavw02p","sub12","12","06","rl","test","70","img/b_t_check.png","4","70","shape,color,pattern","213","1",""
"null","453561","HierDygdavw02p","sub12","12","06","feedback","test","null","","","na","","213","",""
"825.5","454389","HierDygdavw02p","sub12","12","06","rl","test","68","img/b_t_stripes.png","3","68","shape,color,pattern","214","1",""
"null","455402","HierDygdavw02p","sub12","12","06","feedback","test","null","","","na","","214","",""
"874.2999999523163","456279","HierDygdavw02p","sub12","12","06","rl","test","83","img/r_t_check.png","2","83","shape,color,pattern","215","1",""
"null","457291","HierDygdavw02p","sub12","12","06","feedback","test","null","","","na","","215","",""
"667.6000000238419","457961","HierDygdavw02p","sub12","12","06","rl","test","65","img/r_t_stripes.png","1","65","shape,color,pattern","216","1",""
"null","458972","HierDygdavw02p","sub12","12","06","feedback","test","null","","","na","","216","",""
"1548.5","460524","HierDygdavw02p","sub12","12","06","rl","test","74","img/r_d_check.png","6","74","shape,color,pattern","217","1",""
"null","461538","HierDygdavw02p","sub12","12","06","feedback","test","null","","","na","","217","",""
"563.7999999523163","462104","HierDygdavw02p","sub12","12","06","rl","test","76","img/b_d_check.png","8","76","shape,color,pattern","218","1",""
"null","463127","HierDygdavw02p","sub12","12","06","feedback","test","null","","","na","","218","",""
"620","463750","HierDygdavw02p","sub12","12","06","rl","test","72","img/r_d_stripes.png","5","72","shape,color,pattern","219","1",""
"null","464764","HierDygdavw02p","sub12","12","06","feedback","test","null","","","na","","219","",""
"876","465644","HierDygdavw02p","sub12","12","06","rl","test","70","img/b_t_check.png","4","70","shape,color,pattern","220","1",""
"null","466659","HierDygdavw02p","sub12","12","06","feedback","test","null","","","na","","220","",""
"1101.2999999523163","467764","HierDygdavw02p","sub12","12","06","rl","test","75","img/b_d_stripes.png","7","75","shape,color,pattern","221","1",""
"null","468772","HierDygdavw02p","sub12","12","06","feedback","test","null","","","na","","221","",""
"669.2000000476837","469443","HierDygdavw02p","sub12","12","06","rl","test","76","img/b_d_check.png","8","76","shape,color,pattern","222","1",""
"null","470449","HierDygdavw02p","sub12","12","06","feedback","test","null","","","na","","222","",""
"602","471053","HierDygdavw02p","sub12","12","06","rl","test","75","img/b_d_stripes.png","7","75","shape,color,pattern","223","1",""
"null","472065","HierDygdavw02p","sub12","12","06","feedback","test","null","","","na","","223","",""
"1143.1000000238419","473209","HierDygdavw02p","sub12","12","06","rl","test","83","img/r_t_check.png","2","83","shape,color,pattern","224","1",""
"null","474227","HierDygdavw02p","sub12","12","06","feedback","test","null","","","na","","224","",""
"570","474799","HierDygdavw02p","sub12","12","06","rl","test","68","img/b_t_stripes.png","3","68","shape,color,pattern","225","1",""
"null","475811","HierDygdavw02p","sub12","12","06","feedback","test","null","","","na","","225","",""
"861.3999999761581","476674","HierDygdavw02p","sub12","12","06","rl","test","65","img/r_t_stripes.png","1","65","shape,color,pattern","226","1",""
"null","477689","HierDygdavw02p","sub12","12","06","feedback","test","null","","","na","","226","",""
"724.5","478416","HierDygdavw02p","sub12","12","06","rl","test","68","img/b_t_stripes.png","3","68","shape,color,pattern","227","1",""
"null","479431","HierDygdavw02p","sub12","12","06","feedback","test","null","","","na","","227","",""
"725.1000000238419","480159","HierDygdavw02p","sub12","12","06","rl","test","70","img/b_t_check.png","4","70","shape,color,pattern","228","1",""
"null","481175","HierDygdavw02p","sub12","12","06","feedback","test","null","","","na","","228","",""
"758","481933","HierDygdavw02p","sub12","12","06","rl","test","83","img/r_t_check.png","2","83","shape,color,pattern","229","1",""
"null","482954","HierDygdavw02p","sub12","12","06","feedback","test","null","","","na","","229","",""
"992.7000000476837","483949","HierDygdavw02p","sub12","12","06","rl","test","74","img/r_d_check.png","6","74","shape,color,pattern","230","1",""
"null","484971","HierDygdavw02p","sub12","12","06","feedback","test","null","","","na","","230","",""
"770.3999999761581","485744","HierDygdavw02p","sub12","12","06","rl","test","65","img/r_t_stripes.png","1","65","shape,color,pattern","231","1",""
"null","486762","HierDygdavw02p","sub12","12","06","feedback","test","null","","","na","","231","",""
"568.3999999761581","487332","HierDygdavw02p","sub12","12","06","rl","test","65","img/r_t_stripes.png","1","65","shape,color,pattern","232","1",""
"null","488348","HierDygdavw02p","sub12","12","06","feedback","test","null","","","na","","232","",""
"990.6999999284744","489340","HierDygdavw02p","sub12","12","06","rl","test","72","img/r_d_stripes.png","5","72","shape,color,pattern","233","1",""
"null","490357","HierDygdavw02p","sub12","12","06","feedback","test","null","","","na","","233","",""
"1770.1000000238419","492130","HierDygdavw02p","sub12","12","06","rl","test","74","img/r_d_check.png","6","74","shape,color,pattern","234","1",""
"null","493147","HierDygdavw02p","sub12","12","06","feedback","test","null","","","na","","234","",""
"912.8000000715256","494063","HierDygdavw02p","sub12","12","06","rl","test","70","img/b_t_check.png","4","70","shape,color,pattern","235","1",""
"null","495077","HierDygdavw02p","sub12","12","06","feedback","test","null","","","na","","235","",""
"829.6999999284744","495909","HierDygdavw02p","sub12","12","06","rl","test","72","img/r_d_stripes.png","5","72","shape,color,pattern","236","1",""
"null","496923","HierDygdavw02p","sub12","12","06","feedback","test","null","","","na","","236","",""
"627.3999999761581","497552","HierDygdavw02p","sub12","12","06","rl","test","76","img/b_d_check.png","8","76","shape,color,pattern","237","1",""
"null","498561","HierDygdavw02p","sub12","12","06","feedback","test","null","","","na","","237","",""
"734.7000000476837","499297","HierDygdavw02p","sub12","12","06","rl","test","75","img/b_d_stripes.png","7","75","shape,color,pattern","238","1",""
"null","500308","HierDygdavw02p","sub12","12","06","feedback","test","null","","","na","","238","",""
"1219.3999999761581","501529","HierDygdavw02p","sub12","12","06","rl","test","68","img/b_t_stripes.png","3","68","shape,color,pattern","239","1",""
"null","502548","HierDygdavw02p","sub12","12","06","feedback","test","null","","","na","","239","",""
"1016.8999999761581","503567","HierDygdavw02p","sub12","12","06","rl","test","83","img/r_t_check.png","2","83","shape,color,pattern","240","1",""
"null","504586","HierDygdavw02p","sub12","12","06","feedback","test","null","","","na","","240","",""
"911.5999999046326","505500","HierDygdavw02p","sub12","12","06","rl","test","70","img/b_t_check.png","4","70","shape,color,pattern","241","1",""
"null","506511","HierDygdavw02p","sub12","12","06","feedback","test","null","","","na","","241","",""
"821.8999999761581","507336","HierDygdavw02p","sub12","12","06","rl","test","72","img/r_d_stripes.png","5","72","shape,color,pattern","242","1",""
"null","508353","HierDygdavw02p","sub12","12","06","feedback","test","null","","","na","","242","",""
"886.6000000238419","509242","HierDygdavw02p","sub12","12","06","rl","test","83","img/r_t_check.png","2","83","shape,color,pattern","243","1",""
"null","510252","HierDygdavw02p","sub12","12","06","feedback","test","null","","","na","","243","",""
"629.8999999761581","510884","HierDygdavw02p","sub12","12","06","rl","test","65","img/r_t_stripes.png","1","65","shape,color,pattern","244","1",""
"null","511908","HierDygdavw02p","sub12","12","06","feedback","test","null","","","na","","244","",""
"981.7000000476837","512891","HierDygdavw02p","sub12","12","06","rl","test","76","img/b_d_check.png","8","76","shape,color,pattern","245","1",""
"null","513899","HierDygdavw02p","sub12","12","06","feedback","test","null","","","na","","245","",""
"1168.3999999761581","515070","HierDygdavw02p","sub12","12","06","rl","test","68","img/b_t_stripes.png","3","68","shape,color,pattern","246","1",""
"null","516081","HierDygdavw02p","sub12","12","06","feedback","test","null","","","na","","246","",""
"1238.6000000238419","517323","HierDygdavw02p","sub12","12","06","rl","test","74","img/r_d_check.png","6","74","shape,color,pattern","247","1",""
"null","518336","HierDygdavw02p","sub12","12","06","feedback","test","null","","","na","","247","",""
"751.1000000238419","519090","HierDygdavw02p","sub12","12","06","rl","test","75","img/b_d_stripes.png","7","75","shape,color,pattern","248","1",""
"null","520116","HierDygdavw02p","sub12","12","06","feedback","test","null","","","na","","248","",""
"36739.40000009537","556870","HierDygdavw02p","sub12","12","06","","","","","","","","","","{""Q0"":""5.5""}"
"6676.600000023842","563552","HierDygdavw02p","sub12","12","06","","","","","","","","","","{""Q0"":""Red to the left of blue, stripes to the left of squares, and triangles to the left of diamonds. Shapes are grouped next to each other by colors.""}"
"33664.299999952316","597219","HierDygdavw02p","sub12","12","06","","","","","","","","","",""
