"rt","time_elapsed","subject","subID","group","day","trialType","key_press","stim","corrresp","phase","stimNum","trialNum","corr","repeatTrial","motorSwitch","pracCounter","hierarchy","responses"
"1022","1038","HierDyzmn7deb2","sub12","12","1","","","","","","","","","","","","",""
"","3296","HierDyzmn7deb2","sub12","12","1","fullscreen","","","","","","","","","","","",""
"297732","301040","HierDyzmn7deb2","sub12","12","1","","","","","","","","","","","","",""
"569","301621","HierDyzmn7deb2","sub12","12","1","motor","70","img/motor_4.png","70","motor","4","1","1","0","0","","",""
"null","301734","HierDyzmn7deb2","sub12","12","1","iti","null","img/motor_4.png","70","motor","","","","","","","",""
"473","302218","HierDyzmn7deb2","sub12","12","1","motor","65","img/motor_1.png","65","motor","1","2","1","0","0","","",""
"null","302330","HierDyzmn7deb2","sub12","12","1","iti","null","img/motor_1.png","65","motor","","","","","","","",""
"576","302914","HierDyzmn7deb2","sub12","12","1","motor","65","img/motor_1.png","65","motor","1","3","1","0","0","","",""
"null","303026","HierDyzmn7deb2","sub12","12","1","iti","null","img/motor_1.png","65","motor","","","","","","","",""
"602","303638","HierDyzmn7deb2","sub12","12","1","motor","72","img/motor_5.png","72","motor","5","4","1","0","0","","",""
"null","303749","HierDyzmn7deb2","sub12","12","1","iti","null","img/motor_5.png","72","motor","","","","","","","",""
"404","304162","HierDyzmn7deb2","sub12","12","1","motor","76","img/motor_8.png","76","motor","8","5","1","0","0","","",""
"null","304273","HierDyzmn7deb2","sub12","12","1","iti","null","img/motor_8.png","76","motor","","","","","","","",""
"484","304763","HierDyzmn7deb2","sub12","12","1","motor","70","img/motor_5.png","72","motor","5","6","0","1","0","","",""
"49","304820","HierDyzmn7deb2","sub12","12","1","motorRepeat","72","img/motor_5.png","72","motor","5","6","1","0","0","","",""
"null","304932","HierDyzmn7deb2","sub12","12","1","iti","null","img/motor_5.png","72","motor","","","","","","","",""
"544","305486","HierDyzmn7deb2","sub12","12","1","motor","65","img/motor_1.png","65","motor","1","7","1","0","0","","",""
"null","305597","HierDyzmn7deb2","sub12","12","1","iti","null","img/motor_1.png","65","motor","","","","","","","",""
"374","305981","HierDyzmn7deb2","sub12","12","1","motor","72","img/motor_5.png","72","motor","5","8","1","0","0","","",""
"null","306091","HierDyzmn7deb2","sub12","12","1","iti","null","img/motor_5.png","72","motor","","","","","","","",""
"461","306563","HierDyzmn7deb2","sub12","12","1","motor","74","img/motor_6.png","74","motor","6","9","1","0","0","","",""
"null","306673","HierDyzmn7deb2","sub12","12","1","iti","null","img/motor_6.png","74","motor","","","","","","","",""
"358","307040","HierDyzmn7deb2","sub12","12","1","motor","76","img/motor_8.png","76","motor","8","10","1","0","0","","",""
"null","307150","HierDyzmn7deb2","sub12","12","1","iti","null","img/motor_8.png","76","motor","","","","","","","",""
"565","307725","HierDyzmn7deb2","sub12","12","1","motor","75","img/motor_7.png","75","motor","7","11","1","0","0","","",""
"null","307836","HierDyzmn7deb2","sub12","12","1","iti","null","img/motor_7.png","75","motor","","","","","","","",""
"545","308389","HierDyzmn7deb2","sub12","12","1","motor","70","img/motor_2.png","83","motor","2","12","0","1","0","","",""
"385","308779","HierDyzmn7deb2","sub12","12","1","motorRepeat","83","img/motor_2.png","83","motor","2","12","1","0","0","","",""
"null","308891","HierDyzmn7deb2","sub12","12","1","iti","null","img/motor_2.png","83","motor","","","","","","","",""
"491","309391","HierDyzmn7deb2","sub12","12","1","motor","72","img/motor_5.png","72","motor","5","13","1","0","0","","",""
"null","309501","HierDyzmn7deb2","sub12","12","1","iti","null","img/motor_5.png","72","motor","","","","","","","",""
"574","310082","HierDyzmn7deb2","sub12","12","1","motor","70","img/motor_4.png","70","motor","4","14","1","0","0","","",""
"null","310192","HierDyzmn7deb2","sub12","12","1","iti","null","img/motor_4.png","70","motor","","","","","","","",""
"492","310693","HierDyzmn7deb2","sub12","12","1","motor","65","img/motor_1.png","65","motor","1","15","1","0","0","","",""
"null","310801","HierDyzmn7deb2","sub12","12","1","iti","null","img/motor_1.png","65","motor","","","","","","","",""
"576","311386","HierDyzmn7deb2","sub12","12","1","motor","68","img/motor_3.png","68","motor","3","16","1","0","0","","",""
"null","311495","HierDyzmn7deb2","sub12","12","1","iti","null","img/motor_3.png","68","motor","","","","","","","",""
"557","312060","HierDyzmn7deb2","sub12","12","1","motor","75","img/motor_7.png","75","motor","7","17","1","0","0","","",""
"null","312170","HierDyzmn7deb2","sub12","12","1","iti","null","img/motor_7.png","75","motor","","","","","","","",""
"558","312737","HierDyzmn7deb2","sub12","12","1","motor","83","img/motor_2.png","83","motor","2","18","1","0","0","","",""
"null","312848","HierDyzmn7deb2","sub12","12","1","iti","null","img/motor_2.png","83","motor","","","","","","","",""
"465","313322","HierDyzmn7deb2","sub12","12","1","motor","83","img/motor_2.png","83","motor","2","19","1","0","0","","",""
"null","313431","HierDyzmn7deb2","sub12","12","1","iti","null","img/motor_2.png","83","motor","","","","","","","",""
"633","314073","HierDyzmn7deb2","sub12","12","1","motor","68","img/motor_3.png","68","motor","3","20","1","0","0","","",""
"null","314183","HierDyzmn7deb2","sub12","12","1","iti","null","img/motor_3.png","68","motor","","","","","","","",""
"432","314625","HierDyzmn7deb2","sub12","12","1","motor","72","img/motor_5.png","72","motor","5","21","1","0","0","","",""
"null","314735","HierDyzmn7deb2","sub12","12","1","iti","null","img/motor_5.png","72","motor","","","","","","","",""
"427","315170","HierDyzmn7deb2","sub12","12","1","motor","76","img/motor_8.png","76","motor","8","22","1","0","0","","",""
"null","315281","HierDyzmn7deb2","sub12","12","1","iti","null","img/motor_8.png","76","motor","","","","","","","",""
"544","315834","HierDyzmn7deb2","sub12","12","1","motor","70","img/motor_4.png","70","motor","4","23","1","0","0","","",""
"null","315944","HierDyzmn7deb2","sub12","12","1","iti","null","img/motor_4.png","70","motor","","","","","","","",""
"434","316387","HierDyzmn7deb2","sub12","12","1","motor","70","img/motor_4.png","70","motor","4","24","1","0","0","","",""
"null","316497","HierDyzmn7deb2","sub12","12","1","iti","null","img/motor_4.png","70","motor","","","","","","","",""
"437","316943","HierDyzmn7deb2","sub12","12","1","motor","68","img/motor_3.png","68","motor","3","25","1","0","0","","",""
"null","317052","HierDyzmn7deb2","sub12","12","1","iti","null","img/motor_3.png","68","motor","","","","","","","",""
"545","317609","HierDyzmn7deb2","sub12","12","1","motor","76","img/motor_8.png","76","motor","8","26","1","0","0","","",""
"null","317720","HierDyzmn7deb2","sub12","12","1","iti","null","img/motor_8.png","76","motor","","","","","","","",""
"382","318111","HierDyzmn7deb2","sub12","12","1","motor","72","img/motor_5.png","72","motor","5","27","1","0","0","","",""
"null","318222","HierDyzmn7deb2","sub12","12","1","iti","null","img/motor_5.png","72","motor","","","","","","","",""
"359","318590","HierDyzmn7deb2","sub12","12","1","motor","72","img/motor_5.png","72","motor","5","28","1","0","0","","",""
"null","318703","HierDyzmn7deb2","sub12","12","1","iti","null","img/motor_5.png","72","motor","","","","","","","",""
"552","319264","HierDyzmn7deb2","sub12","12","1","motor","74","img/motor_6.png","74","motor","6","29","1","0","0","","",""
"null","319376","HierDyzmn7deb2","sub12","12","1","iti","null","img/motor_6.png","74","motor","","","","","","","",""
"439","319823","HierDyzmn7deb2","sub12","12","1","motor","72","img/motor_5.png","72","motor","5","30","1","0","0","","",""
"null","319932","HierDyzmn7deb2","sub12","12","1","iti","null","img/motor_5.png","72","motor","","","","","","","",""
"455","320397","HierDyzmn7deb2","sub12","12","1","motor","68","img/motor_3.png","68","motor","3","31","1","0","0","","",""
"null","320508","HierDyzmn7deb2","sub12","12","1","iti","null","img/motor_3.png","68","motor","","","","","","","",""
"541","321058","HierDyzmn7deb2","sub12","12","1","motor","72","img/motor_5.png","72","motor","5","32","1","0","0","","",""
"null","321168","HierDyzmn7deb2","sub12","12","1","iti","null","img/motor_5.png","72","motor","","","","","","","",""
"523","321704","HierDyzmn7deb2","sub12","12","1","motor","68","img/motor_3.png","68","motor","3","33","1","0","0","","",""
"null","321815","HierDyzmn7deb2","sub12","12","1","iti","null","img/motor_3.png","68","motor","","","","","","","",""
"428","322254","HierDyzmn7deb2","sub12","12","1","motor","65","img/motor_1.png","65","motor","1","34","1","0","0","","",""
"null","322366","HierDyzmn7deb2","sub12","12","1","iti","null","img/motor_1.png","65","motor","","","","","","","",""
"610","322986","HierDyzmn7deb2","sub12","12","1","motor","83","img/motor_2.png","83","motor","2","35","1","0","0","","",""
"null","323099","HierDyzmn7deb2","sub12","12","1","iti","null","img/motor_2.png","83","motor","","","","","","","",""
"554","323663","HierDyzmn7deb2","sub12","12","1","motor","83","img/motor_2.png","83","motor","2","36","1","0","0","","",""
"null","323774","HierDyzmn7deb2","sub12","12","1","iti","null","img/motor_2.png","83","motor","","","","","","","",""
"392","324176","HierDyzmn7deb2","sub12","12","1","motor","75","img/motor_8.png","76","motor","8","37","0","1","0","","",""
"344","324530","HierDyzmn7deb2","sub12","12","1","motorRepeat","76","img/motor_8.png","76","motor","8","37","1","0","0","","",""
"null","324641","HierDyzmn7deb2","sub12","12","1","iti","null","img/motor_8.png","76","motor","","","","","","","",""
"578","325229","HierDyzmn7deb2","sub12","12","1","motor","68","img/motor_3.png","68","motor","3","38","1","0","0","","",""
"null","325340","HierDyzmn7deb2","sub12","12","1","iti","null","img/motor_3.png","68","motor","","","","","","","",""
"468","325818","HierDyzmn7deb2","sub12","12","1","motor","74","img/motor_6.png","74","motor","6","39","1","0","0","","",""
"null","325928","HierDyzmn7deb2","sub12","12","1","iti","null","img/motor_6.png","74","motor","","","","","","","",""
"516","326455","HierDyzmn7deb2","sub12","12","1","motor","68","img/motor_3.png","68","motor","3","40","1","0","0","","",""
"null","326563","HierDyzmn7deb2","sub12","12","1","iti","null","img/motor_3.png","68","motor","","","","","","","",""
"580","327153","HierDyzmn7deb2","sub12","12","1","motor","83","img/motor_2.png","83","motor","2","41","1","0","0","","",""
"null","327262","HierDyzmn7deb2","sub12","12","1","iti","null","img/motor_2.png","83","motor","","","","","","","",""
"573","327844","HierDyzmn7deb2","sub12","12","1","motor","68","img/motor_3.png","68","motor","3","42","1","0","0","","",""
"null","327954","HierDyzmn7deb2","sub12","12","1","iti","null","img/motor_3.png","68","motor","","","","","","","",""
"483","328448","HierDyzmn7deb2","sub12","12","1","motor","65","img/motor_1.png","65","motor","1","43","1","0","0","","",""
"null","328558","HierDyzmn7deb2","sub12","12","1","iti","null","img/motor_1.png","65","motor","","","","","","","",""
"500","329068","HierDyzmn7deb2","sub12","12","1","motor","83","img/motor_2.png","83","motor","2","44","1","0","0","","",""
"null","329178","HierDyzmn7deb2","sub12","12","1","iti","null","img/motor_2.png","83","motor","","","","","","","",""
"450","329638","HierDyzmn7deb2","sub12","12","1","motor","65","img/motor_1.png","65","motor","1","45","1","0","0","","",""
"null","329748","HierDyzmn7deb2","sub12","12","1","iti","null","img/motor_1.png","65","motor","","","","","","","",""
"486","330243","HierDyzmn7deb2","sub12","12","1","motor","72","img/motor_5.png","72","motor","5","46","1","0","0","","",""
"null","330353","HierDyzmn7deb2","sub12","12","1","iti","null","img/motor_5.png","72","motor","","","","","","","",""
"444","330806","HierDyzmn7deb2","sub12","12","1","motor","65","img/motor_1.png","65","motor","1","47","1","0","0","","",""
"null","330916","HierDyzmn7deb2","sub12","12","1","iti","null","img/motor_1.png","65","motor","","","","","","","",""
"387","331313","HierDyzmn7deb2","sub12","12","1","motor","76","img/motor_8.png","76","motor","8","48","1","0","0","","",""
"null","331424","HierDyzmn7deb2","sub12","12","1","iti","null","img/motor_8.png","76","motor","","","","","","","",""
"463","331896","HierDyzmn7deb2","sub12","12","1","motor","74","img/motor_6.png","74","motor","6","49","1","0","0","","",""
"null","332005","HierDyzmn7deb2","sub12","12","1","iti","null","img/motor_6.png","74","motor","","","","","","","",""
"483","332496","HierDyzmn7deb2","sub12","12","1","motor","65","img/motor_1.png","65","motor","1","50","1","0","0","","",""
"null","332606","HierDyzmn7deb2","sub12","12","1","iti","null","img/motor_1.png","65","motor","","","","","","","",""
"473","333090","HierDyzmn7deb2","sub12","12","1","motor","76","img/motor_8.png","76","motor","8","51","1","0","0","","",""
"null","333201","HierDyzmn7deb2","sub12","12","1","iti","null","img/motor_8.png","76","motor","","","","","","","",""
"498","333709","HierDyzmn7deb2","sub12","12","1","motor","70","img/motor_4.png","70","motor","4","52","1","0","0","","",""
"null","333819","HierDyzmn7deb2","sub12","12","1","iti","null","img/motor_4.png","70","motor","","","","","","","",""
"626","334455","HierDyzmn7deb2","sub12","12","1","motor","72","img/motor_5.png","72","motor","5","53","1","0","0","","",""
"null","334563","HierDyzmn7deb2","sub12","12","1","iti","null","img/motor_5.png","72","motor","","","","","","","",""
"364","334937","HierDyzmn7deb2","sub12","12","1","motor","72","img/motor_5.png","72","motor","5","54","1","0","0","","",""
"null","335045","HierDyzmn7deb2","sub12","12","1","iti","null","img/motor_5.png","72","motor","","","","","","","",""
"581","335635","HierDyzmn7deb2","sub12","12","1","motor","75","img/motor_7.png","75","motor","7","55","1","0","0","","",""
"null","335744","HierDyzmn7deb2","sub12","12","1","iti","null","img/motor_7.png","75","motor","","","","","","","",""
"583","336336","HierDyzmn7deb2","sub12","12","1","motor","65","img/motor_1.png","65","motor","1","56","1","0","0","","",""
"null","336446","HierDyzmn7deb2","sub12","12","1","iti","null","img/motor_1.png","65","motor","","","","","","","",""
"589","337044","HierDyzmn7deb2","sub12","12","1","motor","74","img/motor_6.png","74","motor","6","57","1","0","0","","",""
"null","337153","HierDyzmn7deb2","sub12","12","1","iti","null","img/motor_6.png","74","motor","","","","","","","",""
"385","337545","HierDyzmn7deb2","sub12","12","1","motor","76","img/motor_8.png","76","motor","8","58","1","0","0","","",""
"null","337654","HierDyzmn7deb2","sub12","12","1","iti","null","img/motor_8.png","76","motor","","","","","","","",""
"632","338295","HierDyzmn7deb2","sub12","12","1","motor","68","img/motor_2.png","83","motor","2","59","0","1","0","","",""
"478","338783","HierDyzmn7deb2","sub12","12","1","motorRepeat","83","img/motor_2.png","83","motor","2","59","1","0","0","","",""
"null","338894","HierDyzmn7deb2","sub12","12","1","iti","null","img/motor_2.png","83","motor","","","","","","","",""
"464","339366","HierDyzmn7deb2","sub12","12","1","motor","65","img/motor_1.png","65","motor","1","60","1","0","0","","",""
"null","339476","HierDyzmn7deb2","sub12","12","1","iti","null","img/motor_1.png","65","motor","","","","","","","",""
"490","339976","HierDyzmn7deb2","sub12","12","1","motor","70","img/motor_4.png","70","motor","4","61","1","0","0","","",""
"null","340087","HierDyzmn7deb2","sub12","12","1","iti","null","img/motor_4.png","70","motor","","","","","","","",""
"501","340599","HierDyzmn7deb2","sub12","12","1","motor","83","img/motor_2.png","83","motor","2","62","1","0","0","","",""
"null","340707","HierDyzmn7deb2","sub12","12","1","iti","null","img/motor_2.png","83","motor","","","","","","","",""
"509","341227","HierDyzmn7deb2","sub12","12","1","motor","68","img/motor_3.png","68","motor","3","63","1","0","0","","",""
"null","341337","HierDyzmn7deb2","sub12","12","1","iti","null","img/motor_3.png","68","motor","","","","","","","",""
"476","341823","HierDyzmn7deb2","sub12","12","1","motor","70","img/motor_4.png","70","motor","4","64","1","0","0","","",""
"null","341932","HierDyzmn7deb2","sub12","12","1","iti","null","img/motor_4.png","70","motor","","","","","","","",""
"500","342440","HierDyzmn7deb2","sub12","12","1","motor","74","img/motor_6.png","74","motor","6","65","1","0","0","","",""
"null","342551","HierDyzmn7deb2","sub12","12","1","iti","null","img/motor_6.png","74","motor","","","","","","","",""
"513","343074","HierDyzmn7deb2","sub12","12","1","motor","83","img/motor_2.png","83","motor","2","66","1","0","0","","",""
"null","343185","HierDyzmn7deb2","sub12","12","1","iti","null","img/motor_2.png","83","motor","","","","","","","",""
"475","343669","HierDyzmn7deb2","sub12","12","1","motor","74","img/motor_6.png","74","motor","6","67","1","0","0","","",""
"null","343778","HierDyzmn7deb2","sub12","12","1","iti","null","img/motor_6.png","74","motor","","","","","","","",""
"430","344218","HierDyzmn7deb2","sub12","12","1","motor","76","img/motor_8.png","76","motor","8","68","1","0","0","","",""
"null","344329","HierDyzmn7deb2","sub12","12","1","iti","null","img/motor_8.png","76","motor","","","","","","","",""
"639","344976","HierDyzmn7deb2","sub12","12","1","motor","75","img/motor_7.png","75","motor","7","69","1","0","0","","",""
"null","345087","HierDyzmn7deb2","sub12","12","1","iti","null","img/motor_7.png","75","motor","","","","","","","",""
"435","345533","HierDyzmn7deb2","sub12","12","1","motor","75","img/motor_7.png","75","motor","7","70","1","0","0","","",""
"null","345642","HierDyzmn7deb2","sub12","12","1","iti","null","img/motor_7.png","75","motor","","","","","","","",""
"507","346158","HierDyzmn7deb2","sub12","12","1","motor","83","img/motor_2.png","83","motor","2","71","1","0","0","","",""
"null","346268","HierDyzmn7deb2","sub12","12","1","iti","null","img/motor_2.png","83","motor","","","","","","","",""
"365","346642","HierDyzmn7deb2","sub12","12","1","motor","75","img/motor_7.png","75","motor","7","72","1","0","0","","",""
"null","346751","HierDyzmn7deb2","sub12","12","1","iti","null","img/motor_7.png","75","motor","","","","","","","",""
"594","347353","HierDyzmn7deb2","sub12","12","1","motor","70","img/motor_4.png","70","motor","4","73","1","0","0","","",""
"null","347462","HierDyzmn7deb2","sub12","12","1","iti","null","img/motor_4.png","70","motor","","","","","","","",""
"406","347879","HierDyzmn7deb2","sub12","12","1","motor","72","img/motor_5.png","72","motor","5","74","1","0","0","","",""
"null","347988","HierDyzmn7deb2","sub12","12","1","iti","null","img/motor_5.png","72","motor","","","","","","","",""
"461","348459","HierDyzmn7deb2","sub12","12","1","motor","83","img/motor_2.png","83","motor","2","75","1","0","0","","",""
"null","348569","HierDyzmn7deb2","sub12","12","1","iti","null","img/motor_2.png","83","motor","","","","","","","",""
"479","349058","HierDyzmn7deb2","sub12","12","1","motor","75","img/motor_7.png","75","motor","7","76","1","0","0","","",""
"null","349166","HierDyzmn7deb2","sub12","12","1","iti","null","img/motor_7.png","75","motor","","","","","","","",""
"500","349674","HierDyzmn7deb2","sub12","12","1","motor","76","img/motor_8.png","76","motor","8","77","1","0","0","","",""
"null","349783","HierDyzmn7deb2","sub12","12","1","iti","null","img/motor_8.png","76","motor","","","","","","","",""
"535","350327","HierDyzmn7deb2","sub12","12","1","motor","65","img/motor_1.png","65","motor","1","78","1","0","0","","",""
"null","350438","HierDyzmn7deb2","sub12","12","1","iti","null","img/motor_1.png","65","motor","","","","","","","",""
"381","350828","HierDyzmn7deb2","sub12","12","1","motor","72","img/motor_6.png","74","motor","6","79","0","1","0","","",""
"177","351014","HierDyzmn7deb2","sub12","12","1","motorRepeat","74","img/motor_6.png","74","motor","6","79","1","0","0","","",""
"null","351126","HierDyzmn7deb2","sub12","12","1","iti","null","img/motor_6.png","74","motor","","","","","","","",""
"667","351803","HierDyzmn7deb2","sub12","12","1","motor","68","img/motor_3.png","68","motor","3","80","1","0","0","","",""
"null","351912","HierDyzmn7deb2","sub12","12","1","iti","null","img/motor_3.png","68","motor","","","","","","","",""
"614","352535","HierDyzmn7deb2","sub12","12","1","motor","76","img/motor_8.png","76","motor","8","81","1","0","0","","",""
"null","352645","HierDyzmn7deb2","sub12","12","1","iti","null","img/motor_8.png","76","motor","","","","","","","",""
"574","353229","HierDyzmn7deb2","sub12","12","1","motor","65","img/motor_1.png","65","motor","1","82","1","0","0","","",""
"null","353340","HierDyzmn7deb2","sub12","12","1","iti","null","img/motor_1.png","65","motor","","","","","","","",""
"481","353830","HierDyzmn7deb2","sub12","12","1","motor","83","img/motor_2.png","83","motor","2","83","1","0","0","","",""
"null","353941","HierDyzmn7deb2","sub12","12","1","iti","null","img/motor_2.png","83","motor","","","","","","","",""
"437","354387","HierDyzmn7deb2","sub12","12","1","motor","76","img/motor_8.png","76","motor","8","84","1","0","0","","",""
"null","354497","HierDyzmn7deb2","sub12","12","1","iti","null","img/motor_8.png","76","motor","","","","","","","",""
"452","354960","HierDyzmn7deb2","sub12","12","1","motor","83","img/motor_2.png","83","motor","2","85","1","0","0","","",""
"null","355069","HierDyzmn7deb2","sub12","12","1","iti","null","img/motor_2.png","83","motor","","","","","","","",""
"503","355581","HierDyzmn7deb2","sub12","12","1","motor","74","img/motor_6.png","74","motor","6","86","1","0","0","","",""
"null","355692","HierDyzmn7deb2","sub12","12","1","iti","null","img/motor_6.png","74","motor","","","","","","","",""
"472","356173","HierDyzmn7deb2","sub12","12","1","motor","72","img/motor_5.png","72","motor","5","87","1","0","0","","",""
"null","356283","HierDyzmn7deb2","sub12","12","1","iti","null","img/motor_5.png","72","motor","","","","","","","",""
"353","356645","HierDyzmn7deb2","sub12","12","1","motor","74","img/motor_6.png","74","motor","6","88","1","0","0","","",""
"null","356756","HierDyzmn7deb2","sub12","12","1","iti","null","img/motor_6.png","74","motor","","","","","","","",""
"467","357233","HierDyzmn7deb2","sub12","12","1","motor","70","img/motor_4.png","70","motor","4","89","1","0","0","","",""
"null","357345","HierDyzmn7deb2","sub12","12","1","iti","null","img/motor_4.png","70","motor","","","","","","","",""
"435","357789","HierDyzmn7deb2","sub12","12","1","motor","70","img/motor_4.png","70","motor","4","90","1","0","0","","",""
"null","357898","HierDyzmn7deb2","sub12","12","1","iti","null","img/motor_4.png","70","motor","","","","","","","",""
"419","358326","HierDyzmn7deb2","sub12","12","1","motor","74","img/motor_7.png","75","motor","7","91","0","1","0","","",""
"252","358589","HierDyzmn7deb2","sub12","12","1","motorRepeat","75","img/motor_7.png","75","motor","7","91","1","0","0","","",""
"null","358698","HierDyzmn7deb2","sub12","12","1","iti","null","img/motor_7.png","75","motor","","","","","","","",""
"519","359227","HierDyzmn7deb2","sub12","12","1","motor","70","img/motor_4.png","70","motor","4","92","1","0","0","","",""
"null","359338","HierDyzmn7deb2","sub12","12","1","iti","null","img/motor_4.png","70","motor","","","","","","","",""
"629","359977","HierDyzmn7deb2","sub12","12","1","motor","68","img/motor_3.png","68","motor","3","93","1","0","0","","",""
"null","360089","HierDyzmn7deb2","sub12","12","1","iti","null","img/motor_3.png","68","motor","","","","","","","",""
"392","360489","HierDyzmn7deb2","sub12","12","1","motor","68","img/motor_3.png","68","motor","3","94","1","0","0","","",""
"null","360601","HierDyzmn7deb2","sub12","12","1","iti","null","img/motor_3.png","68","motor","","","","","","","",""
"445","361055","HierDyzmn7deb2","sub12","12","1","motor","83","img/motor_2.png","83","motor","2","95","1","0","0","","",""
"null","361165","HierDyzmn7deb2","sub12","12","1","iti","null","img/motor_2.png","83","motor","","","","","","","",""
"375","361549","HierDyzmn7deb2","sub12","12","1","motor","65","img/motor_1.png","65","motor","1","96","1","0","0","","",""
"null","361658","HierDyzmn7deb2","sub12","12","1","iti","null","img/motor_1.png","65","motor","","","","","","","",""
"418","362086","HierDyzmn7deb2","sub12","12","1","motor","76","img/motor_8.png","76","motor","8","97","1","0","0","","",""
"null","362195","HierDyzmn7deb2","sub12","12","1","iti","null","img/motor_8.png","76","motor","","","","","","","",""
"510","362715","HierDyzmn7deb2","sub12","12","1","motor","83","img/motor_2.png","83","motor","2","98","1","0","0","","",""
"null","362824","HierDyzmn7deb2","sub12","12","1","iti","null","img/motor_2.png","83","motor","","","","","","","",""
"341","363175","HierDyzmn7deb2","sub12","12","1","motor","83","img/motor_2.png","83","motor","2","99","1","0","0","","",""
"null","363286","HierDyzmn7deb2","sub12","12","1","iti","null","img/motor_2.png","83","motor","","","","","","","",""
"391","363687","HierDyzmn7deb2","sub12","12","1","motor","75","img/motor_7.png","75","motor","7","100","1","0","0","","",""
"null","363798","HierDyzmn7deb2","sub12","12","1","iti","null","img/motor_7.png","75","motor","","","","","","","",""
"416","364224","HierDyzmn7deb2","sub12","12","1","motor","76","img/motor_8.png","76","motor","8","101","1","0","0","","",""
"null","364335","HierDyzmn7deb2","sub12","12","1","iti","null","img/motor_8.png","76","motor","","","","","","","",""
"541","364887","HierDyzmn7deb2","sub12","12","1","motor","74","img/motor_6.png","74","motor","6","102","1","0","0","","",""
"null","364998","HierDyzmn7deb2","sub12","12","1","iti","null","img/motor_6.png","74","motor","","","","","","","",""
"441","365447","HierDyzmn7deb2","sub12","12","1","motor","70","img/motor_4.png","70","motor","4","103","1","0","0","","",""
"null","365558","HierDyzmn7deb2","sub12","12","1","iti","null","img/motor_4.png","70","motor","","","","","","","",""
"400","365967","HierDyzmn7deb2","sub12","12","1","motor","74","img/motor_6.png","74","motor","6","104","1","0","0","","",""
"null","366076","HierDyzmn7deb2","sub12","12","1","iti","null","img/motor_6.png","74","motor","","","","","","","",""
"487","366573","HierDyzmn7deb2","sub12","12","1","motor","70","img/motor_5.png","72","motor","5","105","0","1","0","","",""
"78","366658","HierDyzmn7deb2","sub12","12","1","motorRepeat","72","img/motor_5.png","72","motor","5","105","1","0","0","","",""
"null","366769","HierDyzmn7deb2","sub12","12","1","iti","null","img/motor_5.png","72","motor","","","","","","","",""
"493","367272","HierDyzmn7deb2","sub12","12","1","motor","70","img/motor_4.png","70","motor","4","106","1","0","0","","",""
"null","367384","HierDyzmn7deb2","sub12","12","1","iti","null","img/motor_4.png","70","motor","","","","","","","",""
"496","367890","HierDyzmn7deb2","sub12","12","1","motor","68","img/motor_3.png","68","motor","3","107","1","0","0","","",""
"null","368000","HierDyzmn7deb2","sub12","12","1","iti","null","img/motor_3.png","68","motor","","","","","","","",""
"530","368541","HierDyzmn7deb2","sub12","12","1","motor","65","img/motor_1.png","65","motor","1","108","1","0","0","","",""
"null","368650","HierDyzmn7deb2","sub12","12","1","iti","null","img/motor_1.png","65","motor","","","","","","","",""
"534","369193","HierDyzmn7deb2","sub12","12","1","motor","74","img/motor_6.png","74","motor","6","109","1","0","0","","",""
"null","369302","HierDyzmn7deb2","sub12","12","1","iti","null","img/motor_6.png","74","motor","","","","","","","",""
"424","369737","HierDyzmn7deb2","sub12","12","1","motor","70","img/motor_4.png","70","motor","4","110","1","0","0","","",""
"null","369848","HierDyzmn7deb2","sub12","12","1","iti","null","img/motor_4.png","70","motor","","","","","","","",""
"377","370234","HierDyzmn7deb2","sub12","12","1","motor","76","img/motor_8.png","76","motor","8","111","1","0","0","","",""
"null","370345","HierDyzmn7deb2","sub12","12","1","iti","null","img/motor_8.png","76","motor","","","","","","","",""
"354","370710","HierDyzmn7deb2","sub12","12","1","motor","74","img/motor_6.png","74","motor","6","112","1","0","0","","",""
"null","370820","HierDyzmn7deb2","sub12","12","1","iti","null","img/motor_6.png","74","motor","","","","","","","",""
"370","371201","HierDyzmn7deb2","sub12","12","1","motor","76","img/motor_8.png","76","motor","8","113","1","0","0","","",""
"null","371312","HierDyzmn7deb2","sub12","12","1","iti","null","img/motor_8.png","76","motor","","","","","","","",""
"612","371933","HierDyzmn7deb2","sub12","12","1","motor","68","img/motor_3.png","68","motor","3","114","1","0","0","","",""
"null","372045","HierDyzmn7deb2","sub12","12","1","iti","null","img/motor_3.png","68","motor","","","","","","","",""
"522","372576","HierDyzmn7deb2","sub12","12","1","motor","76","img/motor_8.png","76","motor","8","115","1","0","0","","",""
"null","372686","HierDyzmn7deb2","sub12","12","1","iti","null","img/motor_8.png","76","motor","","","","","","","",""
"452","373148","HierDyzmn7deb2","sub12","12","1","motor","74","img/motor_7.png","75","motor","7","116","0","1","0","","",""
"258","373413","HierDyzmn7deb2","sub12","12","1","motorRepeat","75","img/motor_7.png","75","motor","7","116","1","0","0","","",""
"null","373524","HierDyzmn7deb2","sub12","12","1","iti","null","img/motor_7.png","75","motor","","","","","","","",""
"504","374039","HierDyzmn7deb2","sub12","12","1","motor","72","img/motor_5.png","72","motor","5","117","1","0","0","","",""
"null","374149","HierDyzmn7deb2","sub12","12","1","iti","null","img/motor_5.png","72","motor","","","","","","","",""
"516","374673","HierDyzmn7deb2","sub12","12","1","motor","68","img/motor_3.png","68","motor","3","118","1","0","0","","",""
"null","374783","HierDyzmn7deb2","sub12","12","1","iti","null","img/motor_3.png","68","motor","","","","","","","",""
"605","375397","HierDyzmn7deb2","sub12","12","1","motor","72","img/motor_5.png","72","motor","5","119","1","0","0","","",""
"null","375507","HierDyzmn7deb2","sub12","12","1","iti","null","img/motor_5.png","72","motor","","","","","","","",""
"449","375967","HierDyzmn7deb2","sub12","12","1","motor","75","img/motor_7.png","75","motor","7","120","1","0","0","","",""
"null","376077","HierDyzmn7deb2","sub12","12","1","iti","null","img/motor_7.png","75","motor","","","","","","","",""
"480","376567","HierDyzmn7deb2","sub12","12","1","motor","65","img/motor_1.png","65","motor","1","121","1","0","0","","",""
"null","376677","HierDyzmn7deb2","sub12","12","1","iti","null","img/motor_1.png","65","motor","","","","","","","",""
"387","377073","HierDyzmn7deb2","sub12","12","1","motor","65","img/motor_1.png","65","motor","1","122","1","0","0","","",""
"null","377183","HierDyzmn7deb2","sub12","12","1","iti","null","img/motor_1.png","65","motor","","","","","","","",""
"608","377800","HierDyzmn7deb2","sub12","12","1","motor","83","img/motor_2.png","83","motor","2","123","1","0","0","","",""
"null","377910","HierDyzmn7deb2","sub12","12","1","iti","null","img/motor_2.png","83","motor","","","","","","","",""
"520","378438","HierDyzmn7deb2","sub12","12","1","motor","70","img/motor_4.png","70","motor","4","124","1","0","0","","",""
"null","378548","HierDyzmn7deb2","sub12","12","1","iti","null","img/motor_4.png","70","motor","","","","","","","",""
"382","378941","HierDyzmn7deb2","sub12","12","1","motor","75","img/motor_7.png","75","motor","7","125","1","0","0","","",""
"null","379050","HierDyzmn7deb2","sub12","12","1","iti","null","img/motor_7.png","75","motor","","","","","","","",""
"502","379563","HierDyzmn7deb2","sub12","12","1","motor","74","img/motor_6.png","74","motor","6","126","1","0","0","","",""
"null","379674","HierDyzmn7deb2","sub12","12","1","iti","null","img/motor_6.png","74","motor","","","","","","","",""
"431","380115","HierDyzmn7deb2","sub12","12","1","motor","72","img/motor_5.png","72","motor","5","127","1","0","0","","",""
"null","380227","HierDyzmn7deb2","sub12","12","1","iti","null","img/motor_5.png","72","motor","","","","","","","",""
"461","380696","HierDyzmn7deb2","sub12","12","1","motor","74","img/motor_6.png","74","motor","6","128","1","0","0","","",""
"null","380806","HierDyzmn7deb2","sub12","12","1","iti","null","img/motor_6.png","74","motor","","","","","","","",""
"528","381345","HierDyzmn7deb2","sub12","12","1","motor","83","img/motor_2.png","83","motor","2","129","1","0","0","","",""
"null","381455","HierDyzmn7deb2","sub12","12","1","iti","null","img/motor_2.png","83","motor","","","","","","","",""
"556","382021","HierDyzmn7deb2","sub12","12","1","motor","76","img/motor_8.png","76","motor","8","130","1","0","0","","",""
"null","382133","HierDyzmn7deb2","sub12","12","1","iti","null","img/motor_8.png","76","motor","","","","","","","",""
"496","382642","HierDyzmn7deb2","sub12","12","1","motor","76","img/motor_8.png","76","motor","8","131","1","0","0","","",""
"null","382751","HierDyzmn7deb2","sub12","12","1","iti","null","img/motor_8.png","76","motor","","","","","","","",""
"547","383308","HierDyzmn7deb2","sub12","12","1","motor","75","img/motor_7.png","75","motor","7","132","1","0","0","","",""
"null","383418","HierDyzmn7deb2","sub12","12","1","iti","null","img/motor_7.png","75","motor","","","","","","","",""
"699","384128","HierDyzmn7deb2","sub12","12","1","motor","65","img/motor_1.png","65","motor","1","133","1","0","0","","",""
"null","384240","HierDyzmn7deb2","sub12","12","1","iti","null","img/motor_1.png","65","motor","","","","","","","",""
"394","384644","HierDyzmn7deb2","sub12","12","1","motor","72","img/motor_5.png","72","motor","5","134","1","0","0","","",""
"null","384754","HierDyzmn7deb2","sub12","12","1","iti","null","img/motor_5.png","72","motor","","","","","","","",""
"391","385154","HierDyzmn7deb2","sub12","12","1","motor","76","img/motor_8.png","76","motor","8","135","1","0","0","","",""
"null","385265","HierDyzmn7deb2","sub12","12","1","iti","null","img/motor_8.png","76","motor","","","","","","","",""
"447","385722","HierDyzmn7deb2","sub12","12","1","motor","70","img/motor_4.png","70","motor","4","136","1","0","0","","",""
"null","385831","HierDyzmn7deb2","sub12","12","1","iti","null","img/motor_4.png","70","motor","","","","","","","",""
"503","386347","HierDyzmn7deb2","sub12","12","1","motor","75","img/motor_7.png","75","motor","7","137","1","0","0","","",""
"null","386460","HierDyzmn7deb2","sub12","12","1","iti","null","img/motor_7.png","75","motor","","","","","","","",""
"667","387139","HierDyzmn7deb2","sub12","12","1","motor","83","img/motor_2.png","83","motor","2","138","1","0","0","","",""
"null","387249","HierDyzmn7deb2","sub12","12","1","iti","null","img/motor_2.png","83","motor","","","","","","","",""
"461","387720","HierDyzmn7deb2","sub12","12","1","motor","75","img/motor_7.png","75","motor","7","139","1","0","0","","",""
"null","387831","HierDyzmn7deb2","sub12","12","1","iti","null","img/motor_7.png","75","motor","","","","","","","",""
"457","388297","HierDyzmn7deb2","sub12","12","1","motor","76","img/motor_8.png","76","motor","8","140","1","0","0","","",""
"null","388407","HierDyzmn7deb2","sub12","12","1","iti","null","img/motor_8.png","76","motor","","","","","","","",""
"452","388870","HierDyzmn7deb2","sub12","12","1","motor","70","img/motor_4.png","70","motor","4","141","1","0","0","","",""
"null","388981","HierDyzmn7deb2","sub12","12","1","iti","null","img/motor_4.png","70","motor","","","","","","","",""
"552","389543","HierDyzmn7deb2","sub12","12","1","motor","74","img/motor_6.png","74","motor","6","142","1","0","0","","",""
"null","389652","HierDyzmn7deb2","sub12","12","1","iti","null","img/motor_6.png","74","motor","","","","","","","",""
"453","390114","HierDyzmn7deb2","sub12","12","1","motor","74","img/motor_6.png","74","motor","6","143","1","0","0","","",""
"null","390225","HierDyzmn7deb2","sub12","12","1","iti","null","img/motor_6.png","74","motor","","","","","","","",""
"869","391103","HierDyzmn7deb2","sub12","12","1","motor","68","img/motor_3.png","68","motor","3","144","1","0","0","","",""
"null","391213","HierDyzmn7deb2","sub12","12","1","iti","null","img/motor_3.png","68","motor","","","","","","","",""
"513","391737","HierDyzmn7deb2","sub12","12","1","motor","75","img/motor_7.png","75","motor","7","145","1","0","0","","",""
"null","391848","HierDyzmn7deb2","sub12","12","1","iti","null","img/motor_7.png","75","motor","","","","","","","",""
"420","392278","HierDyzmn7deb2","sub12","12","1","motor","68","img/motor_3.png","68","motor","3","146","1","0","0","","",""
"null","392389","HierDyzmn7deb2","sub12","12","1","iti","null","img/motor_3.png","68","motor","","","","","","","",""
"335","392734","HierDyzmn7deb2","sub12","12","1","motor","68","img/motor_3.png","68","motor","3","147","1","0","0","","",""
"null","392844","HierDyzmn7deb2","sub12","12","1","iti","null","img/motor_3.png","68","motor","","","","","","","",""
"482","393337","HierDyzmn7deb2","sub12","12","1","motor","75","img/motor_7.png","75","motor","7","148","1","0","0","","",""
"null","393448","HierDyzmn7deb2","sub12","12","1","iti","null","img/motor_7.png","75","motor","","","","","","","",""
"645","394102","HierDyzmn7deb2","sub12","12","1","motor","83","img/motor_2.png","83","motor","2","149","1","0","0","","",""
"null","394212","HierDyzmn7deb2","sub12","12","1","iti","null","img/motor_2.png","83","motor","","","","","","","",""
"339","394561","HierDyzmn7deb2","sub12","12","1","motor","83","img/motor_2.png","83","motor","2","150","1","0","0","","",""
"null","394672","HierDyzmn7deb2","sub12","12","1","iti","null","img/motor_2.png","83","motor","","","","","","","",""
"353","395033","HierDyzmn7deb2","sub12","12","1","motor","75","img/motor_6.png","74","motor","6","151","0","1","0","","",""
"317","395359","HierDyzmn7deb2","sub12","12","1","motorRepeat","74","img/motor_6.png","74","motor","6","151","1","0","0","","",""
"null","395470","HierDyzmn7deb2","sub12","12","1","iti","null","img/motor_6.png","74","motor","","","","","","","",""
"432","395911","HierDyzmn7deb2","sub12","12","1","motor","74","img/motor_6.png","74","motor","6","152","1","0","0","","",""
"null","396023","HierDyzmn7deb2","sub12","12","1","iti","null","img/motor_6.png","74","motor","","","","","","","",""
"497","396530","HierDyzmn7deb2","sub12","12","1","motor","75","img/motor_7.png","75","motor","7","153","1","0","0","","",""
"null","396640","HierDyzmn7deb2","sub12","12","1","iti","null","img/motor_7.png","75","motor","","","","","","","",""
"462","397110","HierDyzmn7deb2","sub12","12","1","motor","76","img/motor_8.png","76","motor","8","154","1","0","0","","",""
"null","397221","HierDyzmn7deb2","sub12","12","1","iti","null","img/motor_8.png","76","motor","","","","","","","",""
"493","397722","HierDyzmn7deb2","sub12","12","1","motor","72","img/motor_5.png","72","motor","5","155","1","0","0","","",""
"null","397833","HierDyzmn7deb2","sub12","12","1","iti","null","img/motor_5.png","72","motor","","","","","","","",""
"474","398318","HierDyzmn7deb2","sub12","12","1","motor","75","img/motor_7.png","75","motor","7","156","1","0","0","","",""
"null","398428","HierDyzmn7deb2","sub12","12","1","iti","null","img/motor_7.png","75","motor","","","","","","","",""
"426","398864","HierDyzmn7deb2","sub12","12","1","motor","75","img/motor_7.png","75","motor","7","157","1","0","0","","",""
"null","398974","HierDyzmn7deb2","sub12","12","1","iti","null","img/motor_7.png","75","motor","","","","","","","",""
"413","399396","HierDyzmn7deb2","sub12","12","1","motor","72","img/motor_5.png","72","motor","5","158","1","0","0","","",""
"null","399504","HierDyzmn7deb2","sub12","12","1","iti","null","img/motor_5.png","72","motor","","","","","","","",""
"412","399926","HierDyzmn7deb2","sub12","12","1","motor","72","img/motor_5.png","72","motor","5","159","1","0","0","","",""
"null","400034","HierDyzmn7deb2","sub12","12","1","iti","null","img/motor_5.png","72","motor","","","","","","","",""
"400","400444","HierDyzmn7deb2","sub12","12","1","motor","75","img/motor_7.png","75","motor","7","160","1","0","0","","",""
"null","400552","HierDyzmn7deb2","sub12","12","1","iti","null","img/motor_7.png","75","motor","","","","","","","",""
"385","400946","HierDyzmn7deb2","sub12","12","1","motor","72","img/motor_5.png","72","motor","5","161","1","0","0","","",""
"null","401056","HierDyzmn7deb2","sub12","12","1","iti","null","img/motor_5.png","72","motor","","","","","","","",""
"516","401583","HierDyzmn7deb2","sub12","12","1","motor","83","img/motor_2.png","83","motor","2","162","1","0","0","","",""
"null","401694","HierDyzmn7deb2","sub12","12","1","iti","null","img/motor_2.png","83","motor","","","","","","","",""
"487","402191","HierDyzmn7deb2","sub12","12","1","motor","65","img/motor_1.png","65","motor","1","163","1","0","0","","",""
"null","402302","HierDyzmn7deb2","sub12","12","1","iti","null","img/motor_1.png","65","motor","","","","","","","",""
"556","402868","HierDyzmn7deb2","sub12","12","1","motor","70","img/motor_2.png","83","motor","2","164","0","1","0","","",""
"423","403301","HierDyzmn7deb2","sub12","12","1","motorRepeat","68","img/motor_2.png","83","motor","2","164","0","1","0","","",""
"420","403732","HierDyzmn7deb2","sub12","12","1","motorRepeat","83","img/motor_2.png","83","motor","2","164","1","0","0","","",""
"null","403843","HierDyzmn7deb2","sub12","12","1","iti","null","img/motor_2.png","83","motor","","","","","","","",""
"888","404740","HierDyzmn7deb2","sub12","12","1","motor","68","img/motor_3.png","68","motor","3","165","1","0","0","","",""
"null","404849","HierDyzmn7deb2","sub12","12","1","iti","null","img/motor_3.png","68","motor","","","","","","","",""
"523","405382","HierDyzmn7deb2","sub12","12","1","motor","83","img/motor_2.png","83","motor","2","166","1","0","0","","",""
"null","405491","HierDyzmn7deb2","sub12","12","1","iti","null","img/motor_2.png","83","motor","","","","","","","",""
"386","405886","HierDyzmn7deb2","sub12","12","1","motor","68","img/motor_3.png","68","motor","3","167","1","0","0","","",""
"null","405998","HierDyzmn7deb2","sub12","12","1","iti","null","img/motor_3.png","68","motor","","","","","","","",""
"434","406442","HierDyzmn7deb2","sub12","12","1","motor","65","img/motor_1.png","65","motor","1","168","1","0","0","","",""
"null","406552","HierDyzmn7deb2","sub12","12","1","iti","null","img/motor_1.png","65","motor","","","","","","","",""
"498","407061","HierDyzmn7deb2","sub12","12","1","motor","76","img/motor_8.png","76","motor","8","169","1","0","0","","",""
"null","407171","HierDyzmn7deb2","sub12","12","1","iti","null","img/motor_8.png","76","motor","","","","","","","",""
"573","407751","HierDyzmn7deb2","sub12","12","1","motor","68","img/motor_2.png","83","motor","2","170","0","1","0","","",""
"303","408065","HierDyzmn7deb2","sub12","12","1","motorRepeat","83","img/motor_2.png","83","motor","2","170","1","0","0","","",""
"null","408177","HierDyzmn7deb2","sub12","12","1","iti","null","img/motor_2.png","83","motor","","","","","","","",""
"533","408720","HierDyzmn7deb2","sub12","12","1","motor","74","img/motor_5.png","72","motor","5","171","0","1","0","","",""
"528","409258","HierDyzmn7deb2","sub12","12","1","motorRepeat","72","img/motor_5.png","72","motor","5","171","1","0","0","","",""
"null","409368","HierDyzmn7deb2","sub12","12","1","iti","null","img/motor_5.png","72","motor","","","","","","","",""
"538","409915","HierDyzmn7deb2","sub12","12","1","motor","75","img/motor_7.png","75","motor","7","172","1","0","0","","",""
"null","410026","HierDyzmn7deb2","sub12","12","1","iti","null","img/motor_7.png","75","motor","","","","","","","",""
"516","410550","HierDyzmn7deb2","sub12","12","1","motor","70","img/motor_4.png","70","motor","4","173","1","0","0","","",""
"null","410660","HierDyzmn7deb2","sub12","12","1","iti","null","img/motor_4.png","70","motor","","","","","","","",""
"461","411129","HierDyzmn7deb2","sub12","12","1","motor","76","img/motor_8.png","76","motor","8","174","1","0","0","","",""
"null","411239","HierDyzmn7deb2","sub12","12","1","iti","null","img/motor_8.png","76","motor","","","","","","","",""
"539","411789","HierDyzmn7deb2","sub12","12","1","motor","65","img/motor_1.png","65","motor","1","175","1","0","0","","",""
"null","411899","HierDyzmn7deb2","sub12","12","1","iti","null","img/motor_1.png","65","motor","","","","","","","",""
"547","412454","HierDyzmn7deb2","sub12","12","1","motor","75","img/motor_7.png","75","motor","7","176","1","0","0","","",""
"null","412564","HierDyzmn7deb2","sub12","12","1","iti","null","img/motor_7.png","75","motor","","","","","","","",""
"609","413182","HierDyzmn7deb2","sub12","12","1","motor","68","img/motor_3.png","68","motor","3","177","1","0","0","","",""
"null","413293","HierDyzmn7deb2","sub12","12","1","iti","null","img/motor_3.png","68","motor","","","","","","","",""
"637","413941","HierDyzmn7deb2","sub12","12","1","motor","74","img/motor_6.png","74","motor","6","178","1","0","0","","",""
"null","414052","HierDyzmn7deb2","sub12","12","1","iti","null","img/motor_6.png","74","motor","","","","","","","",""
"606","414667","HierDyzmn7deb2","sub12","12","1","motor","75","img/motor_7.png","75","motor","7","179","1","0","0","","",""
"null","414778","HierDyzmn7deb2","sub12","12","1","iti","null","img/motor_7.png","75","motor","","","","","","","",""
"523","415310","HierDyzmn7deb2","sub12","12","1","motor","74","img/motor_6.png","74","motor","6","180","1","0","0","","",""
"null","415421","HierDyzmn7deb2","sub12","12","1","iti","null","img/motor_6.png","74","motor","","","","","","","",""
"598","416028","HierDyzmn7deb2","sub12","12","1","motor","83","img/motor_2.png","83","motor","2","181","1","0","0","","",""
"null","416136","HierDyzmn7deb2","sub12","12","1","iti","null","img/motor_2.png","83","motor","","","","","","","",""
"727","416873","HierDyzmn7deb2","sub12","12","1","motor","75","img/motor_7.png","75","motor","7","182","1","0","0","","",""
"null","416985","HierDyzmn7deb2","sub12","12","1","iti","null","img/motor_7.png","75","motor","","","","","","","",""
"466","417460","HierDyzmn7deb2","sub12","12","1","motor","76","img/motor_8.png","76","motor","8","183","1","0","0","","",""
"null","417570","HierDyzmn7deb2","sub12","12","1","iti","null","img/motor_8.png","76","motor","","","","","","","",""
"507","418087","HierDyzmn7deb2","sub12","12","1","motor","74","img/motor_6.png","74","motor","6","184","1","0","0","","",""
"null","418199","HierDyzmn7deb2","sub12","12","1","iti","null","img/motor_6.png","74","motor","","","","","","","",""
"475","418684","HierDyzmn7deb2","sub12","12","1","motor","75","img/motor_7.png","75","motor","7","185","1","0","0","","",""
"null","418793","HierDyzmn7deb2","sub12","12","1","iti","null","img/motor_7.png","75","motor","","","","","","","",""
"498","419301","HierDyzmn7deb2","sub12","12","1","motor","65","img/motor_1.png","65","motor","1","186","1","0","0","","",""
"null","419411","HierDyzmn7deb2","sub12","12","1","iti","null","img/motor_1.png","65","motor","","","","","","","",""
"502","419924","HierDyzmn7deb2","sub12","12","1","motor","75","img/motor_7.png","75","motor","7","187","1","0","0","","",""
"null","420034","HierDyzmn7deb2","sub12","12","1","iti","null","img/motor_7.png","75","motor","","","","","","","",""
"517","420562","HierDyzmn7deb2","sub12","12","1","motor","68","img/motor_3.png","68","motor","3","188","1","0","0","","",""
"null","420671","HierDyzmn7deb2","sub12","12","1","iti","null","img/motor_3.png","68","motor","","","","","","","",""
"557","421239","HierDyzmn7deb2","sub12","12","1","motor","72","img/motor_5.png","72","motor","5","189","1","0","0","","",""
"null","421349","HierDyzmn7deb2","sub12","12","1","iti","null","img/motor_5.png","72","motor","","","","","","","",""
"542","421901","HierDyzmn7deb2","sub12","12","1","motor","70","img/motor_4.png","70","motor","4","190","1","0","0","","",""
"null","422011","HierDyzmn7deb2","sub12","12","1","iti","null","img/motor_4.png","70","motor","","","","","","","",""
"422","422443","HierDyzmn7deb2","sub12","12","1","motor","76","img/motor_8.png","76","motor","8","191","1","0","0","","",""
"null","422555","HierDyzmn7deb2","sub12","12","1","iti","null","img/motor_8.png","76","motor","","","","","","","",""
"641","423205","HierDyzmn7deb2","sub12","12","1","motor","75","img/motor_7.png","75","motor","7","192","1","0","0","","",""
"null","423317","HierDyzmn7deb2","sub12","12","1","iti","null","img/motor_7.png","75","motor","","","","","","","",""
"482","423809","HierDyzmn7deb2","sub12","12","1","motor","70","img/motor_4.png","70","motor","4","193","1","0","0","","",""
"null","423919","HierDyzmn7deb2","sub12","12","1","iti","null","img/motor_4.png","70","motor","","","","","","","",""
"584","424513","HierDyzmn7deb2","sub12","12","1","motor","76","img/motor_8.png","76","motor","8","194","1","0","0","","",""
"null","424622","HierDyzmn7deb2","sub12","12","1","iti","null","img/motor_8.png","76","motor","","","","","","","",""
"461","425094","HierDyzmn7deb2","sub12","12","1","motor","76","img/motor_8.png","76","motor","8","195","1","0","0","","",""
"null","425204","HierDyzmn7deb2","sub12","12","1","iti","null","img/motor_8.png","76","motor","","","","","","","",""
"609","425822","HierDyzmn7deb2","sub12","12","1","motor","72","img/motor_5.png","72","motor","5","196","1","0","0","","",""
"null","425934","HierDyzmn7deb2","sub12","12","1","iti","null","img/motor_5.png","72","motor","","","","","","","",""
"416","426360","HierDyzmn7deb2","sub12","12","1","motor","76","img/motor_8.png","76","motor","8","197","1","0","0","","",""
"null","426471","HierDyzmn7deb2","sub12","12","1","iti","null","img/motor_8.png","76","motor","","","","","","","",""
"406","426886","HierDyzmn7deb2","sub12","12","1","motor","75","img/motor_7.png","75","motor","7","198","1","0","0","","",""
"null","426997","HierDyzmn7deb2","sub12","12","1","iti","null","img/motor_7.png","75","motor","","","","","","","",""
"562","427570","HierDyzmn7deb2","sub12","12","1","motor","83","img/motor_2.png","83","motor","2","199","1","0","0","","",""
"null","427681","HierDyzmn7deb2","sub12","12","1","iti","null","img/motor_2.png","83","motor","","","","","","","",""
"522","428214","HierDyzmn7deb2","sub12","12","1","motor","70","img/motor_4.png","70","motor","4","200","1","0","0","","",""
"null","428325","HierDyzmn7deb2","sub12","12","1","iti","null","img/motor_4.png","70","motor","","","","","","","",""
"522","428858","HierDyzmn7deb2","sub12","12","1","motor","68","img/motor_3.png","68","motor","3","201","1","0","0","","",""
"null","428968","HierDyzmn7deb2","sub12","12","1","iti","null","img/motor_3.png","68","motor","","","","","","","",""
"382","429360","HierDyzmn7deb2","sub12","12","1","motor","75","img/motor_7.png","75","motor","7","202","1","0","0","","",""
"null","429471","HierDyzmn7deb2","sub12","12","1","iti","null","img/motor_7.png","75","motor","","","","","","","",""
"477","429957","HierDyzmn7deb2","sub12","12","1","motor","83","img/motor_2.png","83","motor","2","203","1","0","0","","",""
"null","430068","HierDyzmn7deb2","sub12","12","1","iti","null","img/motor_2.png","83","motor","","","","","","","",""
"367","430445","HierDyzmn7deb2","sub12","12","1","motor","83","img/motor_3.png","68","motor","3","204","0","1","0","","",""
"249","430705","HierDyzmn7deb2","sub12","12","1","motorRepeat","68","img/motor_3.png","68","motor","3","204","1","0","0","","",""
"null","430817","HierDyzmn7deb2","sub12","12","1","iti","null","img/motor_3.png","68","motor","","","","","","","",""
"572","431400","HierDyzmn7deb2","sub12","12","1","motor","74","img/motor_6.png","74","motor","6","205","1","0","0","","",""
"null","431509","HierDyzmn7deb2","sub12","12","1","iti","null","img/motor_6.png","74","motor","","","","","","","",""
"522","432041","HierDyzmn7deb2","sub12","12","1","motor","70","img/motor_4.png","70","motor","4","206","1","0","0","","",""
"null","432151","HierDyzmn7deb2","sub12","12","1","iti","null","img/motor_4.png","70","motor","","","","","","","",""
"414","432575","HierDyzmn7deb2","sub12","12","1","motor","76","img/motor_8.png","76","motor","8","207","1","0","0","","",""
"null","432684","HierDyzmn7deb2","sub12","12","1","iti","null","img/motor_8.png","76","motor","","","","","","","",""
"642","433337","HierDyzmn7deb2","sub12","12","1","motor","83","img/motor_2.png","83","motor","2","208","1","0","0","","",""
"null","433448","HierDyzmn7deb2","sub12","12","1","iti","null","img/motor_2.png","83","motor","","","","","","","",""
"429","433887","HierDyzmn7deb2","sub12","12","1","motor","72","img/motor_5.png","72","motor","5","209","1","0","0","","",""
"null","433999","HierDyzmn7deb2","sub12","12","1","iti","null","img/motor_5.png","72","motor","","","","","","","",""
"511","434519","HierDyzmn7deb2","sub12","12","1","motor","83","img/motor_2.png","83","motor","2","210","1","0","0","","",""
"null","434630","HierDyzmn7deb2","sub12","12","1","iti","null","img/motor_2.png","83","motor","","","","","","","",""
"582","435223","HierDyzmn7deb2","sub12","12","1","motor","72","img/motor_5.png","72","motor","5","211","1","0","0","","",""
"null","435332","HierDyzmn7deb2","sub12","12","1","iti","null","img/motor_5.png","72","motor","","","","","","","",""
"501","435843","HierDyzmn7deb2","sub12","12","1","motor","74","img/motor_6.png","74","motor","6","212","1","0","0","","",""
"null","435954","HierDyzmn7deb2","sub12","12","1","iti","null","img/motor_6.png","74","motor","","","","","","","",""
"420","436383","HierDyzmn7deb2","sub12","12","1","motor","72","img/motor_5.png","72","motor","5","213","1","0","0","","",""
"null","436494","HierDyzmn7deb2","sub12","12","1","iti","null","img/motor_5.png","72","motor","","","","","","","",""
"547","437050","HierDyzmn7deb2","sub12","12","1","motor","68","img/motor_3.png","68","motor","3","214","1","0","0","","",""
"null","437161","HierDyzmn7deb2","sub12","12","1","iti","null","img/motor_3.png","68","motor","","","","","","","",""
"442","437613","HierDyzmn7deb2","sub12","12","1","motor","70","img/motor_4.png","70","motor","4","215","1","0","0","","",""
"null","437723","HierDyzmn7deb2","sub12","12","1","iti","null","img/motor_4.png","70","motor","","","","","","","",""
"461","438194","HierDyzmn7deb2","sub12","12","1","motor","72","img/motor_5.png","72","motor","5","216","1","0","0","","",""
"null","438306","HierDyzmn7deb2","sub12","12","1","iti","null","img/motor_5.png","72","motor","","","","","","","",""
"407","438721","HierDyzmn7deb2","sub12","12","1","motor","75","img/motor_7.png","75","motor","7","217","1","0","0","","",""
"null","438832","HierDyzmn7deb2","sub12","12","1","iti","null","img/motor_7.png","75","motor","","","","","","","",""
"478","439319","HierDyzmn7deb2","sub12","12","1","motor","68","img/motor_3.png","68","motor","3","218","1","0","0","","",""
"null","439428","HierDyzmn7deb2","sub12","12","1","iti","null","img/motor_3.png","68","motor","","","","","","","",""
"333","439771","HierDyzmn7deb2","sub12","12","1","motor","68","img/motor_3.png","68","motor","3","219","1","0","0","","",""
"null","439883","HierDyzmn7deb2","sub12","12","1","iti","null","img/motor_3.png","68","motor","","","","","","","",""
"471","440363","HierDyzmn7deb2","sub12","12","1","motor","72","img/motor_5.png","72","motor","5","220","1","0","0","","",""
"null","440475","HierDyzmn7deb2","sub12","12","1","iti","null","img/motor_5.png","72","motor","","","","","","","",""
"506","440991","HierDyzmn7deb2","sub12","12","1","motor","83","img/motor_2.png","83","motor","2","221","1","0","0","","",""
"null","441101","HierDyzmn7deb2","sub12","12","1","iti","null","img/motor_2.png","83","motor","","","","","","","",""
"380","441490","HierDyzmn7deb2","sub12","12","1","motor","65","img/motor_1.png","65","motor","1","222","1","0","0","","",""
"null","441602","HierDyzmn7deb2","sub12","12","1","iti","null","img/motor_1.png","65","motor","","","","","","","",""
"519","442131","HierDyzmn7deb2","sub12","12","1","motor","70","img/motor_4.png","70","motor","4","223","1","0","0","","",""
"null","442241","HierDyzmn7deb2","sub12","12","1","iti","null","img/motor_4.png","70","motor","","","","","","","",""
"465","442717","HierDyzmn7deb2","sub12","12","1","motor","76","img/motor_8.png","76","motor","8","224","1","0","0","","",""
"null","442827","HierDyzmn7deb2","sub12","12","1","iti","null","img/motor_8.png","76","motor","","","","","","","",""
"387","443222","HierDyzmn7deb2","sub12","12","1","motor","70","img/motor_3.png","68","motor","3","225","0","1","0","","",""
"228","443461","HierDyzmn7deb2","sub12","12","1","motorRepeat","68","img/motor_3.png","68","motor","3","225","1","0","0","","",""
"null","443573","HierDyzmn7deb2","sub12","12","1","iti","null","img/motor_3.png","68","motor","","","","","","","",""
"489","444072","HierDyzmn7deb2","sub12","12","1","motor","75","img/motor_7.png","75","motor","7","226","1","0","0","","",""
"null","444180","HierDyzmn7deb2","sub12","12","1","iti","null","img/motor_7.png","75","motor","","","","","","","",""
"446","444636","HierDyzmn7deb2","sub12","12","1","motor","70","img/motor_4.png","70","motor","4","227","1","0","0","","",""
"null","444747","HierDyzmn7deb2","sub12","12","1","iti","null","img/motor_4.png","70","motor","","","","","","","",""
"645","445401","HierDyzmn7deb2","sub12","12","1","motor","72","img/motor_5.png","72","motor","5","228","1","0","0","","",""
"null","445512","HierDyzmn7deb2","sub12","12","1","iti","null","img/motor_5.png","72","motor","","","","","","","",""
"488","446010","HierDyzmn7deb2","sub12","12","1","motor","68","img/motor_3.png","68","motor","3","229","1","0","0","","",""
"null","446122","HierDyzmn7deb2","sub12","12","1","iti","null","img/motor_3.png","68","motor","","","","","","","",""
"401","446535","HierDyzmn7deb2","sub12","12","1","motor","72","img/motor_5.png","72","motor","5","230","1","0","0","","",""
"null","446646","HierDyzmn7deb2","sub12","12","1","iti","null","img/motor_5.png","72","motor","","","","","","","",""
"568","447226","HierDyzmn7deb2","sub12","12","1","motor","83","img/motor_2.png","83","motor","2","231","1","0","0","","",""
"null","447338","HierDyzmn7deb2","sub12","12","1","iti","null","img/motor_2.png","83","motor","","","","","","","",""
"457","447807","HierDyzmn7deb2","sub12","12","1","motor","70","img/motor_4.png","70","motor","4","232","1","0","0","","",""
"null","447917","HierDyzmn7deb2","sub12","12","1","iti","null","img/motor_4.png","70","motor","","","","","","","",""
"425","448355","HierDyzmn7deb2","sub12","12","1","motor","76","img/motor_8.png","76","motor","8","233","1","0","0","","",""
"null","448465","HierDyzmn7deb2","sub12","12","1","iti","null","img/motor_8.png","76","motor","","","","","","","",""
"581","449058","HierDyzmn7deb2","sub12","12","1","motor","83","img/motor_2.png","83","motor","2","234","1","0","0","","",""
"null","449169","HierDyzmn7deb2","sub12","12","1","iti","null","img/motor_2.png","83","motor","","","","","","","",""
"445","449625","HierDyzmn7deb2","sub12","12","1","motor","72","img/motor_5.png","72","motor","5","235","1","0","0","","",""
"null","449738","HierDyzmn7deb2","sub12","12","1","iti","null","img/motor_5.png","72","motor","","","","","","","",""
"544","450291","HierDyzmn7deb2","sub12","12","1","motor","70","img/motor_4.png","70","motor","4","236","1","0","0","","",""
"null","450400","HierDyzmn7deb2","sub12","12","1","iti","null","img/motor_4.png","70","motor","","","","","","","",""
"480","450892","HierDyzmn7deb2","sub12","12","1","motor","65","img/motor_1.png","65","motor","1","237","1","0","0","","",""
"null","451006","HierDyzmn7deb2","sub12","12","1","iti","null","img/motor_1.png","65","motor","","","","","","","",""
"1005","452022","HierDyzmn7deb2","sub12","12","1","motor","68","img/motor_3.png","68","motor","3","238","1","0","0","","",""
"null","452134","HierDyzmn7deb2","sub12","12","1","iti","null","img/motor_3.png","68","motor","","","","","","","",""
"522","452666","HierDyzmn7deb2","sub12","12","1","motor","76","img/motor_8.png","76","motor","8","239","1","0","0","","",""
"null","452779","HierDyzmn7deb2","sub12","12","1","iti","null","img/motor_8.png","76","motor","","","","","","","",""
"1034","453824","HierDyzmn7deb2","sub12","12","1","motor","65","img/motor_1.png","65","motor","1","240","1","0","0","","",""
"null","453937","HierDyzmn7deb2","sub12","12","1","iti","null","img/motor_1.png","65","motor","","","","","","","",""
"747","454694","HierDyzmn7deb2","sub12","12","1","motor","70","img/motor_4.png","70","motor","4","241","1","0","0","","",""
"null","454803","HierDyzmn7deb2","sub12","12","1","iti","null","img/motor_4.png","70","motor","","","","","","","",""
"468","455281","HierDyzmn7deb2","sub12","12","1","motor","75","img/motor_7.png","75","motor","7","242","1","0","0","","",""
"null","455393","HierDyzmn7deb2","sub12","12","1","iti","null","img/motor_7.png","75","motor","","","","","","","",""
"475","455880","HierDyzmn7deb2","sub12","12","1","motor","74","img/motor_6.png","74","motor","6","243","1","0","0","","",""
"null","455991","HierDyzmn7deb2","sub12","12","1","iti","null","img/motor_6.png","74","motor","","","","","","","",""
"995","456997","HierDyzmn7deb2","sub12","12","1","motor","65","img/motor_1.png","65","motor","1","244","1","0","0","","",""
"null","457110","HierDyzmn7deb2","sub12","12","1","iti","null","img/motor_1.png","65","motor","","","","","","","",""
"620","457739","HierDyzmn7deb2","sub12","12","1","motor","70","img/motor_3.png","68","motor","3","245","0","1","0","","",""
"488","458236","HierDyzmn7deb2","sub12","12","1","motorRepeat","68","img/motor_3.png","68","motor","3","245","1","0","0","","",""
"null","458349","HierDyzmn7deb2","sub12","12","1","iti","null","img/motor_3.png","68","motor","","","","","","","",""
"754","459114","HierDyzmn7deb2","sub12","12","1","motor","70","img/motor_4.png","70","motor","4","246","1","0","0","","",""
"null","459225","HierDyzmn7deb2","sub12","12","1","iti","null","img/motor_4.png","70","motor","","","","","","","",""
"373","459610","HierDyzmn7deb2","sub12","12","1","motor","70","img/motor_4.png","70","motor","4","247","1","0","0","","",""
"null","459720","HierDyzmn7deb2","sub12","12","1","iti","null","img/motor_4.png","70","motor","","","","","","","",""
"514","460244","HierDyzmn7deb2","sub12","12","1","motor","75","img/motor_7.png","75","motor","7","248","1","0","0","","",""
"null","460354","HierDyzmn7deb2","sub12","12","1","iti","null","img/motor_7.png","75","motor","","","","","","","",""
"496","460860","HierDyzmn7deb2","sub12","12","1","motor","65","img/motor_1.png","65","motor","1","249","1","0","0","","",""
"null","460970","HierDyzmn7deb2","sub12","12","1","iti","null","img/motor_1.png","65","motor","","","","","","","",""
"470","461449","HierDyzmn7deb2","sub12","12","1","motor","70","img/motor_4.png","70","motor","4","250","1","0","0","","",""
"null","461558","HierDyzmn7deb2","sub12","12","1","iti","null","img/motor_4.png","70","motor","","","","","","","",""
"448","462018","HierDyzmn7deb2","sub12","12","1","motor","72","img/motor_5.png","72","motor","5","251","1","0","0","","",""
"null","462128","HierDyzmn7deb2","sub12","12","1","iti","null","img/motor_5.png","72","motor","","","","","","","",""
"460","462597","HierDyzmn7deb2","sub12","12","1","motor","76","img/motor_8.png","76","motor","8","252","1","0","0","","",""
"null","462707","HierDyzmn7deb2","sub12","12","1","iti","null","img/motor_8.png","76","motor","","","","","","","",""
"1105","463825","HierDyzmn7deb2","sub12","12","1","motor","68","img/motor_3.png","68","motor","3","253","1","0","0","","",""
"null","463934","HierDyzmn7deb2","sub12","12","1","iti","null","img/motor_3.png","68","motor","","","","","","","",""
"466","464410","HierDyzmn7deb2","sub12","12","1","motor","70","img/motor_4.png","70","motor","4","254","1","0","0","","",""
"null","464520","HierDyzmn7deb2","sub12","12","1","iti","null","img/motor_4.png","70","motor","","","","","","","",""
"406","464936","HierDyzmn7deb2","sub12","12","1","motor","68","img/motor_3.png","68","motor","3","255","1","0","0","","",""
"null","465047","HierDyzmn7deb2","sub12","12","1","iti","null","img/motor_3.png","68","motor","","","","","","","",""
"478","465534","HierDyzmn7deb2","sub12","12","1","motor","75","img/motor_6.png","74","motor","6","256","0","1","0","","",""
"236","465780","HierDyzmn7deb2","sub12","12","1","motorRepeat","74","img/motor_6.png","74","motor","6","256","1","0","0","","",""
"null","465892","HierDyzmn7deb2","sub12","12","1","iti","null","img/motor_6.png","74","motor","","","","","","","",""
"556","466458","HierDyzmn7deb2","sub12","12","1","motor","68","img/motor_3.png","68","motor","3","257","1","0","0","","",""
"null","466568","HierDyzmn7deb2","sub12","12","1","iti","null","img/motor_3.png","68","motor","","","","","","","",""
"322","466899","HierDyzmn7deb2","sub12","12","1","motor","68","img/motor_3.png","68","motor","3","258","1","0","0","","",""
"null","467011","HierDyzmn7deb2","sub12","12","1","iti","null","img/motor_3.png","68","motor","","","","","","","",""
"553","467574","HierDyzmn7deb2","sub12","12","1","motor","76","img/motor_8.png","76","motor","8","259","1","0","0","","",""
"null","467687","HierDyzmn7deb2","sub12","12","1","iti","null","img/motor_8.png","76","motor","","","","","","","",""
"645","468343","HierDyzmn7deb2","sub12","12","1","motor","65","img/motor_1.png","65","motor","1","260","1","0","0","","",""
"null","468454","HierDyzmn7deb2","sub12","12","1","iti","null","img/motor_1.png","65","motor","","","","","","","",""
"483","468947","HierDyzmn7deb2","sub12","12","1","motor","68","img/motor_3.png","68","motor","3","261","1","0","0","","",""
"null","469059","HierDyzmn7deb2","sub12","12","1","iti","null","img/motor_3.png","68","motor","","","","","","","",""
"486","469554","HierDyzmn7deb2","sub12","12","1","motor","70","img/motor_4.png","70","motor","4","262","1","0","0","","",""
"null","469664","HierDyzmn7deb2","sub12","12","1","iti","null","img/motor_4.png","70","motor","","","","","","","",""
"412","470084","HierDyzmn7deb2","sub12","12","1","motor","65","img/motor_1.png","65","motor","1","263","1","0","0","","",""
"null","470194","HierDyzmn7deb2","sub12","12","1","iti","null","img/motor_1.png","65","motor","","","","","","","",""
"510","470714","HierDyzmn7deb2","sub12","12","1","motor","76","img/motor_8.png","76","motor","8","264","1","0","0","","",""
"null","470826","HierDyzmn7deb2","sub12","12","1","iti","null","img/motor_8.png","76","motor","","","","","","","",""
"560","471398","HierDyzmn7deb2","sub12","12","1","motor","70","img/motor_4.png","70","motor","4","265","1","0","0","","",""
"null","471510","HierDyzmn7deb2","sub12","12","1","iti","null","img/motor_4.png","70","motor","","","","","","","",""
"390","471909","HierDyzmn7deb2","sub12","12","1","motor","65","img/motor_1.png","65","motor","1","266","1","0","0","","",""
"null","472021","HierDyzmn7deb2","sub12","12","1","iti","null","img/motor_1.png","65","motor","","","","","","","",""
"517","472548","HierDyzmn7deb2","sub12","12","1","motor","75","img/motor_6.png","74","motor","6","267","0","1","0","","",""
"264","472823","HierDyzmn7deb2","sub12","12","1","motorRepeat","74","img/motor_6.png","74","motor","6","267","1","0","0","","",""
"null","472935","HierDyzmn7deb2","sub12","12","1","iti","null","img/motor_6.png","74","motor","","","","","","","",""
"641","473586","HierDyzmn7deb2","sub12","12","1","motor","83","img/motor_2.png","83","motor","2","268","1","0","0","","",""
"null","473696","HierDyzmn7deb2","sub12","12","1","iti","null","img/motor_2.png","83","motor","","","","","","","",""
"455","474161","HierDyzmn7deb2","sub12","12","1","motor","76","img/motor_8.png","76","motor","8","269","1","0","0","","",""
"null","474272","HierDyzmn7deb2","sub12","12","1","iti","null","img/motor_8.png","76","motor","","","","","","","",""
"458","474740","HierDyzmn7deb2","sub12","12","1","motor","76","img/motor_8.png","76","motor","8","270","1","0","0","","",""
"null","474850","HierDyzmn7deb2","sub12","12","1","iti","null","img/motor_8.png","76","motor","","","","","","","",""
"511","475373","HierDyzmn7deb2","sub12","12","1","motor","65","img/motor_1.png","65","motor","1","271","1","0","0","","",""
"null","475484","HierDyzmn7deb2","sub12","12","1","iti","null","img/motor_1.png","65","motor","","","","","","","",""
"481","475974","HierDyzmn7deb2","sub12","12","1","motor","83","img/motor_2.png","83","motor","2","272","1","0","0","","",""
"null","476087","HierDyzmn7deb2","sub12","12","1","iti","null","img/motor_2.png","83","motor","","","","","","","",""
"582","476677","HierDyzmn7deb2","sub12","12","1","motor","68","img/motor_3.png","68","motor","3","273","1","0","0","","",""
"null","476789","HierDyzmn7deb2","sub12","12","1","iti","null","img/motor_3.png","68","motor","","","","","","","",""
"356","477154","HierDyzmn7deb2","sub12","12","1","motor","70","img/motor_4.png","70","motor","4","274","1","0","0","","",""
"null","477266","HierDyzmn7deb2","sub12","12","1","iti","null","img/motor_4.png","70","motor","","","","","","","",""
"541","477818","HierDyzmn7deb2","sub12","12","1","motor","70","img/motor_4.png","70","motor","4","275","1","0","0","","",""
"null","477929","HierDyzmn7deb2","sub12","12","1","iti","null","img/motor_4.png","70","motor","","","","","","","",""
"479","478419","HierDyzmn7deb2","sub12","12","1","motor","83","img/motor_2.png","83","motor","2","276","1","0","0","","",""
"null","478530","HierDyzmn7deb2","sub12","12","1","iti","null","img/motor_2.png","83","motor","","","","","","","",""
"579","479120","HierDyzmn7deb2","sub12","12","1","motor","74","img/motor_6.png","74","motor","6","277","1","0","0","","",""
"null","479232","HierDyzmn7deb2","sub12","12","1","iti","null","img/motor_6.png","74","motor","","","","","","","",""
"579","479822","HierDyzmn7deb2","sub12","12","1","motor","83","img/motor_2.png","83","motor","2","278","1","0","0","","",""
"null","479933","HierDyzmn7deb2","sub12","12","1","iti","null","img/motor_2.png","83","motor","","","","","","","",""
"555","480496","HierDyzmn7deb2","sub12","12","1","motor","68","img/motor_3.png","68","motor","3","279","1","0","0","","",""
"null","480608","HierDyzmn7deb2","sub12","12","1","iti","null","img/motor_3.png","68","motor","","","","","","","",""
"510","481126","HierDyzmn7deb2","sub12","12","1","motor","74","img/motor_6.png","74","motor","6","280","1","0","0","","",""
"null","481238","HierDyzmn7deb2","sub12","12","1","iti","null","img/motor_6.png","74","motor","","","","","","","",""
"410","481657","HierDyzmn7deb2","sub12","12","1","motor","76","img/motor_8.png","76","motor","8","281","1","0","0","","",""
"null","481768","HierDyzmn7deb2","sub12","12","1","iti","null","img/motor_8.png","76","motor","","","","","","","",""
"462","482240","HierDyzmn7deb2","sub12","12","1","motor","72","img/motor_5.png","72","motor","5","282","1","0","0","","",""
"null","482352","HierDyzmn7deb2","sub12","12","1","iti","null","img/motor_5.png","72","motor","","","","","","","",""
"314","482674","HierDyzmn7deb2","sub12","12","1","motor","74","img/motor_6.png","74","motor","6","283","1","0","0","","",""
"null","482785","HierDyzmn7deb2","sub12","12","1","iti","null","img/motor_6.png","74","motor","","","","","","","",""
"472","483267","HierDyzmn7deb2","sub12","12","1","motor","74","img/motor_7.png","75","motor","7","284","0","1","0","","",""
"271","483550","HierDyzmn7deb2","sub12","12","1","motorRepeat","75","img/motor_7.png","75","motor","7","284","1","0","0","","",""
"null","483659","HierDyzmn7deb2","sub12","12","1","iti","null","img/motor_7.png","75","motor","","","","","","","",""
"438","484108","HierDyzmn7deb2","sub12","12","1","motor","72","img/motor_5.png","72","motor","5","285","1","0","0","","",""
"null","484218","HierDyzmn7deb2","sub12","12","1","iti","null","img/motor_5.png","72","motor","","","","","","","",""
"511","484738","HierDyzmn7deb2","sub12","12","1","motor","83","img/motor_2.png","83","motor","2","286","1","0","0","","",""
"null","484851","HierDyzmn7deb2","sub12","12","1","iti","null","img/motor_2.png","83","motor","","","","","","","",""
"505","485367","HierDyzmn7deb2","sub12","12","1","motor","76","img/motor_8.png","76","motor","8","287","1","0","0","","",""
"null","485478","HierDyzmn7deb2","sub12","12","1","iti","null","img/motor_8.png","76","motor","","","","","","","",""
"496","485985","HierDyzmn7deb2","sub12","12","1","motor","68","img/motor_3.png","68","motor","3","288","1","0","0","","",""
"null","486096","HierDyzmn7deb2","sub12","12","1","iti","null","img/motor_3.png","68","motor","","","","","","","",""
"390","486494","HierDyzmn7deb2","sub12","12","1","motor","68","img/motor_3.png","68","motor","3","289","1","0","0","","",""
"null","486604","HierDyzmn7deb2","sub12","12","1","iti","null","img/motor_3.png","68","motor","","","","","","","",""
"443","487057","HierDyzmn7deb2","sub12","12","1","motor","65","img/motor_1.png","65","motor","1","290","1","0","0","","",""
"null","487166","HierDyzmn7deb2","sub12","12","1","iti","null","img/motor_1.png","65","motor","","","","","","","",""
"421","487598","HierDyzmn7deb2","sub12","12","1","motor","68","img/motor_3.png","68","motor","3","291","1","0","0","","",""
"null","487707","HierDyzmn7deb2","sub12","12","1","iti","null","img/motor_3.png","68","motor","","","","","","","",""
"476","488194","HierDyzmn7deb2","sub12","12","1","motor","76","img/motor_8.png","76","motor","8","292","1","0","0","","",""
"null","488304","HierDyzmn7deb2","sub12","12","1","iti","null","img/motor_8.png","76","motor","","","","","","","",""
"441","488756","HierDyzmn7deb2","sub12","12","1","motor","74","img/motor_6.png","74","motor","6","293","1","0","0","","",""
"null","488867","HierDyzmn7deb2","sub12","12","1","iti","null","img/motor_6.png","74","motor","","","","","","","",""
"480","489356","HierDyzmn7deb2","sub12","12","1","motor","68","img/motor_4.png","70","motor","4","294","0","1","0","","",""
"120","489485","HierDyzmn7deb2","sub12","12","1","motorRepeat","70","img/motor_4.png","70","motor","4","294","1","0","0","","",""
"null","489596","HierDyzmn7deb2","sub12","12","1","iti","null","img/motor_4.png","70","motor","","","","","","","",""
"586","490192","HierDyzmn7deb2","sub12","12","1","motor","68","img/motor_3.png","68","motor","3","295","1","0","0","","",""
"null","490303","HierDyzmn7deb2","sub12","12","1","iti","null","img/motor_3.png","68","motor","","","","","","","",""
"499","490813","HierDyzmn7deb2","sub12","12","1","motor","75","img/motor_7.png","75","motor","7","296","1","0","0","","",""
"null","490924","HierDyzmn7deb2","sub12","12","1","iti","null","img/motor_7.png","75","motor","","","","","","","",""
"491","491424","HierDyzmn7deb2","sub12","12","1","motor","74","img/motor_6.png","74","motor","6","297","1","0","0","","",""
"null","491533","HierDyzmn7deb2","sub12","12","1","iti","null","img/motor_6.png","74","motor","","","","","","","",""
"377","491919","HierDyzmn7deb2","sub12","12","1","motor","75","img/motor_7.png","75","motor","7","298","1","0","0","","",""
"null","492030","HierDyzmn7deb2","sub12","12","1","iti","null","img/motor_7.png","75","motor","","","","","","","",""
"463","492504","HierDyzmn7deb2","sub12","12","1","motor","70","img/motor_4.png","70","motor","4","299","1","0","0","","",""
"null","492617","HierDyzmn7deb2","sub12","12","1","iti","null","img/motor_4.png","70","motor","","","","","","","",""
"456","493083","HierDyzmn7deb2","sub12","12","1","motor","68","img/motor_3.png","68","motor","3","300","1","0","0","","",""
"null","493194","HierDyzmn7deb2","sub12","12","1","iti","null","img/motor_3.png","68","motor","","","","","","","",""
"379","493583","HierDyzmn7deb2","sub12","12","1","motor","70","img/motor_4.png","70","motor","4","301","1","0","0","","",""
"null","493696","HierDyzmn7deb2","sub12","12","1","iti","null","img/motor_4.png","70","motor","","","","","","","",""
"419","494126","HierDyzmn7deb2","sub12","12","1","motor","83","img/motor_2.png","83","motor","2","302","1","0","0","","",""
"null","494238","HierDyzmn7deb2","sub12","12","1","iti","null","img/motor_2.png","83","motor","","","","","","","",""
"570","494819","HierDyzmn7deb2","sub12","12","1","motor","65","img/motor_1.png","65","motor","1","303","1","0","0","","",""
"null","494930","HierDyzmn7deb2","sub12","12","1","iti","null","img/motor_1.png","65","motor","","","","","","","",""
"461","495401","HierDyzmn7deb2","sub12","12","1","motor","75","img/motor_7.png","75","motor","7","304","1","0","0","","",""
"null","495513","HierDyzmn7deb2","sub12","12","1","iti","null","img/motor_7.png","75","motor","","","","","","","",""
"413","495936","HierDyzmn7deb2","sub12","12","1","motor","74","img/motor_6.png","74","motor","6","305","1","0","0","","",""
"null","496046","HierDyzmn7deb2","sub12","12","1","iti","null","img/motor_6.png","74","motor","","","","","","","",""
"563","496619","HierDyzmn7deb2","sub12","12","1","motor","65","img/motor_1.png","65","motor","1","306","1","0","0","","",""
"null","496731","HierDyzmn7deb2","sub12","12","1","iti","null","img/motor_1.png","65","motor","","","","","","","",""
"457","497199","HierDyzmn7deb2","sub12","12","1","motor","74","img/motor_6.png","74","motor","6","307","1","0","0","","",""
"null","497308","HierDyzmn7deb2","sub12","12","1","iti","null","img/motor_6.png","74","motor","","","","","","","",""
"388","497705","HierDyzmn7deb2","sub12","12","1","motor","72","img/motor_5.png","72","motor","5","308","1","0","0","","",""
"null","497817","HierDyzmn7deb2","sub12","12","1","iti","null","img/motor_5.png","72","motor","","","","","","","",""
"370","498197","HierDyzmn7deb2","sub12","12","1","motor","75","img/motor_7.png","75","motor","7","309","1","0","0","","",""
"null","498308","HierDyzmn7deb2","sub12","12","1","iti","null","img/motor_7.png","75","motor","","","","","","","",""
"439","498758","HierDyzmn7deb2","sub12","12","1","motor","70","img/motor_3.png","68","motor","3","310","0","1","0","","",""
"187","498956","HierDyzmn7deb2","sub12","12","1","motorRepeat","68","img/motor_3.png","68","motor","3","310","1","0","0","","",""
"null","499066","HierDyzmn7deb2","sub12","12","1","iti","null","img/motor_3.png","68","motor","","","","","","","",""
"411","499488","HierDyzmn7deb2","sub12","12","1","motor","70","img/motor_4.png","70","motor","4","311","1","0","0","","",""
"null","499600","HierDyzmn7deb2","sub12","12","1","iti","null","img/motor_4.png","70","motor","","","","","","","",""
"408","500020","HierDyzmn7deb2","sub12","12","1","motor","75","img/motor_6.png","74","motor","6","312","0","1","0","","",""
"198","500227","HierDyzmn7deb2","sub12","12","1","motorRepeat","74","img/motor_6.png","74","motor","6","312","1","0","0","","",""
"null","500339","HierDyzmn7deb2","sub12","12","1","iti","null","img/motor_6.png","74","motor","","","","","","","",""
"532","500882","HierDyzmn7deb2","sub12","12","1","motor","70","img/motor_4.png","70","motor","4","313","1","0","0","","",""
"null","500993","HierDyzmn7deb2","sub12","12","1","iti","null","img/motor_4.png","70","motor","","","","","","","",""
"447","501449","HierDyzmn7deb2","sub12","12","1","motor","74","img/motor_6.png","74","motor","6","314","1","0","0","","",""
"null","501561","HierDyzmn7deb2","sub12","12","1","iti","null","img/motor_6.png","74","motor","","","","","","","",""
"490","502061","HierDyzmn7deb2","sub12","12","1","motor","72","img/motor_5.png","72","motor","5","315","1","0","0","","",""
"null","502173","HierDyzmn7deb2","sub12","12","1","iti","null","img/motor_5.png","72","motor","","","","","","","",""
"506","502690","HierDyzmn7deb2","sub12","12","1","motor","65","img/motor_1.png","65","motor","1","316","1","0","0","","",""
"null","502801","HierDyzmn7deb2","sub12","12","1","iti","null","img/motor_1.png","65","motor","","","","","","","",""
"594","503405","HierDyzmn7deb2","sub12","12","1","motor","70","img/motor_5.png","72","motor","5","317","0","1","0","","",""
"298","503714","HierDyzmn7deb2","sub12","12","1","motorRepeat","72","img/motor_5.png","72","motor","5","317","1","0","0","","",""
"null","503826","HierDyzmn7deb2","sub12","12","1","iti","null","img/motor_5.png","72","motor","","","","","","","",""
"395","504231","HierDyzmn7deb2","sub12","12","1","motor","74","img/motor_6.png","74","motor","6","318","1","0","0","","",""
"null","504341","HierDyzmn7deb2","sub12","12","1","iti","null","img/motor_6.png","74","motor","","","","","","","",""
"488","504840","HierDyzmn7deb2","sub12","12","1","motor","65","img/motor_1.png","65","motor","1","319","1","0","0","","",""
"null","504950","HierDyzmn7deb2","sub12","12","1","iti","null","img/motor_1.png","65","motor","","","","","","","",""
"630","505592","HierDyzmn7deb2","sub12","12","1","motor","75","img/motor_7.png","75","motor","7","320","1","0","0","","",""
"null","505704","HierDyzmn7deb2","sub12","12","1","iti","null","img/motor_7.png","75","motor","","","","","","","",""
"480","506195","HierDyzmn7deb2","sub12","12","1","motor","68","img/motor_3.png","68","motor","3","321","1","0","0","","",""
"null","506307","HierDyzmn7deb2","sub12","12","1","iti","null","img/motor_3.png","68","motor","","","","","","","",""
"618","506936","HierDyzmn7deb2","sub12","12","1","motor","76","img/motor_8.png","76","motor","8","322","1","0","0","","",""
"null","507046","HierDyzmn7deb2","sub12","12","1","iti","null","img/motor_8.png","76","motor","","","","","","","",""
"521","507577","HierDyzmn7deb2","sub12","12","1","motor","70","img/motor_4.png","70","motor","4","323","1","0","0","","",""
"null","507687","HierDyzmn7deb2","sub12","12","1","iti","null","img/motor_4.png","70","motor","","","","","","","",""
"554","508253","HierDyzmn7deb2","sub12","12","1","motor","76","img/motor_8.png","76","motor","8","324","1","0","0","","",""
"null","508364","HierDyzmn7deb2","sub12","12","1","iti","null","img/motor_8.png","76","motor","","","","","","","",""
"598","508972","HierDyzmn7deb2","sub12","12","1","motor","68","img/motor_3.png","68","motor","3","325","1","0","0","","",""
"null","509084","HierDyzmn7deb2","sub12","12","1","iti","null","img/motor_3.png","68","motor","","","","","","","",""
"486","509580","HierDyzmn7deb2","sub12","12","1","motor","83","img/motor_2.png","83","motor","2","326","1","0","0","","",""
"null","509689","HierDyzmn7deb2","sub12","12","1","iti","null","img/motor_2.png","83","motor","","","","","","","",""
"367","510067","HierDyzmn7deb2","sub12","12","1","motor","83","img/motor_2.png","83","motor","2","327","1","0","0","","",""
"null","510179","HierDyzmn7deb2","sub12","12","1","iti","null","img/motor_2.png","83","motor","","","","","","","",""
"599","510791","HierDyzmn7deb2","sub12","12","1","motor","76","img/motor_8.png","76","motor","8","328","1","0","0","","",""
"null","510902","HierDyzmn7deb2","sub12","12","1","iti","null","img/motor_8.png","76","motor","","","","","","","",""
"490","511401","HierDyzmn7deb2","sub12","12","1","motor","70","img/motor_4.png","70","motor","4","329","1","0","0","","",""
"null","511513","HierDyzmn7deb2","sub12","12","1","iti","null","img/motor_4.png","70","motor","","","","","","","",""
"535","512059","HierDyzmn7deb2","sub12","12","1","motor","65","img/motor_1.png","65","motor","1","330","1","0","0","","",""
"null","512169","HierDyzmn7deb2","sub12","12","1","iti","null","img/motor_1.png","65","motor","","","","","","","",""
"546","512726","HierDyzmn7deb2","sub12","12","1","motor","74","img/motor_6.png","74","motor","6","331","1","0","0","","",""
"null","512836","HierDyzmn7deb2","sub12","12","1","iti","null","img/motor_6.png","74","motor","","","","","","","",""
"410","513256","HierDyzmn7deb2","sub12","12","1","motor","76","img/motor_8.png","76","motor","8","332","1","0","0","","",""
"null","513366","HierDyzmn7deb2","sub12","12","1","iti","null","img/motor_8.png","76","motor","","","","","","","",""
"595","513971","HierDyzmn7deb2","sub12","12","1","motor","72","img/motor_5.png","72","motor","5","333","1","0","0","","",""
"null","514083","HierDyzmn7deb2","sub12","12","1","iti","null","img/motor_5.png","72","motor","","","","","","","",""
"420","514514","HierDyzmn7deb2","sub12","12","1","motor","65","img/motor_1.png","65","motor","1","334","1","0","0","","",""
"null","514626","HierDyzmn7deb2","sub12","12","1","iti","null","img/motor_1.png","65","motor","","","","","","","",""
"449","515088","HierDyzmn7deb2","sub12","12","1","motor","74","img/motor_7.png","75","motor","7","335","0","1","0","","",""
"166","515267","HierDyzmn7deb2","sub12","12","1","motorRepeat","75","img/motor_7.png","75","motor","7","335","1","0","0","","",""
"null","515378","HierDyzmn7deb2","sub12","12","1","iti","null","img/motor_7.png","75","motor","","","","","","","",""
"546","515935","HierDyzmn7deb2","sub12","12","1","motor","65","img/motor_1.png","65","motor","1","336","1","0","0","","",""
"null","516048","HierDyzmn7deb2","sub12","12","1","iti","null","img/motor_1.png","65","motor","","","","","","","",""
"554","516613","HierDyzmn7deb2","sub12","12","1","motor","75","img/motor_7.png","75","motor","7","337","1","0","0","","",""
"null","516726","HierDyzmn7deb2","sub12","12","1","iti","null","img/motor_7.png","75","motor","","","","","","","",""
"424","517159","HierDyzmn7deb2","sub12","12","1","motor","76","img/motor_8.png","76","motor","8","338","1","0","0","","",""
"null","517272","HierDyzmn7deb2","sub12","12","1","iti","null","img/motor_8.png","76","motor","","","","","","","",""
"605","517889","HierDyzmn7deb2","sub12","12","1","motor","72","img/motor_5.png","72","motor","5","339","1","0","0","","",""
"null","518001","HierDyzmn7deb2","sub12","12","1","iti","null","img/motor_5.png","72","motor","","","","","","","",""
"1031","519041","HierDyzmn7deb2","sub12","12","1","motor","68","img/motor_3.png","68","motor","3","340","1","0","0","","",""
"null","519151","HierDyzmn7deb2","sub12","12","1","iti","null","img/motor_3.png","68","motor","","","","","","","",""
"418","519580","HierDyzmn7deb2","sub12","12","1","motor","75","img/motor_6.png","74","motor","6","341","0","1","0","","",""
"214","519805","HierDyzmn7deb2","sub12","12","1","motorRepeat","74","img/motor_6.png","74","motor","6","341","1","0","0","","",""
"null","519915","HierDyzmn7deb2","sub12","12","1","iti","null","img/motor_6.png","74","motor","","","","","","","",""
"390","520316","HierDyzmn7deb2","sub12","12","1","motor","75","img/motor_7.png","75","motor","7","342","1","0","0","","",""
"null","520427","HierDyzmn7deb2","sub12","12","1","iti","null","img/motor_7.png","75","motor","","","","","","","",""
"372","520809","HierDyzmn7deb2","sub12","12","1","motor","76","img/motor_8.png","76","motor","8","343","1","0","0","","",""
"null","520919","HierDyzmn7deb2","sub12","12","1","iti","null","img/motor_8.png","76","motor","","","","","","","",""
"390","521319","HierDyzmn7deb2","sub12","12","1","motor","75","img/motor_8.png","76","motor","8","344","0","1","0","","",""
"268","521598","HierDyzmn7deb2","sub12","12","1","motorRepeat","76","img/motor_8.png","76","motor","8","344","1","0","0","","",""
"null","521710","HierDyzmn7deb2","sub12","12","1","iti","null","img/motor_8.png","76","motor","","","","","","","",""
"530","522250","HierDyzmn7deb2","sub12","12","1","motor","74","img/motor_6.png","74","motor","6","345","1","0","0","","",""
"null","522360","HierDyzmn7deb2","sub12","12","1","iti","null","img/motor_6.png","74","motor","","","","","","","",""
"451","522821","HierDyzmn7deb2","sub12","12","1","motor","74","img/motor_6.png","74","motor","6","346","1","0","0","","",""
"null","522930","HierDyzmn7deb2","sub12","12","1","iti","null","img/motor_6.png","74","motor","","","","","","","",""
"484","523425","HierDyzmn7deb2","sub12","12","1","motor","75","img/motor_7.png","75","motor","7","347","1","0","0","","",""
"null","523538","HierDyzmn7deb2","sub12","12","1","iti","null","img/motor_7.png","75","motor","","","","","","","",""
"547","524096","HierDyzmn7deb2","sub12","12","1","motor","70","img/motor_4.png","70","motor","4","348","1","0","0","","",""
"null","524209","HierDyzmn7deb2","sub12","12","1","iti","null","img/motor_4.png","70","motor","","","","","","","",""
"497","524718","HierDyzmn7deb2","sub12","12","1","motor","74","img/motor_6.png","74","motor","6","349","1","0","0","","",""
"null","524831","HierDyzmn7deb2","sub12","12","1","iti","null","img/motor_6.png","74","motor","","","","","","","",""
"464","525306","HierDyzmn7deb2","sub12","12","1","motor","70","img/motor_4.png","70","motor","4","350","1","0","0","","",""
"null","525414","HierDyzmn7deb2","sub12","12","1","iti","null","img/motor_4.png","70","motor","","","","","","","",""
"368","525795","HierDyzmn7deb2","sub12","12","1","motor","74","img/motor_5.png","72","motor","5","351","0","1","0","","",""
"367","526172","HierDyzmn7deb2","sub12","12","1","motorRepeat","72","img/motor_5.png","72","motor","5","351","1","0","0","","",""
"null","526283","HierDyzmn7deb2","sub12","12","1","iti","null","img/motor_5.png","72","motor","","","","","","","",""
"503","526795","HierDyzmn7deb2","sub12","12","1","motor","70","img/motor_4.png","70","motor","4","352","1","0","0","","",""
"null","526907","HierDyzmn7deb2","sub12","12","1","iti","null","img/motor_4.png","70","motor","","","","","","","",""
"606","527524","HierDyzmn7deb2","sub12","12","1","motor","83","img/motor_2.png","83","motor","2","353","1","0","0","","",""
"null","527638","HierDyzmn7deb2","sub12","12","1","iti","null","img/motor_2.png","83","motor","","","","","","","",""
"732","528379","HierDyzmn7deb2","sub12","12","1","motor","75","img/motor_7.png","75","motor","7","354","1","0","0","","",""
"null","528491","HierDyzmn7deb2","sub12","12","1","iti","null","img/motor_7.png","75","motor","","","","","","","",""
"534","529034","HierDyzmn7deb2","sub12","12","1","motor","83","img/motor_2.png","83","motor","2","355","1","0","0","","",""
"null","529146","HierDyzmn7deb2","sub12","12","1","iti","null","img/motor_2.png","83","motor","","","","","","","",""
"606","529762","HierDyzmn7deb2","sub12","12","1","motor","72","img/motor_4.png","70","motor","4","356","0","1","0","","",""
"373","530145","HierDyzmn7deb2","sub12","12","1","motorRepeat","70","img/motor_4.png","70","motor","4","356","1","0","0","","",""
"null","530257","HierDyzmn7deb2","sub12","12","1","iti","null","img/motor_4.png","70","motor","","","","","","","",""
"539","530808","HierDyzmn7deb2","sub12","12","1","motor","75","img/motor_7.png","75","motor","7","357","1","0","0","","",""
"null","530920","HierDyzmn7deb2","sub12","12","1","iti","null","img/motor_7.png","75","motor","","","","","","","",""
"504","531433","HierDyzmn7deb2","sub12","12","1","motor","70","img/motor_4.png","70","motor","4","358","1","0","0","","",""
"null","531543","HierDyzmn7deb2","sub12","12","1","iti","null","img/motor_4.png","70","motor","","","","","","","",""
"515","532069","HierDyzmn7deb2","sub12","12","1","motor","65","img/motor_1.png","65","motor","1","359","1","0","0","","",""
"null","532181","HierDyzmn7deb2","sub12","12","1","iti","null","img/motor_1.png","65","motor","","","","","","","",""
"594","532785","HierDyzmn7deb2","sub12","12","1","motor","83","img/motor_2.png","83","motor","2","360","1","0","0","","",""
"null","532899","HierDyzmn7deb2","sub12","12","1","iti","null","img/motor_2.png","83","motor","","","","","","","",""
"422","533332","HierDyzmn7deb2","sub12","12","1","motor","70","img/motor_4.png","70","motor","4","361","1","0","0","","",""
"null","533443","HierDyzmn7deb2","sub12","12","1","iti","null","img/motor_4.png","70","motor","","","","","","","",""
"483","533938","HierDyzmn7deb2","sub12","12","1","motor","83","img/motor_2.png","83","motor","2","362","1","0","0","","",""
"null","534049","HierDyzmn7deb2","sub12","12","1","iti","null","img/motor_2.png","83","motor","","","","","","","",""
"364","534422","HierDyzmn7deb2","sub12","12","1","motor","70","img/motor_4.png","70","motor","4","363","1","0","0","","",""
"null","534534","HierDyzmn7deb2","sub12","12","1","iti","null","img/motor_4.png","70","motor","","","","","","","",""
"372","534915","HierDyzmn7deb2","sub12","12","1","motor","83","img/motor_2.png","83","motor","2","364","1","0","0","","",""
"null","535028","HierDyzmn7deb2","sub12","12","1","iti","null","img/motor_2.png","83","motor","","","","","","","",""
"472","535507","HierDyzmn7deb2","sub12","12","1","motor","72","img/motor_5.png","72","motor","5","365","1","0","0","","",""
"null","535618","HierDyzmn7deb2","sub12","12","1","iti","null","img/motor_5.png","72","motor","","","","","","","",""
"506","536134","HierDyzmn7deb2","sub12","12","1","motor","65","img/motor_1.png","65","motor","1","366","1","0","0","","",""
"null","536244","HierDyzmn7deb2","sub12","12","1","iti","null","img/motor_1.png","65","motor","","","","","","","",""
"581","536835","HierDyzmn7deb2","sub12","12","1","motor","74","img/motor_6.png","74","motor","6","367","1","0","0","","",""
"null","536947","HierDyzmn7deb2","sub12","12","1","iti","null","img/motor_6.png","74","motor","","","","","","","",""
"568","537523","HierDyzmn7deb2","sub12","12","1","motor","68","img/motor_3.png","68","motor","3","368","1","0","0","","",""
"null","537635","HierDyzmn7deb2","sub12","12","1","iti","null","img/motor_3.png","68","motor","","","","","","","",""
"385","538030","HierDyzmn7deb2","sub12","12","1","motor","65","img/motor_1.png","65","motor","1","369","1","0","0","","",""
"null","538143","HierDyzmn7deb2","sub12","12","1","iti","null","img/motor_1.png","65","motor","","","","","","","",""
"469","538621","HierDyzmn7deb2","sub12","12","1","motor","68","img/motor_3.png","68","motor","3","370","1","0","0","","",""
"null","538731","HierDyzmn7deb2","sub12","12","1","iti","null","img/motor_3.png","68","motor","","","","","","","",""
"463","539204","HierDyzmn7deb2","sub12","12","1","motor","74","img/motor_6.png","74","motor","6","371","1","0","0","","",""
"null","539317","HierDyzmn7deb2","sub12","12","1","iti","null","img/motor_6.png","74","motor","","","","","","","",""
"414","539742","HierDyzmn7deb2","sub12","12","1","motor","74","img/motor_6.png","74","motor","6","372","1","0","0","","",""
"null","539853","HierDyzmn7deb2","sub12","12","1","iti","null","img/motor_6.png","74","motor","","","","","","","",""
"471","540334","HierDyzmn7deb2","sub12","12","1","motor","68","img/motor_3.png","68","motor","3","373","1","0","0","","",""
"null","540446","HierDyzmn7deb2","sub12","12","1","iti","null","img/motor_3.png","68","motor","","","","","","","",""
"423","540881","HierDyzmn7deb2","sub12","12","1","motor","65","img/motor_1.png","65","motor","1","374","1","0","0","","",""
"null","540991","HierDyzmn7deb2","sub12","12","1","iti","null","img/motor_1.png","65","motor","","","","","","","",""
"523","541524","HierDyzmn7deb2","sub12","12","1","motor","83","img/motor_2.png","83","motor","2","375","1","0","0","","",""
"null","541636","HierDyzmn7deb2","sub12","12","1","iti","null","img/motor_2.png","83","motor","","","","","","","",""
"644","542291","HierDyzmn7deb2","sub12","12","1","motor","75","img/motor_7.png","75","motor","7","376","1","0","0","","",""
"null","542401","HierDyzmn7deb2","sub12","12","1","iti","null","img/motor_7.png","75","motor","","","","","","","",""
"487","542899","HierDyzmn7deb2","sub12","12","1","motor","74","img/motor_6.png","74","motor","6","377","1","0","0","","",""
"null","543011","HierDyzmn7deb2","sub12","12","1","iti","null","img/motor_6.png","74","motor","","","","","","","",""
"426","543447","HierDyzmn7deb2","sub12","12","1","motor","74","img/motor_6.png","74","motor","6","378","1","0","0","","",""
"null","543559","HierDyzmn7deb2","sub12","12","1","iti","null","img/motor_6.png","74","motor","","","","","","","",""
"465","544035","HierDyzmn7deb2","sub12","12","1","motor","72","img/motor_5.png","72","motor","5","379","1","0","0","","",""
"null","544148","HierDyzmn7deb2","sub12","12","1","iti","null","img/motor_5.png","72","motor","","","","","","","",""
"421","544579","HierDyzmn7deb2","sub12","12","1","motor","76","img/motor_8.png","76","motor","8","380","1","0","0","","",""
"null","544692","HierDyzmn7deb2","sub12","12","1","iti","null","img/motor_8.png","76","motor","","","","","","","",""
"555","545257","HierDyzmn7deb2","sub12","12","1","motor","70","img/motor_4.png","70","motor","4","381","1","0","0","","",""
"null","545369","HierDyzmn7deb2","sub12","12","1","iti","null","img/motor_4.png","70","motor","","","","","","","",""
"390","545770","HierDyzmn7deb2","sub12","12","1","motor","70","img/motor_4.png","70","motor","4","382","1","0","0","","",""
"null","545882","HierDyzmn7deb2","sub12","12","1","iti","null","img/motor_4.png","70","motor","","","","","","","",""
"406","546298","HierDyzmn7deb2","sub12","12","1","motor","68","img/motor_3.png","68","motor","3","383","1","0","0","","",""
"null","546409","HierDyzmn7deb2","sub12","12","1","iti","null","img/motor_3.png","68","motor","","","","","","","",""
"390","546808","HierDyzmn7deb2","sub12","12","1","motor","83","img/motor_2.png","83","motor","2","384","1","0","0","","",""
"null","546920","HierDyzmn7deb2","sub12","12","1","iti","null","img/motor_2.png","83","motor","","","","","","","",""
"452","547383","HierDyzmn7deb2","sub12","12","1","motor","72","img/motor_5.png","72","motor","5","385","1","0","0","","",""
"null","547493","HierDyzmn7deb2","sub12","12","1","iti","null","img/motor_5.png","72","motor","","","","","","","",""
"500","548003","HierDyzmn7deb2","sub12","12","1","motor","68","img/motor_4.png","70","motor","4","386","0","1","0","","",""
"333","548346","HierDyzmn7deb2","sub12","12","1","motorRepeat","70","img/motor_4.png","70","motor","4","386","1","0","0","","",""
"null","548458","HierDyzmn7deb2","sub12","12","1","iti","null","img/motor_4.png","70","motor","","","","","","","",""
"530","548998","HierDyzmn7deb2","sub12","12","1","motor","74","img/motor_6.png","74","motor","6","387","1","0","0","","",""
"null","549110","HierDyzmn7deb2","sub12","12","1","iti","null","img/motor_6.png","74","motor","","","","","","","",""
"741","549861","HierDyzmn7deb2","sub12","12","1","motor","83","img/motor_2.png","83","motor","2","388","1","0","0","","",""
"null","549974","HierDyzmn7deb2","sub12","12","1","iti","null","img/motor_2.png","83","motor","","","","","","","",""
"523","550509","HierDyzmn7deb2","sub12","12","1","motor","76","img/motor_8.png","76","motor","8","389","1","0","0","","",""
"null","550621","HierDyzmn7deb2","sub12","12","1","iti","null","img/motor_8.png","76","motor","","","","","","","",""
"524","551154","HierDyzmn7deb2","sub12","12","1","motor","75","img/motor_7.png","75","motor","7","390","1","0","0","","",""
"null","551267","HierDyzmn7deb2","sub12","12","1","iti","null","img/motor_7.png","75","motor","","","","","","","",""
"365","551643","HierDyzmn7deb2","sub12","12","1","motor","74","img/motor_6.png","74","motor","6","391","1","0","0","","",""
"null","551754","HierDyzmn7deb2","sub12","12","1","iti","null","img/motor_6.png","74","motor","","","","","","","",""
"681","552447","HierDyzmn7deb2","sub12","12","1","motor","83","img/motor_2.png","83","motor","2","392","1","0","0","","",""
"null","552559","HierDyzmn7deb2","sub12","12","1","iti","null","img/motor_2.png","83","motor","","","","","","","",""
"448","553019","HierDyzmn7deb2","sub12","12","1","motor","65","img/motor_1.png","65","motor","1","393","1","0","0","","",""
