"rt","time_elapsed","subject","subID","group","day","trialType","phase","key_press","stim","stimNum","corrresp","hierarchy","trialNum","corr","responses"
"213462.29999995232","213458","HierDymhkqyxw5","sub06","06","7","","","","","","","","","",""
"","215373","HierDymhkqyxw5","sub06","06","7","fullscreen","","","","","","","","",""
"979.0999999046326","216353","HierDymhkqyxw5","sub06","06","7","","prac","","","","","","","",""
"1275.7000000476837","217633","HierDymhkqyxw5","sub06","06","7","","","32","","","","","","",""
"539.0999999046326","218173","HierDymhkqyxw5","sub06","06","7","","prac","","","","","","","",""
"1232.7999999523163","219409","HierDymhkqyxw5","sub06","06","7","rl","test","72","img/o_t_check.png","5","72","pattern,shape,color","1","1",""
"null","220412","HierDymhkqyxw5","sub06","06","7","feedback","test","null","","","na","","1","",""
"1846.8000000715256","222260","HierDymhkqyxw5","sub06","06","7","rl","test","65","img/o_t_stripes.png","1","65","pattern,shape,color","2","1",""
"null","223265","HierDymhkqyxw5","sub06","06","7","feedback","test","null","","","na","","2","",""
"1407.8999999761581","224674","HierDymhkqyxw5","sub06","06","7","rl","test","70","img/r_s_stripes.png","4","70","pattern,shape,color","3","1",""
"null","225681","HierDymhkqyxw5","sub06","06","7","feedback","test","null","","","na","","3","",""
"1792.8000000715256","227476","HierDymhkqyxw5","sub06","06","7","rl","test","74","img/r_t_check.png","6","74","pattern,shape,color","4","1",""
"null","228481","HierDymhkqyxw5","sub06","06","7","feedback","test","null","","","na","","4","",""
"1440","229923","HierDymhkqyxw5","sub06","06","7","rl","test","68","img/o_s_stripes.png","3","68","pattern,shape,color","5","1",""
"null","230930","HierDymhkqyxw5","sub06","06","7","feedback","test","null","","","na","","5","",""
"1039.7999999523163","231972","HierDymhkqyxw5","sub06","06","7","rl","test","83","img/r_t_stripes.png","2","83","pattern,shape,color","6","1",""
"null","232979","HierDymhkqyxw5","sub06","06","7","feedback","test","null","","","na","","6","",""
"1454.8999999761581","234435","HierDymhkqyxw5","sub06","06","7","rl","test","75","img/o_s_check.png","7","75","pattern,shape,color","7","1",""
"null","235442","HierDymhkqyxw5","sub06","06","7","feedback","test","null","","","na","","7","",""
"1581.8000000715256","237026","HierDymhkqyxw5","sub06","06","7","rl","test","68","img/o_s_stripes.png","3","68","pattern,shape,color","8","1",""
"null","238030","HierDymhkqyxw5","sub06","06","7","feedback","test","null","","","na","","8","",""
"1171.1999999284744","239203","HierDymhkqyxw5","sub06","06","7","rl","test","76","img/r_s_check.png","8","76","pattern,shape,color","9","1",""
"null","240210","HierDymhkqyxw5","sub06","06","7","feedback","test","null","","","na","","9","",""
"797","241009","HierDymhkqyxw5","sub06","06","7","rl","test","76","img/r_s_check.png","8","76","pattern,shape,color","10","1",""
"null","242011","HierDymhkqyxw5","sub06","06","7","feedback","test","null","","","na","","10","",""
"1785.8999999761581","243799","HierDymhkqyxw5","sub06","06","7","rl","test","83","img/r_t_stripes.png","2","83","pattern,shape,color","11","1",""
"null","244804","HierDymhkqyxw5","sub06","06","7","feedback","test","null","","","na","","11","",""
"1702.2999999523163","246508","HierDymhkqyxw5","sub06","06","7","rl","test","72","img/o_t_check.png","5","72","pattern,shape,color","12","1",""
"null","247511","HierDymhkqyxw5","sub06","06","7","feedback","test","null","","","na","","12","",""
"1079.8999999761581","248593","HierDymhkqyxw5","sub06","06","7","rl","test","75","img/o_s_check.png","7","75","pattern,shape,color","13","1",""
"null","249599","HierDymhkqyxw5","sub06","06","7","feedback","test","null","","","na","","13","",""
"2113.399999976158","251714","HierDymhkqyxw5","sub06","06","7","rl","test","74","img/r_t_check.png","6","74","pattern,shape,color","14","1",""
"null","252716","HierDymhkqyxw5","sub06","06","7","feedback","test","null","","","na","","14","",""
"1182.2999999523163","253900","HierDymhkqyxw5","sub06","06","7","rl","test","65","img/o_t_stripes.png","1","65","pattern,shape,color","15","1",""
"null","254907","HierDymhkqyxw5","sub06","06","7","feedback","test","null","","","na","","15","",""
"1608","256517","HierDymhkqyxw5","sub06","06","7","rl","test","70","img/r_s_stripes.png","4","70","pattern,shape,color","16","1",""
"null","257522","HierDymhkqyxw5","sub06","06","7","feedback","test","null","","","na","","16","",""
"1396.8999999761581","258920","HierDymhkqyxw5","sub06","06","7","rl","test","76","img/r_s_check.png","8","76","pattern,shape,color","17","1",""
"null","259923","HierDymhkqyxw5","sub06","06","7","feedback","test","null","","","na","","17","",""
"1880.1000000238419","261805","HierDymhkqyxw5","sub06","06","7","rl","test","83","img/r_s_stripes.png","4","70","pattern,shape,color","18","0",""
"null","262811","HierDymhkqyxw5","sub06","06","7","feedback","test","null","","","na","","18","",""
"1807.1000000238419","264620","HierDymhkqyxw5","sub06","06","7","rl","test","70","img/r_t_stripes.png","2","83","pattern,shape,color","19","0",""
"null","265625","HierDymhkqyxw5","sub06","06","7","feedback","test","null","","","na","","19","",""
"646.1000000238419","266273","HierDymhkqyxw5","sub06","06","7","rl","test","65","img/o_t_stripes.png","1","65","pattern,shape,color","20","1",""
"null","267280","HierDymhkqyxw5","sub06","06","7","feedback","test","null","","","na","","20","",""
"1071","268353","HierDymhkqyxw5","sub06","06","7","rl","test","68","img/o_s_stripes.png","3","68","pattern,shape,color","21","1",""
"null","269360","HierDymhkqyxw5","sub06","06","7","feedback","test","null","","","na","","21","",""
"769.6000000238419","270131","HierDymhkqyxw5","sub06","06","7","rl","test","65","img/o_t_stripes.png","1","65","pattern,shape,color","22","1",""
"null","271137","HierDymhkqyxw5","sub06","06","7","feedback","test","null","","","na","","22","",""
"982.6000000238419","272122","HierDymhkqyxw5","sub06","06","7","rl","test","72","img/o_t_check.png","5","72","pattern,shape,color","23","1",""
"null","273125","HierDymhkqyxw5","sub06","06","7","feedback","test","null","","","na","","23","",""
"1413.3999999761581","274541","HierDymhkqyxw5","sub06","06","7","rl","test","68","img/o_s_stripes.png","3","68","pattern,shape,color","24","1",""
"null","275544","HierDymhkqyxw5","sub06","06","7","feedback","test","null","","","na","","24","",""
"972.1000000238419","276518","HierDymhkqyxw5","sub06","06","7","rl","test","75","img/o_s_check.png","7","75","pattern,shape,color","25","1",""
"null","277520","HierDymhkqyxw5","sub06","06","7","feedback","test","null","","","na","","25","",""
"869.3999999761581","278391","HierDymhkqyxw5","sub06","06","7","rl","test","75","img/o_s_check.png","7","75","pattern,shape,color","26","1",""
"null","279398","HierDymhkqyxw5","sub06","06","7","feedback","test","null","","","na","","26","",""
"766.2999999523163","280167","HierDymhkqyxw5","sub06","06","7","rl","test","72","img/o_t_check.png","5","72","pattern,shape,color","27","1",""
"null","281174","HierDymhkqyxw5","sub06","06","7","feedback","test","null","","","na","","27","",""
"495","281671","HierDymhkqyxw5","sub06","06","7","rl","test","74","img/r_t_check.png","6","74","pattern,shape,color","28","1",""
"null","282678","HierDymhkqyxw5","sub06","06","7","feedback","test","null","","","na","","28","",""
"528","283207","HierDymhkqyxw5","sub06","06","7","rl","test","74","img/r_t_check.png","6","74","pattern,shape,color","29","1",""
"null","284213","HierDymhkqyxw5","sub06","06","7","feedback","test","null","","","na","","29","",""
"797","285012","HierDymhkqyxw5","sub06","06","7","rl","test","68","img/r_s_stripes.png","4","70","pattern,shape,color","30","0",""
"null","286019","HierDymhkqyxw5","sub06","06","7","feedback","test","null","","","na","","30","",""
"584.5999999046326","286605","HierDymhkqyxw5","sub06","06","7","rl","test","76","img/r_s_check.png","8","76","pattern,shape,color","31","1",""
"null","287609","HierDymhkqyxw5","sub06","06","7","feedback","test","null","","","na","","31","",""
"1474.0999999046326","289085","HierDymhkqyxw5","sub06","06","7","rl","test","70","img/r_s_stripes.png","4","70","pattern,shape,color","32","1",""
"null","290092","HierDymhkqyxw5","sub06","06","7","feedback","test","null","","","na","","32","",""
"832.1999999284744","290926","HierDymhkqyxw5","sub06","06","7","rl","test","83","img/r_t_stripes.png","2","83","pattern,shape,color","33","1",""
"null","291930","HierDymhkqyxw5","sub06","06","7","feedback","test","null","","","na","","33","",""
"950.7000000476837","292882","HierDymhkqyxw5","sub06","06","7","rl","test","74","img/r_t_check.png","6","74","pattern,shape,color","34","1",""
"null","293885","HierDymhkqyxw5","sub06","06","7","feedback","test","null","","","na","","34","",""
"837","294724","HierDymhkqyxw5","sub06","06","7","rl","test","75","img/o_s_check.png","7","75","pattern,shape,color","35","1",""
"null","295726","HierDymhkqyxw5","sub06","06","7","feedback","test","null","","","na","","35","",""
"899.0999999046326","296627","HierDymhkqyxw5","sub06","06","7","rl","test","83","img/r_t_stripes.png","2","83","pattern,shape,color","36","1",""
"null","297630","HierDymhkqyxw5","sub06","06","7","feedback","test","null","","","na","","36","",""
"1080.7000000476837","298712","HierDymhkqyxw5","sub06","06","7","rl","test","68","img/o_t_stripes.png","1","65","pattern,shape,color","37","0",""
"null","299718","HierDymhkqyxw5","sub06","06","7","feedback","test","null","","","na","","37","",""
"1885.2000000476837","301606","HierDymhkqyxw5","sub06","06","7","rl","test","72","img/o_t_check.png","5","72","pattern,shape,color","38","1",""
"null","302609","HierDymhkqyxw5","sub06","06","7","feedback","test","null","","","na","","38","",""
"867.2999999523163","303478","HierDymhkqyxw5","sub06","06","7","rl","test","83","img/o_s_stripes.png","3","68","pattern,shape,color","39","0",""
"null","304480","HierDymhkqyxw5","sub06","06","7","feedback","test","null","","","na","","39","",""
"1304","305786","HierDymhkqyxw5","sub06","06","7","rl","test","70","img/r_s_stripes.png","4","70","pattern,shape,color","40","1",""
"null","306792","HierDymhkqyxw5","sub06","06","7","feedback","test","null","","","na","","40","",""
"702.4000000953674","307496","HierDymhkqyxw5","sub06","06","7","rl","test","76","img/r_s_check.png","8","76","pattern,shape,color","41","1",""
"null","308502","HierDymhkqyxw5","sub06","06","7","feedback","test","null","","","na","","41","",""
"728.7999999523163","309233","HierDymhkqyxw5","sub06","06","7","rl","test","75","img/o_s_check.png","7","75","pattern,shape,color","42","1",""
"null","310240","HierDymhkqyxw5","sub06","06","7","feedback","test","null","","","na","","42","",""
"942.2000000476837","311184","HierDymhkqyxw5","sub06","06","7","rl","test","65","img/o_t_stripes.png","1","65","pattern,shape,color","43","1",""
"null","312190","HierDymhkqyxw5","sub06","06","7","feedback","test","null","","","na","","43","",""
"705.2000000476837","312897","HierDymhkqyxw5","sub06","06","7","rl","test","83","img/r_s_stripes.png","4","70","pattern,shape,color","44","0",""
"null","313904","HierDymhkqyxw5","sub06","06","7","feedback","test","null","","","na","","44","",""
"508.89999997615814","314415","HierDymhkqyxw5","sub06","06","7","rl","test","83","img/r_t_stripes.png","2","83","pattern,shape,color","45","1",""
"null","315418","HierDymhkqyxw5","sub06","06","7","feedback","test","null","","","na","","45","",""
"783","316203","HierDymhkqyxw5","sub06","06","7","rl","test","68","img/o_s_stripes.png","3","68","pattern,shape,color","46","1",""
"null","317209","HierDymhkqyxw5","sub06","06","7","feedback","test","null","","","na","","46","",""
"819.8999999761581","318031","HierDymhkqyxw5","sub06","06","7","rl","test","76","img/r_s_check.png","8","76","pattern,shape,color","47","1",""
"null","319033","HierDymhkqyxw5","sub06","06","7","feedback","test","null","","","na","","47","",""
"939.6000000238419","319975","HierDymhkqyxw5","sub06","06","7","rl","test","72","img/o_t_check.png","5","72","pattern,shape,color","48","1",""
"null","320978","HierDymhkqyxw5","sub06","06","7","feedback","test","null","","","na","","48","",""
"889.6000000238419","321869","HierDymhkqyxw5","sub06","06","7","rl","test","74","img/r_t_check.png","6","74","pattern,shape,color","49","1",""
"null","322872","HierDymhkqyxw5","sub06","06","7","feedback","test","null","","","na","","49","",""
"668.8000000715256","323543","HierDymhkqyxw5","sub06","06","7","rl","test","76","img/r_s_check.png","8","76","pattern,shape,color","50","1",""
"null","324545","HierDymhkqyxw5","sub06","06","7","feedback","test","null","","","na","","50","",""
"870.8000000715256","325418","HierDymhkqyxw5","sub06","06","7","rl","test","65","img/o_t_stripes.png","1","65","pattern,shape,color","51","1",""
"null","326425","HierDymhkqyxw5","sub06","06","7","feedback","test","null","","","na","","51","",""
"854.6999999284744","327282","HierDymhkqyxw5","sub06","06","7","rl","test","72","img/o_t_check.png","5","72","pattern,shape,color","52","1",""
"null","328287","HierDymhkqyxw5","sub06","06","7","feedback","test","null","","","na","","52","",""
"979.7999999523163","329269","HierDymhkqyxw5","sub06","06","7","rl","test","75","img/o_s_check.png","7","75","pattern,shape,color","53","1",""
"null","330275","HierDymhkqyxw5","sub06","06","7","feedback","test","null","","","na","","53","",""
"1028.3000000715256","331305","HierDymhkqyxw5","sub06","06","7","rl","test","72","img/r_t_check.png","6","74","pattern,shape,color","54","0",""
"null","332309","HierDymhkqyxw5","sub06","06","7","feedback","test","null","","","na","","54","",""
"1192.8000000715256","333503","HierDymhkqyxw5","sub06","06","7","rl","test","76","img/o_s_check.png","7","75","pattern,shape,color","55","0",""
"null","334508","HierDymhkqyxw5","sub06","06","7","feedback","test","null","","","na","","55","",""
"856.2999999523163","335366","HierDymhkqyxw5","sub06","06","7","rl","test","72","img/o_t_check.png","5","72","pattern,shape,color","56","1",""
"null","336370","HierDymhkqyxw5","sub06","06","7","feedback","test","null","","","na","","56","",""
"734.5","337107","HierDymhkqyxw5","sub06","06","7","rl","test","83","img/r_t_stripes.png","2","83","pattern,shape,color","57","1",""
"null","338112","HierDymhkqyxw5","sub06","06","7","feedback","test","null","","","na","","57","",""
"1332.3999999761581","339446","HierDymhkqyxw5","sub06","06","7","rl","test","83","img/r_t_stripes.png","2","83","pattern,shape,color","58","1",""
"null","340453","HierDymhkqyxw5","sub06","06","7","feedback","test","null","","","na","","58","",""
"881.1000000238419","341336","HierDymhkqyxw5","sub06","06","7","rl","test","70","img/r_s_stripes.png","4","70","pattern,shape,color","59","1",""
"null","342339","HierDymhkqyxw5","sub06","06","7","feedback","test","null","","","na","","59","",""
"439","342780","HierDymhkqyxw5","sub06","06","7","rl","test","68","img/o_s_stripes.png","3","68","pattern,shape,color","60","1",""
"null","343787","HierDymhkqyxw5","sub06","06","7","feedback","test","null","","","na","","60","",""
"831.8000000715256","344620","HierDymhkqyxw5","sub06","06","7","rl","test","76","img/r_s_check.png","8","76","pattern,shape,color","61","1",""
"null","345623","HierDymhkqyxw5","sub06","06","7","feedback","test","null","","","na","","61","",""
"1004.6000000238419","346630","HierDymhkqyxw5","sub06","06","7","rl","test","74","img/r_t_check.png","6","74","pattern,shape,color","62","1",""
"null","347634","HierDymhkqyxw5","sub06","06","7","feedback","test","null","","","na","","62","",""
"2210.4000000953674","349847","HierDymhkqyxw5","sub06","06","7","rl","test","83","img/o_s_stripes.png","3","68","pattern,shape,color","63","0",""
"null","350854","HierDymhkqyxw5","sub06","06","7","feedback","test","null","","","na","","63","",""
"1407.1999999284744","352263","HierDymhkqyxw5","sub06","06","7","rl","test","65","img/o_t_stripes.png","1","65","pattern,shape,color","64","1",""
"null","353268","HierDymhkqyxw5","sub06","06","7","feedback","test","null","","","na","","64","",""
"609","353879","HierDymhkqyxw5","sub06","06","7","rl","test","83","img/r_t_stripes.png","2","83","pattern,shape,color","65","1",""
"null","354883","HierDymhkqyxw5","sub06","06","7","feedback","test","null","","","na","","65","",""
"868.8999999761581","355754","HierDymhkqyxw5","sub06","06","7","rl","test","72","img/o_t_check.png","5","72","pattern,shape,color","66","1",""
"null","356761","HierDymhkqyxw5","sub06","06","7","feedback","test","null","","","na","","66","",""
"976.6999999284744","357740","HierDymhkqyxw5","sub06","06","7","rl","test","74","img/r_t_check.png","6","74","pattern,shape,color","67","1",""
"null","358745","HierDymhkqyxw5","sub06","06","7","feedback","test","null","","","na","","67","",""
"1792.6999999284744","360540","HierDymhkqyxw5","sub06","06","7","rl","test","70","img/r_s_stripes.png","4","70","pattern,shape,color","68","1",""
"null","361544","HierDymhkqyxw5","sub06","06","7","feedback","test","null","","","na","","68","",""
"872.8999999761581","362419","HierDymhkqyxw5","sub06","06","7","rl","test","75","img/o_s_check.png","7","75","pattern,shape,color","69","1",""
"null","363425","HierDymhkqyxw5","sub06","06","7","feedback","test","null","","","na","","69","",""
"932.3000000715256","364359","HierDymhkqyxw5","sub06","06","7","rl","test","65","img/o_t_stripes.png","1","65","pattern,shape,color","70","1",""
"null","365366","HierDymhkqyxw5","sub06","06","7","feedback","test","null","","","na","","70","",""
"1464.8000000715256","366832","HierDymhkqyxw5","sub06","06","7","rl","test","75","img/o_s_check.png","7","75","pattern,shape,color","71","1",""
"null","367839","HierDymhkqyxw5","sub06","06","7","feedback","test","null","","","na","","71","",""
"1139.2999999523163","368980","HierDymhkqyxw5","sub06","06","7","rl","test","68","img/o_s_stripes.png","3","68","pattern,shape,color","72","1",""
"null","369985","HierDymhkqyxw5","sub06","06","7","feedback","test","null","","","na","","72","",""
"698.5","370685","HierDymhkqyxw5","sub06","06","7","rl","test","76","img/r_s_check.png","8","76","pattern,shape,color","73","1",""
"null","371688","HierDymhkqyxw5","sub06","06","7","feedback","test","null","","","na","","73","",""
"721.8999999761581","372412","HierDymhkqyxw5","sub06","06","7","rl","test","76","img/r_s_check.png","8","76","pattern,shape,color","74","1",""
"null","373416","HierDymhkqyxw5","sub06","06","7","feedback","test","null","","","na","","74","",""
"1387.7999999523163","374806","HierDymhkqyxw5","sub06","06","7","rl","test","70","img/r_s_stripes.png","4","70","pattern,shape,color","75","1",""
"null","375813","HierDymhkqyxw5","sub06","06","7","feedback","test","null","","","na","","75","",""
"1159.6000000238419","376974","HierDymhkqyxw5","sub06","06","7","rl","test","72","img/o_t_check.png","5","72","pattern,shape,color","76","1",""
"null","377978","HierDymhkqyxw5","sub06","06","7","feedback","test","null","","","na","","76","",""
"1213.2000000476837","379193","HierDymhkqyxw5","sub06","06","7","rl","test","83","img/r_t_stripes.png","2","83","pattern,shape,color","77","1",""
"null","380200","HierDymhkqyxw5","sub06","06","7","feedback","test","null","","","na","","77","",""
"1024.4000000953674","381226","HierDymhkqyxw5","sub06","06","7","rl","test","72","img/r_t_check.png","6","74","pattern,shape,color","78","0",""
"null","382229","HierDymhkqyxw5","sub06","06","7","feedback","test","null","","","na","","78","",""
"1387.2999999523163","383618","HierDymhkqyxw5","sub06","06","7","rl","test","83","img/r_t_stripes.png","2","83","pattern,shape,color","79","1",""
"null","384624","HierDymhkqyxw5","sub06","06","7","feedback","test","null","","","na","","79","",""
"1183.6000000238419","385810","HierDymhkqyxw5","sub06","06","7","rl","test","68","img/o_s_stripes.png","3","68","pattern,shape,color","80","1",""
"null","386817","HierDymhkqyxw5","sub06","06","7","feedback","test","null","","","na","","80","",""
"1447.6000000238419","388267","HierDymhkqyxw5","sub06","06","7","rl","test","74","img/r_t_check.png","6","74","pattern,shape,color","81","1",""
"null","389274","HierDymhkqyxw5","sub06","06","7","feedback","test","null","","","na","","81","",""
"1181.1000000238419","390457","HierDymhkqyxw5","sub06","06","7","rl","test","65","img/o_t_stripes.png","1","65","pattern,shape,color","82","1",""
"null","391461","HierDymhkqyxw5","sub06","06","7","feedback","test","null","","","na","","82","",""
"738.2000000476837","392201","HierDymhkqyxw5","sub06","06","7","rl","test","65","img/o_t_stripes.png","1","65","pattern,shape,color","83","1",""
"null","393207","HierDymhkqyxw5","sub06","06","7","feedback","test","null","","","na","","83","",""
"1041.2000000476837","394250","HierDymhkqyxw5","sub06","06","7","rl","test","75","img/o_s_check.png","7","75","pattern,shape,color","84","1",""
"null","395259","HierDymhkqyxw5","sub06","06","7","feedback","test","null","","","na","","84","",""
"1029.3999999761581","396290","HierDymhkqyxw5","sub06","06","7","rl","test","68","img/o_s_stripes.png","3","68","pattern,shape,color","85","1",""
"null","397296","HierDymhkqyxw5","sub06","06","7","feedback","test","null","","","na","","85","",""
"1023.5","398321","HierDymhkqyxw5","sub06","06","7","rl","test","65","img/o_t_stripes.png","1","65","pattern,shape,color","86","1",""
"null","399327","HierDymhkqyxw5","sub06","06","7","feedback","test","null","","","na","","86","",""
"711.5","400041","HierDymhkqyxw5","sub06","06","7","rl","test","76","img/r_s_check.png","8","76","pattern,shape,color","87","1",""
"null","401043","HierDymhkqyxw5","sub06","06","7","feedback","test","null","","","na","","87","",""
"1650.8999999761581","402696","HierDymhkqyxw5","sub06","06","7","rl","test","70","img/r_s_stripes.png","4","70","pattern,shape,color","88","1",""
"null","403702","HierDymhkqyxw5","sub06","06","7","feedback","test","null","","","na","","88","",""
"1868.5","405573","HierDymhkqyxw5","sub06","06","7","rl","test","68","img/o_s_stripes.png","3","68","pattern,shape,color","89","1",""
"null","406575","HierDymhkqyxw5","sub06","06","7","feedback","test","null","","","na","","89","",""
"1268.5","407846","HierDymhkqyxw5","sub06","06","7","rl","test","74","img/o_t_check.png","5","72","pattern,shape,color","90","0",""
"null","408852","HierDymhkqyxw5","sub06","06","7","feedback","test","null","","","na","","90","",""
"1472","410326","HierDymhkqyxw5","sub06","06","7","rl","test","76","img/r_s_check.png","8","76","pattern,shape,color","91","1",""
"null","411333","HierDymhkqyxw5","sub06","06","7","feedback","test","null","","","na","","91","",""
"818.8999999761581","412154","HierDymhkqyxw5","sub06","06","7","rl","test","75","img/o_s_check.png","7","75","pattern,shape,color","92","1",""
"null","413161","HierDymhkqyxw5","sub06","06","7","feedback","test","null","","","na","","92","",""
"1149.6000000238419","414312","HierDymhkqyxw5","sub06","06","7","rl","test","83","img/r_t_stripes.png","2","83","pattern,shape,color","93","1",""
"null","415319","HierDymhkqyxw5","sub06","06","7","feedback","test","null","","","na","","93","",""
"1170.7000000476837","416492","HierDymhkqyxw5","sub06","06","7","rl","test","70","img/r_s_stripes.png","4","70","pattern,shape,color","94","1",""
"null","417498","HierDymhkqyxw5","sub06","06","7","feedback","test","null","","","na","","94","",""
"1543.5","419044","HierDymhkqyxw5","sub06","06","7","rl","test","72","img/o_t_check.png","5","72","pattern,shape,color","95","1",""
"null","420050","HierDymhkqyxw5","sub06","06","7","feedback","test","null","","","na","","95","",""
"1859.0999999046326","421911","HierDymhkqyxw5","sub06","06","7","rl","test","74","img/r_t_check.png","6","74","pattern,shape,color","96","1",""
"null","422914","HierDymhkqyxw5","sub06","06","7","feedback","test","null","","","na","","96","",""
"522","423438","HierDymhkqyxw5","sub06","06","7","rl","test","72","img/o_t_check.png","5","72","pattern,shape,color","97","1",""
"null","424444","HierDymhkqyxw5","sub06","06","7","feedback","test","null","","","na","","97","",""
"913.3999999761581","425360","HierDymhkqyxw5","sub06","06","7","rl","test","75","img/o_s_check.png","7","75","pattern,shape,color","98","1",""
"null","426367","HierDymhkqyxw5","sub06","06","7","feedback","test","null","","","na","","98","",""
"1157.6999999284744","427526","HierDymhkqyxw5","sub06","06","7","rl","test","68","img/o_s_stripes.png","3","68","pattern,shape,color","99","1",""
"null","428532","HierDymhkqyxw5","sub06","06","7","feedback","test","null","","","na","","99","",""
"673.1999999284744","429207","HierDymhkqyxw5","sub06","06","7","rl","test","83","img/r_t_stripes.png","2","83","pattern,shape,color","100","1",""
"null","430211","HierDymhkqyxw5","sub06","06","7","feedback","test","null","","","na","","100","",""
"504.1999999284744","430717","HierDymhkqyxw5","sub06","06","7","rl","test","65","img/o_t_stripes.png","1","65","pattern,shape,color","101","1",""
"null","431722","HierDymhkqyxw5","sub06","06","7","feedback","test","null","","","na","","101","",""
"1463.5","433187","HierDymhkqyxw5","sub06","06","7","rl","test","76","img/r_s_check.png","8","76","pattern,shape,color","102","1",""
"null","434194","HierDymhkqyxw5","sub06","06","7","feedback","test","null","","","na","","102","",""
"1131.3000000715256","435328","HierDymhkqyxw5","sub06","06","7","rl","test","70","img/r_s_stripes.png","4","70","pattern,shape,color","103","1",""
"null","436335","HierDymhkqyxw5","sub06","06","7","feedback","test","null","","","na","","103","",""
"1160.0999999046326","437497","HierDymhkqyxw5","sub06","06","7","rl","test","70","img/r_s_stripes.png","4","70","pattern,shape,color","104","1",""
"null","438501","HierDymhkqyxw5","sub06","06","7","feedback","test","null","","","na","","104","",""
"949.7999999523163","439452","HierDymhkqyxw5","sub06","06","7","rl","test","74","img/r_t_check.png","6","74","pattern,shape,color","105","1",""
"null","440459","HierDymhkqyxw5","sub06","06","7","feedback","test","null","","","na","","105","",""
"938.8000000715256","441400","HierDymhkqyxw5","sub06","06","7","rl","test","83","img/r_t_stripes.png","2","83","pattern,shape,color","106","1",""
"null","442405","HierDymhkqyxw5","sub06","06","7","feedback","test","null","","","na","","106","",""
"1073.3999999761581","443480","HierDymhkqyxw5","sub06","06","7","rl","test","76","img/r_s_check.png","8","76","pattern,shape,color","107","1",""
"null","444486","HierDymhkqyxw5","sub06","06","7","feedback","test","null","","","na","","107","",""
"2274.2999999523163","446763","HierDymhkqyxw5","sub06","06","7","rl","test","65","img/o_t_stripes.png","1","65","pattern,shape,color","108","1",""
"null","447765","HierDymhkqyxw5","sub06","06","7","feedback","test","null","","","na","","108","",""
"916.2000000476837","448683","HierDymhkqyxw5","sub06","06","7","rl","test","74","img/o_s_check.png","7","75","pattern,shape,color","109","0",""
"null","449689","HierDymhkqyxw5","sub06","06","7","feedback","test","null","","","na","","109","",""
"931.2999999523163","450622","HierDymhkqyxw5","sub06","06","7","rl","test","72","img/o_t_check.png","5","72","pattern,shape,color","110","1",""
"null","451629","HierDymhkqyxw5","sub06","06","7","feedback","test","null","","","na","","110","",""
"888.2999999523163","452519","HierDymhkqyxw5","sub06","06","7","rl","test","68","img/o_s_stripes.png","3","68","pattern,shape,color","111","1",""
"null","453524","HierDymhkqyxw5","sub06","06","7","feedback","test","null","","","na","","111","",""
"1744.8000000715256","455271","HierDymhkqyxw5","sub06","06","7","rl","test","74","img/r_t_check.png","6","74","pattern,shape,color","112","1",""
"null","456274","HierDymhkqyxw5","sub06","06","7","feedback","test","null","","","na","","112","",""
"988.7000000476837","457264","HierDymhkqyxw5","sub06","06","7","rl","test","68","img/o_s_stripes.png","3","68","pattern,shape,color","113","1",""
"null","458271","HierDymhkqyxw5","sub06","06","7","feedback","test","null","","","na","","113","",""
"875.2999999523163","459148","HierDymhkqyxw5","sub06","06","7","rl","test","65","img/o_t_check.png","5","72","pattern,shape,color","114","0",""
"null","460152","HierDymhkqyxw5","sub06","06","7","feedback","test","null","","","na","","114","",""
"941.8000000715256","461096","HierDymhkqyxw5","sub06","06","7","rl","test","74","img/r_t_check.png","6","74","pattern,shape,color","115","1",""
"null","462102","HierDymhkqyxw5","sub06","06","7","feedback","test","null","","","na","","115","",""
"730.3000000715256","462834","HierDymhkqyxw5","sub06","06","7","rl","test","65","img/o_t_stripes.png","1","65","pattern,shape,color","116","1",""
"null","463839","HierDymhkqyxw5","sub06","06","7","feedback","test","null","","","na","","116","",""
"774.7999999523163","464616","HierDymhkqyxw5","sub06","06","7","rl","test","76","img/r_s_check.png","8","76","pattern,shape,color","117","1",""
"null","465621","HierDymhkqyxw5","sub06","06","7","feedback","test","null","","","na","","117","",""
"1039.5","466663","HierDymhkqyxw5","sub06","06","7","rl","test","70","img/r_s_stripes.png","4","70","pattern,shape,color","118","1",""
"null","467670","HierDymhkqyxw5","sub06","06","7","feedback","test","null","","","na","","118","",""
"null","470173","HierDymhkqyxw5","sub06","06","7","rl","test","null","img/r_s_stripes.png","4","70","pattern,shape,color","119","0",""
"null","471178","HierDymhkqyxw5","sub06","06","7","feedback","test","null","","","na","","119","",""
"1190.8000000715256","472370","HierDymhkqyxw5","sub06","06","7","rl","test","83","img/r_t_stripes.png","2","83","pattern,shape,color","120","1",""
"null","473376","HierDymhkqyxw5","sub06","06","7","feedback","test","null","","","na","","120","",""
"840.7000000476837","474218","HierDymhkqyxw5","sub06","06","7","rl","test","75","img/o_s_check.png","7","75","pattern,shape,color","121","1",""
"null","475221","HierDymhkqyxw5","sub06","06","7","feedback","test","null","","","na","","121","",""
"1327.6000000238419","476551","HierDymhkqyxw5","sub06","06","7","rl","test","83","img/r_t_stripes.png","2","83","pattern,shape,color","122","1",""
"null","477557","HierDymhkqyxw5","sub06","06","7","feedback","test","null","","","na","","122","",""
"963.7999999523163","478523","HierDymhkqyxw5","sub06","06","7","rl","test","76","img/r_s_check.png","8","76","pattern,shape,color","123","1",""
"null","479529","HierDymhkqyxw5","sub06","06","7","feedback","test","null","","","na","","123","",""
"660.8999999761581","480192","HierDymhkqyxw5","sub06","06","7","rl","test","68","img/o_s_stripes.png","3","68","pattern,shape,color","124","1",""
"null","481199","HierDymhkqyxw5","sub06","06","7","feedback","test","null","","","na","","124","",""
"1304.3999999761581","482505","HierDymhkqyxw5","sub06","06","7","rl","test","65","img/o_t_stripes.png","1","65","pattern,shape,color","125","1",""
"null","483512","HierDymhkqyxw5","sub06","06","7","feedback","test","null","","","na","","125","",""
"1359.3000000715256","484874","HierDymhkqyxw5","sub06","06","7","rl","test","75","img/o_s_check.png","7","75","pattern,shape,color","126","1",""
"null","485879","HierDymhkqyxw5","sub06","06","7","feedback","test","null","","","na","","126","",""
"1482.2000000476837","487364","HierDymhkqyxw5","sub06","06","7","rl","test","74","img/o_t_check.png","5","72","pattern,shape,color","127","0",""
"null","488368","HierDymhkqyxw5","sub06","06","7","feedback","test","null","","","na","","127","",""
"799.7000000476837","489170","HierDymhkqyxw5","sub06","06","7","rl","test","72","img/o_t_check.png","5","72","pattern,shape,color","128","1",""
"null","490173","HierDymhkqyxw5","sub06","06","7","feedback","test","null","","","na","","128","",""
"891","491066","HierDymhkqyxw5","sub06","06","7","rl","test","70","img/r_s_stripes.png","4","70","pattern,shape,color","129","1",""
"null","492073","HierDymhkqyxw5","sub06","06","7","feedback","test","null","","","na","","129","",""
"1472.5","493547","HierDymhkqyxw5","sub06","06","7","rl","test","74","img/r_t_check.png","6","74","pattern,shape,color","130","1",""
"null","494551","HierDymhkqyxw5","sub06","06","7","feedback","test","null","","","na","","130","",""
"912.5","495466","HierDymhkqyxw5","sub06","06","7","rl","test","76","img/r_s_check.png","8","76","pattern,shape,color","131","1",""
"null","496473","HierDymhkqyxw5","sub06","06","7","feedback","test","null","","","na","","131","",""
"1105.7000000476837","497580","HierDymhkqyxw5","sub06","06","7","rl","test","83","img/r_t_stripes.png","2","83","pattern,shape,color","132","1",""
"null","498585","HierDymhkqyxw5","sub06","06","7","feedback","test","null","","","na","","132","",""
"1257","499843","HierDymhkqyxw5","sub06","06","7","rl","test","74","img/r_t_check.png","6","74","pattern,shape,color","133","1",""
"null","500846","HierDymhkqyxw5","sub06","06","7","feedback","test","null","","","na","","133","",""
"694.1000000238419","501543","HierDymhkqyxw5","sub06","06","7","rl","test","65","img/o_t_stripes.png","1","65","pattern,shape,color","134","1",""
"null","502547","HierDymhkqyxw5","sub06","06","7","feedback","test","null","","","na","","134","",""
"686.5","503236","HierDymhkqyxw5","sub06","06","7","rl","test","76","img/r_s_check.png","8","76","pattern,shape,color","135","1",""
"null","504243","HierDymhkqyxw5","sub06","06","7","feedback","test","null","","","na","","135","",""
"888.5","505133","HierDymhkqyxw5","sub06","06","7","rl","test","83","img/o_s_stripes.png","3","68","pattern,shape,color","136","0",""
"null","506140","HierDymhkqyxw5","sub06","06","7","feedback","test","null","","","na","","136","",""
"986.2000000476837","507129","HierDymhkqyxw5","sub06","06","7","rl","test","75","img/o_s_check.png","7","75","pattern,shape,color","137","1",""
"null","508134","HierDymhkqyxw5","sub06","06","7","feedback","test","null","","","na","","137","",""
"1353.9000000953674","509489","HierDymhkqyxw5","sub06","06","7","rl","test","83","img/o_t_stripes.png","1","65","pattern,shape,color","138","0",""
"null","510496","HierDymhkqyxw5","sub06","06","7","feedback","test","null","","","na","","138","",""
"1594.5","512092","HierDymhkqyxw5","sub06","06","7","rl","test","68","img/o_s_stripes.png","3","68","pattern,shape,color","139","1",""
"null","513099","HierDymhkqyxw5","sub06","06","7","feedback","test","null","","","na","","139","",""
"1396.6000000238419","514498","HierDymhkqyxw5","sub06","06","7","rl","test","65","img/r_t_stripes.png","2","83","pattern,shape,color","140","0",""
"null","515503","HierDymhkqyxw5","sub06","06","7","feedback","test","null","","","na","","140","",""
"1283","516788","HierDymhkqyxw5","sub06","06","7","rl","test","72","img/o_t_check.png","5","72","pattern,shape,color","141","1",""
"null","517791","HierDymhkqyxw5","sub06","06","7","feedback","test","null","","","na","","141","",""
"1031.8000000715256","518825","HierDymhkqyxw5","sub06","06","7","rl","test","75","img/o_s_check.png","7","75","pattern,shape,color","142","1",""
"null","519831","HierDymhkqyxw5","sub06","06","7","feedback","test","null","","","na","","142","",""
"2411.6999999284744","522245","HierDymhkqyxw5","sub06","06","7","rl","test","70","img/r_s_stripes.png","4","70","pattern,shape,color","143","1",""
"null","523249","HierDymhkqyxw5","sub06","06","7","feedback","test","null","","","na","","143","",""
"941.9000000953674","524193","HierDymhkqyxw5","sub06","06","7","rl","test","76","img/r_t_check.png","6","74","pattern,shape,color","144","0",""
"null","525200","HierDymhkqyxw5","sub06","06","7","feedback","test","null","","","na","","144","",""
"715.3000000715256","525917","HierDymhkqyxw5","sub06","06","7","rl","test","72","img/r_t_check.png","6","74","pattern,shape,color","145","0",""
"null","526923","HierDymhkqyxw5","sub06","06","7","feedback","test","null","","","na","","145","",""
"850.8999999761581","527776","HierDymhkqyxw5","sub06","06","7","rl","test","83","img/r_t_stripes.png","2","83","pattern,shape,color","146","1",""
"null","528781","HierDymhkqyxw5","sub06","06","7","feedback","test","null","","","na","","146","",""
"1783.3000000715256","530566","HierDymhkqyxw5","sub06","06","7","rl","test","74","img/r_t_check.png","6","74","pattern,shape,color","147","1",""
"null","531572","HierDymhkqyxw5","sub06","06","7","feedback","test","null","","","na","","147","",""
"424.2999999523163","531998","HierDymhkqyxw5","sub06","06","7","rl","test","72","img/o_t_check.png","5","72","pattern,shape,color","148","1",""
"null","533003","HierDymhkqyxw5","sub06","06","7","feedback","test","null","","","na","","148","",""
"2245.2999999523163","535250","HierDymhkqyxw5","sub06","06","7","rl","test","70","img/r_s_stripes.png","4","70","pattern,shape,color","149","1",""
"null","536257","HierDymhkqyxw5","sub06","06","7","feedback","test","null","","","na","","149","",""
"921.2000000476837","537180","HierDymhkqyxw5","sub06","06","7","rl","test","76","img/r_s_check.png","8","76","pattern,shape,color","150","1",""
"null","538183","HierDymhkqyxw5","sub06","06","7","feedback","test","null","","","na","","150","",""
"1023.7999999523163","539209","HierDymhkqyxw5","sub06","06","7","rl","test","75","img/o_s_check.png","7","75","pattern,shape,color","151","1",""
"null","540211","HierDymhkqyxw5","sub06","06","7","feedback","test","null","","","na","","151","",""
"1189.1999999284744","541402","HierDymhkqyxw5","sub06","06","7","rl","test","68","img/o_s_stripes.png","3","68","pattern,shape,color","152","1",""
"null","542408","HierDymhkqyxw5","sub06","06","7","feedback","test","null","","","na","","152","",""
"2103.6999999284744","544514","HierDymhkqyxw5","sub06","06","7","rl","test","65","img/o_t_stripes.png","1","65","pattern,shape,color","153","1",""
"null","545522","HierDymhkqyxw5","sub06","06","7","feedback","test","null","","","na","","153","",""
"936.1000000238419","546460","HierDymhkqyxw5","sub06","06","7","rl","test","70","img/r_s_stripes.png","4","70","pattern,shape,color","154","1",""
"null","547464","HierDymhkqyxw5","sub06","06","7","feedback","test","null","","","na","","154","",""
"1197.8999999761581","548664","HierDymhkqyxw5","sub06","06","7","rl","test","75","img/o_s_check.png","7","75","pattern,shape,color","155","1",""
"null","549669","HierDymhkqyxw5","sub06","06","7","feedback","test","null","","","na","","155","",""
"1920.7999999523163","551591","HierDymhkqyxw5","sub06","06","7","rl","test","83","img/r_t_stripes.png","2","83","pattern,shape,color","156","1",""
"null","552598","HierDymhkqyxw5","sub06","06","7","feedback","test","null","","","na","","156","",""
"1326.3999999761581","553927","HierDymhkqyxw5","sub06","06","7","rl","test","76","img/r_s_check.png","8","76","pattern,shape,color","157","1",""
"null","554932","HierDymhkqyxw5","sub06","06","7","feedback","test","null","","","na","","157","",""
"2058.399999976158","556993","HierDymhkqyxw5","sub06","06","7","rl","test","70","img/r_t_stripes.png","2","83","pattern,shape,color","158","0",""
"null","558000","HierDymhkqyxw5","sub06","06","7","feedback","test","null","","","na","","158","",""
"1162.3999999761581","559164","HierDymhkqyxw5","sub06","06","7","rl","test","74","img/r_t_check.png","6","74","pattern,shape,color","159","1",""
"null","560171","HierDymhkqyxw5","sub06","06","7","feedback","test","null","","","na","","159","",""
"688.8999999761581","560861","HierDymhkqyxw5","sub06","06","7","rl","test","68","img/o_s_stripes.png","3","68","pattern,shape,color","160","1",""
"null","561868","HierDymhkqyxw5","sub06","06","7","feedback","test","null","","","na","","160","",""
"1301.3000000715256","563172","HierDymhkqyxw5","sub06","06","7","rl","test","72","img/o_t_check.png","5","72","pattern,shape,color","161","1",""
"null","564177","HierDymhkqyxw5","sub06","06","7","feedback","test","null","","","na","","161","",""
"800.2000000476837","564979","HierDymhkqyxw5","sub06","06","7","rl","test","72","img/o_t_check.png","5","72","pattern,shape,color","162","1",""
"null","565985","HierDymhkqyxw5","sub06","06","7","feedback","test","null","","","na","","162","",""
"816.5","566803","HierDymhkqyxw5","sub06","06","7","rl","test","65","img/o_t_stripes.png","1","65","pattern,shape,color","163","1",""
"null","567810","HierDymhkqyxw5","sub06","06","7","feedback","test","null","","","na","","163","",""
"1626","569438","HierDymhkqyxw5","sub06","06","7","rl","test","65","img/o_t_stripes.png","1","65","pattern,shape,color","164","1",""
"null","570442","HierDymhkqyxw5","sub06","06","7","feedback","test","null","","","na","","164","",""
"2385.899999976158","572830","HierDymhkqyxw5","sub06","06","7","rl","test","70","img/r_s_stripes.png","4","70","pattern,shape,color","165","1",""
"null","573833","HierDymhkqyxw5","sub06","06","7","feedback","test","null","","","na","","165","",""
"1309","575144","HierDymhkqyxw5","sub06","06","7","rl","test","65","img/r_s_check.png","8","76","pattern,shape,color","166","0",""
"null","576151","HierDymhkqyxw5","sub06","06","7","feedback","test","null","","","na","","166","",""
"null","578654","HierDymhkqyxw5","sub06","06","7","rl","test","null","img/o_s_check.png","7","75","pattern,shape,color","167","0",""
"null","579658","HierDymhkqyxw5","sub06","06","7","feedback","test","null","","","na","","167","",""
"1907.2000000476837","581567","HierDymhkqyxw5","sub06","06","7","rl","test","68","img/o_s_stripes.png","3","68","pattern,shape,color","168","1",""
"null","582573","HierDymhkqyxw5","sub06","06","7","feedback","test","null","","","na","","168","",""
"760.8999999761581","583336","HierDymhkqyxw5","sub06","06","7","rl","test","76","img/r_s_check.png","8","76","pattern,shape,color","169","1",""
"null","584340","HierDymhkqyxw5","sub06","06","7","feedback","test","null","","","na","","169","",""
"970.2000000476837","585312","HierDymhkqyxw5","sub06","06","7","rl","test","68","img/o_s_stripes.png","3","68","pattern,shape,color","170","1",""
"null","586317","HierDymhkqyxw5","sub06","06","7","feedback","test","null","","","na","","170","",""
"1325.6000000238419","587645","HierDymhkqyxw5","sub06","06","7","rl","test","75","img/o_s_check.png","7","75","pattern,shape,color","171","1",""
"null","588647","HierDymhkqyxw5","sub06","06","7","feedback","test","null","","","na","","171","",""
"1402.8000000715256","590051","HierDymhkqyxw5","sub06","06","7","rl","test","83","img/r_t_stripes.png","2","83","pattern,shape,color","172","1",""
"null","591055","HierDymhkqyxw5","sub06","06","7","feedback","test","null","","","na","","172","",""
"2199.7000000476837","593257","HierDymhkqyxw5","sub06","06","7","rl","test","74","img/r_t_check.png","6","74","pattern,shape,color","173","1",""
"null","594260","HierDymhkqyxw5","sub06","06","7","feedback","test","null","","","na","","173","",""
"1173.4000000953674","595435","HierDymhkqyxw5","sub06","06","7","rl","test","75","img/o_s_check.png","7","75","pattern,shape,color","174","1",""
"null","596439","HierDymhkqyxw5","sub06","06","7","feedback","test","null","","","na","","174","",""
"1069.1999999284744","597510","HierDymhkqyxw5","sub06","06","7","rl","test","76","img/r_s_check.png","8","76","pattern,shape,color","175","1",""
"null","598515","HierDymhkqyxw5","sub06","06","7","feedback","test","null","","","na","","175","",""
"1075.2999999523163","599592","HierDymhkqyxw5","sub06","06","7","rl","test","70","img/r_s_stripes.png","4","70","pattern,shape,color","176","1",""
"null","600600","HierDymhkqyxw5","sub06","06","7","feedback","test","null","","","na","","176","",""
"1699.8999999761581","602301","HierDymhkqyxw5","sub06","06","7","rl","test","72","img/o_t_check.png","5","72","pattern,shape,color","177","1",""
"null","603305","HierDymhkqyxw5","sub06","06","7","feedback","test","null","","","na","","177","",""
"1137.9000000953674","604444","HierDymhkqyxw5","sub06","06","7","rl","test","74","img/r_t_check.png","6","74","pattern,shape,color","178","1",""
"null","605446","HierDymhkqyxw5","sub06","06","7","feedback","test","null","","","na","","178","",""
"1353.7000000476837","606802","HierDymhkqyxw5","sub06","06","7","rl","test","65","img/o_t_stripes.png","1","65","pattern,shape,color","179","1",""
"null","607805","HierDymhkqyxw5","sub06","06","7","feedback","test","null","","","na","","179","",""
"956.1000000238419","608763","HierDymhkqyxw5","sub06","06","7","rl","test","83","img/r_t_stripes.png","2","83","pattern,shape,color","180","1",""
"null","609769","HierDymhkqyxw5","sub06","06","7","feedback","test","null","","","na","","180","",""
"2286.8000000715256","612057","HierDymhkqyxw5","sub06","06","7","rl","test","65","img/o_t_stripes.png","1","65","pattern,shape,color","181","1",""
"null","613062","HierDymhkqyxw5","sub06","06","7","feedback","test","null","","","na","","181","",""
"1233.6000000238419","614297","HierDymhkqyxw5","sub06","06","7","rl","test","70","img/r_s_stripes.png","4","70","pattern,shape,color","182","1",""
"null","615300","HierDymhkqyxw5","sub06","06","7","feedback","test","null","","","na","","182","",""
"1083.3999999761581","616385","HierDymhkqyxw5","sub06","06","7","rl","test","68","img/o_s_stripes.png","3","68","pattern,shape,color","183","1",""
"null","617388","HierDymhkqyxw5","sub06","06","7","feedback","test","null","","","na","","183","",""
"1047.3000000715256","618437","HierDymhkqyxw5","sub06","06","7","rl","test","72","img/o_t_check.png","5","72","pattern,shape,color","184","1",""
"null","619442","HierDymhkqyxw5","sub06","06","7","feedback","test","null","","","na","","184","",""
"1208.6000000238419","620652","HierDymhkqyxw5","sub06","06","7","rl","test","68","img/r_s_stripes.png","4","70","pattern,shape,color","185","0",""
"null","621657","HierDymhkqyxw5","sub06","06","7","feedback","test","null","","","na","","185","",""
"689.3999999761581","622348","HierDymhkqyxw5","sub06","06","7","rl","test","65","img/o_t_stripes.png","1","65","pattern,shape,color","186","1",""
"null","623351","HierDymhkqyxw5","sub06","06","7","feedback","test","null","","","na","","186","",""
"1874.7999999523163","625228","HierDymhkqyxw5","sub06","06","7","rl","test","68","img/o_s_stripes.png","3","68","pattern,shape,color","187","1",""
"null","626234","HierDymhkqyxw5","sub06","06","7","feedback","test","null","","","na","","187","",""
"877.6000000238419","627114","HierDymhkqyxw5","sub06","06","7","rl","test","75","img/o_s_check.png","7","75","pattern,shape,color","188","1",""
"null","628118","HierDymhkqyxw5","sub06","06","7","feedback","test","null","","","na","","188","",""
"1718.6999999284744","629839","HierDymhkqyxw5","sub06","06","7","rl","test","83","img/r_t_stripes.png","2","83","pattern,shape,color","189","1",""
"null","630842","HierDymhkqyxw5","sub06","06","7","feedback","test","null","","","na","","189","",""
"1023.3999999761581","631867","HierDymhkqyxw5","sub06","06","7","rl","test","76","img/r_s_check.png","8","76","pattern,shape,color","190","1",""
"null","632873","HierDymhkqyxw5","sub06","06","7","feedback","test","null","","","na","","190","",""
"1372.3000000715256","634248","HierDymhkqyxw5","sub06","06","7","rl","test","72","img/o_t_check.png","5","72","pattern,shape,color","191","1",""
"null","635251","HierDymhkqyxw5","sub06","06","7","feedback","test","null","","","na","","191","",""
"1903.6000000238419","637157","HierDymhkqyxw5","sub06","06","7","rl","test","74","img/r_t_check.png","6","74","pattern,shape,color","192","1",""
"null","638163","HierDymhkqyxw5","sub06","06","7","feedback","test","null","","","na","","192","",""
"1642.1000000238419","639807","HierDymhkqyxw5","sub06","06","7","rl","test","74","img/r_t_check.png","6","74","pattern,shape,color","193","1",""
"null","640814","HierDymhkqyxw5","sub06","06","7","feedback","test","null","","","na","","193","",""
"1451.1000000238419","642267","HierDymhkqyxw5","sub06","06","7","rl","test","72","img/o_t_check.png","5","72","pattern,shape,color","194","1",""
"null","643273","HierDymhkqyxw5","sub06","06","7","feedback","test","null","","","na","","194","",""
"2205.100000023842","645481","HierDymhkqyxw5","sub06","06","7","rl","test","70","img/r_s_stripes.png","4","70","pattern,shape,color","195","1",""
"null","646487","HierDymhkqyxw5","sub06","06","7","feedback","test","null","","","na","","195","",""
"1336.7000000476837","647826","HierDymhkqyxw5","sub06","06","7","rl","test","76","img/r_s_check.png","8","76","pattern,shape,color","196","1",""
"null","648830","HierDymhkqyxw5","sub06","06","7","feedback","test","null","","","na","","196","",""
"904.6999999284744","649737","HierDymhkqyxw5","sub06","06","7","rl","test","65","img/o_t_stripes.png","1","65","pattern,shape,color","197","1",""
"null","650742","HierDymhkqyxw5","sub06","06","7","feedback","test","null","","","na","","197","",""
"1072.5","651818","HierDymhkqyxw5","sub06","06","7","rl","test","75","img/o_s_check.png","7","75","pattern,shape,color","198","1",""
"null","652825","HierDymhkqyxw5","sub06","06","7","feedback","test","null","","","na","","198","",""
"1137.1000000238419","653964","HierDymhkqyxw5","sub06","06","7","rl","test","68","img/o_s_stripes.png","3","68","pattern,shape,color","199","1",""
"null","654968","HierDymhkqyxw5","sub06","06","7","feedback","test","null","","","na","","199","",""
"1502.5","656473","HierDymhkqyxw5","sub06","06","7","rl","test","70","img/r_t_check.png","6","74","pattern,shape,color","200","0",""
"null","657475","HierDymhkqyxw5","sub06","06","7","feedback","test","null","","","na","","200","",""
"1307.1000000238419","658784","HierDymhkqyxw5","sub06","06","7","rl","test","72","img/r_t_stripes.png","2","83","pattern,shape,color","201","0",""
"null","659787","HierDymhkqyxw5","sub06","06","7","feedback","test","null","","","na","","201","",""
"1270.8999999761581","661060","HierDymhkqyxw5","sub06","06","7","rl","test","72","img/o_t_check.png","5","72","pattern,shape,color","202","1",""
"null","662066","HierDymhkqyxw5","sub06","06","7","feedback","test","null","","","na","","202","",""
"1035.2000000476837","663103","HierDymhkqyxw5","sub06","06","7","rl","test","68","img/o_s_stripes.png","3","68","pattern,shape,color","203","1",""
"null","664109","HierDymhkqyxw5","sub06","06","7","feedback","test","null","","","na","","203","",""
"null","666613","HierDymhkqyxw5","sub06","06","7","rl","test","null","img/r_s_stripes.png","4","70","pattern,shape,color","204","0",""
"null","667617","HierDymhkqyxw5","sub06","06","7","feedback","test","null","","","na","","204","",""
"1263.7000000476837","668882","HierDymhkqyxw5","sub06","06","7","rl","test","83","img/r_t_stripes.png","2","83","pattern,shape,color","205","1",""
"null","669893","HierDymhkqyxw5","sub06","06","7","feedback","test","null","","","na","","205","",""
"797","670693","HierDymhkqyxw5","sub06","06","7","rl","test","76","img/r_s_check.png","8","76","pattern,shape,color","206","1",""
"null","671699","HierDymhkqyxw5","sub06","06","7","feedback","test","null","","","na","","206","",""
"598.6000000238419","672299","HierDymhkqyxw5","sub06","06","7","rl","test","76","img/r_s_check.png","8","76","pattern,shape,color","207","1",""
"null","673302","HierDymhkqyxw5","sub06","06","7","feedback","test","null","","","na","","207","",""
"948.6999999284744","674253","HierDymhkqyxw5","sub06","06","7","rl","test","68","img/o_s_stripes.png","3","68","pattern,shape,color","208","1",""
"null","675258","HierDymhkqyxw5","sub06","06","7","feedback","test","null","","","na","","208","",""
"2151.600000023842","677412","HierDymhkqyxw5","sub06","06","7","rl","test","70","img/r_s_stripes.png","4","70","pattern,shape,color","209","1",""
"null","678417","HierDymhkqyxw5","sub06","06","7","feedback","test","null","","","na","","209","",""
"900","679319","HierDymhkqyxw5","sub06","06","7","rl","test","65","img/o_t_stripes.png","1","65","pattern,shape,color","210","1",""
"null","680325","HierDymhkqyxw5","sub06","06","7","feedback","test","null","","","na","","210","",""
"999.3999999761581","681327","HierDymhkqyxw5","sub06","06","7","rl","test","76","img/o_s_check.png","7","75","pattern,shape,color","211","0",""
"null","682329","HierDymhkqyxw5","sub06","06","7","feedback","test","null","","","na","","211","",""
"826.6999999284744","683158","HierDymhkqyxw5","sub06","06","7","rl","test","68","img/o_t_stripes.png","1","65","pattern,shape,color","212","0",""
"null","684161","HierDymhkqyxw5","sub06","06","7","feedback","test","null","","","na","","212","",""
"2226.2999999523163","686389","HierDymhkqyxw5","sub06","06","7","rl","test","75","img/o_s_check.png","7","75","pattern,shape,color","213","1",""
"null","687397","HierDymhkqyxw5","sub06","06","7","feedback","test","null","","","na","","213","",""
"1495.8000000715256","688894","HierDymhkqyxw5","sub06","06","7","rl","test","74","img/r_t_check.png","6","74","pattern,shape,color","214","1",""
"null","689901","HierDymhkqyxw5","sub06","06","7","feedback","test","null","","","na","","214","",""
"593.4000000953674","690496","HierDymhkqyxw5","sub06","06","7","rl","test","72","img/o_t_check.png","5","72","pattern,shape,color","215","1",""
"null","691501","HierDymhkqyxw5","sub06","06","7","feedback","test","null","","","na","","215","",""
"2362.4000000953674","693865","HierDymhkqyxw5","sub06","06","7","rl","test","83","img/r_t_stripes.png","2","83","pattern,shape,color","216","1",""
"null","694872","HierDymhkqyxw5","sub06","06","7","feedback","test","null","","","na","","216","",""
"563.6000000238419","695438","HierDymhkqyxw5","sub06","06","7","rl","test","83","img/r_t_stripes.png","2","83","pattern,shape,color","217","1",""
"null","696440","HierDymhkqyxw5","sub06","06","7","feedback","test","null","","","na","","217","",""
"862.2999999523163","697304","HierDymhkqyxw5","sub06","06","7","rl","test","70","img/r_s_stripes.png","4","70","pattern,shape,color","218","1",""
"null","698307","HierDymhkqyxw5","sub06","06","7","feedback","test","null","","","na","","218","",""
"914.1999999284744","699224","HierDymhkqyxw5","sub06","06","7","rl","test","76","img/r_s_check.png","8","76","pattern,shape,color","219","1",""
"null","700236","HierDymhkqyxw5","sub06","06","7","feedback","test","null","","","na","","219","",""
"1006.1999999284744","701244","HierDymhkqyxw5","sub06","06","7","rl","test","75","img/o_s_check.png","7","75","pattern,shape,color","220","1",""
"null","702246","HierDymhkqyxw5","sub06","06","7","feedback","test","null","","","na","","220","",""
"947.3000000715256","703194","HierDymhkqyxw5","sub06","06","7","rl","test","72","img/o_t_check.png","5","72","pattern,shape,color","221","1",""
"null","704200","HierDymhkqyxw5","sub06","06","7","feedback","test","null","","","na","","221","",""
"418.1999999284744","704620","HierDymhkqyxw5","sub06","06","7","rl","test","74","img/r_t_check.png","6","74","pattern,shape,color","222","1",""
"null","705625","HierDymhkqyxw5","sub06","06","7","feedback","test","null","","","na","","222","",""
"1028","706655","HierDymhkqyxw5","sub06","06","7","rl","test","68","img/o_s_stripes.png","3","68","pattern,shape,color","223","1",""
"null","707660","HierDymhkqyxw5","sub06","06","7","feedback","test","null","","","na","","223","",""
"949.3000000715256","708611","HierDymhkqyxw5","sub06","06","7","rl","test","72","img/o_t_check.png","5","72","pattern,shape,color","224","1",""
"null","709618","HierDymhkqyxw5","sub06","06","7","feedback","test","null","","","na","","224","",""
"1100.9000000953674","710721","HierDymhkqyxw5","sub06","06","7","rl","test","74","img/r_t_check.png","6","74","pattern,shape,color","225","1",""
"null","711729","HierDymhkqyxw5","sub06","06","7","feedback","test","null","","","na","","225","",""
"563.0999999046326","712294","HierDymhkqyxw5","sub06","06","7","rl","test","65","img/o_t_stripes.png","1","65","pattern,shape,color","226","1",""
"null","713297","HierDymhkqyxw5","sub06","06","7","feedback","test","null","","","na","","226","",""
"1198.1000000238419","714497","HierDymhkqyxw5","sub06","06","7","rl","test","83","img/r_t_stripes.png","2","83","pattern,shape,color","227","1",""
"null","715500","HierDymhkqyxw5","sub06","06","7","feedback","test","null","","","na","","227","",""
"733.2000000476837","716235","HierDymhkqyxw5","sub06","06","7","rl","test","68","img/o_s_stripes.png","3","68","pattern,shape,color","228","1",""
"null","717240","HierDymhkqyxw5","sub06","06","7","feedback","test","null","","","na","","228","",""
"926.6000000238419","718168","HierDymhkqyxw5","sub06","06","7","rl","test","76","img/o_s_check.png","7","75","pattern,shape,color","229","0",""
"null","719175","HierDymhkqyxw5","sub06","06","7","feedback","test","null","","","na","","229","",""
"1240.8000000715256","720418","HierDymhkqyxw5","sub06","06","7","rl","test","70","img/r_s_stripes.png","4","70","pattern,shape,color","230","1",""
"null","721425","HierDymhkqyxw5","sub06","06","7","feedback","test","null","","","na","","230","",""
"959.7000000476837","722386","HierDymhkqyxw5","sub06","06","7","rl","test","70","img/r_s_stripes.png","4","70","pattern,shape,color","231","1",""
"null","723390","HierDymhkqyxw5","sub06","06","7","feedback","test","null","","","na","","231","",""
"659.7000000476837","724052","HierDymhkqyxw5","sub06","06","7","rl","test","65","img/o_t_stripes.png","1","65","pattern,shape,color","232","1",""
"null","725059","HierDymhkqyxw5","sub06","06","7","feedback","test","null","","","na","","232","",""
"704.5","725765","HierDymhkqyxw5","sub06","06","7","rl","test","74","img/r_t_check.png","6","74","pattern,shape,color","233","1",""
"null","726771","HierDymhkqyxw5","sub06","06","7","feedback","test","null","","","na","","233","",""
"719.2000000476837","727492","HierDymhkqyxw5","sub06","06","7","rl","test","76","img/r_s_check.png","8","76","pattern,shape,color","234","1",""
"null","728496","HierDymhkqyxw5","sub06","06","7","feedback","test","null","","","na","","234","",""
"718.5999999046326","729217","HierDymhkqyxw5","sub06","06","7","rl","test","68","img/o_s_stripes.png","3","68","pattern,shape,color","235","1",""
"null","730224","HierDymhkqyxw5","sub06","06","7","feedback","test","null","","","na","","235","",""
"672.5999999046326","730899","HierDymhkqyxw5","sub06","06","7","rl","test","65","img/o_t_stripes.png","1","65","pattern,shape,color","236","1",""
"null","731902","HierDymhkqyxw5","sub06","06","7","feedback","test","null","","","na","","236","",""
"837.8999999761581","732742","HierDymhkqyxw5","sub06","06","7","rl","test","75","img/o_s_check.png","7","75","pattern,shape,color","237","1",""
"null","733748","HierDymhkqyxw5","sub06","06","7","feedback","test","null","","","na","","237","",""
"856.5","734607","HierDymhkqyxw5","sub06","06","7","rl","test","83","img/r_t_stripes.png","2","83","pattern,shape,color","238","1",""
"null","735611","HierDymhkqyxw5","sub06","06","7","feedback","test","null","","","na","","238","",""
"704.1999999284744","736318","HierDymhkqyxw5","sub06","06","7","rl","test","72","img/o_t_check.png","5","72","pattern,shape,color","239","1",""
"null","737326","HierDymhkqyxw5","sub06","06","7","feedback","test","null","","","na","","239","",""
"1672.8999999761581","739000","HierDymhkqyxw5","sub06","06","7","rl","test","76","img/r_s_check.png","8","76","pattern,shape,color","240","1",""
"null","740004","HierDymhkqyxw5","sub06","06","7","feedback","test","null","","","na","","240","",""
"1059.8999999761581","741066","HierDymhkqyxw5","sub06","06","7","rl","test","72","img/o_t_check.png","5","72","pattern,shape,color","241","1",""
"null","742073","HierDymhkqyxw5","sub06","06","7","feedback","test","null","","","na","","241","",""
"694.6000000238419","742770","HierDymhkqyxw5","sub06","06","7","rl","test","76","img/o_s_check.png","7","75","pattern,shape,color","242","0",""
"null","743774","HierDymhkqyxw5","sub06","06","7","feedback","test","null","","","na","","242","",""
"1769.5","745546","HierDymhkqyxw5","sub06","06","7","rl","test","70","img/r_t_check.png","6","74","pattern,shape,color","243","0",""
"null","746553","HierDymhkqyxw5","sub06","06","7","feedback","test","null","","","na","","243","",""
"1275.2999999523163","747830","HierDymhkqyxw5","sub06","06","7","rl","test","76","img/r_s_check.png","8","76","pattern,shape,color","244","1",""
"null","748836","HierDymhkqyxw5","sub06","06","7","feedback","test","null","","","na","","244","",""
"928.5","749767","HierDymhkqyxw5","sub06","06","7","rl","test","83","img/r_t_stripes.png","2","83","pattern,shape,color","245","1",""
"null","750773","HierDymhkqyxw5","sub06","06","7","feedback","test","null","","","na","","245","",""
"1425.1000000238419","752200","HierDymhkqyxw5","sub06","06","7","rl","test","70","img/r_s_stripes.png","4","70","pattern,shape,color","246","1",""
"null","753207","HierDymhkqyxw5","sub06","06","7","feedback","test","null","","","na","","246","",""
"914.5","754124","HierDymhkqyxw5","sub06","06","7","rl","test","68","img/o_s_stripes.png","3","68","pattern,shape,color","247","1",""
"null","755127","HierDymhkqyxw5","sub06","06","7","feedback","test","null","","","na","","247","",""
"1444.1999999284744","756573","HierDymhkqyxw5","sub06","06","7","rl","test","70","img/r_s_stripes.png","4","70","pattern,shape,color","248","1",""
"null","757577","HierDymhkqyxw5","sub06","06","7","feedback","test","null","","","na","","248","",""
"1608","759193","HierDymhkqyxw5","sub06","06","7","","","","","","","","","","{""Q0"":""8""}"
"2944.2000000476837","762140","HierDymhkqyxw5","sub06","06","7","","","","","","","","","","{""Q0"":""I remembered some of the shapes corresponding to the letter from yesterday""}"
"1082.7000000476837","763225","HierDymhkqyxw5","sub06","06","7","","","","","","","","","",""
