"rt","time_elapsed","subject","subID","group","day","trialType","key_press","stim","corrresp","phase","stimNum","trialNum","corr","repeatTrial","motorSwitch","hierarchy","responses"
"1337","1352","HierDy6gl8ww4d","sub04","04","8","","","","","","","","","","","",""
"","2991","HierDy6gl8ww4d","sub04","04","8","fullscreen","","","","","","","","","","",""
"453094","456094","HierDy6gl8ww4d","sub04","04","8","","","","","","","","","","","",""
"3684","459788","HierDy6gl8ww4d","sub04","04","8","motor","76","img/motor_8.png","76","motor","8","1","1","0","0","",""
"null","459897","HierDy6gl8ww4d","sub04","04","8","iti","null","img/motor_8.png","76","motor","","","","","","",""
"724","460628","HierDy6gl8ww4d","sub04","04","8","motor","75","img/motor_7.png","75","motor","7","2","1","0","0","",""
"null","460737","HierDy6gl8ww4d","sub04","04","8","iti","null","img/motor_7.png","75","motor","","","","","","",""
"1086","461831","HierDy6gl8ww4d","sub04","04","8","motor","72","img/motor_5.png","72","motor","5","3","1","0","0","",""
"null","461938","HierDy6gl8ww4d","sub04","04","8","iti","null","img/motor_5.png","72","motor","","","","","","",""
"1215","463161","HierDy6gl8ww4d","sub04","04","8","motor","76","img/motor_8.png","76","motor","8","4","1","0","0","",""
"null","463270","HierDy6gl8ww4d","sub04","04","8","iti","null","img/motor_8.png","76","motor","","","","","","",""
"1694","464972","HierDy6gl8ww4d","sub04","04","8","motor","72","img/motor_5.png","72","motor","5","5","1","0","0","",""
"null","465080","HierDy6gl8ww4d","sub04","04","8","iti","null","img/motor_5.png","72","motor","","","","","","",""
"1013","466101","HierDy6gl8ww4d","sub04","04","8","motor","70","img/motor_3.png","68","motor","3","6","0","1","0","",""
"2039","468148","HierDy6gl8ww4d","sub04","04","8","motorRepeat","70","img/motor_3.png","68","motor","3","6","0","1","0","",""
"248","468404","HierDy6gl8ww4d","sub04","04","8","motorRepeat","68","img/motor_3.png","68","motor","3","6","1","0","0","",""
"null","468512","HierDy6gl8ww4d","sub04","04","8","iti","null","img/motor_3.png","68","motor","","","","","","",""
"369","468889","HierDy6gl8ww4d","sub04","04","8","motor","68","img/motor_3.png","68","motor","3","7","1","0","0","",""
"null","468996","HierDy6gl8ww4d","sub04","04","8","iti","null","img/motor_3.png","68","motor","","","","","","",""
"1269","470272","HierDy6gl8ww4d","sub04","04","8","motor","76","img/motor_8.png","76","motor","8","8","1","0","0","",""
"null","470379","HierDy6gl8ww4d","sub04","04","8","iti","null","img/motor_8.png","76","motor","","","","","","",""
"642","471029","HierDy6gl8ww4d","sub04","04","8","motor","75","img/motor_7.png","75","motor","7","9","1","0","0","",""
"null","471136","HierDy6gl8ww4d","sub04","04","8","iti","null","img/motor_7.png","75","motor","","","","","","",""
"1245","472389","HierDy6gl8ww4d","sub04","04","8","motor","83","img/motor_2.png","83","motor","2","10","1","0","0","",""
"null","472496","HierDy6gl8ww4d","sub04","04","8","iti","null","img/motor_2.png","83","motor","","","","","","",""
"3591","476094","HierDy6gl8ww4d","sub04","04","8","motor","70","img/motor_4.png","70","motor","4","11","1","0","0","",""
"null","476201","HierDy6gl8ww4d","sub04","04","8","iti","null","img/motor_4.png","70","motor","","","","","","",""
"1375","477583","HierDy6gl8ww4d","sub04","04","8","motor","83","img/motor_2.png","83","motor","2","12","1","0","0","",""
"null","477691","HierDy6gl8ww4d","sub04","04","8","iti","null","img/motor_2.png","83","motor","","","","","","",""
"1602","479300","HierDy6gl8ww4d","sub04","04","8","motor","65","img/motor_1.png","65","motor","1","13","1","0","0","",""
"null","479407","HierDy6gl8ww4d","sub04","04","8","iti","null","img/motor_1.png","65","motor","","","","","","",""
"678","480092","HierDy6gl8ww4d","sub04","04","8","motor","83","img/motor_2.png","83","motor","2","14","1","0","0","",""
"null","480199","HierDy6gl8ww4d","sub04","04","8","iti","null","img/motor_2.png","83","motor","","","","","","",""
"1121","481327","HierDy6gl8ww4d","sub04","04","8","motor","74","img/motor_6.png","74","motor","6","15","1","0","0","",""
"null","481434","HierDy6gl8ww4d","sub04","04","8","iti","null","img/motor_6.png","74","motor","","","","","","",""
"787","482229","HierDy6gl8ww4d","sub04","04","8","motor","75","img/motor_7.png","75","motor","7","16","1","0","0","",""
"null","482335","HierDy6gl8ww4d","sub04","04","8","iti","null","img/motor_7.png","75","motor","","","","","","",""
"626","482969","HierDy6gl8ww4d","sub04","04","8","motor","76","img/motor_8.png","76","motor","8","17","1","0","0","",""
"null","483075","HierDy6gl8ww4d","sub04","04","8","iti","null","img/motor_8.png","76","motor","","","","","","",""
"645","483727","HierDy6gl8ww4d","sub04","04","8","motor","65","img/motor_1.png","65","motor","1","18","1","0","0","",""
"null","483833","HierDy6gl8ww4d","sub04","04","8","iti","null","img/motor_1.png","65","motor","","","","","","",""
"643","484483","HierDy6gl8ww4d","sub04","04","8","motor","76","img/motor_8.png","76","motor","8","19","1","0","0","",""
"null","484590","HierDy6gl8ww4d","sub04","04","8","iti","null","img/motor_8.png","76","motor","","","","","","",""
"1015","485612","HierDy6gl8ww4d","sub04","04","8","motor","70","img/motor_3.png","68","motor","3","20","0","1","0","",""
"1373","486992","HierDy6gl8ww4d","sub04","04","8","motorRepeat","68","img/motor_3.png","68","motor","3","20","1","0","0","",""
"null","487100","HierDy6gl8ww4d","sub04","04","8","iti","null","img/motor_3.png","68","motor","","","","","","",""
"582","487690","HierDy6gl8ww4d","sub04","04","8","motor","76","img/motor_8.png","76","motor","8","21","1","0","0","",""
"null","487798","HierDy6gl8ww4d","sub04","04","8","iti","null","img/motor_8.png","76","motor","","","","","","",""
"730","488535","HierDy6gl8ww4d","sub04","04","8","motor","74","img/motor_6.png","74","motor","6","22","1","0","0","",""
"null","488643","HierDy6gl8ww4d","sub04","04","8","iti","null","img/motor_6.png","74","motor","","","","","","",""
"531","489181","HierDy6gl8ww4d","sub04","04","8","motor","72","img/motor_5.png","72","motor","5","23","1","0","0","",""
"null","489288","HierDy6gl8ww4d","sub04","04","8","iti","null","img/motor_5.png","72","motor","","","","","","",""
"427","489723","HierDy6gl8ww4d","sub04","04","8","motor","74","img/motor_6.png","74","motor","6","24","1","0","0","",""
"null","489831","HierDy6gl8ww4d","sub04","04","8","iti","null","img/motor_6.png","74","motor","","","","","","",""
"578","490418","HierDy6gl8ww4d","sub04","04","8","motor","83","img/motor_4.png","70","motor","4","25","0","1","0","",""
"47","490472","HierDy6gl8ww4d","sub04","04","8","motorRepeat","70","img/motor_4.png","70","motor","4","25","1","0","0","",""
"null","490580","HierDy6gl8ww4d","sub04","04","8","iti","null","img/motor_4.png","70","motor","","","","","","",""
"1074","491659","HierDy6gl8ww4d","sub04","04","8","motor","74","img/motor_6.png","74","motor","6","26","1","0","0","",""
"null","491765","HierDy6gl8ww4d","sub04","04","8","iti","null","img/motor_6.png","74","motor","","","","","","",""
"434","492205","HierDy6gl8ww4d","sub04","04","8","motor","74","img/motor_6.png","74","motor","6","27","1","0","0","",""
"null","492311","HierDy6gl8ww4d","sub04","04","8","iti","null","img/motor_6.png","74","motor","","","","","","",""
"2458","494775","HierDy6gl8ww4d","sub04","04","8","motor","83","img/motor_2.png","83","motor","2","28","1","0","0","",""
"null","494882","HierDy6gl8ww4d","sub04","04","8","iti","null","img/motor_2.png","83","motor","","","","","","",""
"900","495787","HierDy6gl8ww4d","sub04","04","8","motor","72","img/motor_5.png","72","motor","5","29","1","0","0","",""
"null","495895","HierDy6gl8ww4d","sub04","04","8","iti","null","img/motor_5.png","72","motor","","","","","","",""
"987","496889","HierDy6gl8ww4d","sub04","04","8","motor","74","img/motor_7.png","75","motor","7","30","0","1","0","",""
"1273","498169","HierDy6gl8ww4d","sub04","04","8","motorRepeat","76","img/motor_7.png","75","motor","7","30","0","1","0","",""
"3299","501475","HierDy6gl8ww4d","sub04","04","8","motorRepeat","75","img/motor_7.png","75","motor","7","30","1","0","0","",""
"null","501583","HierDy6gl8ww4d","sub04","04","8","iti","null","img/motor_7.png","75","motor","","","","","","",""
"452","502042","HierDy6gl8ww4d","sub04","04","8","motor","75","img/motor_7.png","75","motor","7","31","1","0","0","",""
"null","502149","HierDy6gl8ww4d","sub04","04","8","iti","null","img/motor_7.png","75","motor","","","","","","",""
"1241","503397","HierDy6gl8ww4d","sub04","04","8","motor","70","img/motor_3.png","68","motor","3","32","0","1","0","",""
"492","503895","HierDy6gl8ww4d","sub04","04","8","motorRepeat","68","img/motor_3.png","68","motor","3","32","1","0","0","",""
"null","504000","HierDy6gl8ww4d","sub04","04","8","iti","null","img/motor_3.png","68","motor","","","","","","",""
"1137","505144","HierDy6gl8ww4d","sub04","04","8","motor","72","img/motor_5.png","72","motor","5","33","1","0","0","",""
"null","505251","HierDy6gl8ww4d","sub04","04","8","iti","null","img/motor_5.png","72","motor","","","","","","",""
"3059","508317","HierDy6gl8ww4d","sub04","04","8","motor","68","img/motor_4.png","70","motor","4","34","0","1","0","",""
"2249","510573","HierDy6gl8ww4d","sub04","04","8","motorRepeat","70","img/motor_4.png","70","motor","4","34","1","0","0","",""
"null","510681","HierDy6gl8ww4d","sub04","04","8","iti","null","img/motor_4.png","70","motor","","","","","","",""
"435","511123","HierDy6gl8ww4d","sub04","04","8","motor","70","img/motor_1.png","65","motor","1","35","0","1","0","",""
"1406","512536","HierDy6gl8ww4d","sub04","04","8","motorRepeat","65","img/motor_1.png","65","motor","1","35","1","0","0","",""
"null","512644","HierDy6gl8ww4d","sub04","04","8","iti","null","img/motor_1.png","65","motor","","","","","","",""
"362","513013","HierDy6gl8ww4d","sub04","04","8","motor","65","img/motor_1.png","65","motor","1","36","1","0","0","",""
"null","513121","HierDy6gl8ww4d","sub04","04","8","iti","null","img/motor_1.png","65","motor","","","","","","",""
"587","513715","HierDy6gl8ww4d","sub04","04","8","motor","83","img/motor_2.png","83","motor","2","37","1","0","0","",""
"null","513822","HierDy6gl8ww4d","sub04","04","8","iti","null","img/motor_2.png","83","motor","","","","","","",""
"589","514418","HierDy6gl8ww4d","sub04","04","8","motor","65","img/motor_1.png","65","motor","1","38","1","0","0","",""
"null","514526","HierDy6gl8ww4d","sub04","04","8","iti","null","img/motor_1.png","65","motor","","","","","","",""
"256","514789","HierDy6gl8ww4d","sub04","04","8","motor","65","img/motor_1.png","65","motor","1","39","1","0","0","",""
"null","514897","HierDy6gl8ww4d","sub04","04","8","iti","null","img/motor_1.png","65","motor","","","","","","",""
"1206","516109","HierDy6gl8ww4d","sub04","04","8","motor","74","img/motor_6.png","74","motor","6","40","1","0","0","",""
"null","516216","HierDy6gl8ww4d","sub04","04","8","iti","null","img/motor_6.png","74","motor","","","","","","",""
"308","516532","HierDy6gl8ww4d","sub04","04","8","motor","74","img/motor_8.png","76","motor","8","41","0","1","0","",""
"459","516999","HierDy6gl8ww4d","sub04","04","8","motorRepeat","75","img/motor_8.png","76","motor","8","41","0","1","0","",""
"348","517354","HierDy6gl8ww4d","sub04","04","8","motorRepeat","76","img/motor_8.png","76","motor","8","41","1","0","0","",""
"null","517462","HierDy6gl8ww4d","sub04","04","8","iti","null","img/motor_8.png","76","motor","","","","","","",""
"1296","518764","HierDy6gl8ww4d","sub04","04","8","motor","70","img/motor_4.png","70","motor","4","42","1","0","0","",""
"null","518872","HierDy6gl8ww4d","sub04","04","8","iti","null","img/motor_4.png","70","motor","","","","","","",""
"406","519284","HierDy6gl8ww4d","sub04","04","8","motor","70","img/motor_4.png","70","motor","4","43","1","0","0","",""
"null","519391","HierDy6gl8ww4d","sub04","04","8","iti","null","img/motor_4.png","70","motor","","","","","","",""
"971","520368","HierDy6gl8ww4d","sub04","04","8","motor","72","img/motor_5.png","72","motor","5","44","1","0","0","",""
"null","520476","HierDy6gl8ww4d","sub04","04","8","iti","null","img/motor_5.png","72","motor","","","","","","",""
"755","521238","HierDy6gl8ww4d","sub04","04","8","motor","83","img/motor_2.png","83","motor","2","45","1","0","0","",""
"null","521346","HierDy6gl8ww4d","sub04","04","8","iti","null","img/motor_2.png","83","motor","","","","","","",""
"1466","522817","HierDy6gl8ww4d","sub04","04","8","motor","75","img/motor_7.png","75","motor","7","46","1","0","0","",""
"null","522923","HierDy6gl8ww4d","sub04","04","8","iti","null","img/motor_7.png","75","motor","","","","","","",""
"772","523702","HierDy6gl8ww4d","sub04","04","8","motor","83","img/motor_2.png","83","motor","2","47","1","0","0","",""
"null","523811","HierDy6gl8ww4d","sub04","04","8","iti","null","img/motor_2.png","83","motor","","","","","","",""
"884","524701","HierDy6gl8ww4d","sub04","04","8","motor","72","img/motor_5.png","72","motor","5","48","1","0","0","",""
"null","524808","HierDy6gl8ww4d","sub04","04","8","iti","null","img/motor_5.png","72","motor","","","","","","",""
"793","525610","HierDy6gl8ww4d","sub04","04","8","motor","76","img/motor_8.png","76","motor","8","49","1","0","0","",""
"null","525718","HierDy6gl8ww4d","sub04","04","8","iti","null","img/motor_8.png","76","motor","","","","","","",""
"1210","526936","HierDy6gl8ww4d","sub04","04","8","motor","65","img/motor_1.png","65","motor","1","50","1","0","0","",""
"null","527043","HierDy6gl8ww4d","sub04","04","8","iti","null","img/motor_1.png","65","motor","","","","","","",""
"763","527815","HierDy6gl8ww4d","sub04","04","8","motor","76","img/motor_8.png","76","motor","8","51","1","0","0","",""
"null","527922","HierDy6gl8ww4d","sub04","04","8","iti","null","img/motor_8.png","76","motor","","","","","","",""
"1199","529128","HierDy6gl8ww4d","sub04","04","8","motor","72","img/motor_5.png","72","motor","5","52","1","0","0","",""
"null","529238","HierDy6gl8ww4d","sub04","04","8","iti","null","img/motor_5.png","72","motor","","","","","","",""
"973","530219","HierDy6gl8ww4d","sub04","04","8","motor","70","img/motor_4.png","70","motor","4","53","1","0","0","",""
"null","530326","HierDy6gl8ww4d","sub04","04","8","iti","null","img/motor_4.png","70","motor","","","","","","",""
"868","531204","HierDy6gl8ww4d","sub04","04","8","motor","76","img/motor_8.png","76","motor","8","54","1","0","0","",""
"null","531311","HierDy6gl8ww4d","sub04","04","8","iti","null","img/motor_8.png","76","motor","","","","","","",""
"962","532282","HierDy6gl8ww4d","sub04","04","8","motor","83","img/motor_2.png","83","motor","2","55","1","0","0","",""
"null","532392","HierDy6gl8ww4d","sub04","04","8","iti","null","img/motor_2.png","83","motor","","","","","","",""
"267","532668","HierDy6gl8ww4d","sub04","04","8","motor","83","img/motor_3.png","68","motor","3","56","0","1","0","",""
"363","533041","HierDy6gl8ww4d","sub04","04","8","motorRepeat","68","img/motor_3.png","68","motor","3","56","1","0","0","",""
"null","533150","HierDy6gl8ww4d","sub04","04","8","iti","null","img/motor_3.png","68","motor","","","","","","",""
"799","533957","HierDy6gl8ww4d","sub04","04","8","motor","76","img/motor_8.png","76","motor","8","57","1","0","0","",""
"null","534064","HierDy6gl8ww4d","sub04","04","8","iti","null","img/motor_8.png","76","motor","","","","","","",""
"338","534409","HierDy6gl8ww4d","sub04","04","8","motor","76","img/motor_7.png","75","motor","7","58","0","1","0","",""
"222","534638","HierDy6gl8ww4d","sub04","04","8","motorRepeat","75","img/motor_7.png","75","motor","7","58","1","0","0","",""
"null","534746","HierDy6gl8ww4d","sub04","04","8","iti","null","img/motor_7.png","75","motor","","","","","","",""
"783","535538","HierDy6gl8ww4d","sub04","04","8","motor","70","img/motor_4.png","70","motor","4","59","1","0","0","",""
"null","535649","HierDy6gl8ww4d","sub04","04","8","iti","null","img/motor_4.png","70","motor","","","","","","",""
"789","536445","HierDy6gl8ww4d","sub04","04","8","motor","68","img/motor_3.png","68","motor","3","60","1","0","0","",""
"null","536552","HierDy6gl8ww4d","sub04","04","8","iti","null","img/motor_3.png","68","motor","","","","","","",""
"1492","538052","HierDy6gl8ww4d","sub04","04","8","motor","65","img/motor_1.png","65","motor","1","61","1","0","0","",""
"null","538160","HierDy6gl8ww4d","sub04","04","8","iti","null","img/motor_1.png","65","motor","","","","","","",""
"480","538648","HierDy6gl8ww4d","sub04","04","8","motor","65","img/motor_2.png","83","motor","2","62","0","1","0","",""
"484","539141","HierDy6gl8ww4d","sub04","04","8","motorRepeat","83","img/motor_2.png","83","motor","2","62","1","0","0","",""
"null","539248","HierDy6gl8ww4d","sub04","04","8","iti","null","img/motor_2.png","83","motor","","","","","","",""
"2554","541811","HierDy6gl8ww4d","sub04","04","8","motor","75","img/motor_7.png","75","motor","7","63","1","0","0","",""
"null","541918","HierDy6gl8ww4d","sub04","04","8","iti","null","img/motor_7.png","75","motor","","","","","","",""
"552","542478","HierDy6gl8ww4d","sub04","04","8","motor","83","img/motor_2.png","83","motor","2","64","1","0","0","",""
"null","542585","HierDy6gl8ww4d","sub04","04","8","iti","null","img/motor_2.png","83","motor","","","","","","",""
"548","543140","HierDy6gl8ww4d","sub04","04","8","motor","65","img/motor_1.png","65","motor","1","65","1","0","0","",""
"null","543247","HierDy6gl8ww4d","sub04","04","8","iti","null","img/motor_1.png","65","motor","","","","","","",""
"788","544043","HierDy6gl8ww4d","sub04","04","8","motor","75","img/motor_7.png","75","motor","7","66","1","0","0","",""
"null","544150","HierDy6gl8ww4d","sub04","04","8","iti","null","img/motor_7.png","75","motor","","","","","","",""
"622","544778","HierDy6gl8ww4d","sub04","04","8","motor","83","img/motor_2.png","83","motor","2","67","1","0","0","",""
"null","544888","HierDy6gl8ww4d","sub04","04","8","iti","null","img/motor_2.png","83","motor","","","","","","",""
"658","545554","HierDy6gl8ww4d","sub04","04","8","motor","74","img/motor_6.png","74","motor","6","68","1","0","0","",""
"null","545661","HierDy6gl8ww4d","sub04","04","8","iti","null","img/motor_6.png","74","motor","","","","","","",""
"433","546101","HierDy6gl8ww4d","sub04","04","8","motor","68","img/motor_4.png","70","motor","4","69","0","1","0","",""
"598","546708","HierDy6gl8ww4d","sub04","04","8","motorRepeat","70","img/motor_4.png","70","motor","4","69","1","0","0","",""
"null","546815","HierDy6gl8ww4d","sub04","04","8","iti","null","img/motor_4.png","70","motor","","","","","","",""
"657","547482","HierDy6gl8ww4d","sub04","04","8","motor","83","img/motor_2.png","83","motor","2","70","1","0","0","",""
"null","547590","HierDy6gl8ww4d","sub04","04","8","iti","null","img/motor_2.png","83","motor","","","","","","",""
"481","548080","HierDy6gl8ww4d","sub04","04","8","motor","68","img/motor_3.png","68","motor","3","71","1","0","0","",""
"null","548188","HierDy6gl8ww4d","sub04","04","8","iti","null","img/motor_3.png","68","motor","","","","","","",""
"742","548938","HierDy6gl8ww4d","sub04","04","8","motor","75","img/motor_6.png","74","motor","6","72","0","1","0","",""
"1071","550018","HierDy6gl8ww4d","sub04","04","8","motorRepeat","74","img/motor_6.png","74","motor","6","72","1","0","0","",""
"null","550126","HierDy6gl8ww4d","sub04","04","8","iti","null","img/motor_6.png","74","motor","","","","","","",""
"987","551120","HierDy6gl8ww4d","sub04","04","8","motor","70","img/motor_4.png","70","motor","4","73","1","0","0","",""
"null","551228","HierDy6gl8ww4d","sub04","04","8","iti","null","img/motor_4.png","70","motor","","","","","","",""
"949","552186","HierDy6gl8ww4d","sub04","04","8","motor","83","img/motor_2.png","83","motor","2","74","1","0","0","",""
"null","552295","HierDy6gl8ww4d","sub04","04","8","iti","null","img/motor_2.png","83","motor","","","","","","",""
"852","553154","HierDy6gl8ww4d","sub04","04","8","motor","70","img/motor_4.png","70","motor","4","75","1","0","0","",""
"null","553262","HierDy6gl8ww4d","sub04","04","8","iti","null","img/motor_4.png","70","motor","","","","","","",""
"767","554035","HierDy6gl8ww4d","sub04","04","8","motor","75","img/motor_7.png","75","motor","7","76","1","0","0","",""
"null","554141","HierDy6gl8ww4d","sub04","04","8","iti","null","img/motor_7.png","75","motor","","","","","","",""
"529","554677","HierDy6gl8ww4d","sub04","04","8","motor","76","img/motor_8.png","76","motor","8","77","1","0","0","",""
"null","554786","HierDy6gl8ww4d","sub04","04","8","iti","null","img/motor_8.png","76","motor","","","","","","",""
"680","555473","HierDy6gl8ww4d","sub04","04","8","motor","83","img/motor_2.png","83","motor","2","78","1","0","0","",""
"null","555580","HierDy6gl8ww4d","sub04","04","8","iti","null","img/motor_2.png","83","motor","","","","","","",""
"441","556028","HierDy6gl8ww4d","sub04","04","8","motor","76","img/motor_8.png","76","motor","8","79","1","0","0","",""
"null","556136","HierDy6gl8ww4d","sub04","04","8","iti","null","img/motor_8.png","76","motor","","","","","","",""
"752","556896","HierDy6gl8ww4d","sub04","04","8","motor","74","img/motor_6.png","74","motor","6","80","1","0","0","",""
"null","557004","HierDy6gl8ww4d","sub04","04","8","iti","null","img/motor_6.png","74","motor","","","","","","",""
"407","557418","HierDy6gl8ww4d","sub04","04","8","motor","74","img/motor_6.png","74","motor","6","81","1","0","0","",""
"null","557527","HierDy6gl8ww4d","sub04","04","8","iti","null","img/motor_6.png","74","motor","","","","","","",""
"533","558066","HierDy6gl8ww4d","sub04","04","8","motor","83","img/motor_4.png","70","motor","4","82","0","1","0","",""
"117","558191","HierDy6gl8ww4d","sub04","04","8","motorRepeat","70","img/motor_4.png","70","motor","4","82","1","0","0","",""
"null","558299","HierDy6gl8ww4d","sub04","04","8","iti","null","img/motor_4.png","70","motor","","","","","","",""
"433","558741","HierDy6gl8ww4d","sub04","04","8","motor","74","img/motor_6.png","74","motor","6","83","1","0","0","",""
"null","558849","HierDy6gl8ww4d","sub04","04","8","iti","null","img/motor_6.png","74","motor","","","","","","",""
"476","559331","HierDy6gl8ww4d","sub04","04","8","motor","72","img/motor_5.png","72","motor","5","84","1","0","0","",""
"null","559439","HierDy6gl8ww4d","sub04","04","8","iti","null","img/motor_5.png","72","motor","","","","","","",""
"365","559811","HierDy6gl8ww4d","sub04","04","8","motor","74","img/motor_6.png","74","motor","6","85","1","0","0","",""
"null","559919","HierDy6gl8ww4d","sub04","04","8","iti","null","img/motor_6.png","74","motor","","","","","","",""
"404","560332","HierDy6gl8ww4d","sub04","04","8","motor","72","img/motor_5.png","72","motor","5","86","1","0","0","",""
"null","560439","HierDy6gl8ww4d","sub04","04","8","iti","null","img/motor_5.png","72","motor","","","","","","",""
"482","560929","HierDy6gl8ww4d","sub04","04","8","motor","68","img/motor_3.png","68","motor","3","87","1","0","0","",""
"null","561037","HierDy6gl8ww4d","sub04","04","8","iti","null","img/motor_3.png","68","motor","","","","","","",""
"491","561535","HierDy6gl8ww4d","sub04","04","8","motor","76","img/motor_8.png","76","motor","8","88","1","0","0","",""
"null","561643","HierDy6gl8ww4d","sub04","04","8","iti","null","img/motor_8.png","76","motor","","","","","","",""
"528","562178","HierDy6gl8ww4d","sub04","04","8","motor","70","img/motor_4.png","70","motor","4","89","1","0","0","",""
"null","562285","HierDy6gl8ww4d","sub04","04","8","iti","null","img/motor_4.png","70","motor","","","","","","",""
"623","562915","HierDy6gl8ww4d","sub04","04","8","motor","74","img/motor_6.png","74","motor","6","90","1","0","0","",""
"null","563023","HierDy6gl8ww4d","sub04","04","8","iti","null","img/motor_6.png","74","motor","","","","","","",""
"526","563556","HierDy6gl8ww4d","sub04","04","8","motor","75","img/motor_7.png","75","motor","7","91","1","0","0","",""
"null","563664","HierDy6gl8ww4d","sub04","04","8","iti","null","img/motor_7.png","75","motor","","","","","","",""
"497","564170","HierDy6gl8ww4d","sub04","04","8","motor","74","img/motor_5.png","72","motor","5","92","0","1","0","",""
"72","564249","HierDy6gl8ww4d","sub04","04","8","motorRepeat","74","img/motor_5.png","72","motor","5","92","0","1","0","",""
"250","564507","HierDy6gl8ww4d","sub04","04","8","motorRepeat","72","img/motor_5.png","72","motor","5","92","1","0","0","",""
"null","564615","HierDy6gl8ww4d","sub04","04","8","iti","null","img/motor_5.png","72","motor","","","","","","",""
"560","565183","HierDy6gl8ww4d","sub04","04","8","motor","68","img/motor_3.png","68","motor","3","93","1","0","0","",""
"null","565291","HierDy6gl8ww4d","sub04","04","8","iti","null","img/motor_3.png","68","motor","","","","","","",""
"551","565850","HierDy6gl8ww4d","sub04","04","8","motor","74","img/motor_6.png","74","motor","6","94","1","0","0","",""
"null","565958","HierDy6gl8ww4d","sub04","04","8","iti","null","img/motor_6.png","74","motor","","","","","","",""
"482","566447","HierDy6gl8ww4d","sub04","04","8","motor","68","img/motor_1.png","65","motor","1","95","0","1","0","",""
"325","566780","HierDy6gl8ww4d","sub04","04","8","motorRepeat","83","img/motor_1.png","65","motor","1","95","0","1","0","",""
"1107","567893","HierDy6gl8ww4d","sub04","04","8","motorRepeat","65","img/motor_1.png","65","motor","1","95","1","0","0","",""
"null","568001","HierDy6gl8ww4d","sub04","04","8","iti","null","img/motor_1.png","65","motor","","","","","","",""
"740","568748","HierDy6gl8ww4d","sub04","04","8","motor","74","img/motor_5.png","72","motor","5","96","0","1","0","",""
"322","569077","HierDy6gl8ww4d","sub04","04","8","motorRepeat","72","img/motor_5.png","72","motor","5","96","1","0","0","",""
"null","569185","HierDy6gl8ww4d","sub04","04","8","iti","null","img/motor_5.png","72","motor","","","","","","",""
"442","569634","HierDy6gl8ww4d","sub04","04","8","motor","83","img/motor_1.png","65","motor","1","97","0","1","0","",""
"340","569981","HierDy6gl8ww4d","sub04","04","8","motorRepeat","65","img/motor_1.png","65","motor","1","97","1","0","0","",""
"null","570089","HierDy6gl8ww4d","sub04","04","8","iti","null","img/motor_1.png","65","motor","","","","","","",""
"692","570789","HierDy6gl8ww4d","sub04","04","8","motor","70","img/motor_4.png","70","motor","4","98","1","0","0","",""
"null","570896","HierDy6gl8ww4d","sub04","04","8","iti","null","img/motor_4.png","70","motor","","","","","","",""
"483","571386","HierDy6gl8ww4d","sub04","04","8","motor","83","img/motor_2.png","83","motor","2","99","1","0","0","",""
"null","571495","HierDy6gl8ww4d","sub04","04","8","iti","null","img/motor_2.png","83","motor","","","","","","",""
"597","572098","HierDy6gl8ww4d","sub04","04","8","motor","74","img/motor_6.png","74","motor","6","100","1","0","0","",""
"null","572207","HierDy6gl8ww4d","sub04","04","8","iti","null","img/motor_6.png","74","motor","","","","","","",""
"342","572556","HierDy6gl8ww4d","sub04","04","8","motor","74","img/motor_6.png","74","motor","6","101","1","0","0","",""
"null","572664","HierDy6gl8ww4d","sub04","04","8","iti","null","img/motor_6.png","74","motor","","","","","","",""
"380","573053","HierDy6gl8ww4d","sub04","04","8","motor","76","img/motor_8.png","76","motor","8","102","1","0","0","",""
"null","573161","HierDy6gl8ww4d","sub04","04","8","iti","null","img/motor_8.png","76","motor","","","","","","",""
"410","573578","HierDy6gl8ww4d","sub04","04","8","motor","83","img/motor_3.png","68","motor","3","103","0","1","0","",""
"394","573981","HierDy6gl8ww4d","sub04","04","8","motorRepeat","68","img/motor_3.png","68","motor","3","103","1","0","0","",""
"null","574089","HierDy6gl8ww4d","sub04","04","8","iti","null","img/motor_3.png","68","motor","","","","","","",""
"482","574579","HierDy6gl8ww4d","sub04","04","8","motor","76","img/motor_8.png","76","motor","8","104","1","0","0","",""
"null","574687","HierDy6gl8ww4d","sub04","04","8","iti","null","img/motor_8.png","76","motor","","","","","","",""
"494","575190","HierDy6gl8ww4d","sub04","04","8","motor","83","img/motor_2.png","83","motor","2","105","1","0","0","",""
"null","575297","HierDy6gl8ww4d","sub04","04","8","iti","null","img/motor_2.png","83","motor","","","","","","",""
"353","575658","HierDy6gl8ww4d","sub04","04","8","motor","83","img/motor_3.png","68","motor","3","106","0","1","0","",""
"252","575917","HierDy6gl8ww4d","sub04","04","8","motorRepeat","68","img/motor_3.png","68","motor","3","106","1","0","0","",""
"null","576026","HierDy6gl8ww4d","sub04","04","8","iti","null","img/motor_3.png","68","motor","","","","","","",""
"383","576415","HierDy6gl8ww4d","sub04","04","8","motor","68","img/motor_5.png","72","motor","5","107","0","1","0","",""
"247","576670","HierDy6gl8ww4d","sub04","04","8","motorRepeat","74","img/motor_5.png","72","motor","5","107","0","1","0","",""
"380","577058","HierDy6gl8ww4d","sub04","04","8","motorRepeat","72","img/motor_5.png","72","motor","5","107","1","0","0","",""
"null","577166","HierDy6gl8ww4d","sub04","04","8","iti","null","img/motor_5.png","72","motor","","","","","","",""
"749","577922","HierDy6gl8ww4d","sub04","04","8","motor","65","img/motor_1.png","65","motor","1","108","1","0","0","",""
"null","578030","HierDy6gl8ww4d","sub04","04","8","iti","null","img/motor_1.png","65","motor","","","","","","",""
"691","578729","HierDy6gl8ww4d","sub04","04","8","motor","75","img/motor_7.png","75","motor","7","109","1","0","0","",""
"null","578836","HierDy6gl8ww4d","sub04","04","8","iti","null","img/motor_7.png","75","motor","","","","","","",""
"599","579443","HierDy6gl8ww4d","sub04","04","8","motor","68","img/motor_4.png","70","motor","4","110","0","1","0","",""
"398","579848","HierDy6gl8ww4d","sub04","04","8","motorRepeat","70","img/motor_4.png","70","motor","4","110","1","0","0","",""
"null","579957","HierDy6gl8ww4d","sub04","04","8","iti","null","img/motor_4.png","70","motor","","","","","","",""
"571","580534","HierDy6gl8ww4d","sub04","04","8","motor","76","img/motor_7.png","75","motor","7","111","0","1","0","",""
"406","580949","HierDy6gl8ww4d","sub04","04","8","motorRepeat","75","img/motor_7.png","75","motor","7","111","1","0","0","",""
"null","581055","HierDy6gl8ww4d","sub04","04","8","iti","null","img/motor_7.png","75","motor","","","","","","",""
"306","581368","HierDy6gl8ww4d","sub04","04","8","motor","75","img/motor_7.png","75","motor","7","112","1","0","0","",""
"null","581476","HierDy6gl8ww4d","sub04","04","8","iti","null","img/motor_7.png","75","motor","","","","","","",""
"1124","582608","HierDy6gl8ww4d","sub04","04","8","motor","65","img/motor_1.png","65","motor","1","113","1","0","0","",""
"null","582715","HierDy6gl8ww4d","sub04","04","8","iti","null","img/motor_1.png","65","motor","","","","","","",""
"743","583467","HierDy6gl8ww4d","sub04","04","8","motor","70","img/motor_4.png","70","motor","4","114","1","0","0","",""
"null","583575","HierDy6gl8ww4d","sub04","04","8","iti","null","img/motor_4.png","70","motor","","","","","","",""
"516","584098","HierDy6gl8ww4d","sub04","04","8","motor","76","img/motor_8.png","76","motor","8","115","1","0","0","",""
"null","584206","HierDy6gl8ww4d","sub04","04","8","iti","null","img/motor_8.png","76","motor","","","","","","",""
"658","584872","HierDy6gl8ww4d","sub04","04","8","motor","83","img/motor_3.png","68","motor","3","116","0","1","0","",""
"545","585424","HierDy6gl8ww4d","sub04","04","8","motorRepeat","68","img/motor_3.png","68","motor","3","116","1","0","0","",""
"null","585533","HierDy6gl8ww4d","sub04","04","8","iti","null","img/motor_3.png","68","motor","","","","","","",""
"576","586116","HierDy6gl8ww4d","sub04","04","8","motor","83","img/motor_2.png","83","motor","2","117","1","0","0","",""
"null","586224","HierDy6gl8ww4d","sub04","04","8","iti","null","img/motor_2.png","83","motor","","","","","","",""
"301","586534","HierDy6gl8ww4d","sub04","04","8","motor","83","img/motor_2.png","83","motor","2","118","1","0","0","",""
"null","586642","HierDy6gl8ww4d","sub04","04","8","iti","null","img/motor_2.png","83","motor","","","","","","",""
"571","587220","HierDy6gl8ww4d","sub04","04","8","motor","70","img/motor_4.png","70","motor","4","119","1","0","0","",""
"null","587327","HierDy6gl8ww4d","sub04","04","8","iti","null","img/motor_4.png","70","motor","","","","","","",""
"735","588069","HierDy6gl8ww4d","sub04","04","8","motor","68","img/motor_3.png","68","motor","3","120","1","0","0","",""
"43","588176","HierDy6gl8ww4d","sub04","04","8","iti","68","img/motor_3.png","68","motor","","","","","","",""
"331","588515","HierDy6gl8ww4d","sub04","04","8","motor","68","img/motor_4.png","70","motor","4","121","0","1","0","",""
"374","588896","HierDy6gl8ww4d","sub04","04","8","motorRepeat","70","img/motor_4.png","70","motor","4","121","1","0","0","",""
"null","589005","HierDy6gl8ww4d","sub04","04","8","iti","null","img/motor_4.png","70","motor","","","","","","",""
"1004","590015","HierDy6gl8ww4d","sub04","04","8","motor","65","img/motor_1.png","65","motor","1","122","1","0","0","",""
"null","590123","HierDy6gl8ww4d","sub04","04","8","iti","null","img/motor_1.png","65","motor","","","","","","",""
"849","590982","HierDy6gl8ww4d","sub04","04","8","motor","76","img/motor_8.png","76","motor","8","123","1","0","0","",""
"null","591091","HierDy6gl8ww4d","sub04","04","8","iti","null","img/motor_8.png","76","motor","","","","","","",""
"458","591556","HierDy6gl8ww4d","sub04","04","8","motor","65","img/motor_1.png","65","motor","1","124","1","0","0","",""
"null","591665","HierDy6gl8ww4d","sub04","04","8","iti","null","img/motor_1.png","65","motor","","","","","","",""
"418","592089","HierDy6gl8ww4d","sub04","04","8","motor","75","img/motor_6.png","74","motor","6","125","0","1","0","",""
"334","592431","HierDy6gl8ww4d","sub04","04","8","motorRepeat","74","img/motor_6.png","74","motor","6","125","1","0","0","",""
"null","592538","HierDy6gl8ww4d","sub04","04","8","iti","null","img/motor_6.png","74","motor","","","","","","",""
"699","593245","HierDy6gl8ww4d","sub04","04","8","motor","70","img/motor_4.png","70","motor","4","126","1","0","0","",""
"null","593353","HierDy6gl8ww4d","sub04","04","8","iti","null","img/motor_4.png","70","motor","","","","","","",""
"485","593847","HierDy6gl8ww4d","sub04","04","8","motor","76","img/motor_8.png","76","motor","8","127","1","0","0","",""
"null","593954","HierDy6gl8ww4d","sub04","04","8","iti","null","img/motor_8.png","76","motor","","","","","","",""
"638","594601","HierDy6gl8ww4d","sub04","04","8","motor","83","img/motor_3.png","68","motor","3","128","0","1","0","",""
"910","595521","HierDy6gl8ww4d","sub04","04","8","motorRepeat","68","img/motor_3.png","68","motor","3","128","1","0","0","",""
"null","595633","HierDy6gl8ww4d","sub04","04","8","iti","null","img/motor_3.png","68","motor","","","","","","",""
"481","596122","HierDy6gl8ww4d","sub04","04","8","motor","83","img/motor_2.png","83","motor","2","129","1","0","0","",""
"null","596233","HierDy6gl8ww4d","sub04","04","8","iti","null","img/motor_2.png","83","motor","","","","","","",""
"581","596823","HierDy6gl8ww4d","sub04","04","8","motor","74","img/motor_5.png","72","motor","5","130","0","1","0","",""
"551","597383","HierDy6gl8ww4d","sub04","04","8","motorRepeat","72","img/motor_5.png","72","motor","5","130","1","0","0","",""
"null","597493","HierDy6gl8ww4d","sub04","04","8","iti","null","img/motor_5.png","72","motor","","","","","","",""
"612","598115","HierDy6gl8ww4d","sub04","04","8","motor","76","img/motor_7.png","75","motor","7","131","0","1","0","",""
"56","598178","HierDy6gl8ww4d","sub04","04","8","motorRepeat","75","img/motor_7.png","75","motor","7","131","1","0","0","",""
"null","598289","HierDy6gl8ww4d","sub04","04","8","iti","null","img/motor_7.png","75","motor","","","","","","",""
"635","598935","HierDy6gl8ww4d","sub04","04","8","motor","74","img/motor_6.png","74","motor","6","132","1","0","0","",""
"null","599045","HierDy6gl8ww4d","sub04","04","8","iti","null","img/motor_6.png","74","motor","","","","","","",""
"444","599499","HierDy6gl8ww4d","sub04","04","8","motor","65","img/motor_1.png","65","motor","1","133","1","0","0","",""
"null","599605","HierDy6gl8ww4d","sub04","04","8","iti","null","img/motor_1.png","65","motor","","","","","","",""
"523","600134","HierDy6gl8ww4d","sub04","04","8","motor","74","img/motor_6.png","74","motor","6","134","1","0","0","",""
"null","600241","HierDy6gl8ww4d","sub04","04","8","iti","null","img/motor_6.png","74","motor","","","","","","",""
"553","600800","HierDy6gl8ww4d","sub04","04","8","motor","83","img/motor_3.png","68","motor","3","135","0","1","0","",""
"437","601247","HierDy6gl8ww4d","sub04","04","8","motorRepeat","68","img/motor_3.png","68","motor","3","135","1","0","0","",""
"null","601355","HierDy6gl8ww4d","sub04","04","8","iti","null","img/motor_3.png","68","motor","","","","","","",""
"330","601694","HierDy6gl8ww4d","sub04","04","8","motor","68","img/motor_3.png","68","motor","3","136","1","0","0","",""
"null","601804","HierDy6gl8ww4d","sub04","04","8","iti","null","img/motor_3.png","68","motor","","","","","","",""
"653","602468","HierDy6gl8ww4d","sub04","04","8","motor","72","img/motor_5.png","72","motor","5","137","1","0","0","",""
"null","602578","HierDy6gl8ww4d","sub04","04","8","iti","null","img/motor_5.png","72","motor","","","","","","",""
"498","603084","HierDy6gl8ww4d","sub04","04","8","motor","68","img/motor_3.png","68","motor","3","138","1","0","0","",""
"null","603193","HierDy6gl8ww4d","sub04","04","8","iti","null","img/motor_3.png","68","motor","","","","","","",""
"411","603614","HierDy6gl8ww4d","sub04","04","8","motor","83","img/motor_2.png","83","motor","2","139","1","0","0","",""
"null","603724","HierDy6gl8ww4d","sub04","04","8","iti","null","img/motor_2.png","83","motor","","","","","","",""
"635","604369","HierDy6gl8ww4d","sub04","04","8","motor","70","img/motor_3.png","68","motor","3","140","0","1","0","",""
"327","604705","HierDy6gl8ww4d","sub04","04","8","motorRepeat","68","img/motor_3.png","68","motor","3","140","1","0","0","",""
"null","604816","HierDy6gl8ww4d","sub04","04","8","iti","null","img/motor_3.png","68","motor","","","","","","",""
"347","605173","HierDy6gl8ww4d","sub04","04","8","motor","68","img/motor_3.png","68","motor","3","141","1","0","0","",""
"null","605283","HierDy6gl8ww4d","sub04","04","8","iti","null","img/motor_3.png","68","motor","","","","","","",""
"624","605913","HierDy6gl8ww4d","sub04","04","8","motor","70","img/motor_4.png","70","motor","4","142","1","0","0","",""
"null","606019","HierDy6gl8ww4d","sub04","04","8","iti","null","img/motor_4.png","70","motor","","","","","","",""
"650","606680","HierDy6gl8ww4d","sub04","04","8","motor","83","img/motor_2.png","83","motor","2","143","1","0","0","",""
"null","606791","HierDy6gl8ww4d","sub04","04","8","iti","null","img/motor_2.png","83","motor","","","","","","",""
"1227","608024","HierDy6gl8ww4d","sub04","04","8","motor","70","img/motor_4.png","70","motor","4","144","1","0","0","",""
"null","608130","HierDy6gl8ww4d","sub04","04","8","iti","null","img/motor_4.png","70","motor","","","","","","",""
"709","608847","HierDy6gl8ww4d","sub04","04","8","motor","75","img/motor_7.png","75","motor","7","145","1","0","0","",""
"null","608959","HierDy6gl8ww4d","sub04","04","8","iti","null","img/motor_7.png","75","motor","","","","","","",""
"577","609547","HierDy6gl8ww4d","sub04","04","8","motor","83","img/motor_2.png","83","motor","2","146","1","0","0","",""
"null","609657","HierDy6gl8ww4d","sub04","04","8","iti","null","img/motor_2.png","83","motor","","","","","","",""
"594","610262","HierDy6gl8ww4d","sub04","04","8","motor","76","img/motor_8.png","76","motor","8","147","1","0","0","",""
"null","610373","HierDy6gl8ww4d","sub04","04","8","iti","null","img/motor_8.png","76","motor","","","","","","",""
"821","611201","HierDy6gl8ww4d","sub04","04","8","motor","74","img/motor_6.png","74","motor","6","148","1","0","0","",""
"null","611307","HierDy6gl8ww4d","sub04","04","8","iti","null","img/motor_6.png","74","motor","","","","","","",""
"491","611807","HierDy6gl8ww4d","sub04","04","8","motor","76","img/motor_8.png","76","motor","8","149","1","0","0","",""
"null","611919","HierDy6gl8ww4d","sub04","04","8","iti","null","img/motor_8.png","76","motor","","","","","","",""
"501","612429","HierDy6gl8ww4d","sub04","04","8","motor","75","img/motor_7.png","75","motor","7","150","1","0","0","",""
"null","612541","HierDy6gl8ww4d","sub04","04","8","iti","null","img/motor_7.png","75","motor","","","","","","",""
"561","613112","HierDy6gl8ww4d","sub04","04","8","motor","76","img/motor_8.png","76","motor","8","151","1","0","0","",""
"null","613224","HierDy6gl8ww4d","sub04","04","8","iti","null","img/motor_8.png","76","motor","","","","","","",""
"753","613987","HierDy6gl8ww4d","sub04","04","8","motor","65","img/motor_1.png","65","motor","1","152","1","0","0","",""
"null","614098","HierDy6gl8ww4d","sub04","04","8","iti","null","img/motor_1.png","65","motor","","","","","","",""
"501","614608","HierDy6gl8ww4d","sub04","04","8","motor","76","img/motor_8.png","76","motor","8","153","1","0","0","",""
"null","614720","HierDy6gl8ww4d","sub04","04","8","iti","null","img/motor_8.png","76","motor","","","","","","",""
"671","615401","HierDy6gl8ww4d","sub04","04","8","motor","83","img/motor_2.png","83","motor","2","154","1","0","0","",""
"null","615511","HierDy6gl8ww4d","sub04","04","8","iti","null","img/motor_2.png","83","motor","","","","","","",""
"623","616142","HierDy6gl8ww4d","sub04","04","8","motor","74","img/motor_6.png","74","motor","6","155","1","0","0","",""
"null","616249","HierDy6gl8ww4d","sub04","04","8","iti","null","img/motor_6.png","74","motor","","","","","","",""
"704","616962","HierDy6gl8ww4d","sub04","04","8","motor","68","img/motor_2.png","83","motor","2","156","0","1","0","",""
"562","617533","HierDy6gl8ww4d","sub04","04","8","motorRepeat","83","img/motor_2.png","83","motor","2","156","1","0","0","",""
"null","617643","HierDy6gl8ww4d","sub04","04","8","iti","null","img/motor_2.png","83","motor","","","","","","",""
"503","618157","HierDy6gl8ww4d","sub04","04","8","motor","76","img/motor_7.png","75","motor","7","157","0","1","0","",""
"341","618508","HierDy6gl8ww4d","sub04","04","8","motorRepeat","75","img/motor_7.png","75","motor","7","157","1","0","0","",""
"null","618619","HierDy6gl8ww4d","sub04","04","8","iti","null","img/motor_7.png","75","motor","","","","","","",""
"727","619355","HierDy6gl8ww4d","sub04","04","8","motor","83","img/motor_2.png","83","motor","2","158","1","0","0","",""
"null","619466","HierDy6gl8ww4d","sub04","04","8","iti","null","img/motor_2.png","83","motor","","","","","","",""
"363","619838","HierDy6gl8ww4d","sub04","04","8","motor","83","img/motor_3.png","68","motor","3","159","0","1","0","",""
"258","620106","HierDy6gl8ww4d","sub04","04","8","motorRepeat","68","img/motor_3.png","68","motor","3","159","1","0","0","",""
"null","620216","HierDy6gl8ww4d","sub04","04","8","iti","null","img/motor_3.png","68","motor","","","","","","",""
"639","620863","HierDy6gl8ww4d","sub04","04","8","motor","74","img/motor_5.png","72","motor","5","160","0","1","0","",""
"725","621597","HierDy6gl8ww4d","sub04","04","8","motorRepeat","72","img/motor_5.png","72","motor","5","160","1","0","0","",""
"null","621708","HierDy6gl8ww4d","sub04","04","8","iti","null","img/motor_5.png","72","motor","","","","","","",""
"760","622479","HierDy6gl8ww4d","sub04","04","8","motor","83","img/motor_2.png","83","motor","2","161","1","0","0","",""
"null","622588","HierDy6gl8ww4d","sub04","04","8","iti","null","img/motor_2.png","83","motor","","","","","","",""
"549","623146","HierDy6gl8ww4d","sub04","04","8","motor","68","img/motor_3.png","68","motor","3","162","1","0","0","",""
"null","623256","HierDy6gl8ww4d","sub04","04","8","iti","null","img/motor_3.png","68","motor","","","","","","",""
"636","623900","HierDy6gl8ww4d","sub04","04","8","motor","74","img/motor_6.png","74","motor","6","163","1","0","0","",""
"null","624008","HierDy6gl8ww4d","sub04","04","8","iti","null","img/motor_6.png","74","motor","","","","","","",""
"819","624833","HierDy6gl8ww4d","sub04","04","8","motor","72","img/motor_5.png","72","motor","5","164","1","0","0","",""
"null","624939","HierDy6gl8ww4d","sub04","04","8","iti","null","img/motor_5.png","72","motor","","","","","","",""
"953","625903","HierDy6gl8ww4d","sub04","04","8","motor","65","img/motor_1.png","65","motor","1","165","1","0","0","",""
"null","626013","HierDy6gl8ww4d","sub04","04","8","iti","null","img/motor_1.png","65","motor","","","","","","",""
"537","626562","HierDy6gl8ww4d","sub04","04","8","motor","83","img/motor_3.png","68","motor","3","166","0","1","0","",""
"380","626951","HierDy6gl8ww4d","sub04","04","8","motorRepeat","68","img/motor_3.png","68","motor","3","166","1","0","0","",""
"null","627061","HierDy6gl8ww4d","sub04","04","8","iti","null","img/motor_3.png","68","motor","","","","","","",""
"587","627658","HierDy6gl8ww4d","sub04","04","8","motor","83","img/motor_2.png","83","motor","2","167","1","0","0","",""
"null","627770","HierDy6gl8ww4d","sub04","04","8","iti","null","img/motor_2.png","83","motor","","","","","","",""
"456","628234","HierDy6gl8ww4d","sub04","04","8","motor","65","img/motor_1.png","65","motor","1","168","1","0","0","",""
"null","628344","HierDy6gl8ww4d","sub04","04","8","iti","null","img/motor_1.png","65","motor","","","","","","",""
"724","629074","HierDy6gl8ww4d","sub04","04","8","motor","70","img/motor_4.png","70","motor","4","169","1","0","0","",""
"null","629182","HierDy6gl8ww4d","sub04","04","8","iti","null","img/motor_4.png","70","motor","","","","","","",""
"1281","630471","HierDy6gl8ww4d","sub04","04","8","motor","74","img/motor_5.png","72","motor","5","170","0","1","0","",""
"438","630917","HierDy6gl8ww4d","sub04","04","8","motorRepeat","72","img/motor_5.png","72","motor","5","170","1","0","0","",""
"null","631026","HierDy6gl8ww4d","sub04","04","8","iti","null","img/motor_5.png","72","motor","","","","","","",""
"542","631578","HierDy6gl8ww4d","sub04","04","8","motor","74","img/motor_6.png","74","motor","6","171","1","0","0","",""
"null","631689","HierDy6gl8ww4d","sub04","04","8","iti","null","img/motor_6.png","74","motor","","","","","","",""
"517","632217","HierDy6gl8ww4d","sub04","04","8","motor","76","img/motor_8.png","76","motor","8","172","1","0","0","",""
"null","632328","HierDy6gl8ww4d","sub04","04","8","iti","null","img/motor_8.png","76","motor","","","","","","",""
"526","632863","HierDy6gl8ww4d","sub04","04","8","motor","83","img/motor_2.png","83","motor","2","173","1","0","0","",""
"null","632974","HierDy6gl8ww4d","sub04","04","8","iti","null","img/motor_2.png","83","motor","","","","","","",""
"503","633487","HierDy6gl8ww4d","sub04","04","8","motor","75","img/motor_6.png","74","motor","6","174","0","1","0","",""
"298","633793","HierDy6gl8ww4d","sub04","04","8","motorRepeat","74","img/motor_6.png","74","motor","6","174","1","0","0","",""
"null","633904","HierDy6gl8ww4d","sub04","04","8","iti","null","img/motor_6.png","74","motor","","","","","","",""
"531","634444","HierDy6gl8ww4d","sub04","04","8","motor","75","img/motor_7.png","75","motor","7","175","1","0","0","",""
"null","634555","HierDy6gl8ww4d","sub04","04","8","iti","null","img/motor_7.png","75","motor","","","","","","",""
"767","635330","HierDy6gl8ww4d","sub04","04","8","motor","70","img/motor_4.png","70","motor","4","176","1","0","0","",""
"null","635439","HierDy6gl8ww4d","sub04","04","8","iti","null","img/motor_4.png","70","motor","","","","","","",""
"459","635906","HierDy6gl8ww4d","sub04","04","8","motor","74","img/motor_6.png","74","motor","6","177","1","0","0","",""
"null","636016","HierDy6gl8ww4d","sub04","04","8","iti","null","img/motor_6.png","74","motor","","","","","","",""
"475","636499","HierDy6gl8ww4d","sub04","04","8","motor","74","img/motor_5.png","72","motor","5","178","0","1","0","",""
"358","636864","HierDy6gl8ww4d","sub04","04","8","motorRepeat","72","img/motor_5.png","72","motor","5","178","1","0","0","",""
"null","636973","HierDy6gl8ww4d","sub04","04","8","iti","null","img/motor_5.png","72","motor","","","","","","",""
"590","637571","HierDy6gl8ww4d","sub04","04","8","motor","70","img/motor_4.png","70","motor","4","179","1","0","0","",""
"null","637680","HierDy6gl8ww4d","sub04","04","8","iti","null","img/motor_4.png","70","motor","","","","","","",""
"465","638154","HierDy6gl8ww4d","sub04","04","8","motor","75","img/motor_7.png","75","motor","7","180","1","0","0","",""
"null","638263","HierDy6gl8ww4d","sub04","04","8","iti","null","img/motor_7.png","75","motor","","","","","","",""
"524","638794","HierDy6gl8ww4d","sub04","04","8","motor","74","img/motor_6.png","74","motor","6","181","1","0","0","",""
"null","638903","HierDy6gl8ww4d","sub04","04","8","iti","null","img/motor_6.png","74","motor","","","","","","",""
"852","639764","HierDy6gl8ww4d","sub04","04","8","motor","83","img/motor_1.png","65","motor","1","182","0","1","0","",""
"714","640489","HierDy6gl8ww4d","sub04","04","8","motorRepeat","65","img/motor_1.png","65","motor","1","182","1","0","0","",""
"null","640600","HierDy6gl8ww4d","sub04","04","8","iti","null","img/motor_1.png","65","motor","","","","","","",""
"945","641554","HierDy6gl8ww4d","sub04","04","8","motor","68","img/motor_3.png","68","motor","3","183","1","0","0","",""
"null","641661","HierDy6gl8ww4d","sub04","04","8","iti","null","img/motor_3.png","68","motor","","","","","","",""
"512","642183","HierDy6gl8ww4d","sub04","04","8","motor","83","img/motor_2.png","83","motor","2","184","1","0","0","",""
"null","642294","HierDy6gl8ww4d","sub04","04","8","iti","null","img/motor_2.png","83","motor","","","","","","",""
"522","642824","HierDy6gl8ww4d","sub04","04","8","motor","83","img/motor_2.png","83","motor","2","185","1","0","0","",""
"null","642935","HierDy6gl8ww4d","sub04","04","8","iti","null","img/motor_2.png","83","motor","","","","","","",""
"683","643626","HierDy6gl8ww4d","sub04","04","8","motor","74","img/motor_5.png","72","motor","5","186","0","1","0","",""
"370","644004","HierDy6gl8ww4d","sub04","04","8","motorRepeat","72","img/motor_5.png","72","motor","5","186","1","0","0","",""
"null","644113","HierDy6gl8ww4d","sub04","04","8","iti","null","img/motor_5.png","72","motor","","","","","","",""
"622","644743","HierDy6gl8ww4d","sub04","04","8","motor","76","img/motor_8.png","76","motor","8","187","1","0","0","",""
"null","644853","HierDy6gl8ww4d","sub04","04","8","iti","null","img/motor_8.png","76","motor","","","","","","",""
"800","645662","HierDy6gl8ww4d","sub04","04","8","motor","68","img/motor_3.png","68","motor","3","188","1","0","0","",""
"null","645773","HierDy6gl8ww4d","sub04","04","8","iti","null","img/motor_3.png","68","motor","","","","","","",""
"722","646503","HierDy6gl8ww4d","sub04","04","8","motor","70","img/motor_4.png","70","motor","4","189","1","0","0","",""
"null","646610","HierDy6gl8ww4d","sub04","04","8","iti","null","img/motor_4.png","70","motor","","","","","","",""
"422","647040","HierDy6gl8ww4d","sub04","04","8","motor","70","img/motor_4.png","70","motor","4","190","1","0","0","",""
"null","647147","HierDy6gl8ww4d","sub04","04","8","iti","null","img/motor_4.png","70","motor","","","","","","",""
"614","647771","HierDy6gl8ww4d","sub04","04","8","motor","76","img/motor_8.png","76","motor","8","191","1","0","0","",""
"null","647882","HierDy6gl8ww4d","sub04","04","8","iti","null","img/motor_8.png","76","motor","","","","","","",""
"532","648421","HierDy6gl8ww4d","sub04","04","8","motor","74","img/motor_6.png","74","motor","6","192","1","0","0","",""
"null","648530","HierDy6gl8ww4d","sub04","04","8","iti","null","img/motor_6.png","74","motor","","","","","","",""
"581","649117","HierDy6gl8ww4d","sub04","04","8","motor","72","img/motor_5.png","72","motor","5","193","1","0","0","",""
"null","649227","HierDy6gl8ww4d","sub04","04","8","iti","null","img/motor_5.png","72","motor","","","","","","",""
"466","649703","HierDy6gl8ww4d","sub04","04","8","motor","74","img/motor_6.png","74","motor","6","194","1","0","0","",""
"null","649813","HierDy6gl8ww4d","sub04","04","8","iti","null","img/motor_6.png","74","motor","","","","","","",""
"453","650276","HierDy6gl8ww4d","sub04","04","8","motor","76","img/motor_8.png","76","motor","8","195","1","0","0","",""
"null","650387","HierDy6gl8ww4d","sub04","04","8","iti","null","img/motor_8.png","76","motor","","","","","","",""
"646","651041","HierDy6gl8ww4d","sub04","04","8","motor","70","img/motor_4.png","70","motor","4","196","1","0","0","",""
"null","651149","HierDy6gl8ww4d","sub04","04","8","iti","null","img/motor_4.png","70","motor","","","","","","",""
"589","651748","HierDy6gl8ww4d","sub04","04","8","motor","68","img/motor_3.png","68","motor","3","197","1","0","0","",""
"null","651859","HierDy6gl8ww4d","sub04","04","8","iti","null","img/motor_3.png","68","motor","","","","","","",""
"570","652436","HierDy6gl8ww4d","sub04","04","8","motor","70","img/motor_5.png","72","motor","5","198","0","1","0","",""
"339","652782","HierDy6gl8ww4d","sub04","04","8","motorRepeat","72","img/motor_5.png","72","motor","5","198","1","0","0","",""
"null","652894","HierDy6gl8ww4d","sub04","04","8","iti","null","img/motor_5.png","72","motor","","","","","","",""
"950","653854","HierDy6gl8ww4d","sub04","04","8","motor","83","img/motor_2.png","83","motor","2","199","1","0","0","",""
"null","653964","HierDy6gl8ww4d","sub04","04","8","iti","null","img/motor_2.png","83","motor","","","","","","",""
"608","654580","HierDy6gl8ww4d","sub04","04","8","motor","75","img/motor_7.png","75","motor","7","200","1","0","0","",""
"null","654690","HierDy6gl8ww4d","sub04","04","8","iti","null","img/motor_7.png","75","motor","","","","","","",""
"569","655270","HierDy6gl8ww4d","sub04","04","8","motor","65","img/motor_1.png","65","motor","1","201","1","0","0","",""
"null","655381","HierDy6gl8ww4d","sub04","04","8","iti","null","img/motor_1.png","65","motor","","","","","","",""
"662","656053","HierDy6gl8ww4d","sub04","04","8","motor","75","img/motor_7.png","75","motor","7","202","1","0","0","",""
"null","656164","HierDy6gl8ww4d","sub04","04","8","iti","null","img/motor_7.png","75","motor","","","","","","",""
"507","656680","HierDy6gl8ww4d","sub04","04","8","motor","76","img/motor_8.png","76","motor","8","203","1","0","0","",""
"null","656792","HierDy6gl8ww4d","sub04","04","8","iti","null","img/motor_8.png","76","motor","","","","","","",""
"728","657527","HierDy6gl8ww4d","sub04","04","8","motor","70","img/motor_4.png","70","motor","4","204","1","0","0","",""
"null","657635","HierDy6gl8ww4d","sub04","04","8","iti","null","img/motor_4.png","70","motor","","","","","","",""
"561","658205","HierDy6gl8ww4d","sub04","04","8","motor","76","img/motor_8.png","76","motor","8","205","1","0","0","",""
"null","658314","HierDy6gl8ww4d","sub04","04","8","iti","null","img/motor_8.png","76","motor","","","","","","",""
"464","658789","HierDy6gl8ww4d","sub04","04","8","motor","75","img/motor_7.png","75","motor","7","206","1","0","0","",""
"null","658899","HierDy6gl8ww4d","sub04","04","8","iti","null","img/motor_7.png","75","motor","","","","","","",""
"488","659397","HierDy6gl8ww4d","sub04","04","8","motor","83","img/motor_4.png","70","motor","4","207","0","1","0","",""
"642","660045","HierDy6gl8ww4d","sub04","04","8","motorRepeat","70","img/motor_4.png","70","motor","4","207","1","0","0","",""
"null","660154","HierDy6gl8ww4d","sub04","04","8","iti","null","img/motor_4.png","70","motor","","","","","","",""
"588","660749","HierDy6gl8ww4d","sub04","04","8","motor","74","img/motor_5.png","72","motor","5","208","0","1","0","",""
"535","661294","HierDy6gl8ww4d","sub04","04","8","motorRepeat","75","img/motor_5.png","72","motor","5","208","0","1","0","",""
"516","661819","HierDy6gl8ww4d","sub04","04","8","motorRepeat","72","img/motor_5.png","72","motor","5","208","1","0","0","",""
"null","661931","HierDy6gl8ww4d","sub04","04","8","iti","null","img/motor_5.png","72","motor","","","","","","",""
"564","662503","HierDy6gl8ww4d","sub04","04","8","motor","68","img/motor_4.png","70","motor","4","209","0","1","0","",""
"1114","663627","HierDy6gl8ww4d","sub04","04","8","motorRepeat","70","img/motor_4.png","70","motor","4","209","1","0","0","",""
"null","663740","HierDy6gl8ww4d","sub04","04","8","iti","null","img/motor_4.png","70","motor","","","","","","",""
"1082","664831","HierDy6gl8ww4d","sub04","04","8","motor","75","img/motor_7.png","75","motor","7","210","1","0","0","",""
"null","664942","HierDy6gl8ww4d","sub04","04","8","iti","null","img/motor_7.png","75","motor","","","","","","",""
"612","665563","HierDy6gl8ww4d","sub04","04","8","motor","83","img/motor_3.png","68","motor","3","211","0","1","0","",""
"502","666075","HierDy6gl8ww4d","sub04","04","8","motorRepeat","68","img/motor_3.png","68","motor","3","211","1","0","0","",""
"null","666186","HierDy6gl8ww4d","sub04","04","8","iti","null","img/motor_3.png","68","motor","","","","","","",""
"570","666765","HierDy6gl8ww4d","sub04","04","8","motor","83","img/motor_2.png","83","motor","2","212","1","0","0","",""
"null","666877","HierDy6gl8ww4d","sub04","04","8","iti","null","img/motor_2.png","83","motor","","","","","","",""
"485","667371","HierDy6gl8ww4d","sub04","04","8","motor","76","img/motor_8.png","76","motor","8","213","1","0","0","",""
"null","667482","HierDy6gl8ww4d","sub04","04","8","iti","null","img/motor_8.png","76","motor","","","","","","",""
"358","667846","HierDy6gl8ww4d","sub04","04","8","motor","76","img/motor_8.png","76","motor","8","214","1","0","0","",""
"null","667958","HierDy6gl8ww4d","sub04","04","8","iti","null","img/motor_8.png","76","motor","","","","","","",""
"648","668616","HierDy6gl8ww4d","sub04","04","8","motor","74","img/motor_6.png","74","motor","6","215","1","0","0","",""
"null","668727","HierDy6gl8ww4d","sub04","04","8","iti","null","img/motor_6.png","74","motor","","","","","","",""
"587","669322","HierDy6gl8ww4d","sub04","04","8","motor","68","img/motor_4.png","70","motor","4","216","0","1","0","",""
"464","669792","HierDy6gl8ww4d","sub04","04","8","motorRepeat","70","img/motor_4.png","70","motor","4","216","1","0","0","",""
"null","669900","HierDy6gl8ww4d","sub04","04","8","iti","null","img/motor_4.png","70","motor","","","","","","",""
"433","670339","HierDy6gl8ww4d","sub04","04","8","motor","70","img/motor_4.png","70","motor","4","217","1","0","0","",""
"null","670447","HierDy6gl8ww4d","sub04","04","8","iti","null","img/motor_4.png","70","motor","","","","","","",""
"418","670875","HierDy6gl8ww4d","sub04","04","8","motor","76","img/motor_8.png","76","motor","8","218","1","0","0","",""
"null","670987","HierDy6gl8ww4d","sub04","04","8","iti","null","img/motor_8.png","76","motor","","","","","","",""
"426","671421","HierDy6gl8ww4d","sub04","04","8","motor","76","img/motor_8.png","76","motor","8","219","1","0","0","",""
"null","671532","HierDy6gl8ww4d","sub04","04","8","iti","null","img/motor_8.png","76","motor","","","","","","",""
"635","672177","HierDy6gl8ww4d","sub04","04","8","motor","74","img/motor_5.png","72","motor","5","220","0","1","0","",""
"732","672919","HierDy6gl8ww4d","sub04","04","8","motorRepeat","74","img/motor_5.png","72","motor","5","220","0","1","0","",""
"406","673336","HierDy6gl8ww4d","sub04","04","8","motorRepeat","72","img/motor_5.png","72","motor","5","220","1","0","0","",""
"null","673445","HierDy6gl8ww4d","sub04","04","8","iti","null","img/motor_5.png","72","motor","","","","","","",""
"377","673829","HierDy6gl8ww4d","sub04","04","8","motor","72","img/motor_5.png","72","motor","5","221","1","0","0","",""
"null","673941","HierDy6gl8ww4d","sub04","04","8","iti","null","img/motor_5.png","72","motor","","","","","","",""
"614","674564","HierDy6gl8ww4d","sub04","04","8","motor","83","img/motor_2.png","83","motor","2","222","1","0","0","",""
"null","674675","HierDy6gl8ww4d","sub04","04","8","iti","null","img/motor_2.png","83","motor","","","","","","",""
"592","675277","HierDy6gl8ww4d","sub04","04","8","motor","83","img/motor_2.png","83","motor","2","223","1","0","0","",""
"null","675389","HierDy6gl8ww4d","sub04","04","8","iti","null","img/motor_2.png","83","motor","","","","","","",""
"554","675952","HierDy6gl8ww4d","sub04","04","8","motor","70","img/motor_4.png","70","motor","4","224","1","0","0","",""
"null","676060","HierDy6gl8ww4d","sub04","04","8","iti","null","img/motor_4.png","70","motor","","","","","","",""
"643","676712","HierDy6gl8ww4d","sub04","04","8","motor","72","img/motor_5.png","72","motor","5","225","1","0","0","",""
"null","676820","HierDy6gl8ww4d","sub04","04","8","iti","null","img/motor_5.png","72","motor","","","","","","",""
"675","677503","HierDy6gl8ww4d","sub04","04","8","motor","70","img/motor_4.png","70","motor","4","226","1","0","0","",""
"null","677614","HierDy6gl8ww4d","sub04","04","8","iti","null","img/motor_4.png","70","motor","","","","","","",""
"695","678318","HierDy6gl8ww4d","sub04","04","8","motor","68","img/motor_3.png","68","motor","3","227","1","0","0","",""
"null","678429","HierDy6gl8ww4d","sub04","04","8","iti","null","img/motor_3.png","68","motor","","","","","","",""
"624","679064","HierDy6gl8ww4d","sub04","04","8","motor","76","img/motor_8.png","76","motor","8","228","1","0","0","",""
"null","679174","HierDy6gl8ww4d","sub04","04","8","iti","null","img/motor_8.png","76","motor","","","","","","",""
"564","679747","HierDy6gl8ww4d","sub04","04","8","motor","72","img/motor_5.png","72","motor","5","229","1","0","0","",""
"null","679858","HierDy6gl8ww4d","sub04","04","8","iti","null","img/motor_5.png","72","motor","","","","","","",""
"469","680337","HierDy6gl8ww4d","sub04","04","8","motor","68","img/motor_4.png","70","motor","4","230","0","1","0","",""
"456","680800","HierDy6gl8ww4d","sub04","04","8","motorRepeat","70","img/motor_4.png","70","motor","4","230","1","0","0","",""
"null","680910","HierDy6gl8ww4d","sub04","04","8","iti","null","img/motor_4.png","70","motor","","","","","","",""
"466","681386","HierDy6gl8ww4d","sub04","04","8","motor","75","img/motor_7.png","75","motor","7","231","1","0","0","",""
"null","681499","HierDy6gl8ww4d","sub04","04","8","iti","null","img/motor_7.png","75","motor","","","","","","",""
"792","682301","HierDy6gl8ww4d","sub04","04","8","motor","83","img/motor_2.png","83","motor","2","232","1","0","0","",""
"null","682412","HierDy6gl8ww4d","sub04","04","8","iti","null","img/motor_2.png","83","motor","","","","","","",""
"577","683000","HierDy6gl8ww4d","sub04","04","8","motor","75","img/motor_7.png","75","motor","7","233","1","0","0","",""
"null","683112","HierDy6gl8ww4d","sub04","04","8","iti","null","img/motor_7.png","75","motor","","","","","","",""
"553","683675","HierDy6gl8ww4d","sub04","04","8","motor","68","img/motor_4.png","70","motor","4","234","0","1","0","",""
"426","684109","HierDy6gl8ww4d","sub04","04","8","motorRepeat","70","img/motor_4.png","70","motor","4","234","1","0","0","",""
"null","684216","HierDy6gl8ww4d","sub04","04","8","iti","null","img/motor_4.png","70","motor","","","","","","",""
"443","684670","HierDy6gl8ww4d","sub04","04","8","motor","76","img/motor_8.png","76","motor","8","235","1","0","0","",""
"null","684781","HierDy6gl8ww4d","sub04","04","8","iti","null","img/motor_8.png","76","motor","","","","","","",""
"557","685346","HierDy6gl8ww4d","sub04","04","8","motor","83","img/motor_3.png","68","motor","3","236","0","1","0","",""
"311","685669","HierDy6gl8ww4d","sub04","04","8","motorRepeat","68","img/motor_3.png","68","motor","3","236","1","0","0","",""
"null","685780","HierDy6gl8ww4d","sub04","04","8","iti","null","img/motor_3.png","68","motor","","","","","","",""
"565","686352","HierDy6gl8ww4d","sub04","04","8","motor","74","img/motor_6.png","74","motor","6","237","1","0","0","",""
"null","686461","HierDy6gl8ww4d","sub04","04","8","iti","null","img/motor_6.png","74","motor","","","","","","",""
"378","686849","HierDy6gl8ww4d","sub04","04","8","motor","74","img/motor_6.png","74","motor","6","238","1","0","0","",""
"null","686960","HierDy6gl8ww4d","sub04","04","8","iti","null","img/motor_6.png","74","motor","","","","","","",""
"514","687484","HierDy6gl8ww4d","sub04","04","8","motor","75","img/motor_7.png","75","motor","7","239","1","0","0","",""
"null","687593","HierDy6gl8ww4d","sub04","04","8","iti","null","img/motor_7.png","75","motor","","","","","","",""
"463","688064","HierDy6gl8ww4d","sub04","04","8","motor","74","img/motor_6.png","74","motor","6","240","1","0","0","",""
"null","688175","HierDy6gl8ww4d","sub04","04","8","iti","null","img/motor_6.png","74","motor","","","","","","",""
"549","688732","HierDy6gl8ww4d","sub04","04","8","motor","68","img/motor_3.png","68","motor","3","241","1","0","0","",""
"null","688842","HierDy6gl8ww4d","sub04","04","8","iti","null","img/motor_3.png","68","motor","","","","","","",""
"560","689413","HierDy6gl8ww4d","sub04","04","8","motor","75","img/motor_7.png","75","motor","7","242","1","0","0","",""
"null","689525","HierDy6gl8ww4d","sub04","04","8","iti","null","img/motor_7.png","75","motor","","","","","","",""
"451","689986","HierDy6gl8ww4d","sub04","04","8","motor","68","img/motor_3.png","68","motor","3","243","1","0","0","",""
"null","690097","HierDy6gl8ww4d","sub04","04","8","iti","null","img/motor_3.png","68","motor","","","","","","",""
"492","690600","HierDy6gl8ww4d","sub04","04","8","motor","75","img/motor_7.png","75","motor","7","244","1","0","0","",""
"null","690711","HierDy6gl8ww4d","sub04","04","8","iti","null","img/motor_7.png","75","motor","","","","","","",""
"692","691412","HierDy6gl8ww4d","sub04","04","8","motor","70","img/motor_4.png","70","motor","4","245","1","0","0","",""
"null","691520","HierDy6gl8ww4d","sub04","04","8","iti","null","img/motor_4.png","70","motor","","","","","","",""
"496","692024","HierDy6gl8ww4d","sub04","04","8","motor","74","img/motor_5.png","72","motor","5","246","0","1","0","",""
"450","692485","HierDy6gl8ww4d","sub04","04","8","motorRepeat","72","img/motor_5.png","72","motor","5","246","1","0","0","",""
"null","692595","HierDy6gl8ww4d","sub04","04","8","iti","null","img/motor_5.png","72","motor","","","","","","",""
"656","693262","HierDy6gl8ww4d","sub04","04","8","motor","70","img/motor_4.png","70","motor","4","247","1","0","0","",""
"null","693373","HierDy6gl8ww4d","sub04","04","8","iti","null","img/motor_4.png","70","motor","","","","","","",""
"769","694153","HierDy6gl8ww4d","sub04","04","8","motor","75","img/motor_6.png","74","motor","6","248","0","1","0","",""
"319","694482","HierDy6gl8ww4d","sub04","04","8","motorRepeat","74","img/motor_6.png","74","motor","6","248","1","0","0","",""
"null","694593","HierDy6gl8ww4d","sub04","04","8","iti","null","img/motor_6.png","74","motor","","","","","","",""
"733","695336","HierDy6gl8ww4d","sub04","04","8","motor","75","img/motor_7.png","75","motor","7","249","1","0","0","",""
"null","695445","HierDy6gl8ww4d","sub04","04","8","iti","null","img/motor_7.png","75","motor","","","","","","",""
"586","696040","HierDy6gl8ww4d","sub04","04","8","motor","70","img/motor_3.png","68","motor","3","250","0","1","0","",""
"384","696433","HierDy6gl8ww4d","sub04","04","8","motorRepeat","68","img/motor_3.png","68","motor","3","250","1","0","0","",""
"null","696544","HierDy6gl8ww4d","sub04","04","8","iti","null","img/motor_3.png","68","motor","","","","","","",""
"564","697118","HierDy6gl8ww4d","sub04","04","8","motor","83","img/motor_1.png","65","motor","1","251","0","1","0","",""
"426","697552","HierDy6gl8ww4d","sub04","04","8","motorRepeat","65","img/motor_1.png","65","motor","1","251","1","0","0","",""
"null","697660","HierDy6gl8ww4d","sub04","04","8","iti","null","img/motor_1.png","65","motor","","","","","","",""
"760","698429","HierDy6gl8ww4d","sub04","04","8","motor","70","img/motor_4.png","70","motor","4","252","1","0","0","",""
"null","698537","HierDy6gl8ww4d","sub04","04","8","iti","null","img/motor_4.png","70","motor","","","","","","",""
"573","699118","HierDy6gl8ww4d","sub04","04","8","motor","83","img/motor_2.png","83","motor","2","253","1","0","0","",""
"null","699226","HierDy6gl8ww4d","sub04","04","8","iti","null","img/motor_2.png","83","motor","","","","","","",""
"547","699781","HierDy6gl8ww4d","sub04","04","8","motor","70","img/motor_4.png","70","motor","4","254","1","0","0","",""
"null","699888","HierDy6gl8ww4d","sub04","04","8","iti","null","img/motor_4.png","70","motor","","","","","","",""
"631","700528","HierDy6gl8ww4d","sub04","04","8","motor","68","img/motor_3.png","68","motor","3","255","1","0","0","",""
"null","700637","HierDy6gl8ww4d","sub04","04","8","iti","null","img/motor_3.png","68","motor","","","","","","",""
"432","701077","HierDy6gl8ww4d","sub04","04","8","motor","70","img/motor_4.png","70","motor","4","256","1","0","0","",""
"null","701186","HierDy6gl8ww4d","sub04","04","8","iti","null","img/motor_4.png","70","motor","","","","","","",""
"750","701942","HierDy6gl8ww4d","sub04","04","8","motor","72","img/motor_6.png","74","motor","6","257","0","1","0","",""
"309","702258","HierDy6gl8ww4d","sub04","04","8","motorRepeat","74","img/motor_6.png","74","motor","6","257","1","0","0","",""
"null","702366","HierDy6gl8ww4d","sub04","04","8","iti","null","img/motor_6.png","74","motor","","","","","","",""
"836","703208","HierDy6gl8ww4d","sub04","04","8","motor","68","img/motor_3.png","68","motor","3","258","1","0","0","",""
"null","703316","HierDy6gl8ww4d","sub04","04","8","iti","null","img/motor_3.png","68","motor","","","","","","",""
"758","704082","HierDy6gl8ww4d","sub04","04","8","motor","76","img/motor_8.png","76","motor","8","259","1","0","0","",""
"null","704192","HierDy6gl8ww4d","sub04","04","8","iti","null","img/motor_8.png","76","motor","","","","","","",""
"575","704774","HierDy6gl8ww4d","sub04","04","8","motor","75","img/motor_7.png","75","motor","7","260","1","0","0","",""
"null","704883","HierDy6gl8ww4d","sub04","04","8","iti","null","img/motor_7.png","75","motor","","","","","","",""
"708","705601","HierDy6gl8ww4d","sub04","04","8","motor","72","img/motor_5.png","72","motor","5","261","1","0","0","",""
"null","705712","HierDy6gl8ww4d","sub04","04","8","iti","null","img/motor_5.png","72","motor","","","","","","",""
"0","705721","HierDy6gl8ww4d","sub04","04","8","motor","72","img/motor_5.png","72","motor","5","262","1","0","0","",""
"null","705829","HierDy6gl8ww4d","sub04","04","8","iti","null","img/motor_5.png","72","motor","","","","","","",""
"754","706594","HierDy6gl8ww4d","sub04","04","8","motor","65","img/motor_1.png","65","motor","1","263","1","0","0","",""
"null","706704","HierDy6gl8ww4d","sub04","04","8","iti","null","img/motor_1.png","65","motor","","","","","","",""
"794","707506","HierDy6gl8ww4d","sub04","04","8","motor","75","img/motor_7.png","75","motor","7","264","1","0","0","",""
"null","707614","HierDy6gl8ww4d","sub04","04","8","iti","null","img/motor_7.png","75","motor","","","","","","",""
"348","707971","HierDy6gl8ww4d","sub04","04","8","motor","74","img/motor_8.png","76","motor","8","265","0","1","0","",""
"244","708225","HierDy6gl8ww4d","sub04","04","8","motorRepeat","76","img/motor_8.png","76","motor","8","265","1","0","0","",""
"null","708336","HierDy6gl8ww4d","sub04","04","8","iti","null","img/motor_8.png","76","motor","","","","","","",""
"857","709201","HierDy6gl8ww4d","sub04","04","8","motor","65","img/motor_1.png","65","motor","1","266","1","0","0","",""
"null","709309","HierDy6gl8ww4d","sub04","04","8","iti","null","img/motor_1.png","65","motor","","","","","","",""
"824","710142","HierDy6gl8ww4d","sub04","04","8","motor","83","img/motor_3.png","68","motor","3","267","0","1","0","",""
"307","710457","HierDy6gl8ww4d","sub04","04","8","motorRepeat","68","img/motor_3.png","68","motor","3","267","1","0","0","",""
"null","710567","HierDy6gl8ww4d","sub04","04","8","iti","null","img/motor_3.png","68","motor","","","","","","",""
"525","711099","HierDy6gl8ww4d","sub04","04","8","motor","75","img/motor_7.png","75","motor","7","268","1","0","0","",""
"null","711209","HierDy6gl8ww4d","sub04","04","8","iti","null","img/motor_7.png","75","motor","","","","","","",""
"489","711707","HierDy6gl8ww4d","sub04","04","8","motor","74","img/motor_6.png","74","motor","6","269","1","0","0","",""
"null","711817","HierDy6gl8ww4d","sub04","04","8","iti","null","img/motor_6.png","74","motor","","","","","","",""
"505","712331","HierDy6gl8ww4d","sub04","04","8","motor","75","img/motor_7.png","75","motor","7","270","1","0","0","",""
"null","712442","HierDy6gl8ww4d","sub04","04","8","iti","null","img/motor_7.png","75","motor","","","","","","",""
"376","712826","HierDy6gl8ww4d","sub04","04","8","motor","74","img/motor_6.png","74","motor","6","271","1","0","0","",""
"null","712935","HierDy6gl8ww4d","sub04","04","8","iti","null","img/motor_6.png","74","motor","","","","","","",""
"576","713521","HierDy6gl8ww4d","sub04","04","8","motor","83","img/motor_2.png","83","motor","2","272","1","0","0","",""
"null","713633","HierDy6gl8ww4d","sub04","04","8","iti","null","img/motor_2.png","83","motor","","","","","","",""
"520","714165","HierDy6gl8ww4d","sub04","04","8","motor","76","img/motor_8.png","76","motor","8","273","1","0","0","",""
"null","714278","HierDy6gl8ww4d","sub04","04","8","iti","null","img/motor_8.png","76","motor","","","","","","",""
"1015","715301","HierDy6gl8ww4d","sub04","04","8","motor","70","img/motor_4.png","70","motor","4","274","1","0","0","",""
"null","715410","HierDy6gl8ww4d","sub04","04","8","iti","null","img/motor_4.png","70","motor","","","","","","",""
"715","716134","HierDy6gl8ww4d","sub04","04","8","motor","65","img/motor_1.png","65","motor","1","275","1","0","0","",""
"null","716244","HierDy6gl8ww4d","sub04","04","8","iti","null","img/motor_1.png","65","motor","","","","","","",""
"548","716802","HierDy6gl8ww4d","sub04","04","8","motor","72","img/motor_5.png","72","motor","5","276","1","0","0","",""
"null","716911","HierDy6gl8ww4d","sub04","04","8","iti","null","img/motor_5.png","72","motor","","","","","","",""
"535","717456","HierDy6gl8ww4d","sub04","04","8","motor","83","img/motor_2.png","83","motor","2","277","1","0","0","",""
"null","717566","HierDy6gl8ww4d","sub04","04","8","iti","null","img/motor_2.png","83","motor","","","","","","",""
"522","718096","HierDy6gl8ww4d","sub04","04","8","motor","65","img/motor_1.png","65","motor","1","278","1","0","0","",""
"null","718205","HierDy6gl8ww4d","sub04","04","8","iti","null","img/motor_1.png","65","motor","","","","","","",""
"532","718747","HierDy6gl8ww4d","sub04","04","8","motor","76","img/motor_8.png","76","motor","8","279","1","0","0","",""
"null","718857","HierDy6gl8ww4d","sub04","04","8","iti","null","img/motor_8.png","76","motor","","","","","","",""
"520","719385","HierDy6gl8ww4d","sub04","04","8","motor","83","img/motor_2.png","83","motor","2","280","1","0","0","",""
"null","719496","HierDy6gl8ww4d","sub04","04","8","iti","null","img/motor_2.png","83","motor","","","","","","",""
"600","720104","HierDy6gl8ww4d","sub04","04","8","motor","65","img/motor_1.png","65","motor","1","281","1","0","0","",""
"null","720214","HierDy6gl8ww4d","sub04","04","8","iti","null","img/motor_1.png","65","motor","","","","","","",""
"620","720841","HierDy6gl8ww4d","sub04","04","8","motor","72","img/motor_5.png","72","motor","5","282","1","0","0","",""
"null","720949","HierDy6gl8ww4d","sub04","04","8","iti","null","img/motor_5.png","72","motor","","","","","","",""
"802","721759","HierDy6gl8ww4d","sub04","04","8","motor","70","img/motor_4.png","70","motor","4","283","1","0","0","",""
"null","721868","HierDy6gl8ww4d","sub04","04","8","iti","null","img/motor_4.png","70","motor","","","","","","",""
"489","722364","HierDy6gl8ww4d","sub04","04","8","motor","83","img/motor_2.png","83","motor","2","284","1","0","0","",""
"null","722473","HierDy6gl8ww4d","sub04","04","8","iti","null","img/motor_2.png","83","motor","","","","","","",""
"535","723017","HierDy6gl8ww4d","sub04","04","8","motor","75","img/motor_7.png","75","motor","7","285","1","0","0","",""
"null","723126","HierDy6gl8ww4d","sub04","04","8","iti","null","img/motor_7.png","75","motor","","","","","","",""
"500","723634","HierDy6gl8ww4d","sub04","04","8","motor","68","img/motor_3.png","68","motor","3","286","1","0","0","",""
"null","723743","HierDy6gl8ww4d","sub04","04","8","iti","null","img/motor_3.png","68","motor","","","","","","",""
"441","724194","HierDy6gl8ww4d","sub04","04","8","motor","75","img/motor_6.png","74","motor","6","287","0","1","0","",""
"338","724541","HierDy6gl8ww4d","sub04","04","8","motorRepeat","74","img/motor_6.png","74","motor","6","287","1","0","0","",""
"null","724650","HierDy6gl8ww4d","sub04","04","8","iti","null","img/motor_6.png","74","motor","","","","","","",""
"536","725192","HierDy6gl8ww4d","sub04","04","8","motor","72","img/motor_5.png","72","motor","5","288","1","0","0","",""
"null","725301","HierDy6gl8ww4d","sub04","04","8","iti","null","img/motor_5.png","72","motor","","","","","","",""
"437","725748","HierDy6gl8ww4d","sub04","04","8","motor","74","img/motor_6.png","74","motor","6","289","1","0","0","",""
"null","725859","HierDy6gl8ww4d","sub04","04","8","iti","null","img/motor_6.png","74","motor","","","","","","",""
"552","726418","HierDy6gl8ww4d","sub04","04","8","motor","65","img/motor_1.png","65","motor","1","290","1","0","0","",""
"null","726526","HierDy6gl8ww4d","sub04","04","8","iti","null","img/motor_1.png","65","motor","","","","","","",""
"366","726901","HierDy6gl8ww4d","sub04","04","8","motor","76","img/motor_8.png","76","motor","8","291","1","0","0","",""
"null","727010","HierDy6gl8ww4d","sub04","04","8","iti","null","img/motor_8.png","76","motor","","","","","","",""
"672","727690","HierDy6gl8ww4d","sub04","04","8","motor","68","img/motor_3.png","68","motor","3","292","1","0","0","",""
"null","727798","HierDy6gl8ww4d","sub04","04","8","iti","null","img/motor_3.png","68","motor","","","","","","",""
"503","728310","HierDy6gl8ww4d","sub04","04","8","motor","72","img/motor_6.png","74","motor","6","293","0","1","0","",""
"299","728619","HierDy6gl8ww4d","sub04","04","8","motorRepeat","74","img/motor_6.png","74","motor","6","293","1","0","0","",""
"null","728728","HierDy6gl8ww4d","sub04","04","8","iti","null","img/motor_6.png","74","motor","","","","","","",""
"514","729251","HierDy6gl8ww4d","sub04","04","8","motor","68","img/motor_3.png","68","motor","3","294","1","0","0","",""
"null","729359","HierDy6gl8ww4d","sub04","04","8","iti","null","img/motor_3.png","68","motor","","","","","","",""
"499","729866","HierDy6gl8ww4d","sub04","04","8","motor","74","img/motor_3.png","68","motor","3","295","0","1","0","",""
"92","729967","HierDy6gl8ww4d","sub04","04","8","motorRepeat","68","img/motor_3.png","68","motor","3","295","1","0","0","",""
"null","730076","HierDy6gl8ww4d","sub04","04","8","iti","null","img/motor_3.png","68","motor","","","","","","",""
"340","730424","HierDy6gl8ww4d","sub04","04","8","motor","74","img/motor_6.png","74","motor","6","296","1","0","0","",""
"null","730533","HierDy6gl8ww4d","sub04","04","8","iti","null","img/motor_6.png","74","motor","","","","","","",""
"521","731063","HierDy6gl8ww4d","sub04","04","8","motor","75","img/motor_7.png","75","motor","7","297","1","0","0","",""
"null","731173","HierDy6gl8ww4d","sub04","04","8","iti","null","img/motor_7.png","75","motor","","","","","","",""
"437","731617","HierDy6gl8ww4d","sub04","04","8","motor","83","img/motor_2.png","83","motor","2","298","1","0","0","",""
"null","731725","HierDy6gl8ww4d","sub04","04","8","iti","null","img/motor_2.png","83","motor","","","","","","",""
"437","732171","HierDy6gl8ww4d","sub04","04","8","motor","83","img/motor_1.png","65","motor","1","299","0","1","0","",""
"338","732519","HierDy6gl8ww4d","sub04","04","8","motorRepeat","65","img/motor_1.png","65","motor","1","299","1","0","0","",""
"null","732628","HierDy6gl8ww4d","sub04","04","8","iti","null","img/motor_1.png","65","motor","","","","","","",""
"669","733305","HierDy6gl8ww4d","sub04","04","8","motor","74","img/motor_5.png","72","motor","5","300","0","1","0","",""
"318","733631","HierDy6gl8ww4d","sub04","04","8","motorRepeat","72","img/motor_5.png","72","motor","5","300","1","0","0","",""
"null","733741","HierDy6gl8ww4d","sub04","04","8","iti","null","img/motor_5.png","72","motor","","","","","","",""
"436","734188","HierDy6gl8ww4d","sub04","04","8","motor","75","img/motor_6.png","74","motor","6","301","0","1","0","",""
"299","734497","HierDy6gl8ww4d","sub04","04","8","motorRepeat","74","img/motor_6.png","74","motor","6","301","1","0","0","",""
"null","734606","HierDy6gl8ww4d","sub04","04","8","iti","null","img/motor_6.png","74","motor","","","","","","",""
"488","735105","HierDy6gl8ww4d","sub04","04","8","motor","68","img/motor_4.png","70","motor","4","302","0","1","0","",""
"439","735552","HierDy6gl8ww4d","sub04","04","8","motorRepeat","70","img/motor_4.png","70","motor","4","302","1","0","0","",""
"null","735660","HierDy6gl8ww4d","sub04","04","8","iti","null","img/motor_4.png","70","motor","","","","","","",""
"532","736201","HierDy6gl8ww4d","sub04","04","8","motor","83","img/motor_1.png","65","motor","1","303","0","1","0","",""
"732","736941","HierDy6gl8ww4d","sub04","04","8","motorRepeat","65","img/motor_1.png","65","motor","1","303","1","0","0","",""
"null","737050","HierDy6gl8ww4d","sub04","04","8","iti","null","img/motor_1.png","65","motor","","","","","","",""
"1311","738370","HierDy6gl8ww4d","sub04","04","8","motor","68","img/motor_3.png","68","motor","3","304","1","0","0","",""
"null","738479","HierDy6gl8ww4d","sub04","04","8","iti","null","img/motor_3.png","68","motor","","","","","","",""
"646","739131","HierDy6gl8ww4d","sub04","04","8","motor","72","img/motor_5.png","72","motor","5","305","1","0","0","",""
"null","739240","HierDy6gl8ww4d","sub04","04","8","iti","null","img/motor_5.png","72","motor","","","","","","",""
"428","739678","HierDy6gl8ww4d","sub04","04","8","motor","75","img/motor_7.png","75","motor","7","306","1","0","0","",""
"null","739787","HierDy6gl8ww4d","sub04","04","8","iti","null","img/motor_7.png","75","motor","","","","","","",""
"449","740245","HierDy6gl8ww4d","sub04","04","8","motor","75","img/motor_7.png","75","motor","7","307","1","0","0","",""
"null","740353","HierDy6gl8ww4d","sub04","04","8","iti","null","img/motor_7.png","75","motor","","","","","","",""
"412","740774","HierDy6gl8ww4d","sub04","04","8","motor","68","img/motor_6.png","74","motor","6","308","0","1","0","",""
"72","740854","HierDy6gl8ww4d","sub04","04","8","motorRepeat","72","img/motor_6.png","74","motor","6","308","0","1","0","",""
"319","741184","HierDy6gl8ww4d","sub04","04","8","motorRepeat","74","img/motor_6.png","74","motor","6","308","1","0","0","",""
"null","741294","HierDy6gl8ww4d","sub04","04","8","iti","null","img/motor_6.png","74","motor","","","","","","",""
"582","741884","HierDy6gl8ww4d","sub04","04","8","motor","83","img/motor_2.png","83","motor","2","309","1","0","0","",""
"null","741997","HierDy6gl8ww4d","sub04","04","8","iti","null","img/motor_2.png","83","motor","","","","","","",""
"531","742539","HierDy6gl8ww4d","sub04","04","8","motor","75","img/motor_8.png","76","motor","8","310","0","1","0","",""
"257","742805","HierDy6gl8ww4d","sub04","04","8","motorRepeat","76","img/motor_8.png","76","motor","8","310","1","0","0","",""
"null","742915","HierDy6gl8ww4d","sub04","04","8","iti","null","img/motor_8.png","76","motor","","","","","","",""
"430","743354","HierDy6gl8ww4d","sub04","04","8","motor","74","img/motor_5.png","72","motor","5","311","0","1","0","",""
"305","743666","HierDy6gl8ww4d","sub04","04","8","motorRepeat","72","img/motor_5.png","72","motor","5","311","1","0","0","",""
"null","743775","HierDy6gl8ww4d","sub04","04","8","iti","null","img/motor_5.png","72","motor","","","","","","",""
"465","744250","HierDy6gl8ww4d","sub04","04","8","motor","76","img/motor_8.png","76","motor","8","312","1","0","0","",""
"null","744360","HierDy6gl8ww4d","sub04","04","8","iti","null","img/motor_8.png","76","motor","","","","","","",""
"759","745130","HierDy6gl8ww4d","sub04","04","8","motor","75","img/motor_6.png","74","motor","6","313","0","1","0","",""
"335","745473","HierDy6gl8ww4d","sub04","04","8","motorRepeat","74","img/motor_6.png","74","motor","6","313","1","0","0","",""
"null","745581","HierDy6gl8ww4d","sub04","04","8","iti","null","img/motor_6.png","74","motor","","","","","","",""
"471","746064","HierDy6gl8ww4d","sub04","04","8","motor","83","img/motor_2.png","83","motor","2","314","1","0","0","",""
"null","746173","HierDy6gl8ww4d","sub04","04","8","iti","null","img/motor_2.png","83","motor","","","","","","",""
"491","746672","HierDy6gl8ww4d","sub04","04","8","motor","75","img/motor_5.png","72","motor","5","315","0","1","0","",""
"687","747366","HierDy6gl8ww4d","sub04","04","8","motorRepeat","74","img/motor_5.png","72","motor","5","315","0","1","0","",""
"454","747829","HierDy6gl8ww4d","sub04","04","8","motorRepeat","75","img/motor_5.png","72","motor","5","315","0","1","0","",""
"478","748317","HierDy6gl8ww4d","sub04","04","8","motorRepeat","68","img/motor_5.png","72","motor","5","315","0","1","0","",""
"470","748798","HierDy6gl8ww4d","sub04","04","8","motorRepeat","70","img/motor_5.png","72","motor","5","315","0","1","0","",""
"431","749237","HierDy6gl8ww4d","sub04","04","8","motorRepeat","74","img/motor_5.png","72","motor","5","315","0","1","0","",""
"465","749712","HierDy6gl8ww4d","sub04","04","8","motorRepeat","75","img/motor_5.png","72","motor","5","315","0","1","0","",""
"482","750201","HierDy6gl8ww4d","sub04","04","8","motorRepeat","72","img/motor_5.png","72","motor","5","315","1","0","0","",""
"null","750312","HierDy6gl8ww4d","sub04","04","8","iti","null","img/motor_5.png","72","motor","","","","","","",""
"695","751017","HierDy6gl8ww4d","sub04","04","8","motor","76","img/motor_8.png","76","motor","8","316","1","0","0","",""
"null","751128","HierDy6gl8ww4d","sub04","04","8","iti","null","img/motor_8.png","76","motor","","","","","","",""
"761","751899","HierDy6gl8ww4d","sub04","04","8","motor","68","img/motor_4.png","70","motor","4","317","0","1","0","",""
"230","752137","HierDy6gl8ww4d","sub04","04","8","motorRepeat","70","img/motor_4.png","70","motor","4","317","1","0","0","",""
"null","752247","HierDy6gl8ww4d","sub04","04","8","iti","null","img/motor_4.png","70","motor","","","","","","",""
"6896","759154","HierDy6gl8ww4d","sub04","04","8","motor","65","img/motor_1.png","65","motor","1","318","1","0","0","",""
"null","759266","HierDy6gl8ww4d","sub04","04","8","iti","null","img/motor_1.png","65","motor","","","","","","",""
"2579","761854","HierDy6gl8ww4d","sub04","04","8","motor","70","img/motor_4.png","70","motor","4","319","1","0","0","",""
"null","761966","HierDy6gl8ww4d","sub04","04","8","iti","null","img/motor_4.png","70","motor","","","","","","",""
"431","762407","HierDy6gl8ww4d","sub04","04","8","motor","65","img/motor_1.png","65","motor","1","320","1","0","0","",""
"null","762519","HierDy6gl8ww4d","sub04","04","8","iti","null","img/motor_1.png","65","motor","","","","","","",""
"710","763236","HierDy6gl8ww4d","sub04","04","8","motor","70","img/motor_4.png","70","motor","4","321","1","0","0","",""
"null","763345","HierDy6gl8ww4d","sub04","04","8","iti","null","img/motor_4.png","70","motor","","","","","","",""
"3362","766716","HierDy6gl8ww4d","sub04","04","8","motor","75","img/motor_7.png","75","motor","7","322","1","0","0","",""
"null","766827","HierDy6gl8ww4d","sub04","04","8","iti","null","img/motor_7.png","75","motor","","","","","","",""
"469","767303","HierDy6gl8ww4d","sub04","04","8","motor","72","img/motor_5.png","72","motor","5","323","1","0","0","",""
"null","767411","HierDy6gl8ww4d","sub04","04","8","iti","null","img/motor_5.png","72","motor","","","","","","",""
"789","768209","HierDy6gl8ww4d","sub04","04","8","motor","65","img/motor_1.png","65","motor","1","324","1","0","0","",""
"null","768318","HierDy6gl8ww4d","sub04","04","8","iti","null","img/motor_1.png","65","motor","","","","","","",""
"823","769149","HierDy6gl8ww4d","sub04","04","8","motor","74","img/motor_6.png","74","motor","6","325","1","0","0","",""
"null","769260","HierDy6gl8ww4d","sub04","04","8","iti","null","img/motor_6.png","74","motor","","","","","","",""
"1210","770480","HierDy6gl8ww4d","sub04","04","8","motor","68","img/motor_3.png","68","motor","3","326","1","0","0","",""
"null","770589","HierDy6gl8ww4d","sub04","04","8","iti","null","img/motor_3.png","68","motor","","","","","","",""
"1291","771888","HierDy6gl8ww4d","sub04","04","8","motor","65","img/motor_1.png","65","motor","1","327","1","0","0","",""
"null","771997","HierDy6gl8ww4d","sub04","04","8","iti","null","img/motor_1.png","65","motor","","","","","","",""
"827","772831","HierDy6gl8ww4d","sub04","04","8","motor","72","img/motor_5.png","72","motor","5","328","1","0","0","",""
"null","772941","HierDy6gl8ww4d","sub04","04","8","iti","null","img/motor_5.png","72","motor","","","","","","",""
"583","773529","HierDy6gl8ww4d","sub04","04","8","motor","68","img/motor_3.png","68","motor","3","329","1","0","0","",""
"null","773639","HierDy6gl8ww4d","sub04","04","8","iti","null","img/motor_3.png","68","motor","","","","","","",""
"1200","774845","HierDy6gl8ww4d","sub04","04","8","motor","75","img/motor_7.png","75","motor","7","330","1","0","0","",""
"null","774955","HierDy6gl8ww4d","sub04","04","8","iti","null","img/motor_7.png","75","motor","","","","","","",""
"549","775511","HierDy6gl8ww4d","sub04","04","8","motor","65","img/motor_1.png","65","motor","1","331","1","0","0","",""
"null","775620","HierDy6gl8ww4d","sub04","04","8","iti","null","img/motor_1.png","65","motor","","","","","","",""
"478","776107","HierDy6gl8ww4d","sub04","04","8","motor","75","img/motor_7.png","75","motor","7","332","1","0","0","",""
"null","776216","HierDy6gl8ww4d","sub04","04","8","iti","null","img/motor_7.png","75","motor","","","","","","",""
"1381","777608","HierDy6gl8ww4d","sub04","04","8","motor","76","img/motor_8.png","76","motor","8","333","1","0","0","",""
"null","777719","HierDy6gl8ww4d","sub04","04","8","iti","null","img/motor_8.png","76","motor","","","","","","",""
"501","778228","HierDy6gl8ww4d","sub04","04","8","motor","76","img/motor_8.png","76","motor","8","334","1","0","0","",""
"null","778339","HierDy6gl8ww4d","sub04","04","8","iti","null","img/motor_8.png","76","motor","","","","","","",""
"698","779048","HierDy6gl8ww4d","sub04","04","8","motor","70","img/motor_4.png","70","motor","4","335","1","0","0","",""
"null","779159","HierDy6gl8ww4d","sub04","04","8","iti","null","img/motor_4.png","70","motor","","","","","","",""
"395","779564","HierDy6gl8ww4d","sub04","04","8","motor","68","img/motor_3.png","68","motor","3","336","1","0","0","",""
"null","779676","HierDy6gl8ww4d","sub04","04","8","iti","null","img/motor_3.png","68","motor","","","","","","",""
"386","780070","HierDy6gl8ww4d","sub04","04","8","motor","65","img/motor_1.png","65","motor","1","337","1","0","0","",""
"null","780182","HierDy6gl8ww4d","sub04","04","8","iti","null","img/motor_1.png","65","motor","","","","","","",""
"428","780620","HierDy6gl8ww4d","sub04","04","8","motor","83","img/motor_2.png","83","motor","2","338","1","0","0","",""
"null","780728","HierDy6gl8ww4d","sub04","04","8","iti","null","img/motor_2.png","83","motor","","","","","","",""
"427","781163","HierDy6gl8ww4d","sub04","04","8","motor","83","img/motor_2.png","83","motor","2","339","1","0","0","",""
"null","781272","HierDy6gl8ww4d","sub04","04","8","iti","null","img/motor_2.png","83","motor","","","","","","",""
"786","782066","HierDy6gl8ww4d","sub04","04","8","motor","72","img/motor_5.png","72","motor","5","340","1","0","0","",""
"null","782175","HierDy6gl8ww4d","sub04","04","8","iti","null","img/motor_5.png","72","motor","","","","","","",""
"446","782629","HierDy6gl8ww4d","sub04","04","8","motor","83","img/motor_2.png","83","motor","2","341","1","0","0","",""
"null","782738","HierDy6gl8ww4d","sub04","04","8","iti","null","img/motor_2.png","83","motor","","","","","","",""
"393","783140","HierDy6gl8ww4d","sub04","04","8","motor","83","img/motor_3.png","68","motor","3","342","0","1","0","",""
"414","783560","HierDy6gl8ww4d","sub04","04","8","motorRepeat","68","img/motor_3.png","68","motor","3","342","1","0","0","",""
"null","783669","HierDy6gl8ww4d","sub04","04","8","iti","null","img/motor_3.png","68","motor","","","","","","",""
"463","784138","HierDy6gl8ww4d","sub04","04","8","motor","70","img/motor_4.png","70","motor","4","343","1","0","0","",""
"null","784247","HierDy6gl8ww4d","sub04","04","8","iti","null","img/motor_4.png","70","motor","","","","","","",""
"385","784638","HierDy6gl8ww4d","sub04","04","8","motor","70","img/motor_4.png","70","motor","4","344","1","0","0","",""
"null","784747","HierDy6gl8ww4d","sub04","04","8","iti","null","img/motor_4.png","70","motor","","","","","","",""
"614","785370","HierDy6gl8ww4d","sub04","04","8","motor","76","img/motor_8.png","76","motor","8","345","1","0","0","",""
"null","785482","HierDy6gl8ww4d","sub04","04","8","iti","null","img/motor_8.png","76","motor","","","","","","",""
"539","786031","HierDy6gl8ww4d","sub04","04","8","motor","65","img/motor_1.png","65","motor","1","346","1","0","0","",""
"null","786143","HierDy6gl8ww4d","sub04","04","8","iti","null","img/motor_1.png","65","motor","","","","","","",""
"951","787100","HierDy6gl8ww4d","sub04","04","8","motor","74","img/motor_6.png","74","motor","6","347","1","0","0","",""
"null","787210","HierDy6gl8ww4d","sub04","04","8","iti","null","img/motor_6.png","74","motor","","","","","","",""
"471","787686","HierDy6gl8ww4d","sub04","04","8","motor","65","img/motor_2.png","83","motor","2","348","0","1","0","",""
"284","787977","HierDy6gl8ww4d","sub04","04","8","motorRepeat","83","img/motor_2.png","83","motor","2","348","1","0","0","",""
"null","788086","HierDy6gl8ww4d","sub04","04","8","iti","null","img/motor_2.png","83","motor","","","","","","",""
"772","788869","HierDy6gl8ww4d","sub04","04","8","motor","76","img/motor_8.png","76","motor","8","349","1","0","0","",""
"null","788981","HierDy6gl8ww4d","sub04","04","8","iti","null","img/motor_8.png","76","motor","","","","","","",""
"466","789458","HierDy6gl8ww4d","sub04","04","8","motor","75","img/motor_7.png","75","motor","7","350","1","0","0","",""
"null","789567","HierDy6gl8ww4d","sub04","04","8","iti","null","img/motor_7.png","75","motor","","","","","","",""
"363","789941","HierDy6gl8ww4d","sub04","04","8","motor","75","img/motor_7.png","75","motor","7","351","1","0","0","",""
"null","790052","HierDy6gl8ww4d","sub04","04","8","iti","null","img/motor_7.png","75","motor","","","","","","",""
"605","790666","HierDy6gl8ww4d","sub04","04","8","motor","72","img/motor_5.png","72","motor","5","352","1","0","0","",""
"null","790775","HierDy6gl8ww4d","sub04","04","8","iti","null","img/motor_5.png","72","motor","","","","","","",""
"555","791340","HierDy6gl8ww4d","sub04","04","8","motor","75","img/motor_7.png","75","motor","7","353","1","0","0","",""
"null","791451","HierDy6gl8ww4d","sub04","04","8","iti","null","img/motor_7.png","75","motor","","","","","","",""
"466","791926","HierDy6gl8ww4d","sub04","04","8","motor","72","img/motor_5.png","72","motor","5","354","1","0","0","",""
"null","792033","HierDy6gl8ww4d","sub04","04","8","iti","null","img/motor_5.png","72","motor","","","","","","",""
"827","792870","HierDy6gl8ww4d","sub04","04","8","motor","68","img/motor_3.png","68","motor","3","355","1","0","0","",""
"null","792982","HierDy6gl8ww4d","sub04","04","8","iti","null","img/motor_3.png","68","motor","","","","","","",""
"451","793441","HierDy6gl8ww4d","sub04","04","8","motor","83","img/motor_2.png","83","motor","2","356","1","0","0","",""
"null","793549","HierDy6gl8ww4d","sub04","04","8","iti","null","img/motor_2.png","83","motor","","","","","","",""
"675","794235","HierDy6gl8ww4d","sub04","04","8","motor","74","img/motor_6.png","74","motor","6","357","1","0","0","",""
"null","794345","HierDy6gl8ww4d","sub04","04","8","iti","null","img/motor_6.png","74","motor","","","","","","",""
"382","794737","HierDy6gl8ww4d","sub04","04","8","motor","83","img/motor_1.png","65","motor","1","358","0","1","0","",""
"397","795145","HierDy6gl8ww4d","sub04","04","8","motorRepeat","65","img/motor_1.png","65","motor","1","358","1","0","0","",""
"null","795257","HierDy6gl8ww4d","sub04","04","8","iti","null","img/motor_1.png","65","motor","","","","","","",""
"515","795782","HierDy6gl8ww4d","sub04","04","8","motor","83","img/motor_3.png","68","motor","3","359","0","1","0","",""
"284","796077","HierDy6gl8ww4d","sub04","04","8","motorRepeat","68","img/motor_3.png","68","motor","3","359","1","0","0","",""
"null","796189","HierDy6gl8ww4d","sub04","04","8","iti","null","img/motor_3.png","68","motor","","","","","","",""
"451","796649","HierDy6gl8ww4d","sub04","04","8","motor","65","img/motor_1.png","65","motor","1","360","1","0","0","",""
"null","796761","HierDy6gl8ww4d","sub04","04","8","iti","null","img/motor_1.png","65","motor","","","","","","",""
"605","797377","HierDy6gl8ww4d","sub04","04","8","motor","70","img/motor_4.png","70","motor","4","361","1","0","0","",""
"null","797488","HierDy6gl8ww4d","sub04","04","8","iti","null","img/motor_4.png","70","motor","","","","","","",""
"445","797941","HierDy6gl8ww4d","sub04","04","8","motor","65","img/motor_1.png","65","motor","1","362","1","0","0","",""
"null","798050","HierDy6gl8ww4d","sub04","04","8","iti","null","img/motor_1.png","65","motor","","","","","","",""
"541","798599","HierDy6gl8ww4d","sub04","04","8","motor","83","img/motor_2.png","83","motor","2","363","1","0","0","",""
"null","798707","HierDy6gl8ww4d","sub04","04","8","iti","null","img/motor_2.png","83","motor","","","","","","",""
"661","799376","HierDy6gl8ww4d","sub04","04","8","motor","74","img/motor_5.png","72","motor","5","364","0","1","0","",""
"323","799707","HierDy6gl8ww4d","sub04","04","8","motorRepeat","72","img/motor_5.png","72","motor","5","364","1","0","0","",""
"null","799817","HierDy6gl8ww4d","sub04","04","8","iti","null","img/motor_5.png","72","motor","","","","","","",""
"581","800405","HierDy6gl8ww4d","sub04","04","8","motor","83","img/motor_2.png","83","motor","2","365","1","0","0","",""
"null","800514","HierDy6gl8ww4d","sub04","04","8","iti","null","img/motor_2.png","83","motor","","","","","","",""
"570","801093","HierDy6gl8ww4d","sub04","04","8","motor","72","img/motor_4.png","70","motor","4","366","0","1","0","",""
"383","801486","HierDy6gl8ww4d","sub04","04","8","motorRepeat","70","img/motor_4.png","70","motor","4","366","1","0","0","",""
"null","801597","HierDy6gl8ww4d","sub04","04","8","iti","null","img/motor_4.png","70","motor","","","","","","",""
"561","802167","HierDy6gl8ww4d","sub04","04","8","motor","72","img/motor_5.png","72","motor","5","367","1","0","0","",""
"null","802279","HierDy6gl8ww4d","sub04","04","8","iti","null","img/motor_5.png","72","motor","","","","","","",""
"595","802885","HierDy6gl8ww4d","sub04","04","8","motor","70","img/motor_3.png","68","motor","3","368","0","1","0","",""
"335","803229","HierDy6gl8ww4d","sub04","04","8","motorRepeat","68","img/motor_3.png","68","motor","3","368","1","0","0","",""
"null","803341","HierDy6gl8ww4d","sub04","04","8","iti","null","img/motor_3.png","68","motor","","","","","","",""
