"rt","time_elapsed","subject","subID","group","day","trialType","phase","key_press","stim","stimNum","corrresp","hierarchy","trialNum","corr","responses"
"4579.299999982119","4581","HierDyo4ge752n","sub14","02","06","","","","","","","","","",""
"","6265","HierDyo4ge752n","sub14","02","06","fullscreen","","","","","","","","",""
"939.1999999880791","7206","HierDyo4ge752n","sub14","02","06","","prac","","","","","","","",""
"684.5999999940395","7894","HierDyo4ge752n","sub14","02","06","","","32","","","","","","",""
"1855.5","9751","HierDyo4ge752n","sub14","02","06","","prac","","","","","","","",""
"665","10418","HierDyo4ge752n","sub14","02","06","rl","test","72","img/o_t_check.png","5","72","color,shape,pattern","1","1",""
"null","11424","HierDyo4ge752n","sub14","02","06","feedback","test","null","","","na","","1","",""
"841.5999999940395","12267","HierDyo4ge752n","sub14","02","06","rl","test","70","img/p_d_diag.png","4","70","color,shape,pattern","2","1",""
"null","13271","HierDyo4ge752n","sub14","02","06","feedback","test","null","","","na","","2","",""
"568.0999999940395","13841","HierDyo4ge752n","sub14","02","06","rl","test","65","img/p_t_check.png","1","65","color,shape,pattern","3","1",""
"null","14847","HierDyo4ge752n","sub14","02","06","feedback","test","null","","","na","","3","",""
"658.8999999761581","15508","HierDyo4ge752n","sub14","02","06","rl","test","68","img/p_d_check.png","3","68","color,shape,pattern","4","1",""
"null","16511","HierDyo4ge752n","sub14","02","06","feedback","test","null","","","na","","4","",""
"862.5","17375","HierDyo4ge752n","sub14","02","06","rl","test","76","img/o_d_diag.png","8","76","color,shape,pattern","5","1",""
"null","18382","HierDyo4ge752n","sub14","02","06","feedback","test","null","","","na","","5","",""
"612.8000000119209","18996","HierDyo4ge752n","sub14","02","06","rl","test","74","img/o_t_diag.png","6","74","color,shape,pattern","6","1",""
"null","20002","HierDyo4ge752n","sub14","02","06","feedback","test","null","","","na","","6","",""
"1000.2000000178814","21004","HierDyo4ge752n","sub14","02","06","rl","test","83","img/p_t_diag.png","2","83","color,shape,pattern","7","1",""
"null","22006","HierDyo4ge752n","sub14","02","06","feedback","test","null","","","na","","7","",""
"778.9000000059605","22787","HierDyo4ge752n","sub14","02","06","rl","test","75","img/o_d_check.png","7","75","color,shape,pattern","8","1",""
"null","23791","HierDyo4ge752n","sub14","02","06","feedback","test","null","","","na","","8","",""
"804.4000000059605","24597","HierDyo4ge752n","sub14","02","06","rl","test","83","img/o_t_diag.png","6","74","color,shape,pattern","9","0",""
"null","25599","HierDyo4ge752n","sub14","02","06","feedback","test","null","","","na","","9","",""
"1734.300000011921","27335","HierDyo4ge752n","sub14","02","06","rl","test","72","img/p_t_check.png","1","65","color,shape,pattern","10","0",""
"null","28340","HierDyo4ge752n","sub14","02","06","feedback","test","null","","","na","","10","",""
"2226","30567","HierDyo4ge752n","sub14","02","06","rl","test","83","img/p_t_diag.png","2","83","color,shape,pattern","11","1",""
"null","31570","HierDyo4ge752n","sub14","02","06","feedback","test","null","","","na","","11","",""
"794","32365","HierDyo4ge752n","sub14","02","06","rl","test","72","img/o_t_check.png","5","72","color,shape,pattern","12","1",""
"null","33371","HierDyo4ge752n","sub14","02","06","feedback","test","null","","","na","","12","",""
"914.2000000178814","34287","HierDyo4ge752n","sub14","02","06","rl","test","83","img/p_t_diag.png","2","83","color,shape,pattern","13","1",""
"null","35293","HierDyo4ge752n","sub14","02","06","feedback","test","null","","","na","","13","",""
"1531.4000000059605","36826","HierDyo4ge752n","sub14","02","06","rl","test","70","img/p_d_diag.png","4","70","color,shape,pattern","14","1",""
"null","37830","HierDyo4ge752n","sub14","02","06","feedback","test","null","","","na","","14","",""
"1311.5","39142","HierDyo4ge752n","sub14","02","06","rl","test","75","img/o_d_check.png","7","75","color,shape,pattern","15","1",""
"null","40147","HierDyo4ge752n","sub14","02","06","feedback","test","null","","","na","","15","",""
"1285.0999999940395","41434","HierDyo4ge752n","sub14","02","06","rl","test","76","img/o_d_diag.png","8","76","color,shape,pattern","16","1",""
"null","42443","HierDyo4ge752n","sub14","02","06","feedback","test","null","","","na","","16","",""
"843","43287","HierDyo4ge752n","sub14","02","06","rl","test","68","img/p_d_check.png","3","68","color,shape,pattern","17","1",""
"null","44291","HierDyo4ge752n","sub14","02","06","feedback","test","null","","","na","","17","",""
"638.7999999821186","44931","HierDyo4ge752n","sub14","02","06","rl","test","68","img/p_d_check.png","3","68","color,shape,pattern","18","1",""
"null","45934","HierDyo4ge752n","sub14","02","06","feedback","test","null","","","na","","18","",""
"811.5999999940395","46746","HierDyo4ge752n","sub14","02","06","rl","test","70","img/p_d_diag.png","4","70","color,shape,pattern","19","1",""
"null","47751","HierDyo4ge752n","sub14","02","06","feedback","test","null","","","na","","19","",""
"868.0999999940395","48620","HierDyo4ge752n","sub14","02","06","rl","test","72","img/o_t_check.png","5","72","color,shape,pattern","20","1",""
"null","49626","HierDyo4ge752n","sub14","02","06","feedback","test","null","","","na","","20","",""
"673.6999999880791","50302","HierDyo4ge752n","sub14","02","06","rl","test","74","img/o_t_diag.png","6","74","color,shape,pattern","21","1",""
"null","51307","HierDyo4ge752n","sub14","02","06","feedback","test","null","","","na","","21","",""
"1399.199999988079","52708","HierDyo4ge752n","sub14","02","06","rl","test","76","img/o_d_diag.png","8","76","color,shape,pattern","22","1",""
"null","53713","HierDyo4ge752n","sub14","02","06","feedback","test","null","","","na","","22","",""
"614.2999999821186","54329","HierDyo4ge752n","sub14","02","06","rl","test","76","img/o_d_diag.png","8","76","color,shape,pattern","23","1",""
"null","55335","HierDyo4ge752n","sub14","02","06","feedback","test","null","","","na","","23","",""
"922.6999999880791","56259","HierDyo4ge752n","sub14","02","06","rl","test","65","img/p_t_check.png","1","65","color,shape,pattern","24","1",""
"null","57265","HierDyo4ge752n","sub14","02","06","feedback","test","null","","","na","","24","",""
"912.7999999821186","58180","HierDyo4ge752n","sub14","02","06","rl","test","75","img/o_d_check.png","7","75","color,shape,pattern","25","1",""
"null","59186","HierDyo4ge752n","sub14","02","06","feedback","test","null","","","na","","25","",""
"908.5999999940395","60096","HierDyo4ge752n","sub14","02","06","rl","test","65","img/p_t_check.png","1","65","color,shape,pattern","26","1",""
"null","61099","HierDyo4ge752n","sub14","02","06","feedback","test","null","","","na","","26","",""
"880.3000000119209","61982","HierDyo4ge752n","sub14","02","06","rl","test","83","img/p_t_diag.png","2","83","color,shape,pattern","27","1",""
"null","62988","HierDyo4ge752n","sub14","02","06","feedback","test","null","","","na","","27","",""
"780","63769","HierDyo4ge752n","sub14","02","06","rl","test","68","img/o_d_check.png","7","75","color,shape,pattern","28","0",""
"null","64772","HierDyo4ge752n","sub14","02","06","feedback","test","null","","","na","","28","",""
"626.7000000178814","65400","HierDyo4ge752n","sub14","02","06","rl","test","74","img/o_t_diag.png","6","74","color,shape,pattern","29","1",""
"null","66404","HierDyo4ge752n","sub14","02","06","feedback","test","null","","","na","","29","",""
"1078","67483","HierDyo4ge752n","sub14","02","06","rl","test","68","img/p_d_check.png","3","68","color,shape,pattern","30","1",""
"null","68487","HierDyo4ge752n","sub14","02","06","feedback","test","null","","","na","","30","",""
"608.5","69097","HierDyo4ge752n","sub14","02","06","rl","test","74","img/o_t_check.png","5","72","color,shape,pattern","31","0",""
"null","70101","HierDyo4ge752n","sub14","02","06","feedback","test","null","","","na","","31","",""
"887.4000000059605","70990","HierDyo4ge752n","sub14","02","06","rl","test","70","img/p_d_diag.png","4","70","color,shape,pattern","32","1",""
"null","71996","HierDyo4ge752n","sub14","02","06","feedback","test","null","","","na","","32","",""
"877","72875","HierDyo4ge752n","sub14","02","06","rl","test","76","img/o_d_diag.png","8","76","color,shape,pattern","33","1",""
"null","73880","HierDyo4ge752n","sub14","02","06","feedback","test","null","","","na","","33","",""
"763.5","74645","HierDyo4ge752n","sub14","02","06","rl","test","83","img/p_t_diag.png","2","83","color,shape,pattern","34","1",""
"null","75651","HierDyo4ge752n","sub14","02","06","feedback","test","null","","","na","","34","",""
"734.1999999880791","76387","HierDyo4ge752n","sub14","02","06","rl","test","65","img/p_t_check.png","1","65","color,shape,pattern","35","1",""
"null","77392","HierDyo4ge752n","sub14","02","06","feedback","test","null","","","na","","35","",""
"848.4000000059605","78241","HierDyo4ge752n","sub14","02","06","rl","test","68","img/p_d_check.png","3","68","color,shape,pattern","36","1",""
"null","79246","HierDyo4ge752n","sub14","02","06","feedback","test","null","","","na","","36","",""
"755","80002","HierDyo4ge752n","sub14","02","06","rl","test","70","img/p_d_diag.png","4","70","color,shape,pattern","37","1",""
"null","81005","HierDyo4ge752n","sub14","02","06","feedback","test","null","","","na","","37","",""
"843.5999999940395","81850","HierDyo4ge752n","sub14","02","06","rl","test","70","img/p_d_diag.png","4","70","color,shape,pattern","38","1",""
"null","82856","HierDyo4ge752n","sub14","02","06","feedback","test","null","","","na","","38","",""
"709.3000000119209","83567","HierDyo4ge752n","sub14","02","06","rl","test","75","img/o_d_check.png","7","75","color,shape,pattern","39","1",""
"null","84570","HierDyo4ge752n","sub14","02","06","feedback","test","null","","","na","","39","",""
"980.5","85551","HierDyo4ge752n","sub14","02","06","rl","test","68","img/p_d_check.png","3","68","color,shape,pattern","40","1",""
"null","86556","HierDyo4ge752n","sub14","02","06","feedback","test","null","","","na","","40","",""
"1009.2999999821186","87567","HierDyo4ge752n","sub14","02","06","rl","test","72","img/o_t_check.png","5","72","color,shape,pattern","41","1",""
"null","88571","HierDyo4ge752n","sub14","02","06","feedback","test","null","","","na","","41","",""
"741.1999999880791","89313","HierDyo4ge752n","sub14","02","06","rl","test","75","img/o_d_check.png","7","75","color,shape,pattern","42","1",""
"null","90317","HierDyo4ge752n","sub14","02","06","feedback","test","null","","","na","","42","",""
"609.6999999880791","90928","HierDyo4ge752n","sub14","02","06","rl","test","74","img/o_t_diag.png","6","74","color,shape,pattern","43","1",""
"null","91933","HierDyo4ge752n","sub14","02","06","feedback","test","null","","","na","","43","",""
"686.5999999940395","92620","HierDyo4ge752n","sub14","02","06","rl","test","74","img/o_t_diag.png","6","74","color,shape,pattern","44","1",""
"null","93625","HierDyo4ge752n","sub14","02","06","feedback","test","null","","","na","","44","",""
"655.0999999940395","94281","HierDyo4ge752n","sub14","02","06","rl","test","76","img/o_d_diag.png","8","76","color,shape,pattern","45","1",""
"null","95287","HierDyo4ge752n","sub14","02","06","feedback","test","null","","","na","","45","",""
"758.4000000059605","96047","HierDyo4ge752n","sub14","02","06","rl","test","74","img/o_t_diag.png","6","74","color,shape,pattern","46","1",""
"null","97054","HierDyo4ge752n","sub14","02","06","feedback","test","null","","","na","","46","",""
"638.5","97694","HierDyo4ge752n","sub14","02","06","rl","test","72","img/o_t_check.png","5","72","color,shape,pattern","47","1",""
"null","98696","HierDyo4ge752n","sub14","02","06","feedback","test","null","","","na","","47","",""
"768.3000000119209","99465","HierDyo4ge752n","sub14","02","06","rl","test","83","img/p_t_diag.png","2","83","color,shape,pattern","48","1",""
"null","100471","HierDyo4ge752n","sub14","02","06","feedback","test","null","","","na","","48","",""
"726.4000000059605","101199","HierDyo4ge752n","sub14","02","06","rl","test","68","img/p_d_check.png","3","68","color,shape,pattern","49","1",""
"null","102202","HierDyo4ge752n","sub14","02","06","feedback","test","null","","","na","","49","",""
"738.9000000059605","102942","HierDyo4ge752n","sub14","02","06","rl","test","65","img/p_t_check.png","1","65","color,shape,pattern","50","1",""
"null","103946","HierDyo4ge752n","sub14","02","06","feedback","test","null","","","na","","50","",""
"716.5999999940395","104664","HierDyo4ge752n","sub14","02","06","rl","test","83","img/p_t_diag.png","2","83","color,shape,pattern","51","1",""
"null","105664","HierDyo4ge752n","sub14","02","06","feedback","test","null","","","na","","51","",""
"666.6999999880791","106332","HierDyo4ge752n","sub14","02","06","rl","test","65","img/p_t_check.png","1","65","color,shape,pattern","52","1",""
"null","107337","HierDyo4ge752n","sub14","02","06","feedback","test","null","","","na","","52","",""
"700.8000000119209","108039","HierDyo4ge752n","sub14","02","06","rl","test","70","img/p_d_diag.png","4","70","color,shape,pattern","53","1",""
"null","109041","HierDyo4ge752n","sub14","02","06","feedback","test","null","","","na","","53","",""
"698.8999999761581","109742","HierDyo4ge752n","sub14","02","06","rl","test","74","img/o_t_diag.png","6","74","color,shape,pattern","54","1",""
"null","110748","HierDyo4ge752n","sub14","02","06","feedback","test","null","","","na","","54","",""
"677.0999999940395","111426","HierDyo4ge752n","sub14","02","06","rl","test","75","img/o_d_check.png","7","75","color,shape,pattern","55","1",""
"null","112432","HierDyo4ge752n","sub14","02","06","feedback","test","null","","","na","","55","",""
"843.1999999880791","113276","HierDyo4ge752n","sub14","02","06","rl","test","72","img/o_t_check.png","5","72","color,shape,pattern","56","1",""
"null","114279","HierDyo4ge752n","sub14","02","06","feedback","test","null","","","na","","56","",""
"711.3000000119209","114991","HierDyo4ge752n","sub14","02","06","rl","test","76","img/o_d_diag.png","8","76","color,shape,pattern","57","1",""
"null","115992","HierDyo4ge752n","sub14","02","06","feedback","test","null","","","na","","57","",""
"600.5","116593","HierDyo4ge752n","sub14","02","06","rl","test","83","img/p_t_diag.png","2","83","color,shape,pattern","58","1",""
"null","117597","HierDyo4ge752n","sub14","02","06","feedback","test","null","","","na","","58","",""
"1615.300000011921","119214","HierDyo4ge752n","sub14","02","06","rl","test","75","img/o_d_check.png","7","75","color,shape,pattern","59","1",""
"null","120224","HierDyo4ge752n","sub14","02","06","feedback","test","null","","","na","","59","",""
"793.8000000119209","121019","HierDyo4ge752n","sub14","02","06","rl","test","72","img/o_t_check.png","5","72","color,shape,pattern","60","1",""
"null","122023","HierDyo4ge752n","sub14","02","06","feedback","test","null","","","na","","60","",""
"721.9000000059605","122746","HierDyo4ge752n","sub14","02","06","rl","test","70","img/p_d_diag.png","4","70","color,shape,pattern","61","1",""
"null","123750","HierDyo4ge752n","sub14","02","06","feedback","test","null","","","na","","61","",""
"990.9000000059605","124743","HierDyo4ge752n","sub14","02","06","rl","test","76","img/o_d_diag.png","8","76","color,shape,pattern","62","1",""
"null","125750","HierDyo4ge752n","sub14","02","06","feedback","test","null","","","na","","62","",""
"660.6000000238419","126412","HierDyo4ge752n","sub14","02","06","rl","test","65","img/p_t_check.png","1","65","color,shape,pattern","63","1",""
"null","127419","HierDyo4ge752n","sub14","02","06","feedback","test","null","","","na","","63","",""
"742","128163","HierDyo4ge752n","sub14","02","06","rl","test","68","img/p_d_check.png","3","68","color,shape,pattern","64","1",""
"null","129169","HierDyo4ge752n","sub14","02","06","feedback","test","null","","","na","","64","",""
"992.7000000178814","130163","HierDyo4ge752n","sub14","02","06","rl","test","76","img/o_d_diag.png","8","76","color,shape,pattern","65","1",""
"null","131168","HierDyo4ge752n","sub14","02","06","feedback","test","null","","","na","","65","",""
"675.1999999880791","131844","HierDyo4ge752n","sub14","02","06","rl","test","68","img/p_d_check.png","3","68","color,shape,pattern","66","1",""
"null","132849","HierDyo4ge752n","sub14","02","06","feedback","test","null","","","na","","66","",""
"588.8000000119209","133439","HierDyo4ge752n","sub14","02","06","rl","test","74","img/o_t_diag.png","6","74","color,shape,pattern","67","1",""
"null","134446","HierDyo4ge752n","sub14","02","06","feedback","test","null","","","na","","67","",""
"632.1000000238419","135079","HierDyo4ge752n","sub14","02","06","rl","test","83","img/p_t_diag.png","2","83","color,shape,pattern","68","1",""
"null","136086","HierDyo4ge752n","sub14","02","06","feedback","test","null","","","na","","68","",""
"617.7000000178814","136706","HierDyo4ge752n","sub14","02","06","rl","test","65","img/p_t_check.png","1","65","color,shape,pattern","69","1",""
"null","137710","HierDyo4ge752n","sub14","02","06","feedback","test","null","","","na","","69","",""
"785.1999999880791","138496","HierDyo4ge752n","sub14","02","06","rl","test","70","img/p_d_diag.png","4","70","color,shape,pattern","70","1",""
"null","139499","HierDyo4ge752n","sub14","02","06","feedback","test","null","","","na","","70","",""
"651.5999999940395","140152","HierDyo4ge752n","sub14","02","06","rl","test","75","img/o_d_check.png","7","75","color,shape,pattern","71","1",""
"null","141156","HierDyo4ge752n","sub14","02","06","feedback","test","null","","","na","","71","",""
"983.1999999880791","142140","HierDyo4ge752n","sub14","02","06","rl","test","76","img/o_d_diag.png","8","76","color,shape,pattern","72","1",""
"null","143145","HierDyo4ge752n","sub14","02","06","feedback","test","null","","","na","","72","",""
"601.1999999880791","143748","HierDyo4ge752n","sub14","02","06","rl","test","83","img/p_t_diag.png","2","83","color,shape,pattern","73","1",""
"null","144750","HierDyo4ge752n","sub14","02","06","feedback","test","null","","","na","","73","",""
"585.1999999880791","145337","HierDyo4ge752n","sub14","02","06","rl","test","72","img/o_t_check.png","5","72","color,shape,pattern","74","1",""
"null","146339","HierDyo4ge752n","sub14","02","06","feedback","test","null","","","na","","74","",""
"496.7999999821186","146838","HierDyo4ge752n","sub14","02","06","rl","test","72","img/o_t_check.png","5","72","color,shape,pattern","75","1",""
"null","147841","HierDyo4ge752n","sub14","02","06","feedback","test","null","","","na","","75","",""
"1202.4000000059605","149044","HierDyo4ge752n","sub14","02","06","rl","test","65","img/p_t_check.png","1","65","color,shape,pattern","76","1",""
"null","150049","HierDyo4ge752n","sub14","02","06","feedback","test","null","","","na","","76","",""
"673.3000000119209","150724","HierDyo4ge752n","sub14","02","06","rl","test","74","img/o_t_diag.png","6","74","color,shape,pattern","77","1",""
"null","151728","HierDyo4ge752n","sub14","02","06","feedback","test","null","","","na","","77","",""
"1632.2000000178814","153361","HierDyo4ge752n","sub14","02","06","rl","test","70","img/p_d_diag.png","4","70","color,shape,pattern","78","1",""
"null","154364","HierDyo4ge752n","sub14","02","06","feedback","test","null","","","na","","78","",""
"771.2999999821186","155136","HierDyo4ge752n","sub14","02","06","rl","test","68","img/p_d_check.png","3","68","color,shape,pattern","79","1",""
"null","156144","HierDyo4ge752n","sub14","02","06","feedback","test","null","","","na","","79","",""
"634.9000000059605","156780","HierDyo4ge752n","sub14","02","06","rl","test","72","img/o_t_check.png","5","72","color,shape,pattern","80","1",""
"null","157781","HierDyo4ge752n","sub14","02","06","feedback","test","null","","","na","","80","",""
"714.1000000238419","158496","HierDyo4ge752n","sub14","02","06","rl","test","75","img/o_d_check.png","7","75","color,shape,pattern","81","1",""
"null","159500","HierDyo4ge752n","sub14","02","06","feedback","test","null","","","na","","81","",""
"873","160374","HierDyo4ge752n","sub14","02","06","rl","test","70","img/p_d_diag.png","4","70","color,shape,pattern","82","1",""
"null","161376","HierDyo4ge752n","sub14","02","06","feedback","test","null","","","na","","82","",""
"635.7999999821186","162014","HierDyo4ge752n","sub14","02","06","rl","test","74","img/o_t_diag.png","6","74","color,shape,pattern","83","1",""
"null","163016","HierDyo4ge752n","sub14","02","06","feedback","test","null","","","na","","83","",""
"576.7999999821186","163595","HierDyo4ge752n","sub14","02","06","rl","test","75","img/o_d_check.png","7","75","color,shape,pattern","84","1",""
"null","164602","HierDyo4ge752n","sub14","02","06","feedback","test","null","","","na","","84","",""
"585.4000000059605","165189","HierDyo4ge752n","sub14","02","06","rl","test","83","img/p_t_diag.png","2","83","color,shape,pattern","85","1",""
"null","166195","HierDyo4ge752n","sub14","02","06","feedback","test","null","","","na","","85","",""
"1176.0999999940395","167373","HierDyo4ge752n","sub14","02","06","rl","test","76","img/o_d_diag.png","8","76","color,shape,pattern","86","1",""
"null","168375","HierDyo4ge752n","sub14","02","06","feedback","test","null","","","na","","86","",""
"687.9000000059605","169064","HierDyo4ge752n","sub14","02","06","rl","test","65","img/p_t_check.png","1","65","color,shape,pattern","87","1",""
"null","170065","HierDyo4ge752n","sub14","02","06","feedback","test","null","","","na","","87","",""
"755.0999999940395","170821","HierDyo4ge752n","sub14","02","06","rl","test","68","img/p_d_check.png","3","68","color,shape,pattern","88","1",""
"null","171824","HierDyo4ge752n","sub14","02","06","feedback","test","null","","","na","","88","",""
"1059.6000000238419","172884","HierDyo4ge752n","sub14","02","06","rl","test","65","img/p_t_check.png","1","65","color,shape,pattern","89","1",""
"null","173889","HierDyo4ge752n","sub14","02","06","feedback","test","null","","","na","","89","",""
"919.5999999940395","174813","HierDyo4ge752n","sub14","02","06","rl","test","70","img/p_d_diag.png","4","70","color,shape,pattern","90","1",""
"null","175821","HierDyo4ge752n","sub14","02","06","feedback","test","null","","","na","","90","",""
"630.1999999880791","176454","HierDyo4ge752n","sub14","02","06","rl","test","83","img/p_t_diag.png","2","83","color,shape,pattern","91","1",""
"null","177456","HierDyo4ge752n","sub14","02","06","feedback","test","null","","","na","","91","",""
"687.1000000238419","178145","HierDyo4ge752n","sub14","02","06","rl","test","83","img/p_t_diag.png","2","83","color,shape,pattern","92","1",""
"null","179149","HierDyo4ge752n","sub14","02","06","feedback","test","null","","","na","","92","",""
"735.6000000238419","179886","HierDyo4ge752n","sub14","02","06","rl","test","76","img/o_d_diag.png","8","76","color,shape,pattern","93","1",""
"null","180889","HierDyo4ge752n","sub14","02","06","feedback","test","null","","","na","","93","",""
"512","181401","HierDyo4ge752n","sub14","02","06","rl","test","74","img/o_t_diag.png","6","74","color,shape,pattern","94","1",""
"null","182407","HierDyo4ge752n","sub14","02","06","feedback","test","null","","","na","","94","",""
"664.1999999880791","183073","HierDyo4ge752n","sub14","02","06","rl","test","72","img/o_t_check.png","5","72","color,shape,pattern","95","1",""
"null","184079","HierDyo4ge752n","sub14","02","06","feedback","test","null","","","na","","95","",""
"467.09999999403954","184548","HierDyo4ge752n","sub14","02","06","rl","test","74","img/o_t_diag.png","6","74","color,shape,pattern","96","1",""
"null","185553","HierDyo4ge752n","sub14","02","06","feedback","test","null","","","na","","96","",""
"672.7000000178814","186228","HierDyo4ge752n","sub14","02","06","rl","test","75","img/o_d_check.png","7","75","color,shape,pattern","97","1",""
"null","187235","HierDyo4ge752n","sub14","02","06","feedback","test","null","","","na","","97","",""
"654.6000000238419","187891","HierDyo4ge752n","sub14","02","06","rl","test","76","img/o_d_diag.png","8","76","color,shape,pattern","98","1",""
"null","188896","HierDyo4ge752n","sub14","02","06","feedback","test","null","","","na","","98","",""
"765.8000000119209","189664","HierDyo4ge752n","sub14","02","06","rl","test","68","img/p_d_check.png","3","68","color,shape,pattern","99","1",""
"null","190668","HierDyo4ge752n","sub14","02","06","feedback","test","null","","","na","","99","",""
"513.1999999880791","191182","HierDyo4ge752n","sub14","02","06","rl","test","68","img/p_d_check.png","3","68","color,shape,pattern","100","1",""
"null","192187","HierDyo4ge752n","sub14","02","06","feedback","test","null","","","na","","100","",""
"609.5","192798","HierDyo4ge752n","sub14","02","06","rl","test","75","img/o_d_check.png","7","75","color,shape,pattern","101","1",""
"null","193800","HierDyo4ge752n","sub14","02","06","feedback","test","null","","","na","","101","",""
"730","194531","HierDyo4ge752n","sub14","02","06","rl","test","72","img/o_t_check.png","5","72","color,shape,pattern","102","1",""
"null","195537","HierDyo4ge752n","sub14","02","06","feedback","test","null","","","na","","102","",""
"602.5","196141","HierDyo4ge752n","sub14","02","06","rl","test","65","img/p_t_check.png","1","65","color,shape,pattern","103","1",""
"null","197142","HierDyo4ge752n","sub14","02","06","feedback","test","null","","","na","","103","",""
"818.4000000059605","197962","HierDyo4ge752n","sub14","02","06","rl","test","75","img/o_d_check.png","7","75","color,shape,pattern","104","1",""
"null","198967","HierDyo4ge752n","sub14","02","06","feedback","test","null","","","na","","104","",""
"902.3000000119209","199871","HierDyo4ge752n","sub14","02","06","rl","test","70","img/p_d_diag.png","4","70","color,shape,pattern","105","1",""
"null","200876","HierDyo4ge752n","sub14","02","06","feedback","test","null","","","na","","105","",""
"558.9000000059605","201436","HierDyo4ge752n","sub14","02","06","rl","test","74","img/o_t_diag.png","6","74","color,shape,pattern","106","1",""
"null","202438","HierDyo4ge752n","sub14","02","06","feedback","test","null","","","na","","106","",""
"636.8000000119209","203076","HierDyo4ge752n","sub14","02","06","rl","test","83","img/p_t_diag.png","2","83","color,shape,pattern","107","1",""
"null","204079","HierDyo4ge752n","sub14","02","06","feedback","test","null","","","na","","107","",""
"618.0999999940395","204698","HierDyo4ge752n","sub14","02","06","rl","test","65","img/p_t_check.png","1","65","color,shape,pattern","108","1",""
"null","205703","HierDyo4ge752n","sub14","02","06","feedback","test","null","","","na","","108","",""
"673.4000000059605","206378","HierDyo4ge752n","sub14","02","06","rl","test","70","img/p_d_diag.png","4","70","color,shape,pattern","109","1",""
"null","207381","HierDyo4ge752n","sub14","02","06","feedback","test","null","","","na","","109","",""
"686.8000000119209","208071","HierDyo4ge752n","sub14","02","06","rl","test","72","img/o_t_check.png","5","72","color,shape,pattern","110","1",""
"null","209074","HierDyo4ge752n","sub14","02","06","feedback","test","null","","","na","","110","",""
"1039","210115","HierDyo4ge752n","sub14","02","06","rl","test","76","img/o_d_diag.png","8","76","color,shape,pattern","111","1",""
"null","211120","HierDyo4ge752n","sub14","02","06","feedback","test","null","","","na","","111","",""
"965.2999999821186","212087","HierDyo4ge752n","sub14","02","06","rl","test","70","img/p_d_check.png","3","68","color,shape,pattern","112","0",""
"null","213095","HierDyo4ge752n","sub14","02","06","feedback","test","null","","","na","","112","",""
"610.6999999880791","213707","HierDyo4ge752n","sub14","02","06","rl","test","72","img/o_t_check.png","5","72","color,shape,pattern","113","1",""
"null","214711","HierDyo4ge752n","sub14","02","06","feedback","test","null","","","na","","113","",""
"628.5","215341","HierDyo4ge752n","sub14","02","06","rl","test","68","img/p_d_check.png","3","68","color,shape,pattern","114","1",""
"null","216343","HierDyo4ge752n","sub14","02","06","feedback","test","null","","","na","","114","",""
"653.2999999821186","216998","HierDyo4ge752n","sub14","02","06","rl","test","74","img/o_t_diag.png","6","74","color,shape,pattern","115","1",""
"null","218003","HierDyo4ge752n","sub14","02","06","feedback","test","null","","","na","","115","",""
"617.5999999940395","218622","HierDyo4ge752n","sub14","02","06","rl","test","76","img/o_d_diag.png","8","76","color,shape,pattern","116","1",""
"null","219624","HierDyo4ge752n","sub14","02","06","feedback","test","null","","","na","","116","",""
"636.5","220262","HierDyo4ge752n","sub14","02","06","rl","test","83","img/p_t_diag.png","2","83","color,shape,pattern","117","1",""
"null","221269","HierDyo4ge752n","sub14","02","06","feedback","test","null","","","na","","117","",""
"569.8000000119209","221839","HierDyo4ge752n","sub14","02","06","rl","test","68","img/o_d_check.png","7","75","color,shape,pattern","118","0",""
"null","222840","HierDyo4ge752n","sub14","02","06","feedback","test","null","","","na","","118","",""
"597.1999999880791","223438","HierDyo4ge752n","sub14","02","06","rl","test","72","img/o_t_check.png","5","72","color,shape,pattern","119","1",""
"null","224443","HierDyo4ge752n","sub14","02","06","feedback","test","null","","","na","","119","",""
"769.8000000119209","225214","HierDyo4ge752n","sub14","02","06","rl","test","70","img/p_d_diag.png","4","70","color,shape,pattern","120","1",""
"null","226218","HierDyo4ge752n","sub14","02","06","feedback","test","null","","","na","","120","",""
"1379.7999999821186","227600","HierDyo4ge752n","sub14","02","06","rl","test","65","img/p_t_check.png","1","65","color,shape,pattern","121","1",""
"null","228602","HierDyo4ge752n","sub14","02","06","feedback","test","null","","","na","","121","",""
"816.7000000178814","229420","HierDyo4ge752n","sub14","02","06","rl","test","65","img/p_t_check.png","1","65","color,shape,pattern","122","1",""
"null","230427","HierDyo4ge752n","sub14","02","06","feedback","test","null","","","na","","122","",""
"757.8000000119209","231186","HierDyo4ge752n","sub14","02","06","rl","test","70","img/p_d_diag.png","4","70","color,shape,pattern","123","1",""
"null","232193","HierDyo4ge752n","sub14","02","06","feedback","test","null","","","na","","123","",""
"777.7999999821186","232973","HierDyo4ge752n","sub14","02","06","rl","test","76","img/o_d_diag.png","8","76","color,shape,pattern","124","1",""
"null","233979","HierDyo4ge752n","sub14","02","06","feedback","test","null","","","na","","124","",""
"780.8000000119209","234760","HierDyo4ge752n","sub14","02","06","rl","test","75","img/o_d_check.png","7","75","color,shape,pattern","125","1",""
"null","235764","HierDyo4ge752n","sub14","02","06","feedback","test","null","","","na","","125","",""
"713.5999999940395","236479","HierDyo4ge752n","sub14","02","06","rl","test","83","img/p_t_diag.png","2","83","color,shape,pattern","126","1",""
"null","237486","HierDyo4ge752n","sub14","02","06","feedback","test","null","","","na","","126","",""
"740.6999999880791","238229","HierDyo4ge752n","sub14","02","06","rl","test","74","img/o_t_diag.png","6","74","color,shape,pattern","127","1",""
"null","239235","HierDyo4ge752n","sub14","02","06","feedback","test","null","","","na","","127","",""
"714.5999999940395","239951","HierDyo4ge752n","sub14","02","06","rl","test","68","img/p_d_check.png","3","68","color,shape,pattern","128","1",""
"null","240957","HierDyo4ge752n","sub14","02","06","feedback","test","null","","","na","","128","",""
"603.0999999940395","241561","HierDyo4ge752n","sub14","02","06","rl","test","68","img/p_d_check.png","3","68","color,shape,pattern","129","1",""
"null","242566","HierDyo4ge752n","sub14","02","06","feedback","test","null","","","na","","129","",""
"703","243270","HierDyo4ge752n","sub14","02","06","rl","test","76","img/o_d_diag.png","8","76","color,shape,pattern","130","1",""
"null","244272","HierDyo4ge752n","sub14","02","06","feedback","test","null","","","na","","130","",""
"633","244907","HierDyo4ge752n","sub14","02","06","rl","test","74","img/o_t_diag.png","6","74","color,shape,pattern","131","1",""
"null","245912","HierDyo4ge752n","sub14","02","06","feedback","test","null","","","na","","131","",""
"581.0999999940395","246494","HierDyo4ge752n","sub14","02","06","rl","test","72","img/o_t_check.png","5","72","color,shape,pattern","132","1",""
"null","247497","HierDyo4ge752n","sub14","02","06","feedback","test","null","","","na","","132","",""
"630.6000000238419","248128","HierDyo4ge752n","sub14","02","06","rl","test","65","img/p_t_check.png","1","65","color,shape,pattern","133","1",""
"null","249136","HierDyo4ge752n","sub14","02","06","feedback","test","null","","","na","","133","",""
"1347.9000000059605","250485","HierDyo4ge752n","sub14","02","06","rl","test","75","img/o_d_check.png","7","75","color,shape,pattern","134","1",""
"null","251488","HierDyo4ge752n","sub14","02","06","feedback","test","null","","","na","","134","",""
"766.7000000178814","252256","HierDyo4ge752n","sub14","02","06","rl","test","65","img/p_t_check.png","1","65","color,shape,pattern","135","1",""
"null","253260","HierDyo4ge752n","sub14","02","06","feedback","test","null","","","na","","135","",""
"736","253998","HierDyo4ge752n","sub14","02","06","rl","test","83","img/p_t_diag.png","2","83","color,shape,pattern","136","1",""
"null","255003","HierDyo4ge752n","sub14","02","06","feedback","test","null","","","na","","136","",""
"1168.2000000178814","256173","HierDyo4ge752n","sub14","02","06","rl","test","70","img/p_d_diag.png","4","70","color,shape,pattern","137","1",""
"null","257175","HierDyo4ge752n","sub14","02","06","feedback","test","null","","","na","","137","",""
"868.7999999821186","258046","HierDyo4ge752n","sub14","02","06","rl","test","75","img/o_d_check.png","7","75","color,shape,pattern","138","1",""
"null","259055","HierDyo4ge752n","sub14","02","06","feedback","test","null","","","na","","138","",""
"785.9000000059605","259842","HierDyo4ge752n","sub14","02","06","rl","test","70","img/p_d_diag.png","4","70","color,shape,pattern","139","1",""
"null","260846","HierDyo4ge752n","sub14","02","06","feedback","test","null","","","na","","139","",""
"748.9000000059605","261596","HierDyo4ge752n","sub14","02","06","rl","test","72","img/o_t_check.png","5","72","color,shape,pattern","140","1",""
"null","262598","HierDyo4ge752n","sub14","02","06","feedback","test","null","","","na","","140","",""
"685.1999999880791","263284","HierDyo4ge752n","sub14","02","06","rl","test","68","img/p_d_check.png","3","68","color,shape,pattern","141","1",""
"null","264289","HierDyo4ge752n","sub14","02","06","feedback","test","null","","","na","","141","",""
"749.4000000059605","265040","HierDyo4ge752n","sub14","02","06","rl","test","83","img/p_t_diag.png","2","83","color,shape,pattern","142","1",""
"null","266043","HierDyo4ge752n","sub14","02","06","feedback","test","null","","","na","","142","",""
"687.2000000178814","266732","HierDyo4ge752n","sub14","02","06","rl","test","76","img/o_d_diag.png","8","76","color,shape,pattern","143","1",""
"null","267733","HierDyo4ge752n","sub14","02","06","feedback","test","null","","","na","","143","",""
"632.9000000059605","268367","HierDyo4ge752n","sub14","02","06","rl","test","68","img/p_d_check.png","3","68","color,shape,pattern","144","1",""
"null","269368","HierDyo4ge752n","sub14","02","06","feedback","test","null","","","na","","144","",""
"578.9000000059605","269947","HierDyo4ge752n","sub14","02","06","rl","test","75","img/o_d_check.png","7","75","color,shape,pattern","145","1",""
"null","270951","HierDyo4ge752n","sub14","02","06","feedback","test","null","","","na","","145","",""
"1071","272023","HierDyo4ge752n","sub14","02","06","rl","test","74","img/o_t_diag.png","6","74","color,shape,pattern","146","1",""
"null","273028","HierDyo4ge752n","sub14","02","06","feedback","test","null","","","na","","146","",""
"702.5","273732","HierDyo4ge752n","sub14","02","06","rl","test","83","img/p_t_diag.png","2","83","color,shape,pattern","147","1",""
"null","274736","HierDyo4ge752n","sub14","02","06","feedback","test","null","","","na","","147","",""
"1111.4000000059605","275849","HierDyo4ge752n","sub14","02","06","rl","test","72","img/o_t_check.png","5","72","color,shape,pattern","148","1",""
"null","276851","HierDyo4ge752n","sub14","02","06","feedback","test","null","","","na","","148","",""
"722.5999999940395","277576","HierDyo4ge752n","sub14","02","06","rl","test","74","img/o_t_diag.png","6","74","color,shape,pattern","149","1",""
"null","278579","HierDyo4ge752n","sub14","02","06","feedback","test","null","","","na","","149","",""
"960.5999999940395","279541","HierDyo4ge752n","sub14","02","06","rl","test","65","img/p_t_check.png","1","65","color,shape,pattern","150","1",""
"null","280542","HierDyo4ge752n","sub14","02","06","feedback","test","null","","","na","","150","",""
"588.6999999880791","281131","HierDyo4ge752n","sub14","02","06","rl","test","65","img/p_t_check.png","1","65","color,shape,pattern","151","1",""
"null","282138","HierDyo4ge752n","sub14","02","06","feedback","test","null","","","na","","151","",""
"1125.6000000238419","283264","HierDyo4ge752n","sub14","02","06","rl","test","76","img/o_d_diag.png","8","76","color,shape,pattern","152","1",""
"null","284269","HierDyo4ge752n","sub14","02","06","feedback","test","null","","","na","","152","",""
"1345.5","285616","HierDyo4ge752n","sub14","02","06","rl","test","68","img/p_d_diag.png","4","70","color,shape,pattern","153","0",""
"null","286619","HierDyo4ge752n","sub14","02","06","feedback","test","null","","","na","","153","",""
"646.4000000059605","287267","HierDyo4ge752n","sub14","02","06","rl","test","74","img/o_t_diag.png","6","74","color,shape,pattern","154","1",""
"null","288269","HierDyo4ge752n","sub14","02","06","feedback","test","null","","","na","","154","",""
"914.1999999880791","289185","HierDyo4ge752n","sub14","02","06","rl","test","75","img/o_d_check.png","7","75","color,shape,pattern","155","1",""
"null","290186","HierDyo4ge752n","sub14","02","06","feedback","test","null","","","na","","155","",""
"737.0999999940395","290924","HierDyo4ge752n","sub14","02","06","rl","test","68","img/p_d_check.png","3","68","color,shape,pattern","156","1",""
"null","291927","HierDyo4ge752n","sub14","02","06","feedback","test","null","","","na","","156","",""
"630.5","292558","HierDyo4ge752n","sub14","02","06","rl","test","70","img/p_d_diag.png","4","70","color,shape,pattern","157","1",""
"null","293565","HierDyo4ge752n","sub14","02","06","feedback","test","null","","","na","","157","",""
"786.0999999940395","294353","HierDyo4ge752n","sub14","02","06","rl","test","76","img/o_d_diag.png","8","76","color,shape,pattern","158","1",""
"null","295359","HierDyo4ge752n","sub14","02","06","feedback","test","null","","","na","","158","",""
"547.3000000119209","295908","HierDyo4ge752n","sub14","02","06","rl","test","72","img/o_t_check.png","5","72","color,shape,pattern","159","1",""
"null","296910","HierDyo4ge752n","sub14","02","06","feedback","test","null","","","na","","159","",""
"628.6999999880791","297540","HierDyo4ge752n","sub14","02","06","rl","test","72","img/o_t_check.png","5","72","color,shape,pattern","160","1",""
"null","298545","HierDyo4ge752n","sub14","02","06","feedback","test","null","","","na","","160","",""
"989.2000000178814","299536","HierDyo4ge752n","sub14","02","06","rl","test","83","img/p_t_diag.png","2","83","color,shape,pattern","161","1",""
"null","300540","HierDyo4ge752n","sub14","02","06","feedback","test","null","","","na","","161","",""
"718.5999999940395","301260","HierDyo4ge752n","sub14","02","06","rl","test","75","img/o_d_check.png","7","75","color,shape,pattern","162","1",""
"null","302261","HierDyo4ge752n","sub14","02","06","feedback","test","null","","","na","","162","",""
"891.5","303154","HierDyo4ge752n","sub14","02","06","rl","test","83","img/p_t_diag.png","2","83","color,shape,pattern","163","1",""
"null","304156","HierDyo4ge752n","sub14","02","06","feedback","test","null","","","na","","163","",""
"932","305090","HierDyo4ge752n","sub14","02","06","rl","test","68","img/p_d_check.png","3","68","color,shape,pattern","164","1",""
"null","306096","HierDyo4ge752n","sub14","02","06","feedback","test","null","","","na","","164","",""
"553.6999999880791","306652","HierDyo4ge752n","sub14","02","06","rl","test","74","img/o_t_diag.png","6","74","color,shape,pattern","165","1",""
"null","307655","HierDyo4ge752n","sub14","02","06","feedback","test","null","","","na","","165","",""
"1638.5999999940395","309294","HierDyo4ge752n","sub14","02","06","rl","test","65","img/p_t_check.png","1","65","color,shape,pattern","166","1",""
"null","310300","HierDyo4ge752n","sub14","02","06","feedback","test","null","","","na","","166","",""
"936.3000000119209","311240","HierDyo4ge752n","sub14","02","06","rl","test","70","img/p_d_diag.png","4","70","color,shape,pattern","167","1",""
"null","312242","HierDyo4ge752n","sub14","02","06","feedback","test","null","","","na","","167","",""
"526.5","312770","HierDyo4ge752n","sub14","02","06","rl","test","70","img/p_d_diag.png","4","70","color,shape,pattern","168","1",""
"null","313773","HierDyo4ge752n","sub14","02","06","feedback","test","null","","","na","","168","",""
"633.4000000059605","314407","HierDyo4ge752n","sub14","02","06","rl","test","76","img/o_d_diag.png","8","76","color,shape,pattern","169","1",""
"null","315412","HierDyo4ge752n","sub14","02","06","feedback","test","null","","","na","","169","",""
"1038.9000000059605","316452","HierDyo4ge752n","sub14","02","06","rl","test","83","img/p_t_diag.png","2","83","color,shape,pattern","170","1",""
"null","317454","HierDyo4ge752n","sub14","02","06","feedback","test","null","","","na","","170","",""
"654.7000000178814","318110","HierDyo4ge752n","sub14","02","06","rl","test","74","img/o_t_diag.png","6","74","color,shape,pattern","171","1",""
"null","319116","HierDyo4ge752n","sub14","02","06","feedback","test","null","","","na","","171","",""
"718.2000000178814","319836","HierDyo4ge752n","sub14","02","06","rl","test","76","img/o_d_diag.png","8","76","color,shape,pattern","172","1",""
"null","320841","HierDyo4ge752n","sub14","02","06","feedback","test","null","","","na","","172","",""
"1114.300000011921","321956","HierDyo4ge752n","sub14","02","06","rl","test","72","img/o_t_check.png","5","72","color,shape,pattern","173","1",""
"null","322961","HierDyo4ge752n","sub14","02","06","feedback","test","null","","","na","","173","",""
"935.9000000059605","323898","HierDyo4ge752n","sub14","02","06","rl","test","75","img/o_d_check.png","7","75","color,shape,pattern","174","1",""
"null","324900","HierDyo4ge752n","sub14","02","06","feedback","test","null","","","na","","174","",""
"603","325504","HierDyo4ge752n","sub14","02","06","rl","test","65","img/p_t_check.png","1","65","color,shape,pattern","175","1",""
"null","326508","HierDyo4ge752n","sub14","02","06","feedback","test","null","","","na","","175","",""
"693.5999999940395","327203","HierDyo4ge752n","sub14","02","06","rl","test","74","img/o_t_diag.png","6","74","color,shape,pattern","176","1",""
"null","328207","HierDyo4ge752n","sub14","02","06","feedback","test","null","","","na","","176","",""
"776.2000000178814","328984","HierDyo4ge752n","sub14","02","06","rl","test","65","img/p_t_check.png","1","65","color,shape,pattern","177","1",""
"null","329989","HierDyo4ge752n","sub14","02","06","feedback","test","null","","","na","","177","",""
"669.8999999761581","330661","HierDyo4ge752n","sub14","02","06","rl","test","75","img/o_d_check.png","7","75","color,shape,pattern","178","1",""
"null","331666","HierDyo4ge752n","sub14","02","06","feedback","test","null","","","na","","178","",""
"835.1000000238419","332503","HierDyo4ge752n","sub14","02","06","rl","test","68","img/p_d_check.png","3","68","color,shape,pattern","179","1",""
"null","333506","HierDyo4ge752n","sub14","02","06","feedback","test","null","","","na","","179","",""
"614.7000000178814","334121","HierDyo4ge752n","sub14","02","06","rl","test","83","img/p_t_diag.png","2","83","color,shape,pattern","180","1",""
"null","335125","HierDyo4ge752n","sub14","02","06","feedback","test","null","","","na","","180","",""
"678.0999999940395","335805","HierDyo4ge752n","sub14","02","06","rl","test","70","img/p_d_diag.png","4","70","color,shape,pattern","181","1",""
"null","336810","HierDyo4ge752n","sub14","02","06","feedback","test","null","","","na","","181","",""
"737","337547","HierDyo4ge752n","sub14","02","06","rl","test","72","img/o_t_check.png","5","72","color,shape,pattern","182","1",""
"null","338549","HierDyo4ge752n","sub14","02","06","feedback","test","null","","","na","","182","",""
"649.3000000119209","339199","HierDyo4ge752n","sub14","02","06","rl","test","68","img/p_d_check.png","3","68","color,shape,pattern","183","1",""
"null","340200","HierDyo4ge752n","sub14","02","06","feedback","test","null","","","na","","183","",""
"1340.9000000059605","341542","HierDyo4ge752n","sub14","02","06","rl","test","76","img/o_d_diag.png","8","76","color,shape,pattern","184","1",""
"null","342548","HierDyo4ge752n","sub14","02","06","feedback","test","null","","","na","","184","",""
"549.9000000059605","343099","HierDyo4ge752n","sub14","02","06","rl","test","76","img/o_d_diag.png","8","76","color,shape,pattern","185","1",""
"null","344106","HierDyo4ge752n","sub14","02","06","feedback","test","null","","","na","","185","",""
"610.7000000178814","344718","HierDyo4ge752n","sub14","02","06","rl","test","83","img/p_t_diag.png","2","83","color,shape,pattern","186","1",""
"null","345723","HierDyo4ge752n","sub14","02","06","feedback","test","null","","","na","","186","",""
"572.4000000059605","346297","HierDyo4ge752n","sub14","02","06","rl","test","72","img/o_t_check.png","5","72","color,shape,pattern","187","1",""
"null","347302","HierDyo4ge752n","sub14","02","06","feedback","test","null","","","na","","187","",""
"657.0999999940395","347960","HierDyo4ge752n","sub14","02","06","rl","test","70","img/p_d_diag.png","4","70","color,shape,pattern","188","1",""
"null","348964","HierDyo4ge752n","sub14","02","06","feedback","test","null","","","na","","188","",""
"877.9000000059605","349844","HierDyo4ge752n","sub14","02","06","rl","test","72","img/o_t_check.png","5","72","color,shape,pattern","189","1",""
"null","350846","HierDyo4ge752n","sub14","02","06","feedback","test","null","","","na","","189","",""
"542.5999999940395","351390","HierDyo4ge752n","sub14","02","06","rl","test","74","img/o_t_diag.png","6","74","color,shape,pattern","190","1",""
"null","352395","HierDyo4ge752n","sub14","02","06","feedback","test","null","","","na","","190","",""
"607.1999999880791","353004","HierDyo4ge752n","sub14","02","06","rl","test","68","img/p_d_check.png","3","68","color,shape,pattern","191","1",""
"null","354006","HierDyo4ge752n","sub14","02","06","feedback","test","null","","","na","","191","",""
"650.5","354658","HierDyo4ge752n","sub14","02","06","rl","test","65","img/p_t_check.png","1","65","color,shape,pattern","192","1",""
"null","355660","HierDyo4ge752n","sub14","02","06","feedback","test","null","","","na","","192","",""
"693.5999999940395","356355","HierDyo4ge752n","sub14","02","06","rl","test","75","img/o_d_check.png","7","75","color,shape,pattern","193","1",""
"null","357361","HierDyo4ge752n","sub14","02","06","feedback","test","null","","","na","","193","",""
"759.5","358122","HierDyo4ge752n","sub14","02","06","rl","test","68","img/p_d_check.png","3","68","color,shape,pattern","194","1",""
"null","359129","HierDyo4ge752n","sub14","02","06","feedback","test","null","","","na","","194","",""
"657.1999999880791","359788","HierDyo4ge752n","sub14","02","06","rl","test","65","img/p_t_check.png","1","65","color,shape,pattern","195","1",""
"null","360788","HierDyo4ge752n","sub14","02","06","feedback","test","null","","","na","","195","",""
"1209.300000011921","361998","HierDyo4ge752n","sub14","02","06","rl","test","74","img/o_t_diag.png","6","74","color,shape,pattern","196","1",""
"null","363005","HierDyo4ge752n","sub14","02","06","feedback","test","null","","","na","","196","",""
"747","363753","HierDyo4ge752n","sub14","02","06","rl","test","76","img/o_d_diag.png","8","76","color,shape,pattern","197","1",""
"null","364755","HierDyo4ge752n","sub14","02","06","feedback","test","null","","","na","","197","",""
"594.2000000178814","365351","HierDyo4ge752n","sub14","02","06","rl","test","70","img/p_d_diag.png","4","70","color,shape,pattern","198","1",""
"null","366357","HierDyo4ge752n","sub14","02","06","feedback","test","null","","","na","","198","",""
"526.0999999940395","366885","HierDyo4ge752n","sub14","02","06","rl","test","83","img/p_t_diag.png","2","83","color,shape,pattern","199","1",""
"null","367887","HierDyo4ge752n","sub14","02","06","feedback","test","null","","","na","","199","",""
"646.0999999940395","368534","HierDyo4ge752n","sub14","02","06","rl","test","68","img/o_d_check.png","7","75","color,shape,pattern","200","0",""
"null","369540","HierDyo4ge752n","sub14","02","06","feedback","test","null","","","na","","200","",""
"842.8000000119209","370383","HierDyo4ge752n","sub14","02","06","rl","test","83","img/p_t_diag.png","2","83","color,shape,pattern","201","1",""
"null","371386","HierDyo4ge752n","sub14","02","06","feedback","test","null","","","na","","201","",""
"1155","372543","HierDyo4ge752n","sub14","02","06","rl","test","70","img/p_d_diag.png","4","70","color,shape,pattern","202","1",""
"null","373544","HierDyo4ge752n","sub14","02","06","feedback","test","null","","","na","","202","",""
"682.5999999940395","374229","HierDyo4ge752n","sub14","02","06","rl","test","75","img/p_d_check.png","3","68","color,shape,pattern","203","0",""
"null","375232","HierDyo4ge752n","sub14","02","06","feedback","test","null","","","na","","203","",""
"758.5999999940395","375992","HierDyo4ge752n","sub14","02","06","rl","test","72","img/o_t_check.png","5","72","color,shape,pattern","204","1",""
"null","376994","HierDyo4ge752n","sub14","02","06","feedback","test","null","","","na","","204","",""
"539.4000000059605","377534","HierDyo4ge752n","sub14","02","06","rl","test","76","img/o_d_diag.png","8","76","color,shape,pattern","205","1",""
"null","378537","HierDyo4ge752n","sub14","02","06","feedback","test","null","","","na","","205","",""
"776.5","379314","HierDyo4ge752n","sub14","02","06","rl","test","65","img/p_t_check.png","1","65","color,shape,pattern","206","1",""
"null","380317","HierDyo4ge752n","sub14","02","06","feedback","test","null","","","na","","206","",""
"572.3000000119209","380889","HierDyo4ge752n","sub14","02","06","rl","test","70","img/p_d_diag.png","4","70","color,shape,pattern","207","1",""
"null","381891","HierDyo4ge752n","sub14","02","06","feedback","test","null","","","na","","207","",""
"554.6000000238419","382447","HierDyo4ge752n","sub14","02","06","rl","test","75","img/o_d_check.png","7","75","color,shape,pattern","208","1",""
"null","383451","HierDyo4ge752n","sub14","02","06","feedback","test","null","","","na","","208","",""
"960.5","384412","HierDyo4ge752n","sub14","02","06","rl","test","75","img/o_d_check.png","7","75","color,shape,pattern","209","1",""
"null","385417","HierDyo4ge752n","sub14","02","06","feedback","test","null","","","na","","209","",""
"605.5999999940395","386024","HierDyo4ge752n","sub14","02","06","rl","test","74","img/o_t_diag.png","6","74","color,shape,pattern","210","1",""
"null","387026","HierDyo4ge752n","sub14","02","06","feedback","test","null","","","na","","210","",""
"482.40000000596046","387510","HierDyo4ge752n","sub14","02","06","rl","test","74","img/o_t_diag.png","6","74","color,shape,pattern","211","1",""
"null","388514","HierDyo4ge752n","sub14","02","06","feedback","test","null","","","na","","211","",""
"665.6999999880791","389181","HierDyo4ge752n","sub14","02","06","rl","test","76","img/o_d_diag.png","8","76","color,shape,pattern","212","1",""
"null","390186","HierDyo4ge752n","sub14","02","06","feedback","test","null","","","na","","212","",""
"635.8999999761581","390824","HierDyo4ge752n","sub14","02","06","rl","test","68","img/p_d_check.png","3","68","color,shape,pattern","213","1",""
"null","391831","HierDyo4ge752n","sub14","02","06","feedback","test","null","","","na","","213","",""
"623.7000000178814","392456","HierDyo4ge752n","sub14","02","06","rl","test","83","img/p_t_diag.png","2","83","color,shape,pattern","214","1",""
"null","393457","HierDyo4ge752n","sub14","02","06","feedback","test","null","","","na","","214","",""
"721.0999999940395","394180","HierDyo4ge752n","sub14","02","06","rl","test","72","img/o_t_check.png","5","72","color,shape,pattern","215","1",""
"null","395187","HierDyo4ge752n","sub14","02","06","feedback","test","null","","","na","","215","",""
"630.1999999880791","395819","HierDyo4ge752n","sub14","02","06","rl","test","76","img/o_d_diag.png","8","76","color,shape,pattern","216","1",""
"null","396824","HierDyo4ge752n","sub14","02","06","feedback","test","null","","","na","","216","",""
"564.7000000178814","397392","HierDyo4ge752n","sub14","02","06","rl","test","72","img/o_t_check.png","5","72","color,shape,pattern","217","1",""
"null","398396","HierDyo4ge752n","sub14","02","06","feedback","test","null","","","na","","217","",""
"751.9000000059605","399150","HierDyo4ge752n","sub14","02","06","rl","test","65","img/p_t_check.png","1","65","color,shape,pattern","218","1",""
"null","400155","HierDyo4ge752n","sub14","02","06","feedback","test","null","","","na","","218","",""
"762.4000000059605","400919","HierDyo4ge752n","sub14","02","06","rl","test","68","img/p_d_check.png","3","68","color,shape,pattern","219","1",""
"null","401922","HierDyo4ge752n","sub14","02","06","feedback","test","null","","","na","","219","",""
"687.8000000119209","402611","HierDyo4ge752n","sub14","02","06","rl","test","74","img/o_t_diag.png","6","74","color,shape,pattern","220","1",""
"null","403616","HierDyo4ge752n","sub14","02","06","feedback","test","null","","","na","","220","",""
"797.7999999821186","404416","HierDyo4ge752n","sub14","02","06","rl","test","68","img/p_d_diag.png","4","70","color,shape,pattern","221","0",""
"null","405422","HierDyo4ge752n","sub14","02","06","feedback","test","null","","","na","","221","",""
"1215.2999999821186","406639","HierDyo4ge752n","sub14","02","06","rl","test","75","img/o_d_check.png","7","75","color,shape,pattern","222","1",""
"null","407645","HierDyo4ge752n","sub14","02","06","feedback","test","null","","","na","","222","",""
"678.3999999761581","408325","HierDyo4ge752n","sub14","02","06","rl","test","65","img/p_t_check.png","1","65","color,shape,pattern","223","1",""
"null","409327","HierDyo4ge752n","sub14","02","06","feedback","test","null","","","na","","223","",""
"815.0999999940395","410144","HierDyo4ge752n","sub14","02","06","rl","test","70","img/p_d_diag.png","4","70","color,shape,pattern","224","1",""
"null","411146","HierDyo4ge752n","sub14","02","06","feedback","test","null","","","na","","224","",""
"556.8000000119209","411704","HierDyo4ge752n","sub14","02","06","rl","test","83","img/p_t_diag.png","2","83","color,shape,pattern","225","1",""
"null","412708","HierDyo4ge752n","sub14","02","06","feedback","test","null","","","na","","225","",""
"683.6999999880791","413394","HierDyo4ge752n","sub14","02","06","rl","test","76","img/o_d_diag.png","8","76","color,shape,pattern","226","1",""
"null","414398","HierDyo4ge752n","sub14","02","06","feedback","test","null","","","na","","226","",""
"656.2000000178814","415056","HierDyo4ge752n","sub14","02","06","rl","test","83","img/p_t_diag.png","2","83","color,shape,pattern","227","1",""
"null","416062","HierDyo4ge752n","sub14","02","06","feedback","test","null","","","na","","227","",""
"571.7000000178814","416634","HierDyo4ge752n","sub14","02","06","rl","test","68","img/p_d_check.png","3","68","color,shape,pattern","228","1",""
"null","417638","HierDyo4ge752n","sub14","02","06","feedback","test","null","","","na","","228","",""
"598.5","418237","HierDyo4ge752n","sub14","02","06","rl","test","72","img/o_t_check.png","5","72","color,shape,pattern","229","1",""
"null","419239","HierDyo4ge752n","sub14","02","06","feedback","test","null","","","na","","229","",""
"691.6999999880791","419932","HierDyo4ge752n","sub14","02","06","rl","test","65","img/p_t_check.png","1","65","color,shape,pattern","230","1",""
"null","420936","HierDyo4ge752n","sub14","02","06","feedback","test","null","","","na","","230","",""
"494.5","421432","HierDyo4ge752n","sub14","02","06","rl","test","65","img/p_t_check.png","1","65","color,shape,pattern","231","1",""
"null","422433","HierDyo4ge752n","sub14","02","06","feedback","test","null","","","na","","231","",""
"776.9000000059605","423212","HierDyo4ge752n","sub14","02","06","rl","test","75","img/o_d_check.png","7","75","color,shape,pattern","232","1",""
"null","424216","HierDyo4ge752n","sub14","02","06","feedback","test","null","","","na","","232","",""
"690.2000000178814","424907","HierDyo4ge752n","sub14","02","06","rl","test","72","img/o_t_check.png","5","72","color,shape,pattern","233","1",""
"null","425911","HierDyo4ge752n","sub14","02","06","feedback","test","null","","","na","","233","",""
"556.3999999761581","426469","HierDyo4ge752n","sub14","02","06","rl","test","74","img/o_t_diag.png","6","74","color,shape,pattern","234","1",""
"null","427475","HierDyo4ge752n","sub14","02","06","feedback","test","null","","","na","","234","",""
"594.8000000119209","428071","HierDyo4ge752n","sub14","02","06","rl","test","83","img/p_t_diag.png","2","83","color,shape,pattern","235","1",""
"null","429078","HierDyo4ge752n","sub14","02","06","feedback","test","null","","","na","","235","",""
"635","429715","HierDyo4ge752n","sub14","02","06","rl","test","75","img/o_d_check.png","7","75","color,shape,pattern","236","1",""
"null","430720","HierDyo4ge752n","sub14","02","06","feedback","test","null","","","na","","236","",""
"560","431282","HierDyo4ge752n","sub14","02","06","rl","test","83","img/o_t_diag.png","6","74","color,shape,pattern","237","0",""
"null","432287","HierDyo4ge752n","sub14","02","06","feedback","test","null","","","na","","237","",""
"571.6999999880791","432860","HierDyo4ge752n","sub14","02","06","rl","test","72","img/o_t_check.png","5","72","color,shape,pattern","238","1",""
"null","433862","HierDyo4ge752n","sub14","02","06","feedback","test","null","","","na","","238","",""
"768.1000000238419","434631","HierDyo4ge752n","sub14","02","06","rl","test","70","img/p_d_diag.png","4","70","color,shape,pattern","239","1",""
"null","435634","HierDyo4ge752n","sub14","02","06","feedback","test","null","","","na","","239","",""
"809","436444","HierDyo4ge752n","sub14","02","06","rl","test","68","img/p_d_check.png","3","68","color,shape,pattern","240","1",""
"null","437447","HierDyo4ge752n","sub14","02","06","feedback","test","null","","","na","","240","",""
"640.1999999880791","438089","HierDyo4ge752n","sub14","02","06","rl","test","76","img/o_d_diag.png","8","76","color,shape,pattern","241","1",""
"null","439095","HierDyo4ge752n","sub14","02","06","feedback","test","null","","","na","","241","",""
"522.0999999940395","439619","HierDyo4ge752n","sub14","02","06","rl","test","75","img/o_d_check.png","7","75","color,shape,pattern","242","1",""
"null","440623","HierDyo4ge752n","sub14","02","06","feedback","test","null","","","na","","242","",""
"667.5999999940395","441293","HierDyo4ge752n","sub14","02","06","rl","test","68","img/p_d_check.png","3","68","color,shape,pattern","243","1",""
"null","442296","HierDyo4ge752n","sub14","02","06","feedback","test","null","","","na","","243","",""
"505.80000001192093","442803","HierDyo4ge752n","sub14","02","06","rl","test","74","img/o_t_diag.png","6","74","color,shape,pattern","244","1",""
"null","443806","HierDyo4ge752n","sub14","02","06","feedback","test","null","","","na","","244","",""
"588.5999999940395","444395","HierDyo4ge752n","sub14","02","06","rl","test","68","img/p_d_diag.png","4","70","color,shape,pattern","245","0",""
"null","445398","HierDyo4ge752n","sub14","02","06","feedback","test","null","","","na","","245","",""
"533.8999999761581","445934","HierDyo4ge752n","sub14","02","06","rl","test","65","img/p_t_check.png","1","65","color,shape,pattern","246","1",""
"null","446939","HierDyo4ge752n","sub14","02","06","feedback","test","null","","","na","","246","",""
"622.6999999880791","447563","HierDyo4ge752n","sub14","02","06","rl","test","72","img/o_t_check.png","5","72","color,shape,pattern","247","1",""
"null","448568","HierDyo4ge752n","sub14","02","06","feedback","test","null","","","na","","247","",""
"644.5","449214","HierDyo4ge752n","sub14","02","06","rl","test","83","img/p_t_diag.png","2","83","color,shape,pattern","248","1",""
"null","450221","HierDyo4ge752n","sub14","02","06","feedback","test","null","","","na","","248","",""
"1515.5999999940395","451756","HierDyo4ge752n","sub14","02","06","","","","","","","","","","{""Q0"":""6""}"
"16691.59999999404","468452","HierDyo4ge752n","sub14","02","06","","","","","","","","","","{""Q0"":"" Tried to focus on the shapes, but sometimes I impulsively hit a key too fast""}"
"1378.0999999940395","469831","HierDyo4ge752n","sub14","02","06","","","","","","","","","",""
