"rt","time_elapsed","subject","subID","group","day","trialType","phase","key_press","stim","stimNum","corrresp","hierarchy","trialNum","corr","responses"
"1931.3000000715256","1933","HierDy6xxxex85","sub12","12","07","","","","","","","","","",""
"","3962","HierDy6xxxex85","sub12","12","07","fullscreen","","","","","","","","",""
"2074.399999976158","6038","HierDy6xxxex85","sub12","12","07","","prac","","","","","","","",""
"752.0999999046326","6797","HierDy6xxxex85","sub12","12","07","","","32","","","","","","",""
"5411.600000023842","12211","HierDy6xxxex85","sub12","12","07","","prac","","","","","","","",""
"910.1000000238419","13126","HierDy6xxxex85","sub12","12","07","rl","test","72","img/r_d_stripes.png","5","72","shape,color,pattern","1","1",""
"null","14147","HierDy6xxxex85","sub12","12","07","feedback","test","null","","","na","","1","",""
"667.7999999523163","14818","HierDy6xxxex85","sub12","12","07","rl","test","65","img/r_t_stripes.png","1","65","shape,color,pattern","2","1",""
"null","15843","HierDy6xxxex85","sub12","12","07","feedback","test","null","","","na","","2","",""
"1193.8999999761581","17040","HierDy6xxxex85","sub12","12","07","rl","test","70","img/b_t_check.png","4","70","shape,color,pattern","3","1",""
"null","18054","HierDy6xxxex85","sub12","12","07","feedback","test","null","","","na","","3","",""
"964.3000000715256","19021","HierDy6xxxex85","sub12","12","07","rl","test","74","img/r_d_check.png","6","74","shape,color,pattern","4","1",""
"null","20037","HierDy6xxxex85","sub12","12","07","feedback","test","null","","","na","","4","",""
"867.6000000238419","20907","HierDy6xxxex85","sub12","12","07","rl","test","68","img/b_t_stripes.png","3","68","shape,color,pattern","5","1",""
"null","21911","HierDy6xxxex85","sub12","12","07","feedback","test","null","","","na","","5","",""
"697.6000000238419","22610","HierDy6xxxex85","sub12","12","07","rl","test","83","img/r_t_check.png","2","83","shape,color,pattern","6","1",""
"null","23634","HierDy6xxxex85","sub12","12","07","feedback","test","null","","","na","","6","",""
"1013.1000000238419","24649","HierDy6xxxex85","sub12","12","07","rl","test","75","img/b_d_stripes.png","7","75","shape,color,pattern","7","1",""
"null","25661","HierDy6xxxex85","sub12","12","07","feedback","test","null","","","na","","7","",""
"1921.2000000476837","27584","HierDy6xxxex85","sub12","12","07","rl","test","68","img/b_t_stripes.png","3","68","shape,color,pattern","8","1",""
"null","28595","HierDy6xxxex85","sub12","12","07","feedback","test","null","","","na","","8","",""
"1057.6000000238419","29654","HierDy6xxxex85","sub12","12","07","rl","test","76","img/b_d_check.png","8","76","shape,color,pattern","9","1",""
"null","30675","HierDy6xxxex85","sub12","12","07","feedback","test","null","","","na","","9","",""
"763.5","31440","HierDy6xxxex85","sub12","12","07","rl","test","76","img/b_d_check.png","8","76","shape,color,pattern","10","1",""
"null","32452","HierDy6xxxex85","sub12","12","07","feedback","test","null","","","na","","10","",""
"897.7000000476837","33351","HierDy6xxxex85","sub12","12","07","rl","test","83","img/r_t_check.png","2","83","shape,color,pattern","11","1",""
"null","34364","HierDy6xxxex85","sub12","12","07","feedback","test","null","","","na","","11","",""
"1500.8999999761581","35867","HierDy6xxxex85","sub12","12","07","rl","test","72","img/r_d_stripes.png","5","72","shape,color,pattern","12","1",""
"null","36882","HierDy6xxxex85","sub12","12","07","feedback","test","null","","","na","","12","",""
"858.4000000953674","37743","HierDy6xxxex85","sub12","12","07","rl","test","75","img/b_d_stripes.png","7","75","shape,color,pattern","13","1",""
"null","38762","HierDy6xxxex85","sub12","12","07","feedback","test","null","","","na","","13","",""
"922.7000000476837","39687","HierDy6xxxex85","sub12","12","07","rl","test","76","img/r_d_check.png","6","74","shape,color,pattern","14","0",""
"null","40701","HierDy6xxxex85","sub12","12","07","feedback","test","null","","","na","","14","",""
"690.5","41393","HierDy6xxxex85","sub12","12","07","rl","test","65","img/r_t_stripes.png","1","65","shape,color,pattern","15","1",""
"null","42404","HierDy6xxxex85","sub12","12","07","feedback","test","null","","","na","","15","",""
"885.6000000238419","43292","HierDy6xxxex85","sub12","12","07","rl","test","70","img/b_t_check.png","4","70","shape,color,pattern","16","1",""
"null","44315","HierDy6xxxex85","sub12","12","07","feedback","test","null","","","na","","16","",""
"785.2000000476837","45101","HierDy6xxxex85","sub12","12","07","rl","test","76","img/b_d_check.png","8","76","shape,color,pattern","17","1",""
"null","46115","HierDy6xxxex85","sub12","12","07","feedback","test","null","","","na","","17","",""
"1072.3000000715256","47189","HierDy6xxxex85","sub12","12","07","rl","test","70","img/b_t_check.png","4","70","shape,color,pattern","18","1",""
"null","48211","HierDy6xxxex85","sub12","12","07","feedback","test","null","","","na","","18","",""
"847.5","49061","HierDy6xxxex85","sub12","12","07","rl","test","83","img/r_t_check.png","2","83","shape,color,pattern","19","1",""
"null","50084","HierDy6xxxex85","sub12","12","07","feedback","test","null","","","na","","19","",""
"622.8000000715256","50709","HierDy6xxxex85","sub12","12","07","rl","test","65","img/r_t_stripes.png","1","65","shape,color,pattern","20","1",""
"null","51731","HierDy6xxxex85","sub12","12","07","feedback","test","null","","","na","","20","",""
"595.5","52328","HierDy6xxxex85","sub12","12","07","rl","test","68","img/b_t_stripes.png","3","68","shape,color,pattern","21","1",""
"null","53342","HierDy6xxxex85","sub12","12","07","feedback","test","null","","","na","","21","",""
"691.1999999284744","54034","HierDy6xxxex85","sub12","12","07","rl","test","65","img/r_t_stripes.png","1","65","shape,color,pattern","22","1",""
"null","55049","HierDy6xxxex85","sub12","12","07","feedback","test","null","","","na","","22","",""
"1269.6000000238419","56322","HierDy6xxxex85","sub12","12","07","rl","test","72","img/r_d_stripes.png","5","72","shape,color,pattern","23","1",""
"null","57334","HierDy6xxxex85","sub12","12","07","feedback","test","null","","","na","","23","",""
"826.8999999761581","58162","HierDy6xxxex85","sub12","12","07","rl","test","68","img/b_t_stripes.png","3","68","shape,color,pattern","24","1",""
"null","59171","HierDy6xxxex85","sub12","12","07","feedback","test","null","","","na","","24","",""
"904.8000000715256","60078","HierDy6xxxex85","sub12","12","07","rl","test","75","img/b_d_stripes.png","7","75","shape,color,pattern","25","1",""
"null","61100","HierDy6xxxex85","sub12","12","07","feedback","test","null","","","na","","25","",""
"1738.8999999761581","62842","HierDy6xxxex85","sub12","12","07","rl","test","75","img/b_d_stripes.png","7","75","shape,color,pattern","26","1",""
"null","63858","HierDy6xxxex85","sub12","12","07","feedback","test","null","","","na","","26","",""
"559.3999999761581","64420","HierDy6xxxex85","sub12","12","07","rl","test","72","img/r_d_stripes.png","5","72","shape,color,pattern","27","1",""
"null","65441","HierDy6xxxex85","sub12","12","07","feedback","test","null","","","na","","27","",""
"485.2000000476837","65927","HierDy6xxxex85","sub12","12","07","rl","test","74","img/r_d_check.png","6","74","shape,color,pattern","28","1",""
"null","66938","HierDy6xxxex85","sub12","12","07","feedback","test","null","","","na","","28","",""
"525.6000000238419","67465","HierDy6xxxex85","sub12","12","07","rl","test","74","img/r_d_check.png","6","74","shape,color,pattern","29","1",""
"null","68471","HierDy6xxxex85","sub12","12","07","feedback","test","null","","","na","","29","",""
"646","69119","HierDy6xxxex85","sub12","12","07","rl","test","70","img/b_t_check.png","4","70","shape,color,pattern","30","1",""
"null","70139","HierDy6xxxex85","sub12","12","07","feedback","test","null","","","na","","30","",""
"1037","71178","HierDy6xxxex85","sub12","12","07","rl","test","76","img/b_d_check.png","8","76","shape,color,pattern","31","1",""
"null","72188","HierDy6xxxex85","sub12","12","07","feedback","test","null","","","na","","31","",""
"1526.3999999761581","73717","HierDy6xxxex85","sub12","12","07","rl","test","70","img/b_t_check.png","4","70","shape,color,pattern","32","1",""
"null","74748","HierDy6xxxex85","sub12","12","07","feedback","test","null","","","na","","32","",""
"914.0999999046326","75665","HierDy6xxxex85","sub12","12","07","rl","test","83","img/r_t_check.png","2","83","shape,color,pattern","33","1",""
"null","76682","HierDy6xxxex85","sub12","12","07","feedback","test","null","","","na","","33","",""
"1028.3000000715256","77711","HierDy6xxxex85","sub12","12","07","rl","test","74","img/r_d_check.png","6","74","shape,color,pattern","34","1",""
"null","78726","HierDy6xxxex85","sub12","12","07","feedback","test","null","","","na","","34","",""
"700.1999999284744","79428","HierDy6xxxex85","sub12","12","07","rl","test","75","img/b_d_stripes.png","7","75","shape,color,pattern","35","1",""
"null","80442","HierDy6xxxex85","sub12","12","07","feedback","test","null","","","na","","35","",""
"767.6000000238419","81211","HierDy6xxxex85","sub12","12","07","rl","test","83","img/r_t_check.png","2","83","shape,color,pattern","36","1",""
"null","82217","HierDy6xxxex85","sub12","12","07","feedback","test","null","","","na","","36","",""
"669.8000000715256","82889","HierDy6xxxex85","sub12","12","07","rl","test","65","img/r_t_stripes.png","1","65","shape,color,pattern","37","1",""
"null","83905","HierDy6xxxex85","sub12","12","07","feedback","test","null","","","na","","37","",""
"1607.8000000715256","85513","HierDy6xxxex85","sub12","12","07","rl","test","72","img/r_d_stripes.png","5","72","shape,color,pattern","38","1",""
"null","86519","HierDy6xxxex85","sub12","12","07","feedback","test","null","","","na","","38","",""
"1424.6000000238419","87945","HierDy6xxxex85","sub12","12","07","rl","test","68","img/b_t_stripes.png","3","68","shape,color,pattern","39","1",""
"null","88957","HierDy6xxxex85","sub12","12","07","feedback","test","null","","","na","","39","",""
"404.10000002384186","89362","HierDy6xxxex85","sub12","12","07","rl","test","70","img/b_t_check.png","4","70","shape,color,pattern","40","1",""
"null","90367","HierDy6xxxex85","sub12","12","07","feedback","test","null","","","na","","40","",""
"756.9000000953674","91125","HierDy6xxxex85","sub12","12","07","rl","test","76","img/b_d_check.png","8","76","shape,color,pattern","41","1",""
"null","92140","HierDy6xxxex85","sub12","12","07","feedback","test","null","","","na","","41","",""
"476.5","92618","HierDy6xxxex85","sub12","12","07","rl","test","75","img/b_d_stripes.png","7","75","shape,color,pattern","42","1",""
"null","93623","HierDy6xxxex85","sub12","12","07","feedback","test","null","","","na","","42","",""
"585","94210","HierDy6xxxex85","sub12","12","07","rl","test","65","img/r_t_stripes.png","1","65","shape,color,pattern","43","1",""
"null","95217","HierDy6xxxex85","sub12","12","07","feedback","test","null","","","na","","43","",""
"1270.3000000715256","96490","HierDy6xxxex85","sub12","12","07","rl","test","70","img/b_t_check.png","4","70","shape,color,pattern","44","1",""
"null","97507","HierDy6xxxex85","sub12","12","07","feedback","test","null","","","na","","44","",""
"681.3999999761581","98191","HierDy6xxxex85","sub12","12","07","rl","test","83","img/r_t_check.png","2","83","shape,color,pattern","45","1",""
"null","99207","HierDy6xxxex85","sub12","12","07","feedback","test","null","","","na","","45","",""
"1120.6000000238419","100329","HierDy6xxxex85","sub12","12","07","rl","test","68","img/b_t_stripes.png","3","68","shape,color,pattern","46","1",""
"null","101345","HierDy6xxxex85","sub12","12","07","feedback","test","null","","","na","","46","",""
"988.2000000476837","102335","HierDy6xxxex85","sub12","12","07","rl","test","76","img/b_d_check.png","8","76","shape,color,pattern","47","1",""
"null","103344","HierDy6xxxex85","sub12","12","07","feedback","test","null","","","na","","47","",""
"831.8999999761581","104178","HierDy6xxxex85","sub12","12","07","rl","test","72","img/r_d_stripes.png","5","72","shape,color,pattern","48","1",""
"null","105185","HierDy6xxxex85","sub12","12","07","feedback","test","null","","","na","","48","",""
"489.10000002384186","105676","HierDy6xxxex85","sub12","12","07","rl","test","74","img/r_d_check.png","6","74","shape,color,pattern","49","1",""
"null","106697","HierDy6xxxex85","sub12","12","07","feedback","test","null","","","na","","49","",""
"627.6999999284744","107327","HierDy6xxxex85","sub12","12","07","rl","test","75","img/b_d_check.png","8","76","shape,color,pattern","50","0",""
"null","108347","HierDy6xxxex85","sub12","12","07","feedback","test","null","","","na","","50","",""
"684.5999999046326","109034","HierDy6xxxex85","sub12","12","07","rl","test","65","img/r_t_stripes.png","1","65","shape,color,pattern","51","1",""
"null","110047","HierDy6xxxex85","sub12","12","07","feedback","test","null","","","na","","51","",""
"1026.3999999761581","111076","HierDy6xxxex85","sub12","12","07","rl","test","72","img/r_d_stripes.png","5","72","shape,color,pattern","52","1",""
"null","112095","HierDy6xxxex85","sub12","12","07","feedback","test","null","","","na","","52","",""
"790.1000000238419","112887","HierDy6xxxex85","sub12","12","07","rl","test","75","img/b_d_stripes.png","7","75","shape,color,pattern","53","1",""
"null","113906","HierDy6xxxex85","sub12","12","07","feedback","test","null","","","na","","53","",""
"1184.5","115092","HierDy6xxxex85","sub12","12","07","rl","test","74","img/r_d_check.png","6","74","shape,color,pattern","54","1",""
"null","116111","HierDy6xxxex85","sub12","12","07","feedback","test","null","","","na","","54","",""
"1812.6000000238419","117925","HierDy6xxxex85","sub12","12","07","rl","test","75","img/b_d_stripes.png","7","75","shape,color,pattern","55","1",""
"null","118934","HierDy6xxxex85","sub12","12","07","feedback","test","null","","","na","","55","",""
"737","119673","HierDy6xxxex85","sub12","12","07","rl","test","72","img/r_d_stripes.png","5","72","shape,color,pattern","56","1",""
"null","120684","HierDy6xxxex85","sub12","12","07","feedback","test","null","","","na","","56","",""
"955.8999999761581","121642","HierDy6xxxex85","sub12","12","07","rl","test","83","img/r_t_check.png","2","83","shape,color,pattern","57","1",""
"null","122649","HierDy6xxxex85","sub12","12","07","feedback","test","null","","","na","","57","",""
"635.4000000953674","123287","HierDy6xxxex85","sub12","12","07","rl","test","83","img/r_t_check.png","2","83","shape,color,pattern","58","1",""
"null","124303","HierDy6xxxex85","sub12","12","07","feedback","test","null","","","na","","58","",""
"598.1000000238419","124903","HierDy6xxxex85","sub12","12","07","rl","test","70","img/b_t_check.png","4","70","shape,color,pattern","59","1",""
"null","125921","HierDy6xxxex85","sub12","12","07","feedback","test","null","","","na","","59","",""
"511","126433","HierDy6xxxex85","sub12","12","07","rl","test","68","img/b_t_stripes.png","3","68","shape,color,pattern","60","1",""
"null","127447","HierDy6xxxex85","sub12","12","07","feedback","test","null","","","na","","60","",""
"1258.1000000238419","128707","HierDy6xxxex85","sub12","12","07","rl","test","76","img/b_d_check.png","8","76","shape,color,pattern","61","1",""
"null","129723","HierDy6xxxex85","sub12","12","07","feedback","test","null","","","na","","61","",""
"811.2999999523163","130536","HierDy6xxxex85","sub12","12","07","rl","test","74","img/r_d_check.png","6","74","shape,color,pattern","62","1",""
"null","131546","HierDy6xxxex85","sub12","12","07","feedback","test","null","","","na","","62","",""
"1021.5","132570","HierDy6xxxex85","sub12","12","07","rl","test","68","img/b_t_stripes.png","3","68","shape,color,pattern","63","1",""
"null","133582","HierDy6xxxex85","sub12","12","07","feedback","test","null","","","na","","63","",""
"584.1000000238419","134167","HierDy6xxxex85","sub12","12","07","rl","test","65","img/r_t_stripes.png","1","65","shape,color,pattern","64","1",""
"null","135179","HierDy6xxxex85","sub12","12","07","feedback","test","null","","","na","","64","",""
"629.7000000476837","135810","HierDy6xxxex85","sub12","12","07","rl","test","83","img/r_t_check.png","2","83","shape,color,pattern","65","1",""
"null","136818","HierDy6xxxex85","sub12","12","07","feedback","test","null","","","na","","65","",""
"798.5","137618","HierDy6xxxex85","sub12","12","07","rl","test","72","img/r_d_stripes.png","5","72","shape,color,pattern","66","1",""
"null","138633","HierDy6xxxex85","sub12","12","07","feedback","test","null","","","na","","66","",""
"752.5","139387","HierDy6xxxex85","sub12","12","07","rl","test","74","img/r_d_check.png","6","74","shape,color,pattern","67","1",""
"null","140404","HierDy6xxxex85","sub12","12","07","feedback","test","null","","","na","","67","",""
"865.1000000238419","141271","HierDy6xxxex85","sub12","12","07","rl","test","70","img/b_t_check.png","4","70","shape,color,pattern","68","1",""
"null","142289","HierDy6xxxex85","sub12","12","07","feedback","test","null","","","na","","68","",""
"914.6000000238419","143207","HierDy6xxxex85","sub12","12","07","rl","test","75","img/b_d_stripes.png","7","75","shape,color,pattern","69","1",""
"null","144228","HierDy6xxxex85","sub12","12","07","feedback","test","null","","","na","","69","",""
"708.9000000953674","144940","HierDy6xxxex85","sub12","12","07","rl","test","65","img/r_t_stripes.png","1","65","shape,color,pattern","70","1",""
"null","145963","HierDy6xxxex85","sub12","12","07","feedback","test","null","","","na","","70","",""
"1002.8999999761581","146968","HierDy6xxxex85","sub12","12","07","rl","test","75","img/b_d_stripes.png","7","75","shape,color,pattern","71","1",""
"null","147975","HierDy6xxxex85","sub12","12","07","feedback","test","null","","","na","","71","",""
"1116.7000000476837","149094","HierDy6xxxex85","sub12","12","07","rl","test","68","img/b_t_stripes.png","3","68","shape,color,pattern","72","1",""
"null","150112","HierDy6xxxex85","sub12","12","07","feedback","test","null","","","na","","72","",""
"1061.1999999284744","151176","HierDy6xxxex85","sub12","12","07","rl","test","76","img/b_d_check.png","8","76","shape,color,pattern","73","1",""
"null","152190","HierDy6xxxex85","sub12","12","07","feedback","test","null","","","na","","73","",""
"529.7999999523163","152722","HierDy6xxxex85","sub12","12","07","rl","test","75","img/b_d_check.png","8","76","shape,color,pattern","74","0",""
"null","153726","HierDy6xxxex85","sub12","12","07","feedback","test","null","","","na","","74","",""
"1315.2999999523163","155044","HierDy6xxxex85","sub12","12","07","rl","test","70","img/b_t_check.png","4","70","shape,color,pattern","75","1",""
"null","156065","HierDy6xxxex85","sub12","12","07","feedback","test","null","","","na","","75","",""
"804.8999999761581","156874","HierDy6xxxex85","sub12","12","07","rl","test","72","img/r_d_stripes.png","5","72","shape,color,pattern","76","1",""
"null","157882","HierDy6xxxex85","sub12","12","07","feedback","test","null","","","na","","76","",""
"677.4000000953674","158563","HierDy6xxxex85","sub12","12","07","rl","test","83","img/r_t_check.png","2","83","shape,color,pattern","77","1",""
"null","159572","HierDy6xxxex85","sub12","12","07","feedback","test","null","","","na","","77","",""
"1161.5999999046326","160736","HierDy6xxxex85","sub12","12","07","rl","test","74","img/r_d_check.png","6","74","shape,color,pattern","78","1",""
"null","161743","HierDy6xxxex85","sub12","12","07","feedback","test","null","","","na","","78","",""
"747.5","162492","HierDy6xxxex85","sub12","12","07","rl","test","83","img/r_t_check.png","2","83","shape,color,pattern","79","1",""
"null","163508","HierDy6xxxex85","sub12","12","07","feedback","test","null","","","na","","79","",""
"781.8000000715256","164291","HierDy6xxxex85","sub12","12","07","rl","test","68","img/b_t_stripes.png","3","68","shape,color,pattern","80","1",""
"null","165304","HierDy6xxxex85","sub12","12","07","feedback","test","null","","","na","","80","",""
"1477.4000000953674","166782","HierDy6xxxex85","sub12","12","07","rl","test","74","img/r_d_check.png","6","74","shape,color,pattern","81","1",""
"null","167795","HierDy6xxxex85","sub12","12","07","feedback","test","null","","","na","","81","",""
"718","168514","HierDy6xxxex85","sub12","12","07","rl","test","65","img/r_t_stripes.png","1","65","shape,color,pattern","82","1",""
"null","169531","HierDy6xxxex85","sub12","12","07","feedback","test","null","","","na","","82","",""
"582.2000000476837","170115","HierDy6xxxex85","sub12","12","07","rl","test","65","img/r_t_stripes.png","1","65","shape,color,pattern","83","1",""
"null","171131","HierDy6xxxex85","sub12","12","07","feedback","test","null","","","na","","83","",""
"1264.3999999761581","172397","HierDy6xxxex85","sub12","12","07","rl","test","75","img/b_d_stripes.png","7","75","shape,color,pattern","84","1",""
"null","173410","HierDy6xxxex85","sub12","12","07","feedback","test","null","","","na","","84","",""
"782.2999999523163","174194","HierDy6xxxex85","sub12","12","07","rl","test","68","img/b_t_stripes.png","3","68","shape,color,pattern","85","1",""
"null","175206","HierDy6xxxex85","sub12","12","07","feedback","test","null","","","na","","85","",""
"1262","176472","HierDy6xxxex85","sub12","12","07","rl","test","65","img/r_t_stripes.png","1","65","shape,color,pattern","86","1",""
"null","177486","HierDy6xxxex85","sub12","12","07","feedback","test","null","","","na","","86","",""
"746","178234","HierDy6xxxex85","sub12","12","07","rl","test","76","img/b_d_check.png","8","76","shape,color,pattern","87","1",""
"null","179251","HierDy6xxxex85","sub12","12","07","feedback","test","null","","","na","","87","",""
"1068","180321","HierDy6xxxex85","sub12","12","07","rl","test","70","img/b_t_check.png","4","70","shape,color,pattern","88","1",""
"null","181329","HierDy6xxxex85","sub12","12","07","feedback","test","null","","","na","","88","",""
"744.8000000715256","182076","HierDy6xxxex85","sub12","12","07","rl","test","68","img/b_t_stripes.png","3","68","shape,color,pattern","89","1",""
"null","183091","HierDy6xxxex85","sub12","12","07","feedback","test","null","","","na","","89","",""
"863.2000000476837","183956","HierDy6xxxex85","sub12","12","07","rl","test","72","img/r_d_stripes.png","5","72","shape,color,pattern","90","1",""
"null","184968","HierDy6xxxex85","sub12","12","07","feedback","test","null","","","na","","90","",""
"774.3999999761581","185746","HierDy6xxxex85","sub12","12","07","rl","test","76","img/b_d_check.png","8","76","shape,color,pattern","91","1",""
"null","186755","HierDy6xxxex85","sub12","12","07","feedback","test","null","","","na","","91","",""
"495","187253","HierDy6xxxex85","sub12","12","07","rl","test","75","img/b_d_stripes.png","7","75","shape,color,pattern","92","1",""
"null","188271","HierDy6xxxex85","sub12","12","07","feedback","test","null","","","na","","92","",""
"957.3000000715256","189230","HierDy6xxxex85","sub12","12","07","rl","test","83","img/r_t_check.png","2","83","shape,color,pattern","93","1",""
"null","190238","HierDy6xxxex85","sub12","12","07","feedback","test","null","","","na","","93","",""
"613.9000000953674","190854","HierDy6xxxex85","sub12","12","07","rl","test","70","img/b_t_check.png","4","70","shape,color,pattern","94","1",""
"null","191865","HierDy6xxxex85","sub12","12","07","feedback","test","null","","","na","","94","",""
"779.3000000715256","192647","HierDy6xxxex85","sub12","12","07","rl","test","72","img/r_d_stripes.png","5","72","shape,color,pattern","95","1",""
"null","193657","HierDy6xxxex85","sub12","12","07","feedback","test","null","","","na","","95","",""
"858.7999999523163","194518","HierDy6xxxex85","sub12","12","07","rl","test","74","img/r_d_check.png","6","74","shape,color,pattern","96","1",""
"null","195535","HierDy6xxxex85","sub12","12","07","feedback","test","null","","","na","","96","",""
"591.7999999523163","196128","HierDy6xxxex85","sub12","12","07","rl","test","72","img/r_d_stripes.png","5","72","shape,color,pattern","97","1",""
"null","197141","HierDy6xxxex85","sub12","12","07","feedback","test","null","","","na","","97","",""
"616.6999999284744","197760","HierDy6xxxex85","sub12","12","07","rl","test","75","img/b_d_stripes.png","7","75","shape,color,pattern","98","1",""
"null","198780","HierDy6xxxex85","sub12","12","07","feedback","test","null","","","na","","98","",""
"1020.7000000476837","199803","HierDy6xxxex85","sub12","12","07","rl","test","68","img/b_t_stripes.png","3","68","shape,color,pattern","99","1",""
"null","200808","HierDy6xxxex85","sub12","12","07","feedback","test","null","","","na","","99","",""
"1046.7000000476837","201857","HierDy6xxxex85","sub12","12","07","rl","test","83","img/r_t_check.png","2","83","shape,color,pattern","100","1",""
"null","202863","HierDy6xxxex85","sub12","12","07","feedback","test","null","","","na","","100","",""
"765.5","203630","HierDy6xxxex85","sub12","12","07","rl","test","65","img/r_t_stripes.png","1","65","shape,color,pattern","101","1",""
"null","204650","HierDy6xxxex85","sub12","12","07","feedback","test","null","","","na","","101","",""
"642.0999999046326","205294","HierDy6xxxex85","sub12","12","07","rl","test","76","img/b_d_check.png","8","76","shape,color,pattern","102","1",""
"null","206306","HierDy6xxxex85","sub12","12","07","feedback","test","null","","","na","","102","",""
"1136.6000000238419","207445","HierDy6xxxex85","sub12","12","07","rl","test","70","img/b_t_check.png","4","70","shape,color,pattern","103","1",""
"null","208459","HierDy6xxxex85","sub12","12","07","feedback","test","null","","","na","","103","",""
"1564.2999999523163","210026","HierDy6xxxex85","sub12","12","07","rl","test","70","img/b_t_check.png","4","70","shape,color,pattern","104","1",""
"null","211032","HierDy6xxxex85","sub12","12","07","feedback","test","null","","","na","","104","",""
"1554.0999999046326","212589","HierDy6xxxex85","sub12","12","07","rl","test","74","img/r_d_check.png","6","74","shape,color,pattern","105","1",""
"null","213600","HierDy6xxxex85","sub12","12","07","feedback","test","null","","","na","","105","",""
"1176.5","214777","HierDy6xxxex85","sub12","12","07","rl","test","83","img/r_t_check.png","2","83","shape,color,pattern","106","1",""
"null","215787","HierDy6xxxex85","sub12","12","07","feedback","test","null","","","na","","106","",""
"950.2000000476837","216740","HierDy6xxxex85","sub12","12","07","rl","test","76","img/b_d_check.png","8","76","shape,color,pattern","107","1",""
"null","217754","HierDy6xxxex85","sub12","12","07","feedback","test","null","","","na","","107","",""
"671","218428","HierDy6xxxex85","sub12","12","07","rl","test","65","img/r_t_stripes.png","1","65","shape,color,pattern","108","1",""
"null","219442","HierDy6xxxex85","sub12","12","07","feedback","test","null","","","na","","108","",""
"1401","220845","HierDy6xxxex85","sub12","12","07","rl","test","75","img/b_d_stripes.png","7","75","shape,color,pattern","109","1",""
"null","221854","HierDy6xxxex85","sub12","12","07","feedback","test","null","","","na","","109","",""
"730.2999999523163","222587","HierDy6xxxex85","sub12","12","07","rl","test","72","img/r_d_stripes.png","5","72","shape,color,pattern","110","1",""
"null","223604","HierDy6xxxex85","sub12","12","07","feedback","test","null","","","na","","110","",""
"955.2000000476837","224561","HierDy6xxxex85","sub12","12","07","rl","test","68","img/b_t_stripes.png","3","68","shape,color,pattern","111","1",""
"null","225578","HierDy6xxxex85","sub12","12","07","feedback","test","null","","","na","","111","",""
"1216.3999999761581","226796","HierDy6xxxex85","sub12","12","07","rl","test","74","img/r_d_check.png","6","74","shape,color,pattern","112","1",""
"null","227812","HierDy6xxxex85","sub12","12","07","feedback","test","null","","","na","","112","",""
"903","228717","HierDy6xxxex85","sub12","12","07","rl","test","68","img/b_t_stripes.png","3","68","shape,color,pattern","113","1",""
"null","229732","HierDy6xxxex85","sub12","12","07","feedback","test","null","","","na","","113","",""
"737.2000000476837","230470","HierDy6xxxex85","sub12","12","07","rl","test","72","img/r_d_stripes.png","5","72","shape,color,pattern","114","1",""
"null","231481","HierDy6xxxex85","sub12","12","07","feedback","test","null","","","na","","114","",""
"767.3999999761581","232250","HierDy6xxxex85","sub12","12","07","rl","test","74","img/r_d_check.png","6","74","shape,color,pattern","115","1",""
"null","233261","HierDy6xxxex85","sub12","12","07","feedback","test","null","","","na","","115","",""
"1159","234422","HierDy6xxxex85","sub12","12","07","rl","test","65","img/r_t_stripes.png","1","65","shape,color,pattern","116","1",""
"null","235434","HierDy6xxxex85","sub12","12","07","feedback","test","null","","","na","","116","",""
"726.1000000238419","236163","HierDy6xxxex85","sub12","12","07","rl","test","76","img/b_d_check.png","8","76","shape,color,pattern","117","1",""
"null","237178","HierDy6xxxex85","sub12","12","07","feedback","test","null","","","na","","117","",""
"1331.7999999523163","238512","HierDy6xxxex85","sub12","12","07","rl","test","70","img/b_t_check.png","4","70","shape,color,pattern","118","1",""
"null","239532","HierDy6xxxex85","sub12","12","07","feedback","test","null","","","na","","118","",""
"847.6000000238419","240381","HierDy6xxxex85","sub12","12","07","rl","test","70","img/b_t_check.png","4","70","shape,color,pattern","119","1",""
"null","241394","HierDy6xxxex85","sub12","12","07","feedback","test","null","","","na","","119","",""
"1048.6000000238419","242444","HierDy6xxxex85","sub12","12","07","rl","test","83","img/r_t_check.png","2","83","shape,color,pattern","120","1",""
"null","243455","HierDy6xxxex85","sub12","12","07","feedback","test","null","","","na","","120","",""
"1047","244504","HierDy6xxxex85","sub12","12","07","rl","test","75","img/b_d_stripes.png","7","75","shape,color,pattern","121","1",""
"null","245519","HierDy6xxxex85","sub12","12","07","feedback","test","null","","","na","","121","",""
"986.1999999284744","246507","HierDy6xxxex85","sub12","12","07","rl","test","83","img/r_t_check.png","2","83","shape,color,pattern","122","1",""
"null","247524","HierDy6xxxex85","sub12","12","07","feedback","test","null","","","na","","122","",""
"812.8000000715256","248337","HierDy6xxxex85","sub12","12","07","rl","test","76","img/b_d_check.png","8","76","shape,color,pattern","123","1",""
"null","249346","HierDy6xxxex85","sub12","12","07","feedback","test","null","","","na","","123","",""
"830.6000000238419","250177","HierDy6xxxex85","sub12","12","07","rl","test","68","img/b_t_stripes.png","3","68","shape,color,pattern","124","1",""
"null","251191","HierDy6xxxex85","sub12","12","07","feedback","test","null","","","na","","124","",""
"576.8999999761581","251770","HierDy6xxxex85","sub12","12","07","rl","test","65","img/r_t_stripes.png","1","65","shape,color,pattern","125","1",""
"null","252779","HierDy6xxxex85","sub12","12","07","feedback","test","null","","","na","","125","",""
"965.1000000238419","253746","HierDy6xxxex85","sub12","12","07","rl","test","75","img/b_d_stripes.png","7","75","shape,color,pattern","126","1",""
"null","254755","HierDy6xxxex85","sub12","12","07","feedback","test","null","","","na","","126","",""
"850.2999999523163","255607","HierDy6xxxex85","sub12","12","07","rl","test","72","img/r_d_stripes.png","5","72","shape,color,pattern","127","1",""
"null","256627","HierDy6xxxex85","sub12","12","07","feedback","test","null","","","na","","127","",""
"837.5","257468","HierDy6xxxex85","sub12","12","07","rl","test","72","img/r_d_stripes.png","5","72","shape,color,pattern","128","1",""
"null","258489","HierDy6xxxex85","sub12","12","07","feedback","test","null","","","na","","128","",""
"1032.2999999523163","259523","HierDy6xxxex85","sub12","12","07","rl","test","70","img/b_t_check.png","4","70","shape,color,pattern","129","1",""
"null","260534","HierDy6xxxex85","sub12","12","07","feedback","test","null","","","na","","129","",""
"1201.7000000476837","261737","HierDy6xxxex85","sub12","12","07","rl","test","74","img/r_d_check.png","6","74","shape,color,pattern","130","1",""
"null","262749","HierDy6xxxex85","sub12","12","07","feedback","test","null","","","na","","130","",""
"690.2000000476837","263440","HierDy6xxxex85","sub12","12","07","rl","test","76","img/b_d_check.png","8","76","shape,color,pattern","131","1",""
"null","264451","HierDy6xxxex85","sub12","12","07","feedback","test","null","","","na","","131","",""
"1435.5","265889","HierDy6xxxex85","sub12","12","07","rl","test","83","img/r_t_check.png","2","83","shape,color,pattern","132","1",""
"null","266904","HierDy6xxxex85","sub12","12","07","feedback","test","null","","","na","","132","",""
"1857.8999999761581","268763","HierDy6xxxex85","sub12","12","07","rl","test","74","img/r_d_check.png","6","74","shape,color,pattern","133","1",""
"null","269781","HierDy6xxxex85","sub12","12","07","feedback","test","null","","","na","","133","",""
"713","270496","HierDy6xxxex85","sub12","12","07","rl","test","65","img/r_t_stripes.png","1","65","shape,color,pattern","134","1",""
"null","271513","HierDy6xxxex85","sub12","12","07","feedback","test","null","","","na","","134","",""
"1392.8000000715256","272907","HierDy6xxxex85","sub12","12","07","rl","test","76","img/b_d_check.png","8","76","shape,color,pattern","135","1",""
"null","273932","HierDy6xxxex85","sub12","12","07","feedback","test","null","","","na","","135","",""
"1113.7999999523163","275047","HierDy6xxxex85","sub12","12","07","rl","test","68","img/b_t_stripes.png","3","68","shape,color,pattern","136","1",""
"null","276058","HierDy6xxxex85","sub12","12","07","feedback","test","null","","","na","","136","",""
"1700.7999999523163","277761","HierDy6xxxex85","sub12","12","07","rl","test","75","img/b_d_stripes.png","7","75","shape,color,pattern","137","1",""
"null","278777","HierDy6xxxex85","sub12","12","07","feedback","test","null","","","na","","137","",""
"668.3999999761581","279448","HierDy6xxxex85","sub12","12","07","rl","test","65","img/r_t_stripes.png","1","65","shape,color,pattern","138","1",""
"null","280472","HierDy6xxxex85","sub12","12","07","feedback","test","null","","","na","","138","",""
"1371.5999999046326","281846","HierDy6xxxex85","sub12","12","07","rl","test","68","img/b_t_stripes.png","3","68","shape,color,pattern","139","1",""
"null","282861","HierDy6xxxex85","sub12","12","07","feedback","test","null","","","na","","139","",""
"1170.3000000715256","284034","HierDy6xxxex85","sub12","12","07","rl","test","83","img/r_t_check.png","2","83","shape,color,pattern","140","1",""
"null","285041","HierDy6xxxex85","sub12","12","07","feedback","test","null","","","na","","140","",""
"1475.3999999761581","286519","HierDy6xxxex85","sub12","12","07","rl","test","72","img/r_d_stripes.png","5","72","shape,color,pattern","141","1",""
"null","287541","HierDy6xxxex85","sub12","12","07","feedback","test","null","","","na","","141","",""
"1182.8000000715256","288726","HierDy6xxxex85","sub12","12","07","rl","test","75","img/b_d_stripes.png","7","75","shape,color,pattern","142","1",""
"null","289740","HierDy6xxxex85","sub12","12","07","feedback","test","null","","","na","","142","",""
"1594.3999999761581","291335","HierDy6xxxex85","sub12","12","07","rl","test","70","img/b_t_check.png","4","70","shape,color,pattern","143","1",""
"null","292346","HierDy6xxxex85","sub12","12","07","feedback","test","null","","","na","","143","",""
"1001.9000000953674","293349","HierDy6xxxex85","sub12","12","07","rl","test","74","img/r_d_check.png","6","74","shape,color,pattern","144","1",""
"null","294363","HierDy6xxxex85","sub12","12","07","feedback","test","null","","","na","","144","",""
"1019.7999999523163","295385","HierDy6xxxex85","sub12","12","07","rl","test","74","img/r_d_check.png","6","74","shape,color,pattern","145","1",""
"null","296404","HierDy6xxxex85","sub12","12","07","feedback","test","null","","","na","","145","",""
"869.1999999284744","297275","HierDy6xxxex85","sub12","12","07","rl","test","83","img/r_t_check.png","2","83","shape,color,pattern","146","1",""
"null","298291","HierDy6xxxex85","sub12","12","07","feedback","test","null","","","na","","146","",""
"911.3999999761581","299205","HierDy6xxxex85","sub12","12","07","rl","test","74","img/r_d_check.png","6","74","shape,color,pattern","147","1",""
"null","300220","HierDy6xxxex85","sub12","12","07","feedback","test","null","","","na","","147","",""
"638.0999999046326","300859","HierDy6xxxex85","sub12","12","07","rl","test","72","img/r_d_stripes.png","5","72","shape,color,pattern","148","1",""
"null","301874","HierDy6xxxex85","sub12","12","07","feedback","test","null","","","na","","148","",""
"1426.6000000238419","303302","HierDy6xxxex85","sub12","12","07","rl","test","70","img/b_t_check.png","4","70","shape,color,pattern","149","1",""
"null","304321","HierDy6xxxex85","sub12","12","07","feedback","test","null","","","na","","149","",""
"1265.6000000238419","305588","HierDy6xxxex85","sub12","12","07","rl","test","76","img/b_d_check.png","8","76","shape,color,pattern","150","1",""
"null","306599","HierDy6xxxex85","sub12","12","07","feedback","test","null","","","na","","150","",""
"931.5999999046326","307533","HierDy6xxxex85","sub12","12","07","rl","test","75","img/b_d_stripes.png","7","75","shape,color,pattern","151","1",""
"null","308550","HierDy6xxxex85","sub12","12","07","feedback","test","null","","","na","","151","",""
"858","309410","HierDy6xxxex85","sub12","12","07","rl","test","68","img/b_t_stripes.png","3","68","shape,color,pattern","152","1",""
"null","310427","HierDy6xxxex85","sub12","12","07","feedback","test","null","","","na","","152","",""
"751.3000000715256","311180","HierDy6xxxex85","sub12","12","07","rl","test","65","img/r_t_stripes.png","1","65","shape,color,pattern","153","1",""
"null","312197","HierDy6xxxex85","sub12","12","07","feedback","test","null","","","na","","153","",""
"903.7000000476837","313103","HierDy6xxxex85","sub12","12","07","rl","test","70","img/b_t_check.png","4","70","shape,color,pattern","154","1",""
"null","314113","HierDy6xxxex85","sub12","12","07","feedback","test","null","","","na","","154","",""
"1544.5","315659","HierDy6xxxex85","sub12","12","07","rl","test","75","img/b_d_stripes.png","7","75","shape,color,pattern","155","1",""
"null","316670","HierDy6xxxex85","sub12","12","07","feedback","test","null","","","na","","155","",""
"1307.7000000476837","317979","HierDy6xxxex85","sub12","12","07","rl","test","83","img/r_t_check.png","2","83","shape,color,pattern","156","1",""
"null","318986","HierDy6xxxex85","sub12","12","07","feedback","test","null","","","na","","156","",""
"1241.2999999523163","320229","HierDy6xxxex85","sub12","12","07","rl","test","76","img/b_d_check.png","8","76","shape,color,pattern","157","1",""
"null","321242","HierDy6xxxex85","sub12","12","07","feedback","test","null","","","na","","157","",""
"967.7999999523163","322211","HierDy6xxxex85","sub12","12","07","rl","test","83","img/r_t_check.png","2","83","shape,color,pattern","158","1",""
"null","323223","HierDy6xxxex85","sub12","12","07","feedback","test","null","","","na","","158","",""
"1480.7999999523163","324706","HierDy6xxxex85","sub12","12","07","rl","test","74","img/r_d_check.png","6","74","shape,color,pattern","159","1",""
"null","325721","HierDy6xxxex85","sub12","12","07","feedback","test","null","","","na","","159","",""
"1592.3000000715256","327315","HierDy6xxxex85","sub12","12","07","rl","test","68","img/b_t_stripes.png","3","68","shape,color,pattern","160","1",""
"null","328341","HierDy6xxxex85","sub12","12","07","feedback","test","null","","","na","","160","",""
"819.2999999523163","329162","HierDy6xxxex85","sub12","12","07","rl","test","72","img/r_d_stripes.png","5","72","shape,color,pattern","161","1",""
"null","330170","HierDy6xxxex85","sub12","12","07","feedback","test","null","","","na","","161","",""
"823.2000000476837","330995","HierDy6xxxex85","sub12","12","07","rl","test","72","img/r_d_stripes.png","5","72","shape,color,pattern","162","1",""
"null","332014","HierDy6xxxex85","sub12","12","07","feedback","test","null","","","na","","162","",""
"644.8999999761581","332661","HierDy6xxxex85","sub12","12","07","rl","test","65","img/r_t_stripes.png","1","65","shape,color,pattern","163","1",""
"null","333670","HierDy6xxxex85","sub12","12","07","feedback","test","null","","","na","","163","",""
"656.7000000476837","334329","HierDy6xxxex85","sub12","12","07","rl","test","65","img/r_t_stripes.png","1","65","shape,color,pattern","164","1",""
"null","335343","HierDy6xxxex85","sub12","12","07","feedback","test","null","","","na","","164","",""
"1182.2999999523163","336527","HierDy6xxxex85","sub12","12","07","rl","test","70","img/b_t_check.png","4","70","shape,color,pattern","165","1",""
"null","337544","HierDy6xxxex85","sub12","12","07","feedback","test","null","","","na","","165","",""
"1264.2000000476837","338811","HierDy6xxxex85","sub12","12","07","rl","test","76","img/b_d_check.png","8","76","shape,color,pattern","166","1",""
"null","339815","HierDy6xxxex85","sub12","12","07","feedback","test","null","","","na","","166","",""
"961","340777","HierDy6xxxex85","sub12","12","07","rl","test","75","img/b_d_stripes.png","7","75","shape,color,pattern","167","1",""
"null","341787","HierDy6xxxex85","sub12","12","07","feedback","test","null","","","na","","167","",""
"779.2999999523163","342569","HierDy6xxxex85","sub12","12","07","rl","test","65","img/b_t_stripes.png","3","68","shape,color,pattern","168","0",""
"null","343576","HierDy6xxxex85","sub12","12","07","feedback","test","null","","","na","","168","",""
"1820.6999999284744","345398","HierDy6xxxex85","sub12","12","07","rl","test","76","img/b_d_check.png","8","76","shape,color,pattern","169","1",""
"null","346416","HierDy6xxxex85","sub12","12","07","feedback","test","null","","","na","","169","",""
"1112.7999999523163","347531","HierDy6xxxex85","sub12","12","07","rl","test","68","img/b_t_stripes.png","3","68","shape,color,pattern","170","1",""
"null","348536","HierDy6xxxex85","sub12","12","07","feedback","test","null","","","na","","170","",""
"1193.7999999523163","349731","HierDy6xxxex85","sub12","12","07","rl","test","75","img/b_d_stripes.png","7","75","shape,color,pattern","171","1",""
"null","350748","HierDy6xxxex85","sub12","12","07","feedback","test","null","","","na","","171","",""
"924.2999999523163","351675","HierDy6xxxex85","sub12","12","07","rl","test","83","img/r_t_check.png","2","83","shape,color,pattern","172","1",""
"null","352690","HierDy6xxxex85","sub12","12","07","feedback","test","null","","","na","","172","",""
"1345.7999999523163","354037","HierDy6xxxex85","sub12","12","07","rl","test","74","img/r_d_check.png","6","74","shape,color,pattern","173","1",""
"null","355048","HierDy6xxxex85","sub12","12","07","feedback","test","null","","","na","","173","",""
"1445.5","356495","HierDy6xxxex85","sub12","12","07","rl","test","75","img/b_d_stripes.png","7","75","shape,color,pattern","174","1",""
"null","357503","HierDy6xxxex85","sub12","12","07","feedback","test","null","","","na","","174","",""
"723.7999999523163","358228","HierDy6xxxex85","sub12","12","07","rl","test","76","img/b_d_check.png","8","76","shape,color,pattern","175","1",""
"null","359242","HierDy6xxxex85","sub12","12","07","feedback","test","null","","","na","","175","",""
"1142","360385","HierDy6xxxex85","sub12","12","07","rl","test","68","img/b_t_check.png","4","70","shape,color,pattern","176","0",""
"null","361398","HierDy6xxxex85","sub12","12","07","feedback","test","null","","","na","","176","",""
"1224.3999999761581","362624","HierDy6xxxex85","sub12","12","07","rl","test","72","img/r_d_stripes.png","5","72","shape,color,pattern","177","1",""
"null","363629","HierDy6xxxex85","sub12","12","07","feedback","test","null","","","na","","177","",""
"783.6999999284744","364414","HierDy6xxxex85","sub12","12","07","rl","test","74","img/r_d_check.png","6","74","shape,color,pattern","178","1",""
"null","365435","HierDy6xxxex85","sub12","12","07","feedback","test","null","","","na","","178","",""
"644.8999999761581","366082","HierDy6xxxex85","sub12","12","07","rl","test","65","img/r_t_stripes.png","1","65","shape,color,pattern","179","1",""
"null","367099","HierDy6xxxex85","sub12","12","07","feedback","test","null","","","na","","179","",""
"833.7999999523163","367936","HierDy6xxxex85","sub12","12","07","rl","test","83","img/r_t_check.png","2","83","shape,color,pattern","180","1",""
"null","368943","HierDy6xxxex85","sub12","12","07","feedback","test","null","","","na","","180","",""
"598.1999999284744","369543","HierDy6xxxex85","sub12","12","07","rl","test","65","img/r_t_stripes.png","1","65","shape,color,pattern","181","1",""
"null","370552","HierDy6xxxex85","sub12","12","07","feedback","test","null","","","na","","181","",""
"1161.2999999523163","371715","HierDy6xxxex85","sub12","12","07","rl","test","70","img/b_t_check.png","4","70","shape,color,pattern","182","1",""
"null","372730","HierDy6xxxex85","sub12","12","07","feedback","test","null","","","na","","182","",""
"741.3999999761581","373473","HierDy6xxxex85","sub12","12","07","rl","test","68","img/b_t_stripes.png","3","68","shape,color,pattern","183","1",""
"null","374485","HierDy6xxxex85","sub12","12","07","feedback","test","null","","","na","","183","",""
"836.4000000953674","375323","HierDy6xxxex85","sub12","12","07","rl","test","72","img/r_d_stripes.png","5","72","shape,color,pattern","184","1",""
"null","376326","HierDy6xxxex85","sub12","12","07","feedback","test","null","","","na","","184","",""
"960","377288","HierDy6xxxex85","sub12","12","07","rl","test","70","img/b_t_check.png","4","70","shape,color,pattern","185","1",""
"null","378296","HierDy6xxxex85","sub12","12","07","feedback","test","null","","","na","","185","",""
"729.0999999046326","379028","HierDy6xxxex85","sub12","12","07","rl","test","65","img/r_t_stripes.png","1","65","shape,color,pattern","186","1",""
"null","380050","HierDy6xxxex85","sub12","12","07","feedback","test","null","","","na","","186","",""
"1483","381535","HierDy6xxxex85","sub12","12","07","rl","test","68","img/b_t_stripes.png","3","68","shape,color,pattern","187","1",""
"null","382550","HierDy6xxxex85","sub12","12","07","feedback","test","null","","","na","","187","",""
"1492.1999999284744","384044","HierDy6xxxex85","sub12","12","07","rl","test","75","img/b_d_stripes.png","7","75","shape,color,pattern","188","1",""
"null","385059","HierDy6xxxex85","sub12","12","07","feedback","test","null","","","na","","188","",""
"1854.3999999761581","386916","HierDy6xxxex85","sub12","12","07","rl","test","70","img/r_t_check.png","2","83","shape,color,pattern","189","0",""
"null","387936","HierDy6xxxex85","sub12","12","07","feedback","test","null","","","na","","189","",""
"1181","389121","HierDy6xxxex85","sub12","12","07","rl","test","76","img/b_d_check.png","8","76","shape,color,pattern","190","1",""
"null","390131","HierDy6xxxex85","sub12","12","07","feedback","test","null","","","na","","190","",""
"1142.1999999284744","391274","HierDy6xxxex85","sub12","12","07","rl","test","72","img/r_d_stripes.png","5","72","shape,color,pattern","191","1",""
"null","392279","HierDy6xxxex85","sub12","12","07","feedback","test","null","","","na","","191","",""
"503.1999999284744","392784","HierDy6xxxex85","sub12","12","07","rl","test","74","img/r_d_check.png","6","74","shape,color,pattern","192","1",""
"null","393793","HierDy6xxxex85","sub12","12","07","feedback","test","null","","","na","","192","",""
"542.5","394337","HierDy6xxxex85","sub12","12","07","rl","test","74","img/r_d_check.png","6","74","shape,color,pattern","193","1",""
"null","395347","HierDy6xxxex85","sub12","12","07","feedback","test","null","","","na","","193","",""
"765.5","396114","HierDy6xxxex85","sub12","12","07","rl","test","72","img/r_d_stripes.png","5","72","shape,color,pattern","194","1",""
"null","397120","HierDy6xxxex85","sub12","12","07","feedback","test","null","","","na","","194","",""
"1105.4000000953674","398226","HierDy6xxxex85","sub12","12","07","rl","test","70","img/b_t_check.png","4","70","shape,color,pattern","195","1",""
"null","399242","HierDy6xxxex85","sub12","12","07","feedback","test","null","","","na","","195","",""
"1072.2999999523163","400316","HierDy6xxxex85","sub12","12","07","rl","test","76","img/b_d_check.png","8","76","shape,color,pattern","196","1",""
"null","401329","HierDy6xxxex85","sub12","12","07","feedback","test","null","","","na","","196","",""
"600.7000000476837","401932","HierDy6xxxex85","sub12","12","07","rl","test","65","img/r_t_stripes.png","1","65","shape,color,pattern","197","1",""
"null","402951","HierDy6xxxex85","sub12","12","07","feedback","test","null","","","na","","197","",""
"1404.8000000715256","404357","HierDy6xxxex85","sub12","12","07","rl","test","75","img/b_d_stripes.png","7","75","shape,color,pattern","198","1",""
"null","405378","HierDy6xxxex85","sub12","12","07","feedback","test","null","","","na","","198","",""
"1626.8999999761581","407006","HierDy6xxxex85","sub12","12","07","rl","test","68","img/b_t_stripes.png","3","68","shape,color,pattern","199","1",""
"null","408028","HierDy6xxxex85","sub12","12","07","feedback","test","null","","","na","","199","",""
"747.6000000238419","408778","HierDy6xxxex85","sub12","12","07","rl","test","74","img/r_d_check.png","6","74","shape,color,pattern","200","1",""
"null","409797","HierDy6xxxex85","sub12","12","07","feedback","test","null","","","na","","200","",""
"1122.5","410922","HierDy6xxxex85","sub12","12","07","rl","test","83","img/r_t_check.png","2","83","shape,color,pattern","201","1",""
"null","411928","HierDy6xxxex85","sub12","12","07","feedback","test","null","","","na","","201","",""
"1192.2999999523163","413122","HierDy6xxxex85","sub12","12","07","rl","test","72","img/r_d_stripes.png","5","72","shape,color,pattern","202","1",""
"null","414130","HierDy6xxxex85","sub12","12","07","feedback","test","null","","","na","","202","",""
"1049.5999999046326","415181","HierDy6xxxex85","sub12","12","07","rl","test","68","img/b_t_stripes.png","3","68","shape,color,pattern","203","1",""
"null","416197","HierDy6xxxex85","sub12","12","07","feedback","test","null","","","na","","203","",""
"517.2999999523163","416715","HierDy6xxxex85","sub12","12","07","rl","test","70","img/b_t_check.png","4","70","shape,color,pattern","204","1",""
"null","417728","HierDy6xxxex85","sub12","12","07","feedback","test","null","","","na","","204","",""
"612.8999999761581","418343","HierDy6xxxex85","sub12","12","07","rl","test","83","img/r_t_check.png","2","83","shape,color,pattern","205","1",""
"null","419366","HierDy6xxxex85","sub12","12","07","feedback","test","null","","","na","","205","",""
"793.3000000715256","420162","HierDy6xxxex85","sub12","12","07","rl","test","76","img/b_d_check.png","8","76","shape,color,pattern","206","1",""
"null","421177","HierDy6xxxex85","sub12","12","07","feedback","test","null","","","na","","206","",""
"632","421811","HierDy6xxxex85","sub12","12","07","rl","test","76","img/b_d_check.png","8","76","shape,color,pattern","207","1",""
"null","422815","HierDy6xxxex85","sub12","12","07","feedback","test","null","","","na","","207","",""
"1077.1000000238419","423895","HierDy6xxxex85","sub12","12","07","rl","test","68","img/b_t_stripes.png","3","68","shape,color,pattern","208","1",""
"null","424911","HierDy6xxxex85","sub12","12","07","feedback","test","null","","","na","","208","",""
"702.3999999761581","425615","HierDy6xxxex85","sub12","12","07","rl","test","70","img/b_t_check.png","4","70","shape,color,pattern","209","1",""
"null","426633","HierDy6xxxex85","sub12","12","07","feedback","test","null","","","na","","209","",""
"648.7999999523163","427284","HierDy6xxxex85","sub12","12","07","rl","test","65","img/r_t_stripes.png","1","65","shape,color,pattern","210","1",""
"null","428299","HierDy6xxxex85","sub12","12","07","feedback","test","null","","","na","","210","",""
"1184.8999999761581","429487","HierDy6xxxex85","sub12","12","07","rl","test","75","img/b_d_stripes.png","7","75","shape,color,pattern","211","1",""
"null","430496","HierDy6xxxex85","sub12","12","07","feedback","test","null","","","na","","211","",""
"877.6000000238419","431375","HierDy6xxxex85","sub12","12","07","rl","test","65","img/r_t_stripes.png","1","65","shape,color,pattern","212","1",""
"null","432385","HierDy6xxxex85","sub12","12","07","feedback","test","null","","","na","","212","",""
"1538.6999999284744","433926","HierDy6xxxex85","sub12","12","07","rl","test","75","img/b_d_stripes.png","7","75","shape,color,pattern","213","1",""
"null","434938","HierDy6xxxex85","sub12","12","07","feedback","test","null","","","na","","213","",""
"1157.6000000238419","436097","HierDy6xxxex85","sub12","12","07","rl","test","74","img/r_d_check.png","6","74","shape,color,pattern","214","1",""
"null","437111","HierDy6xxxex85","sub12","12","07","feedback","test","null","","","na","","214","",""
"739.3999999761581","437854","HierDy6xxxex85","sub12","12","07","rl","test","72","img/r_d_stripes.png","5","72","shape,color,pattern","215","1",""
"null","438868","HierDy6xxxex85","sub12","12","07","feedback","test","null","","","na","","215","",""
"1513.1000000238419","440383","HierDy6xxxex85","sub12","12","07","rl","test","83","img/r_t_check.png","2","83","shape,color,pattern","216","1",""
"null","441397","HierDy6xxxex85","sub12","12","07","feedback","test","null","","","na","","216","",""
"653.5","442052","HierDy6xxxex85","sub12","12","07","rl","test","83","img/r_t_check.png","2","83","shape,color,pattern","217","1",""
"null","443067","HierDy6xxxex85","sub12","12","07","feedback","test","null","","","na","","217","",""
"764","443834","HierDy6xxxex85","sub12","12","07","rl","test","70","img/b_t_check.png","4","70","shape,color,pattern","218","1",""
"null","444851","HierDy6xxxex85","sub12","12","07","feedback","test","null","","","na","","218","",""
"1178.2000000476837","446031","HierDy6xxxex85","sub12","12","07","rl","test","76","img/b_d_check.png","8","76","shape,color,pattern","219","1",""
"null","447051","HierDy6xxxex85","sub12","12","07","feedback","test","null","","","na","","219","",""
"665","447718","HierDy6xxxex85","sub12","12","07","rl","test","75","img/b_d_stripes.png","7","75","shape,color,pattern","220","1",""
"null","448729","HierDy6xxxex85","sub12","12","07","feedback","test","null","","","na","","220","",""
"705.7000000476837","449437","HierDy6xxxex85","sub12","12","07","rl","test","72","img/r_d_stripes.png","5","72","shape,color,pattern","221","1",""
"null","450459","HierDy6xxxex85","sub12","12","07","feedback","test","null","","","na","","221","",""
"1769.1000000238419","452230","HierDy6xxxex85","sub12","12","07","rl","test","74","img/r_d_check.png","6","74","shape,color,pattern","222","1",""
"null","453238","HierDy6xxxex85","sub12","12","07","feedback","test","null","","","na","","222","",""
"1858.2000000476837","455098","HierDy6xxxex85","sub12","12","07","rl","test","68","img/b_t_stripes.png","3","68","shape,color,pattern","223","1",""
"null","456108","HierDy6xxxex85","sub12","12","07","feedback","test","null","","","na","","223","",""
"1903.8000000715256","458014","HierDy6xxxex85","sub12","12","07","rl","test","72","img/r_d_stripes.png","5","72","shape,color,pattern","224","1",""
"null","459024","HierDy6xxxex85","sub12","12","07","feedback","test","null","","","na","","224","",""
"578.7000000476837","459605","HierDy6xxxex85","sub12","12","07","rl","test","74","img/r_d_check.png","6","74","shape,color,pattern","225","1",""
"null","460617","HierDy6xxxex85","sub12","12","07","feedback","test","null","","","na","","225","",""
"680.8999999761581","461300","HierDy6xxxex85","sub12","12","07","rl","test","65","img/r_t_stripes.png","1","65","shape,color,pattern","226","1",""
"null","462310","HierDy6xxxex85","sub12","12","07","feedback","test","null","","","na","","226","",""
"707.4000000953674","463018","HierDy6xxxex85","sub12","12","07","rl","test","83","img/r_t_check.png","2","83","shape,color,pattern","227","1",""
"null","464028","HierDy6xxxex85","sub12","12","07","feedback","test","null","","","na","","227","",""
"700.1000000238419","464731","HierDy6xxxex85","sub12","12","07","rl","test","68","img/b_t_stripes.png","3","68","shape,color,pattern","228","1",""
"null","465745","HierDy6xxxex85","sub12","12","07","feedback","test","null","","","na","","228","",""
"1028.8000000715256","466775","HierDy6xxxex85","sub12","12","07","rl","test","75","img/b_d_stripes.png","7","75","shape,color,pattern","229","1",""
"null","467787","HierDy6xxxex85","sub12","12","07","feedback","test","null","","","na","","229","",""
"965.5","468754","HierDy6xxxex85","sub12","12","07","rl","test","70","img/b_t_check.png","4","70","shape,color,pattern","230","1",""
"null","469770","HierDy6xxxex85","sub12","12","07","feedback","test","null","","","na","","230","",""
"1041.8999999761581","470813","HierDy6xxxex85","sub12","12","07","rl","test","70","img/b_t_check.png","4","70","shape,color,pattern","231","1",""
"null","471832","HierDy6xxxex85","sub12","12","07","feedback","test","null","","","na","","231","",""
"528.5999999046326","472362","HierDy6xxxex85","sub12","12","07","rl","test","65","img/r_t_stripes.png","1","65","shape,color,pattern","232","1",""
"null","473376","HierDy6xxxex85","sub12","12","07","feedback","test","null","","","na","","232","",""
"1007.4000000953674","474386","HierDy6xxxex85","sub12","12","07","rl","test","74","img/r_d_check.png","6","74","shape,color,pattern","233","1",""
"null","475400","HierDy6xxxex85","sub12","12","07","feedback","test","null","","","na","","233","",""
"877.2000000476837","476280","HierDy6xxxex85","sub12","12","07","rl","test","76","img/b_d_check.png","8","76","shape,color,pattern","234","1",""
"null","477297","HierDy6xxxex85","sub12","12","07","feedback","test","null","","","na","","234","",""
"1027.6000000238419","478327","HierDy6xxxex85","sub12","12","07","rl","test","68","img/b_t_stripes.png","3","68","shape,color,pattern","235","1",""
"null","479335","HierDy6xxxex85","sub12","12","07","feedback","test","null","","","na","","235","",""
"563.6000000238419","479900","HierDy6xxxex85","sub12","12","07","rl","test","65","img/r_t_stripes.png","1","65","shape,color,pattern","236","1",""
"null","480914","HierDy6xxxex85","sub12","12","07","feedback","test","null","","","na","","236","",""
"941.1999999284744","481857","HierDy6xxxex85","sub12","12","07","rl","test","75","img/b_d_stripes.png","7","75","shape,color,pattern","237","1",""
"null","482865","HierDy6xxxex85","sub12","12","07","feedback","test","null","","","na","","237","",""
"1288.3000000715256","484156","HierDy6xxxex85","sub12","12","07","rl","test","83","img/r_t_check.png","2","83","shape,color,pattern","238","1",""
"null","485173","HierDy6xxxex85","sub12","12","07","feedback","test","null","","","na","","238","",""
"760.6999999284744","485936","HierDy6xxxex85","sub12","12","07","rl","test","72","img/r_d_stripes.png","5","72","shape,color,pattern","239","1",""
"null","486949","HierDy6xxxex85","sub12","12","07","feedback","test","null","","","na","","239","",""
"1045","487996","HierDy6xxxex85","sub12","12","07","rl","test","76","img/b_d_check.png","8","76","shape,color,pattern","240","1",""
"null","489010","HierDy6xxxex85","sub12","12","07","feedback","test","null","","","na","","240","",""
"909.8999999761581","489921","HierDy6xxxex85","sub12","12","07","rl","test","72","img/r_d_stripes.png","5","72","shape,color,pattern","241","1",""
"null","490936","HierDy6xxxex85","sub12","12","07","feedback","test","null","","","na","","241","",""
"615.3000000715256","491553","HierDy6xxxex85","sub12","12","07","rl","test","75","img/b_d_stripes.png","7","75","shape,color,pattern","242","1",""
"null","492559","HierDy6xxxex85","sub12","12","07","feedback","test","null","","","na","","242","",""
"749.1000000238419","493309","HierDy6xxxex85","sub12","12","07","rl","test","76","img/r_d_check.png","6","74","shape,color,pattern","243","0",""
"null","494320","HierDy6xxxex85","sub12","12","07","feedback","test","null","","","na","","243","",""
"656.5","494978","HierDy6xxxex85","sub12","12","07","rl","test","76","img/b_d_check.png","8","76","shape,color,pattern","244","1",""
"null","495990","HierDy6xxxex85","sub12","12","07","feedback","test","null","","","na","","244","",""
"1282.5","497276","HierDy6xxxex85","sub12","12","07","rl","test","83","img/r_t_check.png","2","83","shape,color,pattern","245","1",""
"null","498299","HierDy6xxxex85","sub12","12","07","feedback","test","null","","","na","","245","",""
"1298.7000000476837","499600","HierDy6xxxex85","sub12","12","07","rl","test","70","img/b_t_check.png","4","70","shape,color,pattern","246","1",""
"null","500611","HierDy6xxxex85","sub12","12","07","feedback","test","null","","","na","","246","",""
"730.8999999761581","501343","HierDy6xxxex85","sub12","12","07","rl","test","68","img/b_t_stripes.png","3","68","shape,color,pattern","247","1",""
"null","502364","HierDy6xxxex85","sub12","12","07","feedback","test","null","","","na","","247","",""
"695.7999999523163","503062","HierDy6xxxex85","sub12","12","07","rl","test","70","img/b_t_check.png","4","70","shape,color,pattern","248","1",""
"null","504082","HierDy6xxxex85","sub12","12","07","feedback","test","null","","","na","","248","",""
"9280.899999976158","513369","HierDy6xxxex85","sub12","12","07","","","","","","","","","","{""Q0"":""3.5""}"
"3998.3000000715256","517370","HierDy6xxxex85","sub12","12","07","","","","","","","","","","{""Q0"":""Red to the left of blue, stripes to the left of squares, and triangles to the left of diamonds. Shapes are grouped next to each other by colors.""}"
"2069.100000023842","519440","HierDy6xxxex85","sub12","12","07","","","","","","","","","",""
