"rt","time_elapsed","subject","subID","group","day","trialType","phase","key_press","stim","stimNum","corrresp","hierarchy","trialNum","corr","responses"
"5282.5","5284","HierDy35eupmsd","sub26","02","07","","","","","","","","","",""
"","7784","HierDy35eupmsd","sub26","02","07","fullscreen","","","","","","","","",""
"625.4000000059605","8411","HierDy35eupmsd","sub26","02","07","","prac","","","","","","","",""
"396.5","8811","HierDy35eupmsd","sub26","02","07","","","32","","","","","","",""
"1346.800000011921","10159","HierDy35eupmsd","sub26","02","07","","prac","","","","","","","",""
"1136.800000011921","11300","HierDy35eupmsd","sub26","02","07","rl","test","72","img/o_t_check.png","5","72","color,shape,pattern","1","1",""
"null","12308","HierDy35eupmsd","sub26","02","07","feedback","test","null","","","na","","1","",""
"914.8000000119209","13225","HierDy35eupmsd","sub26","02","07","rl","test","83","img/p_d_diag.png","4","70","color,shape,pattern","2","0",""
"null","14240","HierDy35eupmsd","sub26","02","07","feedback","test","null","","","na","","2","",""
"748.2999999821186","14990","HierDy35eupmsd","sub26","02","07","rl","test","65","img/p_t_check.png","1","65","color,shape,pattern","3","1",""
"null","15995","HierDy35eupmsd","sub26","02","07","feedback","test","null","","","na","","3","",""
"848.4000000059605","16846","HierDy35eupmsd","sub26","02","07","rl","test","68","img/p_d_check.png","3","68","color,shape,pattern","4","1",""
"null","17850","HierDy35eupmsd","sub26","02","07","feedback","test","null","","","na","","4","",""
"1184.3999999761581","19037","HierDy35eupmsd","sub26","02","07","rl","test","76","img/o_d_diag.png","8","76","color,shape,pattern","5","1",""
"null","20043","HierDy35eupmsd","sub26","02","07","feedback","test","null","","","na","","5","",""
"693.3000000119209","20738","HierDy35eupmsd","sub26","02","07","rl","test","74","img/o_t_diag.png","6","74","color,shape,pattern","6","1",""
"null","21747","HierDy35eupmsd","sub26","02","07","feedback","test","null","","","na","","6","",""
"627.8000000119209","22377","HierDy35eupmsd","sub26","02","07","rl","test","83","img/p_t_diag.png","2","83","color,shape,pattern","7","1",""
"null","23390","HierDy35eupmsd","sub26","02","07","feedback","test","null","","","na","","7","",""
"752","24144","HierDy35eupmsd","sub26","02","07","rl","test","75","img/o_d_check.png","7","75","color,shape,pattern","8","1",""
"null","25156","HierDy35eupmsd","sub26","02","07","feedback","test","null","","","na","","8","",""
"692.3000000119209","25850","HierDy35eupmsd","sub26","02","07","rl","test","74","img/o_t_diag.png","6","74","color,shape,pattern","9","1",""
"null","26860","HierDy35eupmsd","sub26","02","07","feedback","test","null","","","na","","9","",""
"815.9000000059605","27678","HierDy35eupmsd","sub26","02","07","rl","test","65","img/p_t_check.png","1","65","color,shape,pattern","10","1",""
"null","28686","HierDy35eupmsd","sub26","02","07","feedback","test","null","","","na","","10","",""
"603.8000000119209","29292","HierDy35eupmsd","sub26","02","07","rl","test","83","img/p_t_diag.png","2","83","color,shape,pattern","11","1",""
"null","30299","HierDy35eupmsd","sub26","02","07","feedback","test","null","","","na","","11","",""
"708.0999999940395","31009","HierDy35eupmsd","sub26","02","07","rl","test","75","img/o_t_check.png","5","72","color,shape,pattern","12","0",""
"null","32019","HierDy35eupmsd","sub26","02","07","feedback","test","null","","","na","","12","",""
"667","32689","HierDy35eupmsd","sub26","02","07","rl","test","83","img/p_t_diag.png","2","83","color,shape,pattern","13","1",""
"null","33699","HierDy35eupmsd","sub26","02","07","feedback","test","null","","","na","","13","",""
"859.0999999940395","34561","HierDy35eupmsd","sub26","02","07","rl","test","70","img/p_d_diag.png","4","70","color,shape,pattern","14","1",""
"null","35571","HierDy35eupmsd","sub26","02","07","feedback","test","null","","","na","","14","",""
"632.2999999821186","36206","HierDy35eupmsd","sub26","02","07","rl","test","75","img/o_d_check.png","7","75","color,shape,pattern","15","1",""
"null","37212","HierDy35eupmsd","sub26","02","07","feedback","test","null","","","na","","15","",""
"558.3000000119209","37772","HierDy35eupmsd","sub26","02","07","rl","test","76","img/o_d_diag.png","8","76","color,shape,pattern","16","1",""
"null","38783","HierDy35eupmsd","sub26","02","07","feedback","test","null","","","na","","16","",""
"994.5","39779","HierDy35eupmsd","sub26","02","07","rl","test","68","img/p_d_check.png","3","68","color,shape,pattern","17","1",""
"null","40786","HierDy35eupmsd","sub26","02","07","feedback","test","null","","","na","","17","",""
"1030.800000011921","41819","HierDy35eupmsd","sub26","02","07","rl","test","68","img/p_d_check.png","3","68","color,shape,pattern","18","1",""
"null","42828","HierDy35eupmsd","sub26","02","07","feedback","test","null","","","na","","18","",""
"716.6999999880791","43546","HierDy35eupmsd","sub26","02","07","rl","test","70","img/p_d_diag.png","4","70","color,shape,pattern","19","1",""
"null","44555","HierDy35eupmsd","sub26","02","07","feedback","test","null","","","na","","19","",""
"1171.0999999940395","45728","HierDy35eupmsd","sub26","02","07","rl","test","72","img/o_t_check.png","5","72","color,shape,pattern","20","1",""
"null","46733","HierDy35eupmsd","sub26","02","07","feedback","test","null","","","na","","20","",""
"728.9000000059605","47464","HierDy35eupmsd","sub26","02","07","rl","test","74","img/o_t_diag.png","6","74","color,shape,pattern","21","1",""
"null","48467","HierDy35eupmsd","sub26","02","07","feedback","test","null","","","na","","21","",""
"655.0999999940395","49124","HierDy35eupmsd","sub26","02","07","rl","test","76","img/o_d_diag.png","8","76","color,shape,pattern","22","1",""
"null","50135","HierDy35eupmsd","sub26","02","07","feedback","test","null","","","na","","22","",""
"1343.5999999940395","51480","HierDy35eupmsd","sub26","02","07","rl","test","76","img/o_d_diag.png","8","76","color,shape,pattern","23","1",""
"null","52491","HierDy35eupmsd","sub26","02","07","feedback","test","null","","","na","","23","",""
"909.1999999880791","53402","HierDy35eupmsd","sub26","02","07","rl","test","65","img/p_t_check.png","1","65","color,shape,pattern","24","1",""
"null","54412","HierDy35eupmsd","sub26","02","07","feedback","test","null","","","na","","24","",""
"628.0999999940395","55041","HierDy35eupmsd","sub26","02","07","rl","test","75","img/o_d_check.png","7","75","color,shape,pattern","25","1",""
"null","56052","HierDy35eupmsd","sub26","02","07","feedback","test","null","","","na","","25","",""
"832.5","56886","HierDy35eupmsd","sub26","02","07","rl","test","65","img/p_t_check.png","1","65","color,shape,pattern","26","1",""
"null","57891","HierDy35eupmsd","sub26","02","07","feedback","test","null","","","na","","26","",""
"886.9000000059605","58778","HierDy35eupmsd","sub26","02","07","rl","test","83","img/p_t_diag.png","2","83","color,shape,pattern","27","1",""
"null","59791","HierDy35eupmsd","sub26","02","07","feedback","test","null","","","na","","27","",""
"732.8999999761581","60525","HierDy35eupmsd","sub26","02","07","rl","test","75","img/o_d_check.png","7","75","color,shape,pattern","28","1",""
"null","61531","HierDy35eupmsd","sub26","02","07","feedback","test","null","","","na","","28","",""
"1472","63004","HierDy35eupmsd","sub26","02","07","rl","test","74","img/o_t_diag.png","6","74","color,shape,pattern","29","1",""
"null","64011","HierDy35eupmsd","sub26","02","07","feedback","test","null","","","na","","29","",""
"1062.5999999940395","65076","HierDy35eupmsd","sub26","02","07","rl","test","68","img/p_d_check.png","3","68","color,shape,pattern","30","1",""
"null","66083","HierDy35eupmsd","sub26","02","07","feedback","test","null","","","na","","30","",""
"758.4000000059605","66843","HierDy35eupmsd","sub26","02","07","rl","test","72","img/o_t_check.png","5","72","color,shape,pattern","31","1",""
"null","67852","HierDy35eupmsd","sub26","02","07","feedback","test","null","","","na","","31","",""
"626.9000000059605","68480","HierDy35eupmsd","sub26","02","07","rl","test","70","img/p_d_diag.png","4","70","color,shape,pattern","32","1",""
"null","69491","HierDy35eupmsd","sub26","02","07","feedback","test","null","","","na","","32","",""
"1203.199999988079","70696","HierDy35eupmsd","sub26","02","07","rl","test","74","img/o_d_diag.png","8","76","color,shape,pattern","33","0",""
"null","71707","HierDy35eupmsd","sub26","02","07","feedback","test","null","","","na","","33","",""
"548","72257","HierDy35eupmsd","sub26","02","07","rl","test","83","img/p_t_diag.png","2","83","color,shape,pattern","34","1",""
"null","73271","HierDy35eupmsd","sub26","02","07","feedback","test","null","","","na","","34","",""
"551.4000000059605","73824","HierDy35eupmsd","sub26","02","07","rl","test","65","img/p_t_check.png","1","65","color,shape,pattern","35","1",""
"null","74835","HierDy35eupmsd","sub26","02","07","feedback","test","null","","","na","","35","",""
"802.0999999940395","75639","HierDy35eupmsd","sub26","02","07","rl","test","68","img/p_d_check.png","3","68","color,shape,pattern","36","1",""
"null","76643","HierDy35eupmsd","sub26","02","07","feedback","test","null","","","na","","36","",""
"588.5","77234","HierDy35eupmsd","sub26","02","07","rl","test","70","img/p_d_diag.png","4","70","color,shape,pattern","37","1",""
"null","78247","HierDy35eupmsd","sub26","02","07","feedback","test","null","","","na","","37","",""
"600.2000000178814","78849","HierDy35eupmsd","sub26","02","07","rl","test","70","img/p_d_diag.png","4","70","color,shape,pattern","38","1",""
"null","79860","HierDy35eupmsd","sub26","02","07","feedback","test","null","","","na","","38","",""
"711.8000000119209","80573","HierDy35eupmsd","sub26","02","07","rl","test","75","img/o_d_check.png","7","75","color,shape,pattern","39","1",""
"null","81583","HierDy35eupmsd","sub26","02","07","feedback","test","null","","","na","","39","",""
"895.9000000059605","82481","HierDy35eupmsd","sub26","02","07","rl","test","68","img/p_d_check.png","3","68","color,shape,pattern","40","1",""
"null","83492","HierDy35eupmsd","sub26","02","07","feedback","test","null","","","na","","40","",""
"760.6999999880791","84255","HierDy35eupmsd","sub26","02","07","rl","test","72","img/o_t_check.png","5","72","color,shape,pattern","41","1",""
"null","85259","HierDy35eupmsd","sub26","02","07","feedback","test","null","","","na","","41","",""
"1461.300000011921","86723","HierDy35eupmsd","sub26","02","07","rl","test","75","img/o_d_check.png","7","75","color,shape,pattern","42","1",""
"null","87733","HierDy35eupmsd","sub26","02","07","feedback","test","null","","","na","","42","",""
"524.8000000119209","88260","HierDy35eupmsd","sub26","02","07","rl","test","74","img/o_t_diag.png","6","74","color,shape,pattern","43","1",""
"null","89267","HierDy35eupmsd","sub26","02","07","feedback","test","null","","","na","","43","",""
"789.2000000178814","90058","HierDy35eupmsd","sub26","02","07","rl","test","74","img/o_t_diag.png","6","74","color,shape,pattern","44","1",""
"null","91071","HierDy35eupmsd","sub26","02","07","feedback","test","null","","","na","","44","",""
"565.5","91638","HierDy35eupmsd","sub26","02","07","rl","test","75","img/o_d_diag.png","8","76","color,shape,pattern","45","0",""
"null","92643","HierDy35eupmsd","sub26","02","07","feedback","test","null","","","na","","45","",""
"1031.5","93677","HierDy35eupmsd","sub26","02","07","rl","test","74","img/o_t_diag.png","6","74","color,shape,pattern","46","1",""
"null","94686","HierDy35eupmsd","sub26","02","07","feedback","test","null","","","na","","46","",""
"694.5","95382","HierDy35eupmsd","sub26","02","07","rl","test","72","img/o_t_check.png","5","72","color,shape,pattern","47","1",""
"null","96390","HierDy35eupmsd","sub26","02","07","feedback","test","null","","","na","","47","",""
"1092.2999999821186","97484","HierDy35eupmsd","sub26","02","07","rl","test","83","img/p_t_diag.png","2","83","color,shape,pattern","48","1",""
"null","98492","HierDy35eupmsd","sub26","02","07","feedback","test","null","","","na","","48","",""
"681.1999999880791","99175","HierDy35eupmsd","sub26","02","07","rl","test","68","img/p_d_check.png","3","68","color,shape,pattern","49","1",""
"null","100183","HierDy35eupmsd","sub26","02","07","feedback","test","null","","","na","","49","",""
"1006.8000000119209","101192","HierDy35eupmsd","sub26","02","07","rl","test","65","img/p_t_check.png","1","65","color,shape,pattern","50","1",""
"null","102203","HierDy35eupmsd","sub26","02","07","feedback","test","null","","","na","","50","",""
"1207.199999988079","103412","HierDy35eupmsd","sub26","02","07","rl","test","83","img/p_t_diag.png","2","83","color,shape,pattern","51","1",""
"null","104420","HierDy35eupmsd","sub26","02","07","feedback","test","null","","","na","","51","",""
"722.5999999940395","105145","HierDy35eupmsd","sub26","02","07","rl","test","65","img/p_t_check.png","1","65","color,shape,pattern","52","1",""
"null","106158","HierDy35eupmsd","sub26","02","07","feedback","test","null","","","na","","52","",""
"1207.300000011921","107368","HierDy35eupmsd","sub26","02","07","rl","test","70","img/p_d_diag.png","4","70","color,shape,pattern","53","1",""
"null","108371","HierDy35eupmsd","sub26","02","07","feedback","test","null","","","na","","53","",""
"1146","109519","HierDy35eupmsd","sub26","02","07","rl","test","74","img/o_t_diag.png","6","74","color,shape,pattern","54","1",""
"null","110524","HierDy35eupmsd","sub26","02","07","feedback","test","null","","","na","","54","",""
"681.5999999940395","111208","HierDy35eupmsd","sub26","02","07","rl","test","75","img/o_d_check.png","7","75","color,shape,pattern","55","1",""
"null","112212","HierDy35eupmsd","sub26","02","07","feedback","test","null","","","na","","55","",""
"759.6999999880791","112974","HierDy35eupmsd","sub26","02","07","rl","test","72","img/o_t_check.png","5","72","color,shape,pattern","56","1",""
"null","113983","HierDy35eupmsd","sub26","02","07","feedback","test","null","","","na","","56","",""
"677.7999999821186","114663","HierDy35eupmsd","sub26","02","07","rl","test","76","img/o_d_diag.png","8","76","color,shape,pattern","57","1",""
"null","115668","HierDy35eupmsd","sub26","02","07","feedback","test","null","","","na","","57","",""
"962.4000000059605","116632","HierDy35eupmsd","sub26","02","07","rl","test","83","img/p_t_diag.png","2","83","color,shape,pattern","58","1",""
"null","117643","HierDy35eupmsd","sub26","02","07","feedback","test","null","","","na","","58","",""
"799.5999999940395","118445","HierDy35eupmsd","sub26","02","07","rl","test","75","img/o_d_check.png","7","75","color,shape,pattern","59","1",""
"null","119451","HierDy35eupmsd","sub26","02","07","feedback","test","null","","","na","","59","",""
"1658.5999999940395","121112","HierDy35eupmsd","sub26","02","07","rl","test","72","img/o_t_check.png","5","72","color,shape,pattern","60","1",""
"null","122127","HierDy35eupmsd","sub26","02","07","feedback","test","null","","","na","","60","",""
"1316.300000011921","123444","HierDy35eupmsd","sub26","02","07","rl","test","70","img/p_d_diag.png","4","70","color,shape,pattern","61","1",""
"null","124452","HierDy35eupmsd","sub26","02","07","feedback","test","null","","","na","","61","",""
"999.2000000178814","125453","HierDy35eupmsd","sub26","02","07","rl","test","76","img/o_d_diag.png","8","76","color,shape,pattern","62","1",""
"null","126460","HierDy35eupmsd","sub26","02","07","feedback","test","null","","","na","","62","",""
"569.5","127031","HierDy35eupmsd","sub26","02","07","rl","test","65","img/p_t_check.png","1","65","color,shape,pattern","63","1",""
"null","128036","HierDy35eupmsd","sub26","02","07","feedback","test","null","","","na","","63","",""
"1216.699999988079","129255","HierDy35eupmsd","sub26","02","07","rl","test","68","img/p_d_check.png","3","68","color,shape,pattern","64","1",""
"null","130260","HierDy35eupmsd","sub26","02","07","feedback","test","null","","","na","","64","",""
"644.7000000178814","130907","HierDy35eupmsd","sub26","02","07","rl","test","76","img/o_d_diag.png","8","76","color,shape,pattern","65","1",""
"null","131919","HierDy35eupmsd","sub26","02","07","feedback","test","null","","","na","","65","",""
"780.1999999880791","132702","HierDy35eupmsd","sub26","02","07","rl","test","68","img/p_d_check.png","3","68","color,shape,pattern","66","1",""
"null","133707","HierDy35eupmsd","sub26","02","07","feedback","test","null","","","na","","66","",""
"738.2999999821186","134448","HierDy35eupmsd","sub26","02","07","rl","test","74","img/o_t_diag.png","6","74","color,shape,pattern","67","1",""
"null","135452","HierDy35eupmsd","sub26","02","07","feedback","test","null","","","na","","67","",""
"707.6999999880791","136162","HierDy35eupmsd","sub26","02","07","rl","test","83","img/p_t_diag.png","2","83","color,shape,pattern","68","1",""
"null","137172","HierDy35eupmsd","sub26","02","07","feedback","test","null","","","na","","68","",""
"1018.3000000119209","138192","HierDy35eupmsd","sub26","02","07","rl","test","68","img/p_t_check.png","1","65","color,shape,pattern","69","0",""
"null","139199","HierDy35eupmsd","sub26","02","07","feedback","test","null","","","na","","69","",""
"654.3999999761581","139855","HierDy35eupmsd","sub26","02","07","rl","test","70","img/p_d_diag.png","4","70","color,shape,pattern","70","1",""
"null","140859","HierDy35eupmsd","sub26","02","07","feedback","test","null","","","na","","70","",""
"629.4000000059605","141491","HierDy35eupmsd","sub26","02","07","rl","test","75","img/o_d_check.png","7","75","color,shape,pattern","71","1",""
"null","142499","HierDy35eupmsd","sub26","02","07","feedback","test","null","","","na","","71","",""
"883.1999999880791","143385","HierDy35eupmsd","sub26","02","07","rl","test","76","img/o_d_diag.png","8","76","color,shape,pattern","72","1",""
"null","144395","HierDy35eupmsd","sub26","02","07","feedback","test","null","","","na","","72","",""
"1011.5","145409","HierDy35eupmsd","sub26","02","07","rl","test","83","img/p_t_diag.png","2","83","color,shape,pattern","73","1",""
"null","146420","HierDy35eupmsd","sub26","02","07","feedback","test","null","","","na","","73","",""
"949.4000000059605","147370","HierDy35eupmsd","sub26","02","07","rl","test","72","img/o_t_check.png","5","72","color,shape,pattern","74","1",""
"null","148379","HierDy35eupmsd","sub26","02","07","feedback","test","null","","","na","","74","",""
"617.0999999940395","148998","HierDy35eupmsd","sub26","02","07","rl","test","68","img/o_t_check.png","5","72","color,shape,pattern","75","0",""
"null","150004","HierDy35eupmsd","sub26","02","07","feedback","test","null","","","na","","75","",""
"635.6999999880791","150641","HierDy35eupmsd","sub26","02","07","rl","test","68","img/p_t_check.png","1","65","color,shape,pattern","76","0",""
"null","151652","HierDy35eupmsd","sub26","02","07","feedback","test","null","","","na","","76","",""
"813","152466","HierDy35eupmsd","sub26","02","07","rl","test","74","img/o_t_diag.png","6","74","color,shape,pattern","77","1",""
"null","153478","HierDy35eupmsd","sub26","02","07","feedback","test","null","","","na","","77","",""
"722.7000000178814","154202","HierDy35eupmsd","sub26","02","07","rl","test","70","img/p_d_diag.png","4","70","color,shape,pattern","78","1",""
"null","155211","HierDy35eupmsd","sub26","02","07","feedback","test","null","","","na","","78","",""
"653.4000000059605","155866","HierDy35eupmsd","sub26","02","07","rl","test","68","img/p_d_check.png","3","68","color,shape,pattern","79","1",""
"null","156876","HierDy35eupmsd","sub26","02","07","feedback","test","null","","","na","","79","",""
"712.2999999821186","157590","HierDy35eupmsd","sub26","02","07","rl","test","72","img/o_t_check.png","5","72","color,shape,pattern","80","1",""
"null","158599","HierDy35eupmsd","sub26","02","07","feedback","test","null","","","na","","80","",""
"605.7000000178814","159207","HierDy35eupmsd","sub26","02","07","rl","test","75","img/o_d_check.png","7","75","color,shape,pattern","81","1",""
"null","160212","HierDy35eupmsd","sub26","02","07","feedback","test","null","","","na","","81","",""
"711.1999999880791","160925","HierDy35eupmsd","sub26","02","07","rl","test","70","img/p_d_diag.png","4","70","color,shape,pattern","82","1",""
"null","161935","HierDy35eupmsd","sub26","02","07","feedback","test","null","","","na","","82","",""
"642.0999999940395","162580","HierDy35eupmsd","sub26","02","07","rl","test","74","img/o_t_diag.png","6","74","color,shape,pattern","83","1",""
"null","163589","HierDy35eupmsd","sub26","02","07","feedback","test","null","","","na","","83","",""
"854.6999999880791","164446","HierDy35eupmsd","sub26","02","07","rl","test","75","img/o_d_check.png","7","75","color,shape,pattern","84","1",""
"null","165452","HierDy35eupmsd","sub26","02","07","feedback","test","null","","","na","","84","",""
"662","166116","HierDy35eupmsd","sub26","02","07","rl","test","83","img/p_t_diag.png","2","83","color,shape,pattern","85","1",""
"null","167127","HierDy35eupmsd","sub26","02","07","feedback","test","null","","","na","","85","",""
"572.5","167702","HierDy35eupmsd","sub26","02","07","rl","test","76","img/o_d_diag.png","8","76","color,shape,pattern","86","1",""
"null","168707","HierDy35eupmsd","sub26","02","07","feedback","test","null","","","na","","86","",""
"842.2000000178814","169551","HierDy35eupmsd","sub26","02","07","rl","test","65","img/p_t_check.png","1","65","color,shape,pattern","87","1",""
"null","170556","HierDy35eupmsd","sub26","02","07","feedback","test","null","","","na","","87","",""
"722.0999999940395","171280","HierDy35eupmsd","sub26","02","07","rl","test","68","img/p_d_check.png","3","68","color,shape,pattern","88","1",""
"null","172291","HierDy35eupmsd","sub26","02","07","feedback","test","null","","","na","","88","",""
"767.0999999940395","173061","HierDy35eupmsd","sub26","02","07","rl","test","65","img/p_t_check.png","1","65","color,shape,pattern","89","1",""
"null","174071","HierDy35eupmsd","sub26","02","07","feedback","test","null","","","na","","89","",""
"702.0999999940395","174775","HierDy35eupmsd","sub26","02","07","rl","test","70","img/p_d_diag.png","4","70","color,shape,pattern","90","1",""
"null","175782","HierDy35eupmsd","sub26","02","07","feedback","test","null","","","na","","90","",""
"635.6999999880791","176421","HierDy35eupmsd","sub26","02","07","rl","test","83","img/p_t_diag.png","2","83","color,shape,pattern","91","1",""
"null","177427","HierDy35eupmsd","sub26","02","07","feedback","test","null","","","na","","91","",""
"548.5999999940395","177978","HierDy35eupmsd","sub26","02","07","rl","test","83","img/p_t_diag.png","2","83","color,shape,pattern","92","1",""
"null","178989","HierDy35eupmsd","sub26","02","07","feedback","test","null","","","na","","92","",""
"633.6999999880791","179625","HierDy35eupmsd","sub26","02","07","rl","test","76","img/o_d_diag.png","8","76","color,shape,pattern","93","1",""
"null","180638","HierDy35eupmsd","sub26","02","07","feedback","test","null","","","na","","93","",""
"625.0999999940395","181265","HierDy35eupmsd","sub26","02","07","rl","test","74","img/o_t_diag.png","6","74","color,shape,pattern","94","1",""
"null","182275","HierDy35eupmsd","sub26","02","07","feedback","test","null","","","na","","94","",""
"729.7999999821186","183007","HierDy35eupmsd","sub26","02","07","rl","test","72","img/o_t_check.png","5","72","color,shape,pattern","95","1",""
"null","184012","HierDy35eupmsd","sub26","02","07","feedback","test","null","","","na","","95","",""
"544.2000000178814","184558","HierDy35eupmsd","sub26","02","07","rl","test","75","img/o_t_diag.png","6","74","color,shape,pattern","96","0",""
"null","185567","HierDy35eupmsd","sub26","02","07","feedback","test","null","","","na","","96","",""
"744.1999999880791","186314","HierDy35eupmsd","sub26","02","07","rl","test","75","img/o_d_check.png","7","75","color,shape,pattern","97","1",""
"null","187324","HierDy35eupmsd","sub26","02","07","feedback","test","null","","","na","","97","",""
"696.2999999821186","188022","HierDy35eupmsd","sub26","02","07","rl","test","76","img/o_d_diag.png","8","76","color,shape,pattern","98","1",""
"null","189028","HierDy35eupmsd","sub26","02","07","feedback","test","null","","","na","","98","",""
"801.3999999761581","189831","HierDy35eupmsd","sub26","02","07","rl","test","68","img/p_d_check.png","3","68","color,shape,pattern","99","1",""
"null","190836","HierDy35eupmsd","sub26","02","07","feedback","test","null","","","na","","99","",""
"702.0999999940395","191540","HierDy35eupmsd","sub26","02","07","rl","test","68","img/p_d_check.png","3","68","color,shape,pattern","100","1",""
"null","192547","HierDy35eupmsd","sub26","02","07","feedback","test","null","","","na","","100","",""
"832","193381","HierDy35eupmsd","sub26","02","07","rl","test","75","img/o_d_check.png","7","75","color,shape,pattern","101","1",""
"null","194390","HierDy35eupmsd","sub26","02","07","feedback","test","null","","","na","","101","",""
"646.5","195038","HierDy35eupmsd","sub26","02","07","rl","test","65","img/o_t_check.png","5","72","color,shape,pattern","102","0",""
"null","196042","HierDy35eupmsd","sub26","02","07","feedback","test","null","","","na","","102","",""
"1493.199999988079","197538","HierDy35eupmsd","sub26","02","07","rl","test","65","img/p_t_check.png","1","65","color,shape,pattern","103","1",""
"null","198547","HierDy35eupmsd","sub26","02","07","feedback","test","null","","","na","","103","",""
"742.1999999880791","199291","HierDy35eupmsd","sub26","02","07","rl","test","75","img/o_d_check.png","7","75","color,shape,pattern","104","1",""
"null","200299","HierDy35eupmsd","sub26","02","07","feedback","test","null","","","na","","104","",""
"667","200968","HierDy35eupmsd","sub26","02","07","rl","test","70","img/p_d_diag.png","4","70","color,shape,pattern","105","1",""
"null","201979","HierDy35eupmsd","sub26","02","07","feedback","test","null","","","na","","105","",""
"779.3999999761581","202761","HierDy35eupmsd","sub26","02","07","rl","test","74","img/o_t_diag.png","6","74","color,shape,pattern","106","1",""
"null","203771","HierDy35eupmsd","sub26","02","07","feedback","test","null","","","na","","106","",""
"824.8000000119209","204598","HierDy35eupmsd","sub26","02","07","rl","test","83","img/p_t_diag.png","2","83","color,shape,pattern","107","1",""
"null","205604","HierDy35eupmsd","sub26","02","07","feedback","test","null","","","na","","107","",""
"684.5","206290","HierDy35eupmsd","sub26","02","07","rl","test","65","img/p_t_check.png","1","65","color,shape,pattern","108","1",""
"null","207299","HierDy35eupmsd","sub26","02","07","feedback","test","null","","","na","","108","",""
"799.0999999940395","208100","HierDy35eupmsd","sub26","02","07","rl","test","70","img/p_d_diag.png","4","70","color,shape,pattern","109","1",""
"null","209107","HierDy35eupmsd","sub26","02","07","feedback","test","null","","","na","","109","",""
"885.1999999880791","209995","HierDy35eupmsd","sub26","02","07","rl","test","72","img/o_t_check.png","5","72","color,shape,pattern","110","1",""
"null","211004","HierDy35eupmsd","sub26","02","07","feedback","test","null","","","na","","110","",""
"716.4000000059605","211722","HierDy35eupmsd","sub26","02","07","rl","test","76","img/o_d_diag.png","8","76","color,shape,pattern","111","1",""
"null","212731","HierDy35eupmsd","sub26","02","07","feedback","test","null","","","na","","111","",""
"861.5999999940395","213595","HierDy35eupmsd","sub26","02","07","rl","test","68","img/p_d_check.png","3","68","color,shape,pattern","112","1",""
"null","214605","HierDy35eupmsd","sub26","02","07","feedback","test","null","","","na","","112","",""
"1406.5","216014","HierDy35eupmsd","sub26","02","07","rl","test","72","img/o_t_check.png","5","72","color,shape,pattern","113","1",""
"null","217019","HierDy35eupmsd","sub26","02","07","feedback","test","null","","","na","","113","",""
"632.9000000059605","217654","HierDy35eupmsd","sub26","02","07","rl","test","68","img/p_d_check.png","3","68","color,shape,pattern","114","1",""
"null","218660","HierDy35eupmsd","sub26","02","07","feedback","test","null","","","na","","114","",""
"796.8000000119209","219459","HierDy35eupmsd","sub26","02","07","rl","test","74","img/o_t_diag.png","6","74","color,shape,pattern","115","1",""
"null","220471","HierDy35eupmsd","sub26","02","07","feedback","test","null","","","na","","115","",""
"632.5999999940395","221106","HierDy35eupmsd","sub26","02","07","rl","test","76","img/o_d_diag.png","8","76","color,shape,pattern","116","1",""
"null","222115","HierDy35eupmsd","sub26","02","07","feedback","test","null","","","na","","116","",""
"574.5999999940395","222692","HierDy35eupmsd","sub26","02","07","rl","test","83","img/p_t_diag.png","2","83","color,shape,pattern","117","1",""
"null","223700","HierDy35eupmsd","sub26","02","07","feedback","test","null","","","na","","117","",""
"657.5","224359","HierDy35eupmsd","sub26","02","07","rl","test","75","img/o_d_check.png","7","75","color,shape,pattern","118","1",""
"null","225364","HierDy35eupmsd","sub26","02","07","feedback","test","null","","","na","","118","",""
"710.9000000059605","226077","HierDy35eupmsd","sub26","02","07","rl","test","72","img/o_t_check.png","5","72","color,shape,pattern","119","1",""
"null","227087","HierDy35eupmsd","sub26","02","07","feedback","test","null","","","na","","119","",""
"569.5","227659","HierDy35eupmsd","sub26","02","07","rl","test","70","img/p_d_diag.png","4","70","color,shape,pattern","120","1",""
"null","228667","HierDy35eupmsd","sub26","02","07","feedback","test","null","","","na","","120","",""
"534.2999999821186","229204","HierDy35eupmsd","sub26","02","07","rl","test","83","img/p_t_check.png","1","65","color,shape,pattern","121","0",""
"null","230212","HierDy35eupmsd","sub26","02","07","feedback","test","null","","","na","","121","",""
"436.5","230651","HierDy35eupmsd","sub26","02","07","rl","test","65","img/p_t_check.png","1","65","color,shape,pattern","122","1",""
"null","231658","HierDy35eupmsd","sub26","02","07","feedback","test","null","","","na","","122","",""
"745.9000000059605","232405","HierDy35eupmsd","sub26","02","07","rl","test","70","img/p_d_diag.png","4","70","color,shape,pattern","123","1",""
"null","233412","HierDy35eupmsd","sub26","02","07","feedback","test","null","","","na","","123","",""
"682.6999999880791","234097","HierDy35eupmsd","sub26","02","07","rl","test","76","img/o_d_diag.png","8","76","color,shape,pattern","124","1",""
"null","235107","HierDy35eupmsd","sub26","02","07","feedback","test","null","","","na","","124","",""
"876.5","235986","HierDy35eupmsd","sub26","02","07","rl","test","75","img/o_d_check.png","7","75","color,shape,pattern","125","1",""
"null","236996","HierDy35eupmsd","sub26","02","07","feedback","test","null","","","na","","125","",""
"773.9000000059605","237772","HierDy35eupmsd","sub26","02","07","rl","test","83","img/p_t_diag.png","2","83","color,shape,pattern","126","1",""
"null","238779","HierDy35eupmsd","sub26","02","07","feedback","test","null","","","na","","126","",""
"1027.800000011921","239809","HierDy35eupmsd","sub26","02","07","rl","test","74","img/o_t_diag.png","6","74","color,shape,pattern","127","1",""
"null","240819","HierDy35eupmsd","sub26","02","07","feedback","test","null","","","na","","127","",""
"873.5","241695","HierDy35eupmsd","sub26","02","07","rl","test","68","img/p_d_check.png","3","68","color,shape,pattern","128","1",""
"null","242701","HierDy35eupmsd","sub26","02","07","feedback","test","null","","","na","","128","",""
"897","243600","HierDy35eupmsd","sub26","02","07","rl","test","68","img/p_d_check.png","3","68","color,shape,pattern","129","1",""
"null","244612","HierDy35eupmsd","sub26","02","07","feedback","test","null","","","na","","129","",""
"741.8000000119209","245356","HierDy35eupmsd","sub26","02","07","rl","test","76","img/o_d_diag.png","8","76","color,shape,pattern","130","1",""
"null","246364","HierDy35eupmsd","sub26","02","07","feedback","test","null","","","na","","130","",""
"880","247246","HierDy35eupmsd","sub26","02","07","rl","test","74","img/o_t_diag.png","6","74","color,shape,pattern","131","1",""
"null","248251","HierDy35eupmsd","sub26","02","07","feedback","test","null","","","na","","131","",""
"896.8000000119209","249150","HierDy35eupmsd","sub26","02","07","rl","test","72","img/o_t_check.png","5","72","color,shape,pattern","132","1",""
"null","250156","HierDy35eupmsd","sub26","02","07","feedback","test","null","","","na","","132","",""
"825","250983","HierDy35eupmsd","sub26","02","07","rl","test","83","img/p_t_check.png","1","65","color,shape,pattern","133","0",""
"null","251989","HierDy35eupmsd","sub26","02","07","feedback","test","null","","","na","","133","",""
"860.6999999880791","252852","HierDy35eupmsd","sub26","02","07","rl","test","75","img/o_d_check.png","7","75","color,shape,pattern","134","1",""
"null","253860","HierDy35eupmsd","sub26","02","07","feedback","test","null","","","na","","134","",""
"833","254695","HierDy35eupmsd","sub26","02","07","rl","test","65","img/p_t_check.png","1","65","color,shape,pattern","135","1",""
"null","255700","HierDy35eupmsd","sub26","02","07","feedback","test","null","","","na","","135","",""
"804.7999999821186","256507","HierDy35eupmsd","sub26","02","07","rl","test","83","img/p_t_diag.png","2","83","color,shape,pattern","136","1",""
"null","257516","HierDy35eupmsd","sub26","02","07","feedback","test","null","","","na","","136","",""
"803.6999999880791","258322","HierDy35eupmsd","sub26","02","07","rl","test","70","img/p_d_diag.png","4","70","color,shape,pattern","137","1",""
"null","259335","HierDy35eupmsd","sub26","02","07","feedback","test","null","","","na","","137","",""
"780.1999999880791","260118","HierDy35eupmsd","sub26","02","07","rl","test","75","img/o_d_check.png","7","75","color,shape,pattern","138","1",""
"null","261125","HierDy35eupmsd","sub26","02","07","feedback","test","null","","","na","","138","",""
"758.9000000059605","261886","HierDy35eupmsd","sub26","02","07","rl","test","70","img/p_d_diag.png","4","70","color,shape,pattern","139","1",""
"null","262892","HierDy35eupmsd","sub26","02","07","feedback","test","null","","","na","","139","",""
"904.1999999880791","263798","HierDy35eupmsd","sub26","02","07","rl","test","72","img/o_t_check.png","5","72","color,shape,pattern","140","1",""
"null","264807","HierDy35eupmsd","sub26","02","07","feedback","test","null","","","na","","140","",""
"1330.0999999940395","266139","HierDy35eupmsd","sub26","02","07","rl","test","68","img/p_d_check.png","3","68","color,shape,pattern","141","1",""
"null","267147","HierDy35eupmsd","sub26","02","07","feedback","test","null","","","na","","141","",""
"812.4000000059605","267962","HierDy35eupmsd","sub26","02","07","rl","test","83","img/p_t_diag.png","2","83","color,shape,pattern","142","1",""
"null","268973","HierDy35eupmsd","sub26","02","07","feedback","test","null","","","na","","142","",""
"812","269788","HierDy35eupmsd","sub26","02","07","rl","test","76","img/o_d_diag.png","8","76","color,shape,pattern","143","1",""
"null","270798","HierDy35eupmsd","sub26","02","07","feedback","test","null","","","na","","143","",""
"923.5","271723","HierDy35eupmsd","sub26","02","07","rl","test","68","img/p_d_check.png","3","68","color,shape,pattern","144","1",""
"null","272733","HierDy35eupmsd","sub26","02","07","feedback","test","null","","","na","","144","",""
"707.0999999940395","273442","HierDy35eupmsd","sub26","02","07","rl","test","75","img/o_d_check.png","7","75","color,shape,pattern","145","1",""
"null","274451","HierDy35eupmsd","sub26","02","07","feedback","test","null","","","na","","145","",""
"852.5999999940395","275306","HierDy35eupmsd","sub26","02","07","rl","test","74","img/o_t_diag.png","6","74","color,shape,pattern","146","1",""
"null","276316","HierDy35eupmsd","sub26","02","07","feedback","test","null","","","na","","146","",""
"777.2999999821186","277095","HierDy35eupmsd","sub26","02","07","rl","test","83","img/p_t_diag.png","2","83","color,shape,pattern","147","1",""
"null","278103","HierDy35eupmsd","sub26","02","07","feedback","test","null","","","na","","147","",""
"997.8000000119209","279103","HierDy35eupmsd","sub26","02","07","rl","test","72","img/o_t_check.png","5","72","color,shape,pattern","148","1",""
"null","280107","HierDy35eupmsd","sub26","02","07","feedback","test","null","","","na","","148","",""
"708.9000000059605","280818","HierDy35eupmsd","sub26","02","07","rl","test","74","img/o_t_diag.png","6","74","color,shape,pattern","149","1",""
"null","281827","HierDy35eupmsd","sub26","02","07","feedback","test","null","","","na","","149","",""
"792.5","282621","HierDy35eupmsd","sub26","02","07","rl","test","68","img/p_t_check.png","1","65","color,shape,pattern","150","0",""
"null","283627","HierDy35eupmsd","sub26","02","07","feedback","test","null","","","na","","150","",""
"731.9000000059605","284361","HierDy35eupmsd","sub26","02","07","rl","test","65","img/p_t_check.png","1","65","color,shape,pattern","151","1",""
"null","285372","HierDy35eupmsd","sub26","02","07","feedback","test","null","","","na","","151","",""
"812.6999999880791","286187","HierDy35eupmsd","sub26","02","07","rl","test","76","img/o_d_diag.png","8","76","color,shape,pattern","152","1",""
"null","287199","HierDy35eupmsd","sub26","02","07","feedback","test","null","","","na","","152","",""
"712.2999999821186","287914","HierDy35eupmsd","sub26","02","07","rl","test","70","img/p_d_diag.png","4","70","color,shape,pattern","153","1",""
"null","288927","HierDy35eupmsd","sub26","02","07","feedback","test","null","","","na","","153","",""
"720.6999999880791","289650","HierDy35eupmsd","sub26","02","07","rl","test","74","img/o_t_diag.png","6","74","color,shape,pattern","154","1",""
"null","290659","HierDy35eupmsd","sub26","02","07","feedback","test","null","","","na","","154","",""
"635.5999999940395","291297","HierDy35eupmsd","sub26","02","07","rl","test","75","img/o_d_check.png","7","75","color,shape,pattern","155","1",""
"null","292307","HierDy35eupmsd","sub26","02","07","feedback","test","null","","","na","","155","",""
"681.0999999940395","292991","HierDy35eupmsd","sub26","02","07","rl","test","68","img/p_d_check.png","3","68","color,shape,pattern","156","1",""
"null","293995","HierDy35eupmsd","sub26","02","07","feedback","test","null","","","na","","156","",""
"650.9000000059605","294648","HierDy35eupmsd","sub26","02","07","rl","test","70","img/p_d_diag.png","4","70","color,shape,pattern","157","1",""
"null","295659","HierDy35eupmsd","sub26","02","07","feedback","test","null","","","na","","157","",""
"682.4000000059605","296344","HierDy35eupmsd","sub26","02","07","rl","test","76","img/o_d_diag.png","8","76","color,shape,pattern","158","1",""
"null","297351","HierDy35eupmsd","sub26","02","07","feedback","test","null","","","na","","158","",""
"598.8000000119209","297952","HierDy35eupmsd","sub26","02","07","rl","test","72","img/o_t_check.png","5","72","color,shape,pattern","159","1",""
"null","298967","HierDy35eupmsd","sub26","02","07","feedback","test","null","","","na","","159","",""
"576.1999999880791","299545","HierDy35eupmsd","sub26","02","07","rl","test","72","img/o_t_check.png","5","72","color,shape,pattern","160","1",""
"null","300556","HierDy35eupmsd","sub26","02","07","feedback","test","null","","","na","","160","",""
"705","301263","HierDy35eupmsd","sub26","02","07","rl","test","83","img/p_t_diag.png","2","83","color,shape,pattern","161","1",""
"null","302269","HierDy35eupmsd","sub26","02","07","feedback","test","null","","","na","","161","",""
"642.7000000178814","302914","HierDy35eupmsd","sub26","02","07","rl","test","75","img/o_d_check.png","7","75","color,shape,pattern","162","1",""
"null","303927","HierDy35eupmsd","sub26","02","07","feedback","test","null","","","na","","162","",""
"579.1999999880791","304509","HierDy35eupmsd","sub26","02","07","rl","test","83","img/p_t_diag.png","2","83","color,shape,pattern","163","1",""
"null","305515","HierDy35eupmsd","sub26","02","07","feedback","test","null","","","na","","163","",""
"750.3999999761581","306268","HierDy35eupmsd","sub26","02","07","rl","test","75","img/p_d_check.png","3","68","color,shape,pattern","164","0",""
"null","307279","HierDy35eupmsd","sub26","02","07","feedback","test","null","","","na","","164","",""
"645.4000000059605","307927","HierDy35eupmsd","sub26","02","07","rl","test","72","img/o_t_diag.png","6","74","color,shape,pattern","165","0",""
"null","308935","HierDy35eupmsd","sub26","02","07","feedback","test","null","","","na","","165","",""
"648.1999999880791","309586","HierDy35eupmsd","sub26","02","07","rl","test","65","img/p_t_check.png","1","65","color,shape,pattern","166","1",""
"null","310599","HierDy35eupmsd","sub26","02","07","feedback","test","null","","","na","","166","",""
"585.2999999821186","311187","HierDy35eupmsd","sub26","02","07","rl","test","70","img/p_d_diag.png","4","70","color,shape,pattern","167","1",""
"null","312195","HierDy35eupmsd","sub26","02","07","feedback","test","null","","","na","","167","",""
"631","312828","HierDy35eupmsd","sub26","02","07","rl","test","70","img/p_d_diag.png","4","70","color,shape,pattern","168","1",""
"null","313836","HierDy35eupmsd","sub26","02","07","feedback","test","null","","","na","","168","",""
"987.9000000059605","314826","HierDy35eupmsd","sub26","02","07","rl","test","74","img/o_d_diag.png","8","76","color,shape,pattern","169","0",""
"null","315835","HierDy35eupmsd","sub26","02","07","feedback","test","null","","","na","","169","",""
"666.1999999880791","316504","HierDy35eupmsd","sub26","02","07","rl","test","83","img/p_t_diag.png","2","83","color,shape,pattern","170","1",""
"null","317516","HierDy35eupmsd","sub26","02","07","feedback","test","null","","","na","","170","",""
"661.9000000059605","318180","HierDy35eupmsd","sub26","02","07","rl","test","74","img/o_t_diag.png","6","74","color,shape,pattern","171","1",""
"null","319191","HierDy35eupmsd","sub26","02","07","feedback","test","null","","","na","","171","",""
"665.4000000059605","319859","HierDy35eupmsd","sub26","02","07","rl","test","76","img/o_d_diag.png","8","76","color,shape,pattern","172","1",""
"null","320867","HierDy35eupmsd","sub26","02","07","feedback","test","null","","","na","","172","",""
"616.5","321486","HierDy35eupmsd","sub26","02","07","rl","test","72","img/o_t_check.png","5","72","color,shape,pattern","173","1",""
"null","322491","HierDy35eupmsd","sub26","02","07","feedback","test","null","","","na","","173","",""
"710.5","323204","HierDy35eupmsd","sub26","02","07","rl","test","75","img/o_d_check.png","7","75","color,shape,pattern","174","1",""
"null","324212","HierDy35eupmsd","sub26","02","07","feedback","test","null","","","na","","174","",""
"615","324829","HierDy35eupmsd","sub26","02","07","rl","test","65","img/p_t_check.png","1","65","color,shape,pattern","175","1",""
"null","325836","HierDy35eupmsd","sub26","02","07","feedback","test","null","","","na","","175","",""
"631","326469","HierDy35eupmsd","sub26","02","07","rl","test","74","img/o_t_diag.png","6","74","color,shape,pattern","176","1",""
"null","327479","HierDy35eupmsd","sub26","02","07","feedback","test","null","","","na","","176","",""
"860.4000000059605","328342","HierDy35eupmsd","sub26","02","07","rl","test","68","img/p_t_check.png","1","65","color,shape,pattern","177","0",""
"null","329351","HierDy35eupmsd","sub26","02","07","feedback","test","null","","","na","","177","",""
"1355.7999999821186","330709","HierDy35eupmsd","sub26","02","07","rl","test","75","img/o_d_check.png","7","75","color,shape,pattern","178","1",""
"null","331716","HierDy35eupmsd","sub26","02","07","feedback","test","null","","","na","","178","",""
"1038.4000000059605","332756","HierDy35eupmsd","sub26","02","07","rl","test","68","img/p_d_check.png","3","68","color,shape,pattern","179","1",""
"null","333763","HierDy35eupmsd","sub26","02","07","feedback","test","null","","","na","","179","",""
"987.6999999880791","334753","HierDy35eupmsd","sub26","02","07","rl","test","83","img/p_t_diag.png","2","83","color,shape,pattern","180","1",""
"null","335763","HierDy35eupmsd","sub26","02","07","feedback","test","null","","","na","","180","",""
"1033.5","336799","HierDy35eupmsd","sub26","02","07","rl","test","70","img/p_d_diag.png","4","70","color,shape,pattern","181","1",""
"null","337807","HierDy35eupmsd","sub26","02","07","feedback","test","null","","","na","","181","",""
"1024.300000011921","338833","HierDy35eupmsd","sub26","02","07","rl","test","72","img/o_t_check.png","5","72","color,shape,pattern","182","1",""
"null","339843","HierDy35eupmsd","sub26","02","07","feedback","test","null","","","na","","182","",""
"950.5999999940395","340796","HierDy35eupmsd","sub26","02","07","rl","test","68","img/p_d_check.png","3","68","color,shape,pattern","183","1",""
"null","341804","HierDy35eupmsd","sub26","02","07","feedback","test","null","","","na","","183","",""
"1090.5","342897","HierDy35eupmsd","sub26","02","07","rl","test","76","img/o_d_diag.png","8","76","color,shape,pattern","184","1",""
"null","343907","HierDy35eupmsd","sub26","02","07","feedback","test","null","","","na","","184","",""
"922.4000000059605","344832","HierDy35eupmsd","sub26","02","07","rl","test","76","img/o_d_diag.png","8","76","color,shape,pattern","185","1",""
"null","345844","HierDy35eupmsd","sub26","02","07","feedback","test","null","","","na","","185","",""
"929.7000000178814","346776","HierDy35eupmsd","sub26","02","07","rl","test","83","img/p_t_diag.png","2","83","color,shape,pattern","186","1",""
"null","347791","HierDy35eupmsd","sub26","02","07","feedback","test","null","","","na","","186","",""
"1027.199999988079","348821","HierDy35eupmsd","sub26","02","07","rl","test","72","img/o_t_check.png","5","72","color,shape,pattern","187","1",""
"null","349828","HierDy35eupmsd","sub26","02","07","feedback","test","null","","","na","","187","",""
"1038","350868","HierDy35eupmsd","sub26","02","07","rl","test","70","img/p_d_diag.png","4","70","color,shape,pattern","188","1",""
"null","351876","HierDy35eupmsd","sub26","02","07","feedback","test","null","","","na","","188","",""
"995.7999999821186","352874","HierDy35eupmsd","sub26","02","07","rl","test","72","img/o_t_check.png","5","72","color,shape,pattern","189","1",""
"null","353884","HierDy35eupmsd","sub26","02","07","feedback","test","null","","","na","","189","",""
"1046.5999999940395","354933","HierDy35eupmsd","sub26","02","07","rl","test","74","img/o_t_diag.png","6","74","color,shape,pattern","190","1",""
"null","355935","HierDy35eupmsd","sub26","02","07","feedback","test","null","","","na","","190","",""
"1314.6000000238419","357252","HierDy35eupmsd","sub26","02","07","rl","test","68","img/p_d_check.png","3","68","color,shape,pattern","191","1",""
"null","358260","HierDy35eupmsd","sub26","02","07","feedback","test","null","","","na","","191","",""
"997.1999999880791","359259","HierDy35eupmsd","sub26","02","07","rl","test","65","img/p_t_check.png","1","65","color,shape,pattern","192","1",""
"null","360271","HierDy35eupmsd","sub26","02","07","feedback","test","null","","","na","","192","",""
"1217","361490","HierDy35eupmsd","sub26","02","07","rl","test","75","img/o_d_check.png","7","75","color,shape,pattern","193","1",""
"null","362498","HierDy35eupmsd","sub26","02","07","feedback","test","null","","","na","","193","",""
"827","363326","HierDy35eupmsd","sub26","02","07","rl","test","68","img/p_d_check.png","3","68","color,shape,pattern","194","1",""
"null","364335","HierDy35eupmsd","sub26","02","07","feedback","test","null","","","na","","194","",""
"580.7999999821186","364917","HierDy35eupmsd","sub26","02","07","rl","test","65","img/p_t_check.png","1","65","color,shape,pattern","195","1",""
"null","365927","HierDy35eupmsd","sub26","02","07","feedback","test","null","","","na","","195","",""
"659.3000000119209","366588","HierDy35eupmsd","sub26","02","07","rl","test","74","img/o_t_diag.png","6","74","color,shape,pattern","196","1",""
"null","367599","HierDy35eupmsd","sub26","02","07","feedback","test","null","","","na","","196","",""
"953.3000000119209","368554","HierDy35eupmsd","sub26","02","07","rl","test","76","img/o_d_diag.png","8","76","color,shape,pattern","197","1",""
"null","369563","HierDy35eupmsd","sub26","02","07","feedback","test","null","","","na","","197","",""
"940.9000000059605","370506","HierDy35eupmsd","sub26","02","07","rl","test","70","img/p_d_diag.png","4","70","color,shape,pattern","198","1",""
"null","371516","HierDy35eupmsd","sub26","02","07","feedback","test","null","","","na","","198","",""
"578.0999999940395","372096","HierDy35eupmsd","sub26","02","07","rl","test","83","img/p_t_diag.png","2","83","color,shape,pattern","199","1",""
"null","373107","HierDy35eupmsd","sub26","02","07","feedback","test","null","","","na","","199","",""
"579.8000000119209","373689","HierDy35eupmsd","sub26","02","07","rl","test","75","img/o_d_check.png","7","75","color,shape,pattern","200","1",""
"null","374702","HierDy35eupmsd","sub26","02","07","feedback","test","null","","","na","","200","",""
"628.1000000238419","375332","HierDy35eupmsd","sub26","02","07","rl","test","83","img/p_t_diag.png","2","83","color,shape,pattern","201","1",""
"null","376343","HierDy35eupmsd","sub26","02","07","feedback","test","null","","","na","","201","",""
"1192.0999999940395","377537","HierDy35eupmsd","sub26","02","07","rl","test","70","img/p_d_diag.png","4","70","color,shape,pattern","202","1",""
"null","378547","HierDy35eupmsd","sub26","02","07","feedback","test","null","","","na","","202","",""
"602.1999999880791","379151","HierDy35eupmsd","sub26","02","07","rl","test","68","img/p_d_check.png","3","68","color,shape,pattern","203","1",""
"null","380155","HierDy35eupmsd","sub26","02","07","feedback","test","null","","","na","","203","",""
"664.5999999940395","380821","HierDy35eupmsd","sub26","02","07","rl","test","72","img/o_t_check.png","5","72","color,shape,pattern","204","1",""
"null","381827","HierDy35eupmsd","sub26","02","07","feedback","test","null","","","na","","204","",""
"560.5","382390","HierDy35eupmsd","sub26","02","07","rl","test","76","img/o_d_diag.png","8","76","color,shape,pattern","205","1",""
"null","383394","HierDy35eupmsd","sub26","02","07","feedback","test","null","","","na","","205","",""
"774.9000000059605","384171","HierDy35eupmsd","sub26","02","07","rl","test","65","img/p_t_check.png","1","65","color,shape,pattern","206","1",""
"null","385183","HierDy35eupmsd","sub26","02","07","feedback","test","null","","","na","","206","",""
"616.9000000059605","385801","HierDy35eupmsd","sub26","02","07","rl","test","70","img/p_d_diag.png","4","70","color,shape,pattern","207","1",""
"null","386811","HierDy35eupmsd","sub26","02","07","feedback","test","null","","","na","","207","",""
"1044.5","387858","HierDy35eupmsd","sub26","02","07","rl","test","75","img/o_d_check.png","7","75","color,shape,pattern","208","1",""
"null","388868","HierDy35eupmsd","sub26","02","07","feedback","test","null","","","na","","208","",""
"591.2000000178814","389461","HierDy35eupmsd","sub26","02","07","rl","test","75","img/o_d_check.png","7","75","color,shape,pattern","209","1",""
"null","390471","HierDy35eupmsd","sub26","02","07","feedback","test","null","","","na","","209","",""
"977.7999999821186","391451","HierDy35eupmsd","sub26","02","07","rl","test","74","img/o_t_diag.png","6","74","color,shape,pattern","210","1",""
"null","392459","HierDy35eupmsd","sub26","02","07","feedback","test","null","","","na","","210","",""
"578.6999999880791","393039","HierDy35eupmsd","sub26","02","07","rl","test","74","img/o_t_diag.png","6","74","color,shape,pattern","211","1",""
"null","394043","HierDy35eupmsd","sub26","02","07","feedback","test","null","","","na","","211","",""
"643.9000000059605","394689","HierDy35eupmsd","sub26","02","07","rl","test","76","img/o_d_diag.png","8","76","color,shape,pattern","212","1",""
"null","395700","HierDy35eupmsd","sub26","02","07","feedback","test","null","","","na","","212","",""
"637.2999999821186","396339","HierDy35eupmsd","sub26","02","07","rl","test","68","img/p_d_check.png","3","68","color,shape,pattern","213","1",""
"null","397351","HierDy35eupmsd","sub26","02","07","feedback","test","null","","","na","","213","",""
"630.5999999940395","397984","HierDy35eupmsd","sub26","02","07","rl","test","83","img/p_t_diag.png","2","83","color,shape,pattern","214","1",""
"null","398989","HierDy35eupmsd","sub26","02","07","feedback","test","null","","","na","","214","",""
"630.8000000119209","399622","HierDy35eupmsd","sub26","02","07","rl","test","75","img/o_t_check.png","5","72","color,shape,pattern","215","0",""
"null","400629","HierDy35eupmsd","sub26","02","07","feedback","test","null","","","na","","215","",""
"608.3999999761581","401239","HierDy35eupmsd","sub26","02","07","rl","test","76","img/o_d_diag.png","8","76","color,shape,pattern","216","1",""
"null","402247","HierDy35eupmsd","sub26","02","07","feedback","test","null","","","na","","216","",""
"696.5","402945","HierDy35eupmsd","sub26","02","07","rl","test","75","img/o_t_check.png","5","72","color,shape,pattern","217","0",""
"null","403957","HierDy35eupmsd","sub26","02","07","feedback","test","null","","","na","","217","",""
"779.5999999940395","404739","HierDy35eupmsd","sub26","02","07","rl","test","65","img/p_t_check.png","1","65","color,shape,pattern","218","1",""
"null","405747","HierDy35eupmsd","sub26","02","07","feedback","test","null","","","na","","218","",""
"769.8000000119209","406518","HierDy35eupmsd","sub26","02","07","rl","test","68","img/p_d_check.png","3","68","color,shape,pattern","219","1",""
"null","407523","HierDy35eupmsd","sub26","02","07","feedback","test","null","","","na","","219","",""
"834.5","408359","HierDy35eupmsd","sub26","02","07","rl","test","74","img/o_t_diag.png","6","74","color,shape,pattern","220","1",""
"null","409363","HierDy35eupmsd","sub26","02","07","feedback","test","null","","","na","","220","",""
"1255.5999999940395","410621","HierDy35eupmsd","sub26","02","07","rl","test","70","img/p_d_diag.png","4","70","color,shape,pattern","221","1",""
"null","411627","HierDy35eupmsd","sub26","02","07","feedback","test","null","","","na","","221","",""
"607.3000000119209","412236","HierDy35eupmsd","sub26","02","07","rl","test","75","img/o_d_check.png","7","75","color,shape,pattern","222","1",""
"null","413247","HierDy35eupmsd","sub26","02","07","feedback","test","null","","","na","","222","",""
"608.4000000059605","413857","HierDy35eupmsd","sub26","02","07","rl","test","65","img/p_t_check.png","1","65","color,shape,pattern","223","1",""
"null","414867","HierDy35eupmsd","sub26","02","07","feedback","test","null","","","na","","223","",""
"601.1000000238419","415470","HierDy35eupmsd","sub26","02","07","rl","test","70","img/p_d_diag.png","4","70","color,shape,pattern","224","1",""
"null","416479","HierDy35eupmsd","sub26","02","07","feedback","test","null","","","na","","224","",""
"578.3000000119209","417059","HierDy35eupmsd","sub26","02","07","rl","test","83","img/p_t_diag.png","2","83","color,shape,pattern","225","1",""
"null","418071","HierDy35eupmsd","sub26","02","07","feedback","test","null","","","na","","225","",""
"1663.4000000059605","419736","HierDy35eupmsd","sub26","02","07","rl","test","76","img/o_d_diag.png","8","76","color,shape,pattern","226","1",""
"null","420749","HierDy35eupmsd","sub26","02","07","feedback","test","null","","","na","","226","",""
"571.4000000059605","421322","HierDy35eupmsd","sub26","02","07","rl","test","83","img/p_t_diag.png","2","83","color,shape,pattern","227","1",""
"null","422335","HierDy35eupmsd","sub26","02","07","feedback","test","null","","","na","","227","",""
"553.8000000119209","422890","HierDy35eupmsd","sub26","02","07","rl","test","68","img/p_d_check.png","3","68","color,shape,pattern","228","1",""
"null","423899","HierDy35eupmsd","sub26","02","07","feedback","test","null","","","na","","228","",""
"635.1999999880791","424536","HierDy35eupmsd","sub26","02","07","rl","test","72","img/o_t_check.png","5","72","color,shape,pattern","229","1",""
"null","425547","HierDy35eupmsd","sub26","02","07","feedback","test","null","","","na","","229","",""
"608.6000000238419","426158","HierDy35eupmsd","sub26","02","07","rl","test","65","img/p_t_check.png","1","65","color,shape,pattern","230","1",""
"null","427163","HierDy35eupmsd","sub26","02","07","feedback","test","null","","","na","","230","",""
"1378","428544","HierDy35eupmsd","sub26","02","07","rl","test","65","img/p_t_check.png","1","65","color,shape,pattern","231","1",""
"null","429547","HierDy35eupmsd","sub26","02","07","feedback","test","null","","","na","","231","",""
"813.3000000119209","430362","HierDy35eupmsd","sub26","02","07","rl","test","75","img/o_d_check.png","7","75","color,shape,pattern","232","1",""
"null","431371","HierDy35eupmsd","sub26","02","07","feedback","test","null","","","na","","232","",""
"589.0999999940395","431962","HierDy35eupmsd","sub26","02","07","rl","test","72","img/o_t_check.png","5","72","color,shape,pattern","233","1",""
"null","432970","HierDy35eupmsd","sub26","02","07","feedback","test","null","","","na","","233","",""
"1278.9000000059605","434251","HierDy35eupmsd","sub26","02","07","rl","test","74","img/o_t_diag.png","6","74","color,shape,pattern","234","1",""
"null","435260","HierDy35eupmsd","sub26","02","07","feedback","test","null","","","na","","234","",""
"508.19999998807907","435770","HierDy35eupmsd","sub26","02","07","rl","test","83","img/p_t_diag.png","2","83","color,shape,pattern","235","1",""
"null","436783","HierDy35eupmsd","sub26","02","07","feedback","test","null","","","na","","235","",""
"570.2999999821186","437355","HierDy35eupmsd","sub26","02","07","rl","test","75","img/o_d_check.png","7","75","color,shape,pattern","236","1",""
"null","438364","HierDy35eupmsd","sub26","02","07","feedback","test","null","","","na","","236","",""
"1668.0999999940395","440034","HierDy35eupmsd","sub26","02","07","rl","test","74","img/o_t_diag.png","6","74","color,shape,pattern","237","1",""
"null","441042","HierDy35eupmsd","sub26","02","07","feedback","test","null","","","na","","237","",""
"697.6999999880791","441742","HierDy35eupmsd","sub26","02","07","rl","test","72","img/o_t_check.png","5","72","color,shape,pattern","238","1",""
"null","442747","HierDy35eupmsd","sub26","02","07","feedback","test","null","","","na","","238","",""
"935.7999999821186","443685","HierDy35eupmsd","sub26","02","07","rl","test","70","img/p_d_diag.png","4","70","color,shape,pattern","239","1",""
"null","444692","HierDy35eupmsd","sub26","02","07","feedback","test","null","","","na","","239","",""
"993.9000000059605","445688","HierDy35eupmsd","sub26","02","07","rl","test","68","img/p_d_check.png","3","68","color,shape,pattern","240","1",""
"null","446702","HierDy35eupmsd","sub26","02","07","feedback","test","null","","","na","","240","",""
"673.1999999880791","447378","HierDy35eupmsd","sub26","02","07","rl","test","76","img/o_d_diag.png","8","76","color,shape,pattern","241","1",""
"null","448387","HierDy35eupmsd","sub26","02","07","feedback","test","null","","","na","","241","",""
"955.6999999880791","449345","HierDy35eupmsd","sub26","02","07","rl","test","75","img/o_d_check.png","7","75","color,shape,pattern","242","1",""
"null","450355","HierDy35eupmsd","sub26","02","07","feedback","test","null","","","na","","242","",""
"1080.7999999821186","451438","HierDy35eupmsd","sub26","02","07","rl","test","68","img/p_d_check.png","3","68","color,shape,pattern","243","1",""
"null","452444","HierDy35eupmsd","sub26","02","07","feedback","test","null","","","na","","243","",""
"756.8000000119209","453203","HierDy35eupmsd","sub26","02","07","rl","test","74","img/o_t_diag.png","6","74","color,shape,pattern","244","1",""
"null","454211","HierDy35eupmsd","sub26","02","07","feedback","test","null","","","na","","244","",""
"656.7000000178814","454870","HierDy35eupmsd","sub26","02","07","rl","test","70","img/p_d_diag.png","4","70","color,shape,pattern","245","1",""
"null","455876","HierDy35eupmsd","sub26","02","07","feedback","test","null","","","na","","245","",""
"667.8000000119209","456546","HierDy35eupmsd","sub26","02","07","rl","test","65","img/p_t_check.png","1","65","color,shape,pattern","246","1",""
"null","457556","HierDy35eupmsd","sub26","02","07","feedback","test","null","","","na","","246","",""
"628.3000000119209","458186","HierDy35eupmsd","sub26","02","07","rl","test","72","img/o_t_check.png","5","72","color,shape,pattern","247","1",""
"null","459199","HierDy35eupmsd","sub26","02","07","feedback","test","null","","","na","","247","",""
"582.3000000119209","459784","HierDy35eupmsd","sub26","02","07","rl","test","83","img/p_t_diag.png","2","83","color,shape,pattern","248","1",""
"null","460799","HierDy35eupmsd","sub26","02","07","feedback","test","null","","","na","","248","",""
"1893.5999999940395","462700","HierDy35eupmsd","sub26","02","07","","","","","","","","","","{""Q0"":""5""}"
"37614.59999999404","500319","HierDy35eupmsd","sub26","02","07","","","","","","","","","","{""Q0"":""Because I was a bit sleep-deprived, I found myself mixing up the diamonds with the triangles, so I kept a mental note specifically of what keys to press if I saw a triangle today. ""}"
"822.0999999940395","501143","HierDy35eupmsd","sub26","02","07","","","","","","","","","",""
