"rt","time_elapsed","subject","subID","group","day","trialType","phase","key_press","stim","stimNum","corrresp","hierarchy","trialNum","corr","responses"
"3951.0999999046326","3955","HierDy7rdqzj1t","sub08","08","3","","","","","","","","","",""
"","6884","HierDy7rdqzj1t","sub08","08","3","fullscreen","","","","","","","","",""
"3626.300000190735","10511","HierDy7rdqzj1t","sub08","08","3","","prac","","","","","","","",""
"5466.700000047684","15984","HierDy7rdqzj1t","sub08","08","3","","","32","","","","","","",""
"1994.9000000953674","17980","HierDy7rdqzj1t","sub08","08","3","","prac","","","","","","","",""
"746.7999999523163","18730","HierDy7rdqzj1t","sub08","08","3","rl","test","83","img/r_t_check.png","4","70","pattern,color,shape","1","0",""
"null","19743","HierDy7rdqzj1t","sub08","08","3","feedback","test","null","","","na","","1","",""
"1196.1999998092651","20941","HierDy7rdqzj1t","sub08","08","3","rl","test","74","img/p_t_diag.png","6","74","pattern,color,shape","2","1",""
"null","21955","HierDy7rdqzj1t","sub08","08","3","feedback","test","null","","","na","","2","",""
"652.5","22610","HierDy7rdqzj1t","sub08","08","3","rl","test","65","img/r_d_check.png","3","68","pattern,color,shape","3","0",""
"null","23617","HierDy7rdqzj1t","sub08","08","3","feedback","test","null","","","na","","3","",""
"482.69999980926514","24101","HierDy7rdqzj1t","sub08","08","3","rl","test","65","img/p_d_check.png","1","65","pattern,color,shape","4","1",""
"null","25123","HierDy7rdqzj1t","sub08","08","3","feedback","test","null","","","na","","4","",""
"1186.5","26312","HierDy7rdqzj1t","sub08","08","3","rl","test","72","img/r_d_diag.png","7","75","pattern,color,shape","5","0",""
"null","27319","HierDy7rdqzj1t","sub08","08","3","feedback","test","null","","","na","","5","",""
"458.7999999523163","27779","HierDy7rdqzj1t","sub08","08","3","rl","test","72","img/p_d_diag.png","5","72","pattern,color,shape","6","1",""
"null","28797","HierDy7rdqzj1t","sub08","08","3","feedback","test","null","","","na","","6","",""
"1140.9000000953674","29940","HierDy7rdqzj1t","sub08","08","3","rl","test","83","img/p_t_check.png","2","83","pattern,color,shape","7","1",""
"null","30954","HierDy7rdqzj1t","sub08","08","3","feedback","test","null","","","na","","7","",""
"1546.0999999046326","32502","HierDy7rdqzj1t","sub08","08","3","rl","test","75","img/r_d_diag.png","7","75","pattern,color,shape","8","1",""
"null","33521","HierDy7rdqzj1t","sub08","08","3","feedback","test","null","","","na","","8","",""
"1156.5","34679","HierDy7rdqzj1t","sub08","08","3","rl","test","74","img/p_t_diag.png","6","74","pattern,color,shape","9","1",""
"null","35682","HierDy7rdqzj1t","sub08","08","3","feedback","test","null","","","na","","9","",""
"665.8999998569489","36349","HierDy7rdqzj1t","sub08","08","3","rl","test","76","img/r_t_diag.png","8","76","pattern,color,shape","10","1",""
"null","37364","HierDy7rdqzj1t","sub08","08","3","feedback","test","null","","","na","","10","",""
"623.5","37989","HierDy7rdqzj1t","sub08","08","3","rl","test","76","img/r_t_diag.png","8","76","pattern,color,shape","11","1",""
"null","39000","HierDy7rdqzj1t","sub08","08","3","feedback","test","null","","","na","","11","",""
"1138.2999999523163","40139","HierDy7rdqzj1t","sub08","08","3","rl","test","65","img/p_d_check.png","1","65","pattern,color,shape","12","1",""
"null","41145","HierDy7rdqzj1t","sub08","08","3","feedback","test","null","","","na","","12","",""
"1174.2999999523163","42321","HierDy7rdqzj1t","sub08","08","3","rl","test","70","img/r_t_check.png","4","70","pattern,color,shape","13","1",""
"null","43338","HierDy7rdqzj1t","sub08","08","3","feedback","test","null","","","na","","13","",""
"831","44170","HierDy7rdqzj1t","sub08","08","3","rl","test","68","img/r_d_check.png","3","68","pattern,color,shape","14","1",""
"null","45176","HierDy7rdqzj1t","sub08","08","3","feedback","test","null","","","na","","14","",""
"811.5999999046326","45989","HierDy7rdqzj1t","sub08","08","3","rl","test","70","img/r_t_check.png","4","70","pattern,color,shape","15","1",""
"null","47000","HierDy7rdqzj1t","sub08","08","3","feedback","test","null","","","na","","15","",""
"709.7000000476837","47711","HierDy7rdqzj1t","sub08","08","3","rl","test","83","img/p_t_check.png","2","83","pattern,color,shape","16","1",""
"null","48719","HierDy7rdqzj1t","sub08","08","3","feedback","test","null","","","na","","16","",""
"1259.1000001430511","49979","HierDy7rdqzj1t","sub08","08","3","rl","test","74","img/r_t_diag.png","8","76","pattern,color,shape","17","0",""
"null","50986","HierDy7rdqzj1t","sub08","08","3","feedback","test","null","","","na","","17","",""
"772","51759","HierDy7rdqzj1t","sub08","08","3","rl","test","72","img/p_d_diag.png","5","72","pattern,color,shape","18","1",""
"null","52775","HierDy7rdqzj1t","sub08","08","3","feedback","test","null","","","na","","18","",""
"803.1000001430511","53579","HierDy7rdqzj1t","sub08","08","3","rl","test","83","img/p_t_check.png","2","83","pattern,color,shape","19","1",""
"null","54588","HierDy7rdqzj1t","sub08","08","3","feedback","test","null","","","na","","19","",""
"1030.5999999046326","55620","HierDy7rdqzj1t","sub08","08","3","rl","test","72","img/p_d_diag.png","5","72","pattern,color,shape","20","1",""
"null","56631","HierDy7rdqzj1t","sub08","08","3","feedback","test","null","","","na","","20","",""
"936.4000000953674","57571","HierDy7rdqzj1t","sub08","08","3","rl","test","83","img/r_d_check.png","3","68","pattern,color,shape","21","0",""
"null","58578","HierDy7rdqzj1t","sub08","08","3","feedback","test","null","","","na","","21","",""
"1601.5999999046326","60182","HierDy7rdqzj1t","sub08","08","3","rl","test","75","img/r_d_diag.png","7","75","pattern,color,shape","22","1",""
"null","61190","HierDy7rdqzj1t","sub08","08","3","feedback","test","null","","","na","","22","",""
"1071","62262","HierDy7rdqzj1t","sub08","08","3","rl","test","76","img/p_t_diag.png","6","74","pattern,color,shape","23","0",""
"null","63265","HierDy7rdqzj1t","sub08","08","3","feedback","test","null","","","na","","23","",""
"865.1999998092651","64132","HierDy7rdqzj1t","sub08","08","3","rl","test","83","img/p_t_check.png","2","83","pattern,color,shape","24","1",""
"null","65138","HierDy7rdqzj1t","sub08","08","3","feedback","test","null","","","na","","24","",""
"733.9000000953674","65874","HierDy7rdqzj1t","sub08","08","3","rl","test","65","img/p_d_check.png","1","65","pattern,color,shape","25","1",""
"null","66891","HierDy7rdqzj1t","sub08","08","3","feedback","test","null","","","na","","25","",""
"1699.4000000953674","68592","HierDy7rdqzj1t","sub08","08","3","rl","test","75","img/r_d_diag.png","7","75","pattern,color,shape","26","1",""
"null","69617","HierDy7rdqzj1t","sub08","08","3","feedback","test","null","","","na","","26","",""
"1063.0999999046326","70682","HierDy7rdqzj1t","sub08","08","3","rl","test","76","img/r_t_diag.png","8","76","pattern,color,shape","27","1",""
"null","71697","HierDy7rdqzj1t","sub08","08","3","feedback","test","null","","","na","","27","",""
"834.5","72533","HierDy7rdqzj1t","sub08","08","3","rl","test","65","img/p_d_check.png","1","65","pattern,color,shape","28","1",""
"null","73537","HierDy7rdqzj1t","sub08","08","3","feedback","test","null","","","na","","28","",""
"662.7999999523163","74201","HierDy7rdqzj1t","sub08","08","3","rl","test","65","img/p_d_check.png","1","65","pattern,color,shape","29","1",""
"null","75213","HierDy7rdqzj1t","sub08","08","3","feedback","test","null","","","na","","29","",""
"1238.5","76453","HierDy7rdqzj1t","sub08","08","3","rl","test","70","img/r_t_check.png","4","70","pattern,color,shape","30","1",""
"null","77467","HierDy7rdqzj1t","sub08","08","3","feedback","test","null","","","na","","30","",""
"933.5999999046326","78402","HierDy7rdqzj1t","sub08","08","3","rl","test","68","img/r_d_check.png","3","68","pattern,color,shape","31","1",""
"null","79427","HierDy7rdqzj1t","sub08","08","3","feedback","test","null","","","na","","31","",""
"824.3999998569489","80253","HierDy7rdqzj1t","sub08","08","3","rl","test","72","img/p_d_diag.png","5","72","pattern,color,shape","32","1",""
"null","81256","HierDy7rdqzj1t","sub08","08","3","feedback","test","null","","","na","","32","",""
"914.9000000953674","82173","HierDy7rdqzj1t","sub08","08","3","rl","test","75","img/r_d_diag.png","7","75","pattern,color,shape","33","1",""
"null","83177","HierDy7rdqzj1t","sub08","08","3","feedback","test","null","","","na","","33","",""
"1383.7000000476837","84562","HierDy7rdqzj1t","sub08","08","3","rl","test","74","img/p_t_diag.png","6","74","pattern,color,shape","34","1",""
"null","85577","HierDy7rdqzj1t","sub08","08","3","feedback","test","null","","","na","","34","",""
"1153.8000001907349","86732","HierDy7rdqzj1t","sub08","08","3","rl","test","68","img/r_d_check.png","3","68","pattern,color,shape","35","1",""
"null","87747","HierDy7rdqzj1t","sub08","08","3","feedback","test","null","","","na","","35","",""
"1474.5999999046326","89223","HierDy7rdqzj1t","sub08","08","3","rl","test","74","img/p_t_diag.png","6","74","pattern,color,shape","36","1",""
"null","90237","HierDy7rdqzj1t","sub08","08","3","feedback","test","null","","","na","","36","",""
"833.4000000953674","91072","HierDy7rdqzj1t","sub08","08","3","rl","test","83","img/p_t_check.png","2","83","pattern,color,shape","37","1",""
"null","92096","HierDy7rdqzj1t","sub08","08","3","feedback","test","null","","","na","","37","",""
"1223.9000000953674","93322","HierDy7rdqzj1t","sub08","08","3","rl","test","75","img/r_d_diag.png","7","75","pattern,color,shape","38","1",""
"null","94337","HierDy7rdqzj1t","sub08","08","3","feedback","test","null","","","na","","38","",""
"804.5999999046326","95143","HierDy7rdqzj1t","sub08","08","3","rl","test","83","img/r_t_check.png","4","70","pattern,color,shape","39","0",""
"null","96167","HierDy7rdqzj1t","sub08","08","3","feedback","test","null","","","na","","39","",""
"944.2999999523163","97113","HierDy7rdqzj1t","sub08","08","3","rl","test","72","img/p_d_diag.png","5","72","pattern,color,shape","40","1",""
"null","98137","HierDy7rdqzj1t","sub08","08","3","feedback","test","null","","","na","","40","",""
"1063.6000001430511","99202","HierDy7rdqzj1t","sub08","08","3","rl","test","76","img/r_t_diag.png","8","76","pattern,color,shape","41","1",""
"null","100222","HierDy7rdqzj1t","sub08","08","3","feedback","test","null","","","na","","41","",""
"798.5","101022","HierDy7rdqzj1t","sub08","08","3","rl","test","74","img/p_t_diag.png","6","74","pattern,color,shape","42","1",""
"null","102027","HierDy7rdqzj1t","sub08","08","3","feedback","test","null","","","na","","42","",""
"625.3999998569489","102654","HierDy7rdqzj1t","sub08","08","3","rl","test","74","img/p_t_diag.png","6","74","pattern,color,shape","43","1",""
"null","103668","HierDy7rdqzj1t","sub08","08","3","feedback","test","null","","","na","","43","",""
"942.7999999523163","104612","HierDy7rdqzj1t","sub08","08","3","rl","test","65","img/p_d_check.png","1","65","pattern,color,shape","44","1",""
"null","105621","HierDy7rdqzj1t","sub08","08","3","feedback","test","null","","","na","","44","",""
"1248.7000000476837","106871","HierDy7rdqzj1t","sub08","08","3","rl","test","70","img/r_t_check.png","4","70","pattern,color,shape","45","1",""
"null","107891","HierDy7rdqzj1t","sub08","08","3","feedback","test","null","","","na","","45","",""
"819.2000000476837","108712","HierDy7rdqzj1t","sub08","08","3","rl","test","68","img/r_d_check.png","3","68","pattern,color,shape","46","1",""
"null","109735","HierDy7rdqzj1t","sub08","08","3","feedback","test","null","","","na","","46","",""
"665.2999999523163","110402","HierDy7rdqzj1t","sub08","08","3","rl","test","83","img/p_t_check.png","2","83","pattern,color,shape","47","1",""
"null","111411","HierDy7rdqzj1t","sub08","08","3","feedback","test","null","","","na","","47","",""
"840.5","112253","HierDy7rdqzj1t","sub08","08","3","rl","test","76","img/r_t_diag.png","8","76","pattern,color,shape","48","1",""
"null","113262","HierDy7rdqzj1t","sub08","08","3","feedback","test","null","","","na","","48","",""
"1079.4000000953674","114343","HierDy7rdqzj1t","sub08","08","3","rl","test","72","img/p_d_diag.png","5","72","pattern,color,shape","49","1",""
"null","115355","HierDy7rdqzj1t","sub08","08","3","feedback","test","null","","","na","","49","",""
"696.3999998569489","116053","HierDy7rdqzj1t","sub08","08","3","rl","test","75","img/r_d_diag.png","7","75","pattern,color,shape","50","1",""
"null","117062","HierDy7rdqzj1t","sub08","08","3","feedback","test","null","","","na","","50","",""
"649.2000000476837","117712","HierDy7rdqzj1t","sub08","08","3","rl","test","72","img/p_d_diag.png","5","72","pattern,color,shape","51","1",""
"null","118732","HierDy7rdqzj1t","sub08","08","3","feedback","test","null","","","na","","51","",""
"668.1999998092651","119402","HierDy7rdqzj1t","sub08","08","3","rl","test","76","img/r_t_diag.png","8","76","pattern,color,shape","52","1",""
"null","120411","HierDy7rdqzj1t","sub08","08","3","feedback","test","null","","","na","","52","",""
"623.5999999046326","121036","HierDy7rdqzj1t","sub08","08","3","rl","test","83","img/r_t_check.png","4","70","pattern,color,shape","53","0",""
"null","122053","HierDy7rdqzj1t","sub08","08","3","feedback","test","null","","","na","","53","",""
"898.3000001907349","122953","HierDy7rdqzj1t","sub08","08","3","rl","test","68","img/r_d_check.png","3","68","pattern,color,shape","54","1",""
"null","123961","HierDy7rdqzj1t","sub08","08","3","feedback","test","null","","","na","","54","",""
"1618.8999998569489","125582","HierDy7rdqzj1t","sub08","08","3","rl","test","74","img/r_t_diag.png","8","76","pattern,color,shape","55","0",""
"null","126585","HierDy7rdqzj1t","sub08","08","3","feedback","test","null","","","na","","55","",""
"1564.7999999523163","128151","HierDy7rdqzj1t","sub08","08","3","rl","test","72","img/p_d_diag.png","5","72","pattern,color,shape","56","1",""
"null","129170","HierDy7rdqzj1t","sub08","08","3","feedback","test","null","","","na","","56","",""
"871.6000001430511","130043","HierDy7rdqzj1t","sub08","08","3","rl","test","65","img/p_d_check.png","1","65","pattern,color,shape","57","1",""
"null","131049","HierDy7rdqzj1t","sub08","08","3","feedback","test","null","","","na","","57","",""
"1441.0999999046326","132491","HierDy7rdqzj1t","sub08","08","3","rl","test","74","img/p_t_diag.png","6","74","pattern,color,shape","58","1",""
"null","133505","HierDy7rdqzj1t","sub08","08","3","feedback","test","null","","","na","","58","",""
"1005.3999998569489","134512","HierDy7rdqzj1t","sub08","08","3","rl","test","83","img/p_t_check.png","2","83","pattern,color,shape","59","1",""
"null","135522","HierDy7rdqzj1t","sub08","08","3","feedback","test","null","","","na","","59","",""
"579.2999999523163","136103","HierDy7rdqzj1t","sub08","08","3","rl","test","83","img/p_t_check.png","2","83","pattern,color,shape","60","1",""
"null","137121","HierDy7rdqzj1t","sub08","08","3","feedback","test","null","","","na","","60","",""
"599.2000000476837","137722","HierDy7rdqzj1t","sub08","08","3","rl","test","65","img/p_d_check.png","1","65","pattern,color,shape","61","1",""
"null","138738","HierDy7rdqzj1t","sub08","08","3","feedback","test","null","","","na","","61","",""
"752.7999999523163","139492","HierDy7rdqzj1t","sub08","08","3","rl","test","70","img/r_t_check.png","4","70","pattern,color,shape","62","1",""
"null","140499","HierDy7rdqzj1t","sub08","08","3","feedback","test","null","","","na","","62","",""
"1282.0999999046326","141783","HierDy7rdqzj1t","sub08","08","3","rl","test","75","img/r_d_diag.png","7","75","pattern,color,shape","63","1",""
"null","142793","HierDy7rdqzj1t","sub08","08","3","feedback","test","null","","","na","","63","",""
"928.5","143723","HierDy7rdqzj1t","sub08","08","3","rl","test","68","img/r_d_check.png","3","68","pattern,color,shape","64","1",""
"null","144729","HierDy7rdqzj1t","sub08","08","3","feedback","test","null","","","na","","64","",""
"1271.7999999523163","146003","HierDy7rdqzj1t","sub08","08","3","rl","test","74","img/p_t_diag.png","6","74","pattern,color,shape","65","1",""
"null","147009","HierDy7rdqzj1t","sub08","08","3","feedback","test","null","","","na","","65","",""
"871.8000001907349","147882","HierDy7rdqzj1t","sub08","08","3","rl","test","65","img/p_d_check.png","1","65","pattern,color,shape","66","1",""
"null","148890","HierDy7rdqzj1t","sub08","08","3","feedback","test","null","","","na","","66","",""
"851.3999998569489","149743","HierDy7rdqzj1t","sub08","08","3","rl","test","72","img/p_d_diag.png","5","72","pattern,color,shape","67","1",""
"null","150753","HierDy7rdqzj1t","sub08","08","3","feedback","test","null","","","na","","67","",""
"708.7000000476837","151463","HierDy7rdqzj1t","sub08","08","3","rl","test","83","img/r_t_check.png","4","70","pattern,color,shape","68","0",""
"null","152473","HierDy7rdqzj1t","sub08","08","3","feedback","test","null","","","na","","68","",""
"878.5999999046326","153353","HierDy7rdqzj1t","sub08","08","3","rl","test","76","img/r_t_diag.png","8","76","pattern,color,shape","69","1",""
"null","154369","HierDy7rdqzj1t","sub08","08","3","feedback","test","null","","","na","","69","",""
"581.5999999046326","154952","HierDy7rdqzj1t","sub08","08","3","rl","test","76","img/r_t_diag.png","8","76","pattern,color,shape","70","1",""
"null","155969","HierDy7rdqzj1t","sub08","08","3","feedback","test","null","","","na","","70","",""
"1162.2000000476837","157133","HierDy7rdqzj1t","sub08","08","3","rl","test","70","img/r_t_check.png","4","70","pattern,color,shape","71","1",""
"null","158145","HierDy7rdqzj1t","sub08","08","3","feedback","test","null","","","na","","71","",""
"826.8000001907349","158973","HierDy7rdqzj1t","sub08","08","3","rl","test","72","img/r_d_diag.png","7","75","pattern,color,shape","72","0",""
"null","159985","HierDy7rdqzj1t","sub08","08","3","feedback","test","null","","","na","","72","",""
"887.2999999523163","160873","HierDy7rdqzj1t","sub08","08","3","rl","test","83","img/p_t_check.png","2","83","pattern,color,shape","73","1",""
"null","161889","HierDy7rdqzj1t","sub08","08","3","feedback","test","null","","","na","","73","",""
"933.8999998569489","162825","HierDy7rdqzj1t","sub08","08","3","rl","test","68","img/r_d_check.png","3","68","pattern,color,shape","74","1",""
"null","163833","HierDy7rdqzj1t","sub08","08","3","feedback","test","null","","","na","","74","",""
"949.8999998569489","164784","HierDy7rdqzj1t","sub08","08","3","rl","test","83","img/p_t_check.png","2","83","pattern,color,shape","75","1",""
"null","165806","HierDy7rdqzj1t","sub08","08","3","feedback","test","null","","","na","","75","",""
"1144","166952","HierDy7rdqzj1t","sub08","08","3","rl","test","75","img/r_d_diag.png","7","75","pattern,color,shape","76","1",""
"null","167963","HierDy7rdqzj1t","sub08","08","3","feedback","test","null","","","na","","76","",""
"1068.4000000953674","169033","HierDy7rdqzj1t","sub08","08","3","rl","test","68","img/r_d_check.png","3","68","pattern,color,shape","77","1",""
"null","170044","HierDy7rdqzj1t","sub08","08","3","feedback","test","null","","","na","","77","",""
"737","170783","HierDy7rdqzj1t","sub08","08","3","rl","test","72","img/p_d_diag.png","5","72","pattern,color,shape","78","1",""
"null","171809","HierDy7rdqzj1t","sub08","08","3","feedback","test","null","","","na","","78","",""
"732.6000001430511","172543","HierDy7rdqzj1t","sub08","08","3","rl","test","74","img/p_t_diag.png","6","74","pattern,color,shape","79","1",""
"null","173561","HierDy7rdqzj1t","sub08","08","3","feedback","test","null","","","na","","79","",""
"1039.7999999523163","174603","HierDy7rdqzj1t","sub08","08","3","rl","test","65","img/p_d_check.png","1","65","pattern,color,shape","80","1",""
"null","175610","HierDy7rdqzj1t","sub08","08","3","feedback","test","null","","","na","","80","",""
"893.0999999046326","176505","HierDy7rdqzj1t","sub08","08","3","rl","test","76","img/p_t_diag.png","6","74","pattern,color,shape","81","0",""
"null","177526","HierDy7rdqzj1t","sub08","08","3","feedback","test","null","","","na","","81","",""
"496.40000009536743","178024","HierDy7rdqzj1t","sub08","08","3","rl","test","76","img/r_t_diag.png","8","76","pattern,color,shape","82","1",""
"null","179033","HierDy7rdqzj1t","sub08","08","3","feedback","test","null","","","na","","82","",""
"1008.3999998569489","180043","HierDy7rdqzj1t","sub08","08","3","rl","test","68","img/r_d_check.png","3","68","pattern,color,shape","83","1",""
"null","181058","HierDy7rdqzj1t","sub08","08","3","feedback","test","null","","","na","","83","",""
"1113.7000000476837","182173","HierDy7rdqzj1t","sub08","08","3","rl","test","74","img/r_d_diag.png","7","75","pattern,color,shape","84","0",""
"null","183183","HierDy7rdqzj1t","sub08","08","3","feedback","test","null","","","na","","84","",""
"948.7000000476837","184133","HierDy7rdqzj1t","sub08","08","3","rl","test","65","img/p_d_check.png","1","65","pattern,color,shape","85","1",""
"null","185145","HierDy7rdqzj1t","sub08","08","3","feedback","test","null","","","na","","85","",""
"1095.9000000953674","186243","HierDy7rdqzj1t","sub08","08","3","rl","test","70","img/r_t_check.png","4","70","pattern,color,shape","86","1",""
"null","187251","HierDy7rdqzj1t","sub08","08","3","feedback","test","null","","","na","","86","",""
"840.5","188093","HierDy7rdqzj1t","sub08","08","3","rl","test","83","img/p_t_check.png","2","83","pattern,color,shape","87","1",""
"null","189098","HierDy7rdqzj1t","sub08","08","3","feedback","test","null","","","na","","87","",""
"843.6000001430511","189943","HierDy7rdqzj1t","sub08","08","3","rl","test","72","img/p_d_diag.png","5","72","pattern,color,shape","88","1",""
"null","190957","HierDy7rdqzj1t","sub08","08","3","feedback","test","null","","","na","","88","",""
"603.8999998569489","191563","HierDy7rdqzj1t","sub08","08","3","rl","test","72","img/p_d_diag.png","5","72","pattern,color,shape","89","1",""
"null","192580","HierDy7rdqzj1t","sub08","08","3","feedback","test","null","","","na","","89","",""
"960.9000000953674","193542","HierDy7rdqzj1t","sub08","08","3","rl","test","68","img/r_d_check.png","3","68","pattern,color,shape","90","1",""
"null","194561","HierDy7rdqzj1t","sub08","08","3","feedback","test","null","","","na","","90","",""
"1100.0999999046326","195663","HierDy7rdqzj1t","sub08","08","3","rl","test","75","img/r_d_diag.png","7","75","pattern,color,shape","91","1",""
"null","196676","HierDy7rdqzj1t","sub08","08","3","feedback","test","null","","","na","","91","",""
"885.5","197563","HierDy7rdqzj1t","sub08","08","3","rl","test","83","img/p_t_check.png","2","83","pattern,color,shape","92","1",""
"null","198580","HierDy7rdqzj1t","sub08","08","3","feedback","test","null","","","na","","92","",""
"1181.6999998092651","199763","HierDy7rdqzj1t","sub08","08","3","rl","test","76","img/r_t_diag.png","8","76","pattern,color,shape","93","1",""
"null","200770","HierDy7rdqzj1t","sub08","08","3","feedback","test","null","","","na","","93","",""
"801.2000000476837","201573","HierDy7rdqzj1t","sub08","08","3","rl","test","65","img/p_d_check.png","1","65","pattern,color,shape","94","1",""
"null","202583","HierDy7rdqzj1t","sub08","08","3","feedback","test","null","","","na","","94","",""
"1299","203883","HierDy7rdqzj1t","sub08","08","3","rl","test","76","img/p_t_diag.png","6","74","pattern,color,shape","95","0",""
"null","204889","HierDy7rdqzj1t","sub08","08","3","feedback","test","null","","","na","","95","",""
"1201.7000000476837","206093","HierDy7rdqzj1t","sub08","08","3","rl","test","65","img/p_d_check.png","1","65","pattern,color,shape","96","1",""
"null","207113","HierDy7rdqzj1t","sub08","08","3","feedback","test","null","","","na","","96","",""
"978.6000001430511","208092","HierDy7rdqzj1t","sub08","08","3","rl","test","70","img/r_t_check.png","4","70","pattern,color,shape","97","1",""
"null","209105","HierDy7rdqzj1t","sub08","08","3","feedback","test","null","","","na","","97","",""
"766.6000001430511","209873","HierDy7rdqzj1t","sub08","08","3","rl","test","68","img/r_d_check.png","3","68","pattern,color,shape","98","1",""
"null","210895","HierDy7rdqzj1t","sub08","08","3","feedback","test","null","","","na","","98","",""
"1717.7000000476837","212614","HierDy7rdqzj1t","sub08","08","3","rl","test","74","img/p_t_diag.png","6","74","pattern,color,shape","99","1",""
"null","213625","HierDy7rdqzj1t","sub08","08","3","feedback","test","null","","","na","","99","",""
"826.5999999046326","214453","HierDy7rdqzj1t","sub08","08","3","rl","test","76","img/r_t_check.png","4","70","pattern,color,shape","100","0",""
"null","215466","HierDy7rdqzj1t","sub08","08","3","feedback","test","null","","","na","","100","",""
"505.5","215972","HierDy7rdqzj1t","sub08","08","3","rl","test","76","img/r_t_diag.png","8","76","pattern,color,shape","101","1",""
"null","216985","HierDy7rdqzj1t","sub08","08","3","feedback","test","null","","","na","","101","",""
"976.1000001430511","217963","HierDy7rdqzj1t","sub08","08","3","rl","test","72","img/p_d_diag.png","5","72","pattern,color,shape","102","1",""
"null","218974","HierDy7rdqzj1t","sub08","08","3","feedback","test","null","","","na","","102","",""
"507","219483","HierDy7rdqzj1t","sub08","08","3","rl","test","72","img/p_d_diag.png","5","72","pattern,color,shape","103","1",""
"null","220492","HierDy7rdqzj1t","sub08","08","3","feedback","test","null","","","na","","103","",""
"910.0999999046326","221403","HierDy7rdqzj1t","sub08","08","3","rl","test","68","img/r_d_check.png","3","68","pattern,color,shape","104","1",""
"null","222423","HierDy7rdqzj1t","sub08","08","3","feedback","test","null","","","na","","104","",""
"1638.3999998569489","224063","HierDy7rdqzj1t","sub08","08","3","rl","test","83","img/p_t_check.png","2","83","pattern,color,shape","105","1",""
"null","225080","HierDy7rdqzj1t","sub08","08","3","feedback","test","null","","","na","","105","",""
"1613.7000000476837","226695","HierDy7rdqzj1t","sub08","08","3","rl","test","75","img/r_d_diag.png","7","75","pattern,color,shape","106","1",""
"null","227708","HierDy7rdqzj1t","sub08","08","3","feedback","test","null","","","na","","106","",""
"1353.7999999523163","229063","HierDy7rdqzj1t","sub08","08","3","rl","test","83","img/p_t_check.png","2","83","pattern,color,shape","107","1",""
"null","230084","HierDy7rdqzj1t","sub08","08","3","feedback","test","null","","","na","","107","",""
"606.4000000953674","230693","HierDy7rdqzj1t","sub08","08","3","rl","test","65","img/p_d_check.png","1","65","pattern,color,shape","108","1",""
"null","231694","HierDy7rdqzj1t","sub08","08","3","feedback","test","null","","","na","","108","",""
"1227.9000000953674","232923","HierDy7rdqzj1t","sub08","08","3","rl","test","75","img/r_d_diag.png","7","75","pattern,color,shape","109","1",""
"null","233933","HierDy7rdqzj1t","sub08","08","3","feedback","test","null","","","na","","109","",""
"1348.2000000476837","235283","HierDy7rdqzj1t","sub08","08","3","rl","test","76","img/r_t_diag.png","8","76","pattern,color,shape","110","1",""
"null","236300","HierDy7rdqzj1t","sub08","08","3","feedback","test","null","","","na","","110","",""
"972","237273","HierDy7rdqzj1t","sub08","08","3","rl","test","70","img/r_t_check.png","4","70","pattern,color,shape","111","1",""
"null","238283","HierDy7rdqzj1t","sub08","08","3","feedback","test","null","","","na","","111","",""
"600.2999999523163","238885","HierDy7rdqzj1t","sub08","08","3","rl","test","70","img/r_t_check.png","4","70","pattern,color,shape","112","1",""
"null","239893","HierDy7rdqzj1t","sub08","08","3","feedback","test","null","","","na","","112","",""
"1231","241125","HierDy7rdqzj1t","sub08","08","3","rl","test","74","img/p_t_diag.png","6","74","pattern,color,shape","113","1",""
"null","242133","HierDy7rdqzj1t","sub08","08","3","feedback","test","null","","","na","","113","",""
"690.3999998569489","242825","HierDy7rdqzj1t","sub08","08","3","rl","test","65","img/p_d_check.png","1","65","pattern,color,shape","114","1",""
"null","243847","HierDy7rdqzj1t","sub08","08","3","feedback","test","null","","","na","","114","",""
"747.0999999046326","244595","HierDy7rdqzj1t","sub08","08","3","rl","test","76","img/r_t_diag.png","8","76","pattern,color,shape","115","1",""
"null","245605","HierDy7rdqzj1t","sub08","08","3","feedback","test","null","","","na","","115","",""
"678.7000000476837","246285","HierDy7rdqzj1t","sub08","08","3","rl","test","75","img/r_d_diag.png","7","75","pattern,color,shape","116","1",""
"null","247295","HierDy7rdqzj1t","sub08","08","3","feedback","test","null","","","na","","116","",""
"1628.2999999523163","248925","HierDy7rdqzj1t","sub08","08","3","rl","test","83","img/p_t_check.png","2","83","pattern,color,shape","117","1",""
"null","249935","HierDy7rdqzj1t","sub08","08","3","feedback","test","null","","","na","","117","",""
"1038.2999999523163","250975","HierDy7rdqzj1t","sub08","08","3","rl","test","72","img/p_d_diag.png","5","72","pattern,color,shape","118","1",""
"null","251981","HierDy7rdqzj1t","sub08","08","3","feedback","test","null","","","na","","118","",""
"1102.2000000476837","253085","HierDy7rdqzj1t","sub08","08","3","rl","test","68","img/r_d_check.png","3","68","pattern,color,shape","119","1",""
"null","254092","HierDy7rdqzj1t","sub08","08","3","feedback","test","null","","","na","","119","",""
"1712","255805","HierDy7rdqzj1t","sub08","08","3","rl","test","75","img/p_t_diag.png","6","74","pattern,color,shape","120","0",""
"null","256812","HierDy7rdqzj1t","sub08","08","3","feedback","test","null","","","na","","120","",""
"1131.2000000476837","257945","HierDy7rdqzj1t","sub08","08","3","rl","test","83","img/p_t_check.png","2","83","pattern,color,shape","121","1",""
"null","258956","HierDy7rdqzj1t","sub08","08","3","feedback","test","null","","","na","","121","",""
"707.7000000476837","259665","HierDy7rdqzj1t","sub08","08","3","rl","test","65","img/p_d_check.png","1","65","pattern,color,shape","122","1",""
"null","260676","HierDy7rdqzj1t","sub08","08","3","feedback","test","null","","","na","","122","",""
"707.1000001430511","261385","HierDy7rdqzj1t","sub08","08","3","rl","test","72","img/p_d_diag.png","5","72","pattern,color,shape","123","1",""
"null","262405","HierDy7rdqzj1t","sub08","08","3","feedback","test","null","","","na","","123","",""
"788.4000000953674","263195","HierDy7rdqzj1t","sub08","08","3","rl","test","76","img/r_t_diag.png","8","76","pattern,color,shape","124","1",""
"null","264215","HierDy7rdqzj1t","sub08","08","3","feedback","test","null","","","na","","124","",""
"1058.7999999523163","265275","HierDy7rdqzj1t","sub08","08","3","rl","test","70","img/r_t_check.png","4","70","pattern,color,shape","125","1",""
"null","266295","HierDy7rdqzj1t","sub08","08","3","feedback","test","null","","","na","","125","",""
"2027.8999998569489","268325","HierDy7rdqzj1t","sub08","08","3","rl","test","74","img/p_t_diag.png","6","74","pattern,color,shape","126","1",""
"null","269333","HierDy7rdqzj1t","sub08","08","3","feedback","test","null","","","na","","126","",""
"720.9000000953674","270055","HierDy7rdqzj1t","sub08","08","3","rl","test","72","img/p_d_diag.png","5","72","pattern,color,shape","127","1",""
"null","271068","HierDy7rdqzj1t","sub08","08","3","feedback","test","null","","","na","","127","",""
"1125.6000001430511","272195","HierDy7rdqzj1t","sub08","08","3","rl","test","75","img/r_d_diag.png","7","75","pattern,color,shape","128","1",""
"null","273212","HierDy7rdqzj1t","sub08","08","3","feedback","test","null","","","na","","128","",""
"1331.2999999523163","274545","HierDy7rdqzj1t","sub08","08","3","rl","test","68","img/r_d_check.png","3","68","pattern,color,shape","129","1",""
"null","275562","HierDy7rdqzj1t","sub08","08","3","feedback","test","null","","","na","","129","",""
"581.8000001907349","276145","HierDy7rdqzj1t","sub08","08","3","rl","test","68","img/r_d_check.png","3","68","pattern,color,shape","130","1",""
"null","277159","HierDy7rdqzj1t","sub08","08","3","feedback","test","null","","","na","","130","",""
"1564.6999998092651","278725","HierDy7rdqzj1t","sub08","08","3","rl","test","75","img/r_d_diag.png","7","75","pattern,color,shape","131","1",""
"null","279733","HierDy7rdqzj1t","sub08","08","3","feedback","test","null","","","na","","131","",""
"860.5999999046326","280595","HierDy7rdqzj1t","sub08","08","3","rl","test","65","img/p_d_check.png","1","65","pattern,color,shape","132","1",""
"null","281604","HierDy7rdqzj1t","sub08","08","3","feedback","test","null","","","na","","132","",""
"908.7999999523163","282515","HierDy7rdqzj1t","sub08","08","3","rl","test","76","img/r_t_diag.png","8","76","pattern,color,shape","133","1",""
"null","283531","HierDy7rdqzj1t","sub08","08","3","feedback","test","null","","","na","","133","",""
"783","284316","HierDy7rdqzj1t","sub08","08","3","rl","test","83","img/p_t_check.png","2","83","pattern,color,shape","134","1",""
"null","285333","HierDy7rdqzj1t","sub08","08","3","feedback","test","null","","","na","","134","",""
"1070.0999999046326","286404","HierDy7rdqzj1t","sub08","08","3","rl","test","76","img/r_t_diag.png","8","76","pattern,color,shape","135","1",""
"null","287412","HierDy7rdqzj1t","sub08","08","3","feedback","test","null","","","na","","135","",""
"792.1999998092651","288205","HierDy7rdqzj1t","sub08","08","3","rl","test","83","img/r_t_check.png","4","70","pattern,color,shape","136","0",""
"null","289216","HierDy7rdqzj1t","sub08","08","3","feedback","test","null","","","na","","136","",""
"867.5","290085","HierDy7rdqzj1t","sub08","08","3","rl","test","68","img/r_d_check.png","3","68","pattern,color,shape","137","1",""
"null","291098","HierDy7rdqzj1t","sub08","08","3","feedback","test","null","","","na","","137","",""
"1146.2000000476837","292246","HierDy7rdqzj1t","sub08","08","3","rl","test","74","img/p_t_diag.png","6","74","pattern,color,shape","138","1",""
"null","293253","HierDy7rdqzj1t","sub08","08","3","feedback","test","null","","","na","","138","",""
"2130.7999999523163","295385","HierDy7rdqzj1t","sub08","08","3","rl","test","75","img/r_d_diag.png","7","75","pattern,color,shape","139","1",""
"null","296399","HierDy7rdqzj1t","sub08","08","3","feedback","test","null","","","na","","139","",""
"1016.1999998092651","297417","HierDy7rdqzj1t","sub08","08","3","rl","test","83","img/r_t_check.png","4","70","pattern,color,shape","140","0",""
"null","298423","HierDy7rdqzj1t","sub08","08","3","feedback","test","null","","","na","","140","",""
"2159.9000000953674","300585","HierDy7rdqzj1t","sub08","08","3","rl","test","72","img/p_d_diag.png","5","72","pattern,color,shape","141","1",""
"null","301598","HierDy7rdqzj1t","sub08","08","3","feedback","test","null","","","na","","141","",""
"945.2999999523163","302545","HierDy7rdqzj1t","sub08","08","3","rl","test","83","img/p_t_check.png","2","83","pattern,color,shape","142","1",""
"null","303564","HierDy7rdqzj1t","sub08","08","3","feedback","test","null","","","na","","142","",""
"1989.2000000476837","305555","HierDy7rdqzj1t","sub08","08","3","rl","test","74","img/p_t_diag.png","6","74","pattern,color,shape","143","1",""
"null","306574","HierDy7rdqzj1t","sub08","08","3","feedback","test","null","","","na","","143","",""
"919.3999998569489","307495","HierDy7rdqzj1t","sub08","08","3","rl","test","65","img/p_d_check.png","1","65","pattern,color,shape","144","1",""
"null","308506","HierDy7rdqzj1t","sub08","08","3","feedback","test","null","","","na","","144","",""
"766.7000000476837","309275","HierDy7rdqzj1t","sub08","08","3","rl","test","76","img/p_t_diag.png","6","74","pattern,color,shape","145","0",""
"null","310291","HierDy7rdqzj1t","sub08","08","3","feedback","test","null","","","na","","145","",""
"1382.2000000476837","311675","HierDy7rdqzj1t","sub08","08","3","rl","test","70","img/r_t_check.png","4","70","pattern,color,shape","146","1",""
"null","312691","HierDy7rdqzj1t","sub08","08","3","feedback","test","null","","","na","","146","",""
"971.8999998569489","313665","HierDy7rdqzj1t","sub08","08","3","rl","test","65","img/p_d_check.png","1","65","pattern,color,shape","147","1",""
"null","314676","HierDy7rdqzj1t","sub08","08","3","feedback","test","null","","","na","","147","",""
"717.5","315395","HierDy7rdqzj1t","sub08","08","3","rl","test","76","img/r_t_diag.png","8","76","pattern,color,shape","148","1",""
"null","316416","HierDy7rdqzj1t","sub08","08","3","feedback","test","null","","","na","","148","",""
"1128.9000000953674","317546","HierDy7rdqzj1t","sub08","08","3","rl","test","83","img/p_t_check.png","2","83","pattern,color,shape","149","1",""
"null","318555","HierDy7rdqzj1t","sub08","08","3","feedback","test","null","","","na","","149","",""
"937.5","319495","HierDy7rdqzj1t","sub08","08","3","rl","test","74","img/r_d_diag.png","7","75","pattern,color,shape","150","0",""
"null","320502","HierDy7rdqzj1t","sub08","08","3","feedback","test","null","","","na","","150","",""
"1313.2000000476837","321817","HierDy7rdqzj1t","sub08","08","3","rl","test","68","img/r_d_check.png","3","68","pattern,color,shape","151","1",""
"null","322827","HierDy7rdqzj1t","sub08","08","3","feedback","test","null","","","na","","151","",""
"606.2000000476837","323435","HierDy7rdqzj1t","sub08","08","3","rl","test","68","img/r_d_check.png","3","68","pattern,color,shape","152","1",""
"null","324455","HierDy7rdqzj1t","sub08","08","3","feedback","test","null","","","na","","152","",""
"2218","326675","HierDy7rdqzj1t","sub08","08","3","rl","test","74","img/r_t_diag.png","8","76","pattern,color,shape","153","0",""
"null","327683","HierDy7rdqzj1t","sub08","08","3","feedback","test","null","","","na","","153","",""
"1572.2999999523163","329257","HierDy7rdqzj1t","sub08","08","3","rl","test","75","img/r_d_diag.png","7","75","pattern,color,shape","154","1",""
"null","330278","HierDy7rdqzj1t","sub08","08","3","feedback","test","null","","","na","","154","",""
"755.5","331035","HierDy7rdqzj1t","sub08","08","3","rl","test","72","img/p_d_diag.png","5","72","pattern,color,shape","155","1",""
"null","332048","HierDy7rdqzj1t","sub08","08","3","feedback","test","null","","","na","","155","",""
"855.0999999046326","332905","HierDy7rdqzj1t","sub08","08","3","rl","test","65","img/p_d_check.png","1","65","pattern,color,shape","156","1",""
"null","333915","HierDy7rdqzj1t","sub08","08","3","feedback","test","null","","","na","","156","",""
"947.9000000953674","334865","HierDy7rdqzj1t","sub08","08","3","rl","test","72","img/p_d_diag.png","5","72","pattern,color,shape","157","1",""
"null","335883","HierDy7rdqzj1t","sub08","08","3","feedback","test","null","","","na","","157","",""
"849.5","336734","HierDy7rdqzj1t","sub08","08","3","rl","test","74","img/p_t_diag.png","6","74","pattern,color,shape","158","1",""
"null","337755","HierDy7rdqzj1t","sub08","08","3","feedback","test","null","","","na","","158","",""
"938.4000000953674","338695","HierDy7rdqzj1t","sub08","08","3","rl","test","83","img/p_t_check.png","2","83","pattern,color,shape","159","1",""
"null","339702","HierDy7rdqzj1t","sub08","08","3","feedback","test","null","","","na","","159","",""
"601.2999999523163","340305","HierDy7rdqzj1t","sub08","08","3","rl","test","70","img/r_t_check.png","4","70","pattern,color,shape","160","1",""
"null","341318","HierDy7rdqzj1t","sub08","08","3","feedback","test","null","","","na","","160","",""
"635.2999999523163","341954","HierDy7rdqzj1t","sub08","08","3","rl","test","70","img/r_t_check.png","4","70","pattern,color,shape","161","1",""
"null","342968","HierDy7rdqzj1t","sub08","08","3","feedback","test","null","","","na","","161","",""
"816.8999998569489","343787","HierDy7rdqzj1t","sub08","08","3","rl","test","83","img/p_t_check.png","2","83","pattern,color,shape","162","1",""
"null","344806","HierDy7rdqzj1t","sub08","08","3","feedback","test","null","","","na","","162","",""
"708.2999999523163","345516","HierDy7rdqzj1t","sub08","08","3","rl","test","72","img/p_d_diag.png","5","72","pattern,color,shape","163","1",""
"null","346531","HierDy7rdqzj1t","sub08","08","3","feedback","test","null","","","na","","163","",""
"831.9000000953674","347365","HierDy7rdqzj1t","sub08","08","3","rl","test","68","img/r_d_check.png","3","68","pattern,color,shape","164","1",""
"null","348384","HierDy7rdqzj1t","sub08","08","3","feedback","test","null","","","na","","164","",""
"1509.2999999523163","349895","HierDy7rdqzj1t","sub08","08","3","rl","test","74","img/p_t_diag.png","6","74","pattern,color,shape","165","1",""
"null","350901","HierDy7rdqzj1t","sub08","08","3","feedback","test","null","","","na","","165","",""
"972.2999999523163","351875","HierDy7rdqzj1t","sub08","08","3","rl","test","65","img/p_d_check.png","1","65","pattern,color,shape","166","1",""
"null","352886","HierDy7rdqzj1t","sub08","08","3","feedback","test","null","","","na","","166","",""
"727","353615","HierDy7rdqzj1t","sub08","08","3","rl","test","65","img/p_d_check.png","1","65","pattern,color,shape","167","1",""
"null","354622","HierDy7rdqzj1t","sub08","08","3","feedback","test","null","","","na","","167","",""
"790.7000000476837","355415","HierDy7rdqzj1t","sub08","08","3","rl","test","76","img/r_t_diag.png","8","76","pattern,color,shape","168","1",""
"null","356421","HierDy7rdqzj1t","sub08","08","3","feedback","test","null","","","na","","168","",""
"502.10000014305115","356925","HierDy7rdqzj1t","sub08","08","3","rl","test","75","img/r_d_diag.png","7","75","pattern,color,shape","169","1",""
"null","357934","HierDy7rdqzj1t","sub08","08","3","feedback","test","null","","","na","","169","",""
"1109.3999998569489","359044","HierDy7rdqzj1t","sub08","08","3","rl","test","72","img/p_t_diag.png","6","74","pattern,color,shape","170","0",""
"null","360062","HierDy7rdqzj1t","sub08","08","3","feedback","test","null","","","na","","170","",""
"641.3000001907349","360705","HierDy7rdqzj1t","sub08","08","3","rl","test","72","img/p_d_diag.png","5","72","pattern,color,shape","171","1",""
"null","361720","HierDy7rdqzj1t","sub08","08","3","feedback","test","null","","","na","","171","",""
"993.4000000953674","362715","HierDy7rdqzj1t","sub08","08","3","rl","test","76","img/r_t_diag.png","8","76","pattern,color,shape","172","1",""
"null","363735","HierDy7rdqzj1t","sub08","08","3","feedback","test","null","","","na","","172","",""
"889.5999999046326","364626","HierDy7rdqzj1t","sub08","08","3","rl","test","68","img/r_d_check.png","3","68","pattern,color,shape","173","1",""
"null","365638","HierDy7rdqzj1t","sub08","08","3","feedback","test","null","","","na","","173","",""
"794.7000000476837","366435","HierDy7rdqzj1t","sub08","08","3","rl","test","76","img/r_t_diag.png","8","76","pattern,color,shape","174","1",""
"null","367453","HierDy7rdqzj1t","sub08","08","3","feedback","test","null","","","na","","174","",""
"639.7999999523163","368094","HierDy7rdqzj1t","sub08","08","3","rl","test","75","img/r_d_diag.png","7","75","pattern,color,shape","175","1",""
"null","369101","HierDy7rdqzj1t","sub08","08","3","feedback","test","null","","","na","","175","",""
"1072.6000001430511","370175","HierDy7rdqzj1t","sub08","08","3","rl","test","70","img/r_t_check.png","4","70","pattern,color,shape","176","1",""
"null","371185","HierDy7rdqzj1t","sub08","08","3","feedback","test","null","","","na","","176","",""
"988.4000000953674","372175","HierDy7rdqzj1t","sub08","08","3","rl","test","83","img/p_t_check.png","2","83","pattern,color,shape","177","1",""
"null","373187","HierDy7rdqzj1t","sub08","08","3","feedback","test","null","","","na","","177","",""
"2226.0999999046326","375414","HierDy7rdqzj1t","sub08","08","3","rl","test","75","img/r_d_diag.png","7","75","pattern,color,shape","178","1",""
"null","376423","HierDy7rdqzj1t","sub08","08","3","feedback","test","null","","","na","","178","",""
"929.9000000953674","377355","HierDy7rdqzj1t","sub08","08","3","rl","test","72","img/p_d_diag.png","5","72","pattern,color,shape","179","1",""
"null","378362","HierDy7rdqzj1t","sub08","08","3","feedback","test","null","","","na","","179","",""
"1070.5999999046326","379434","HierDy7rdqzj1t","sub08","08","3","rl","test","68","img/r_d_check.png","3","68","pattern,color,shape","180","1",""
"null","380443","HierDy7rdqzj1t","sub08","08","3","feedback","test","null","","","na","","180","",""
"1239.5999999046326","381684","HierDy7rdqzj1t","sub08","08","3","rl","test","74","img/p_t_diag.png","6","74","pattern,color,shape","181","1",""
"null","382700","HierDy7rdqzj1t","sub08","08","3","feedback","test","null","","","na","","181","",""
"892.4000000953674","383594","HierDy7rdqzj1t","sub08","08","3","rl","test","65","img/p_d_check.png","1","65","pattern,color,shape","182","1",""
"null","384604","HierDy7rdqzj1t","sub08","08","3","feedback","test","null","","","na","","182","",""
"1199","385805","HierDy7rdqzj1t","sub08","08","3","rl","test","83","img/p_t_check.png","2","83","pattern,color,shape","183","1",""
"null","386813","HierDy7rdqzj1t","sub08","08","3","feedback","test","null","","","na","","183","",""
"1039.8999998569489","387855","HierDy7rdqzj1t","sub08","08","3","rl","test","72","img/p_d_diag.png","5","72","pattern,color,shape","184","1",""
"null","388863","HierDy7rdqzj1t","sub08","08","3","feedback","test","null","","","na","","184","",""
"1369.2999999523163","390234","HierDy7rdqzj1t","sub08","08","3","rl","test","70","img/r_t_check.png","4","70","pattern,color,shape","185","1",""
"null","391242","HierDy7rdqzj1t","sub08","08","3","feedback","test","null","","","na","","185","",""
"1460.8000001907349","392705","HierDy7rdqzj1t","sub08","08","3","rl","test","65","img/p_d_check.png","1","65","pattern,color,shape","186","1",""
"null","393721","HierDy7rdqzj1t","sub08","08","3","feedback","test","null","","","na","","186","",""
"2362","396084","HierDy7rdqzj1t","sub08","08","3","rl","test","68","img/r_t_check.png","4","70","pattern,color,shape","187","0",""
"null","397093","HierDy7rdqzj1t","sub08","08","3","feedback","test","null","","","na","","187","",""
"770.3000001907349","397865","HierDy7rdqzj1t","sub08","08","3","rl","test","76","img/r_t_diag.png","8","76","pattern,color,shape","188","1",""
"null","398884","HierDy7rdqzj1t","sub08","08","3","feedback","test","null","","","na","","188","",""
"549.4000000953674","399434","HierDy7rdqzj1t","sub08","08","3","rl","test","75","img/r_d_diag.png","7","75","pattern,color,shape","189","1",""
"null","400456","HierDy7rdqzj1t","sub08","08","3","feedback","test","null","","","na","","189","",""
"1336.6999998092651","401794","HierDy7rdqzj1t","sub08","08","3","rl","test","68","img/r_d_check.png","3","68","pattern,color,shape","190","1",""
"null","402803","HierDy7rdqzj1t","sub08","08","3","feedback","test","null","","","na","","190","",""
"540.5999999046326","403346","HierDy7rdqzj1t","sub08","08","3","rl","test","68","img/r_d_check.png","3","68","pattern,color,shape","191","1",""
"null","404356","HierDy7rdqzj1t","sub08","08","3","feedback","test","null","","","na","","191","",""
"1477","405834","HierDy7rdqzj1t","sub08","08","3","rl","test","74","img/p_t_diag.png","6","74","pattern,color,shape","192","1",""
"null","406855","HierDy7rdqzj1t","sub08","08","3","feedback","test","null","","","na","","192","",""
"1138.5","407994","HierDy7rdqzj1t","sub08","08","3","rl","test","83","img/p_t_check.png","2","83","pattern,color,shape","193","1",""
"null","409011","HierDy7rdqzj1t","sub08","08","3","feedback","test","null","","","na","","193","",""
"641.9000000953674","409654","HierDy7rdqzj1t","sub08","08","3","rl","test","65","img/p_d_check.png","1","65","pattern,color,shape","194","1",""
"null","410667","HierDy7rdqzj1t","sub08","08","3","feedback","test","null","","","na","","194","",""
"2426.4000000953674","413094","HierDy7rdqzj1t","sub08","08","3","rl","test","75","img/p_t_diag.png","6","74","pattern,color,shape","195","0",""
"null","414109","HierDy7rdqzj1t","sub08","08","3","feedback","test","null","","","na","","195","",""
"734.2000000476837","414844","HierDy7rdqzj1t","sub08","08","3","rl","test","72","img/p_d_diag.png","5","72","pattern,color,shape","196","1",""
"null","415855","HierDy7rdqzj1t","sub08","08","3","feedback","test","null","","","na","","196","",""
"1118.4000000953674","416974","HierDy7rdqzj1t","sub08","08","3","rl","test","70","img/r_t_check.png","4","70","pattern,color,shape","197","1",""
"null","417982","HierDy7rdqzj1t","sub08","08","3","feedback","test","null","","","na","","197","",""
"1401.2000000476837","419384","HierDy7rdqzj1t","sub08","08","3","rl","test","83","img/p_t_check.png","2","83","pattern,color,shape","198","1",""
"null","420396","HierDy7rdqzj1t","sub08","08","3","feedback","test","null","","","na","","198","",""
"826.7999999523163","421224","HierDy7rdqzj1t","sub08","08","3","rl","test","76","img/r_t_diag.png","8","76","pattern,color,shape","199","1",""
"null","422243","HierDy7rdqzj1t","sub08","08","3","feedback","test","null","","","na","","199","",""
"769.2999999523163","423014","HierDy7rdqzj1t","sub08","08","3","rl","test","65","img/p_d_check.png","1","65","pattern,color,shape","200","1",""
"null","424024","HierDy7rdqzj1t","sub08","08","3","feedback","test","null","","","na","","200","",""
"1038.2999999523163","425064","HierDy7rdqzj1t","sub08","08","3","rl","test","75","img/r_d_diag.png","7","75","pattern,color,shape","201","1",""
"null","426081","HierDy7rdqzj1t","sub08","08","3","feedback","test","null","","","na","","201","",""
"581.0999999046326","426664","HierDy7rdqzj1t","sub08","08","3","rl","test","75","img/r_d_diag.png","7","75","pattern,color,shape","202","1",""
"null","427683","HierDy7rdqzj1t","sub08","08","3","feedback","test","null","","","na","","202","",""
"599.0999999046326","428284","HierDy7rdqzj1t","sub08","08","3","rl","test","76","img/r_t_diag.png","8","76","pattern,color,shape","203","1",""
"null","429292","HierDy7rdqzj1t","sub08","08","3","feedback","test","null","","","na","","203","",""
"960.5999999046326","430254","HierDy7rdqzj1t","sub08","08","3","rl","test","68","img/r_d_check.png","3","68","pattern,color,shape","204","1",""
"null","431266","HierDy7rdqzj1t","sub08","08","3","feedback","test","null","","","na","","204","",""
"1416.3000001907349","432684","HierDy7rdqzj1t","sub08","08","3","rl","test","72","img/p_d_diag.png","5","72","pattern,color,shape","205","1",""
"null","433694","HierDy7rdqzj1t","sub08","08","3","feedback","test","null","","","na","","205","",""
"1087.6000001430511","434784","HierDy7rdqzj1t","sub08","08","3","rl","test","83","img/p_t_check.png","2","83","pattern,color,shape","206","1",""
"null","435802","HierDy7rdqzj1t","sub08","08","3","feedback","test","null","","","na","","206","",""
"999.9000000953674","436804","HierDy7rdqzj1t","sub08","08","3","rl","test","72","img/p_d_diag.png","5","72","pattern,color,shape","207","1",""
"null","437810","HierDy7rdqzj1t","sub08","08","3","feedback","test","null","","","na","","207","",""
"874.2000000476837","438686","HierDy7rdqzj1t","sub08","08","3","rl","test","74","img/p_t_diag.png","6","74","pattern,color,shape","208","1",""
"null","439691","HierDy7rdqzj1t","sub08","08","3","feedback","test","null","","","na","","208","",""
"851.5","440544","HierDy7rdqzj1t","sub08","08","3","rl","test","75","img/r_d_diag.png","7","75","pattern,color,shape","209","1",""
"null","441560","HierDy7rdqzj1t","sub08","08","3","feedback","test","null","","","na","","209","",""
"1112","442673","HierDy7rdqzj1t","sub08","08","3","rl","test","70","img/r_t_check.png","4","70","pattern,color,shape","210","1",""
"null","443695","HierDy7rdqzj1t","sub08","08","3","feedback","test","null","","","na","","210","",""
"690","444387","HierDy7rdqzj1t","sub08","08","3","rl","test","76","img/p_t_diag.png","6","74","pattern,color,shape","211","0",""
"null","445395","HierDy7rdqzj1t","sub08","08","3","feedback","test","null","","","na","","211","",""
"767.2000000476837","446163","HierDy7rdqzj1t","sub08","08","3","rl","test","76","img/r_t_diag.png","8","76","pattern,color,shape","212","1",""
"null","447174","HierDy7rdqzj1t","sub08","08","3","feedback","test","null","","","na","","212","",""
"1078.5","448254","HierDy7rdqzj1t","sub08","08","3","rl","test","70","img/r_t_check.png","4","70","pattern,color,shape","213","1",""
"null","449263","HierDy7rdqzj1t","sub08","08","3","feedback","test","null","","","na","","213","",""
"1039.5","450304","HierDy7rdqzj1t","sub08","08","3","rl","test","65","img/p_d_check.png","1","65","pattern,color,shape","214","1",""
"null","451318","HierDy7rdqzj1t","sub08","08","3","feedback","test","null","","","na","","214","",""
"1234.1999998092651","452553","HierDy7rdqzj1t","sub08","08","3","rl","test","70","img/r_t_check.png","4","70","pattern,color,shape","215","1",""
"null","453571","HierDy7rdqzj1t","sub08","08","3","feedback","test","null","","","na","","215","",""
"872","454444","HierDy7rdqzj1t","sub08","08","3","rl","test","68","img/r_d_check.png","3","68","pattern,color,shape","216","1",""
"null","455454","HierDy7rdqzj1t","sub08","08","3","feedback","test","null","","","na","","216","",""
"528.2000000476837","455983","HierDy7rdqzj1t","sub08","08","3","rl","test","68","img/r_d_check.png","3","68","pattern,color,shape","217","1",""
"null","456998","HierDy7rdqzj1t","sub08","08","3","feedback","test","null","","","na","","217","",""
"914.4000000953674","457914","HierDy7rdqzj1t","sub08","08","3","rl","test","65","img/p_d_check.png","1","65","pattern,color,shape","218","1",""
"null","458922","HierDy7rdqzj1t","sub08","08","3","feedback","test","null","","","na","","218","",""
"799.7999999523163","459723","HierDy7rdqzj1t","sub08","08","3","rl","test","83","img/p_t_check.png","2","83","pattern,color,shape","219","1",""
"null","460740","HierDy7rdqzj1t","sub08","08","3","feedback","test","null","","","na","","219","",""
"641.5","461383","HierDy7rdqzj1t","sub08","08","3","rl","test","83","img/p_t_check.png","2","83","pattern,color,shape","220","1",""
"null","462394","HierDy7rdqzj1t","sub08","08","3","feedback","test","null","","","na","","220","",""
"848.3000001907349","463244","HierDy7rdqzj1t","sub08","08","3","rl","test","72","img/p_d_diag.png","5","72","pattern,color,shape","221","1",""
"null","464262","HierDy7rdqzj1t","sub08","08","3","feedback","test","null","","","na","","221","",""
"709.3999998569489","464973","HierDy7rdqzj1t","sub08","08","3","rl","test","76","img/r_t_diag.png","8","76","pattern,color,shape","222","1",""
"null","465978","HierDy7rdqzj1t","sub08","08","3","feedback","test","null","","","na","","222","",""
"864.2000000476837","466844","HierDy7rdqzj1t","sub08","08","3","rl","test","75","img/r_d_diag.png","7","75","pattern,color,shape","223","1",""
"null","467858","HierDy7rdqzj1t","sub08","08","3","feedback","test","null","","","na","","223","",""
"733.8999998569489","468594","HierDy7rdqzj1t","sub08","08","3","rl","test","65","img/p_d_check.png","1","65","pattern,color,shape","224","1",""
"null","469602","HierDy7rdqzj1t","sub08","08","3","feedback","test","null","","","na","","224","",""
"479.90000009536743","470083","HierDy7rdqzj1t","sub08","08","3","rl","test","83","img/p_t_check.png","2","83","pattern,color,shape","225","1",""
"null","471091","HierDy7rdqzj1t","sub08","08","3","feedback","test","null","","","na","","225","",""
"1110.5","472204","HierDy7rdqzj1t","sub08","08","3","rl","test","74","img/p_t_diag.png","6","74","pattern,color,shape","226","1",""
"null","473214","HierDy7rdqzj1t","sub08","08","3","feedback","test","null","","","na","","226","",""
"738.1000001430511","473954","HierDy7rdqzj1t","sub08","08","3","rl","test","72","img/p_d_diag.png","5","72","pattern,color,shape","227","1",""
"null","474963","HierDy7rdqzj1t","sub08","08","3","feedback","test","null","","","na","","227","",""
"538.5","475503","HierDy7rdqzj1t","sub08","08","3","rl","test","74","img/p_t_diag.png","6","74","pattern,color,shape","228","1",""
"null","476517","HierDy7rdqzj1t","sub08","08","3","feedback","test","null","","","na","","228","",""
"595.2000000476837","477113","HierDy7rdqzj1t","sub08","08","3","rl","test","76","img/r_t_diag.png","8","76","pattern,color,shape","229","1",""
"null","478133","HierDy7rdqzj1t","sub08","08","3","feedback","test","null","","","na","","229","",""
"1469.1000001430511","479605","HierDy7rdqzj1t","sub08","08","3","rl","test","70","img/r_t_check.png","4","70","pattern,color,shape","230","1",""
"null","480611","HierDy7rdqzj1t","sub08","08","3","feedback","test","null","","","na","","230","",""
"891.7999999523163","481505","HierDy7rdqzj1t","sub08","08","3","rl","test","75","img/r_d_diag.png","7","75","pattern,color,shape","231","1",""
"null","482518","HierDy7rdqzj1t","sub08","08","3","feedback","test","null","","","na","","231","",""
"1336.7999999523163","483856","HierDy7rdqzj1t","sub08","08","3","rl","test","68","img/r_d_check.png","3","68","pattern,color,shape","232","1",""
"null","484861","HierDy7rdqzj1t","sub08","08","3","feedback","test","null","","","na","","232","",""
"651.7999999523163","485515","HierDy7rdqzj1t","sub08","08","3","rl","test","70","img/r_t_check.png","4","70","pattern,color,shape","233","1",""
"null","486539","HierDy7rdqzj1t","sub08","08","3","feedback","test","null","","","na","","233","",""
"1364","487905","HierDy7rdqzj1t","sub08","08","3","rl","test","83","img/p_t_check.png","2","83","pattern,color,shape","234","1",""
"null","488920","HierDy7rdqzj1t","sub08","08","3","feedback","test","null","","","na","","234","",""
"753","489675","HierDy7rdqzj1t","sub08","08","3","rl","test","75","img/r_d_diag.png","7","75","pattern,color,shape","235","1",""
"null","490684","HierDy7rdqzj1t","sub08","08","3","feedback","test","null","","","na","","235","",""
"439.7999999523163","491126","HierDy7rdqzj1t","sub08","08","3","rl","test","76","img/r_t_diag.png","8","76","pattern,color,shape","236","1",""
"null","492133","HierDy7rdqzj1t","sub08","08","3","feedback","test","null","","","na","","236","",""
"940.8999998569489","493075","HierDy7rdqzj1t","sub08","08","3","rl","test","68","img/r_d_check.png","3","68","pattern,color,shape","237","1",""
"null","494096","HierDy7rdqzj1t","sub08","08","3","feedback","test","null","","","na","","237","",""
"1557.8000001907349","495655","HierDy7rdqzj1t","sub08","08","3","rl","test","72","img/p_d_diag.png","5","72","pattern,color,shape","238","1",""
"null","496672","HierDy7rdqzj1t","sub08","08","3","feedback","test","null","","","na","","238","",""
"1111","497785","HierDy7rdqzj1t","sub08","08","3","rl","test","65","img/p_d_check.png","1","65","pattern,color,shape","239","1",""
"null","498796","HierDy7rdqzj1t","sub08","08","3","feedback","test","null","","","na","","239","",""
"957.5","499755","HierDy7rdqzj1t","sub08","08","3","rl","test","74","img/p_t_diag.png","6","74","pattern,color,shape","240","1",""
"null","500764","HierDy7rdqzj1t","sub08","08","3","feedback","test","null","","","na","","240","",""
"679","501445","HierDy7rdqzj1t","sub08","08","3","rl","test","72","img/p_d_diag.png","5","72","pattern,color,shape","241","1",""
"null","502464","HierDy7rdqzj1t","sub08","08","3","feedback","test","null","","","na","","241","",""
"729.4000000953674","503195","HierDy7rdqzj1t","sub08","08","3","rl","test","75","img/r_d_diag.png","7","75","pattern,color,shape","242","1",""
"null","504215","HierDy7rdqzj1t","sub08","08","3","feedback","test","null","","","na","","242","",""
"1168.0999999046326","505385","HierDy7rdqzj1t","sub08","08","3","rl","test","70","img/p_t_check.png","2","83","pattern,color,shape","243","0",""
"null","506404","HierDy7rdqzj1t","sub08","08","3","feedback","test","null","","","na","","243","",""
"899.7000000476837","507305","HierDy7rdqzj1t","sub08","08","3","rl","test","65","img/p_d_check.png","1","65","pattern,color,shape","244","1",""
"null","508320","HierDy7rdqzj1t","sub08","08","3","feedback","test","null","","","na","","244","",""
"893.3999998569489","509215","HierDy7rdqzj1t","sub08","08","3","rl","test","70","img/r_t_check.png","4","70","pattern,color,shape","245","1",""
"null","510223","HierDy7rdqzj1t","sub08","08","3","feedback","test","null","","","na","","245","",""
"1030.2000000476837","511255","HierDy7rdqzj1t","sub08","08","3","rl","test","76","img/r_t_diag.png","8","76","pattern,color,shape","246","1",""
"null","512262","HierDy7rdqzj1t","sub08","08","3","feedback","test","null","","","na","","246","",""
"1271.1000001430511","513535","HierDy7rdqzj1t","sub08","08","3","rl","test","83","img/p_t_check.png","2","83","pattern,color,shape","247","1",""
"null","514547","HierDy7rdqzj1t","sub08","08","3","feedback","test","null","","","na","","247","",""
"1016","515565","HierDy7rdqzj1t","sub08","08","3","rl","test","74","img/p_t_diag.png","6","74","pattern,color,shape","248","1",""
"null","516574","HierDy7rdqzj1t","sub08","08","3","feedback","test","null","","","na","","248","",""
"4780.800000190735","521361","HierDy7rdqzj1t","sub08","08","3","","","","","","","","","","{""Q0"":""7""}"
"32045.799999952316","553405","HierDy7rdqzj1t","sub08","08","3","","","","","","","","","","{""Q0"":""purple are the left-most on both hands and red are right most. Then remember diamond comes before triangle.""}"
"3353.7000000476837","556760","HierDy7rdqzj1t","sub08","08","3","","","","","","","","","",""
