"rt","time_elapsed","subject","subID","group","day","trialType","key_press","stim","corrresp","phase","stimNum","trialNum","corr","repeatTrial","motorSwitch","pracCounter","hierarchy","responses"
"2688","2712","HierDyavs2pooq","05","05","1","","","","","","","","","","","","",""
"","4818","HierDyavs2pooq","05","05","1","fullscreen","","","","","","","","","","","",""
"324134","328963","HierDyavs2pooq","05","05","1","","","","","","","","","","","","",""
"915","329890","HierDyavs2pooq","05","05","1","motor","68","img/motor_3.png","68","motor","3","1","1","0","0","","",""
"null","330002","HierDyavs2pooq","05","05","1","iti","null","img/motor_3.png","68","motor","","","","","","","",""
"643","330655","HierDyavs2pooq","05","05","1","motor","75","img/motor_7.png","75","motor","7","2","1","0","0","","",""
"null","330766","HierDyavs2pooq","05","05","1","iti","null","img/motor_7.png","75","motor","","","","","","","",""
"514","331292","HierDyavs2pooq","05","05","1","motor","65","img/motor_1.png","65","motor","1","3","1","0","0","","",""
"null","331403","HierDyavs2pooq","05","05","1","iti","null","img/motor_1.png","65","motor","","","","","","","",""
"736","332149","HierDyavs2pooq","05","05","1","motor","74","img/motor_6.png","74","motor","6","4","1","0","0","","",""
"null","332261","HierDyavs2pooq","05","05","1","iti","null","img/motor_6.png","74","motor","","","","","","","",""
"525","332795","HierDyavs2pooq","05","05","1","motor","72","img/motor_5.png","72","motor","5","5","1","0","0","","",""
"null","332907","HierDyavs2pooq","05","05","1","iti","null","img/motor_5.png","72","motor","","","","","","","",""
"813","333729","HierDyavs2pooq","05","05","1","motor","68","img/motor_3.png","68","motor","3","6","1","0","0","","",""
"null","333840","HierDyavs2pooq","05","05","1","iti","null","img/motor_3.png","68","motor","","","","","","","",""
"944","334793","HierDyavs2pooq","05","05","1","motor","83","img/motor_2.png","83","motor","2","7","1","0","0","","",""
"null","334903","HierDyavs2pooq","05","05","1","iti","null","img/motor_2.png","83","motor","","","","","","","",""
"539","335454","HierDyavs2pooq","05","05","1","motor","70","img/motor_4.png","70","motor","4","8","1","0","0","","",""
"null","335564","HierDyavs2pooq","05","05","1","iti","null","img/motor_4.png","70","motor","","","","","","","",""
"494","336068","HierDyavs2pooq","05","05","1","motor","72","img/motor_5.png","72","motor","5","9","1","0","0","","",""
"null","336178","HierDyavs2pooq","05","05","1","iti","null","img/motor_5.png","72","motor","","","","","","","",""
"624","336811","HierDyavs2pooq","05","05","1","motor","70","img/motor_3.png","68","motor","3","10","0","1","0","","",""
"410","337228","HierDyavs2pooq","05","05","1","motorRepeat","68","img/motor_3.png","68","motor","3","10","1","0","0","","",""
"null","337338","HierDyavs2pooq","05","05","1","iti","null","img/motor_3.png","68","motor","","","","","","","",""
"453","337801","HierDyavs2pooq","05","05","1","motor","70","img/motor_4.png","70","motor","4","11","1","0","0","","",""
"null","337911","HierDyavs2pooq","05","05","1","iti","null","img/motor_4.png","70","motor","","","","","","","",""
"471","338388","HierDyavs2pooq","05","05","1","motor","70","img/motor_4.png","70","motor","4","12","1","0","0","","",""
"null","338500","HierDyavs2pooq","05","05","1","iti","null","img/motor_4.png","70","motor","","","","","","","",""
"590","339098","HierDyavs2pooq","05","05","1","motor","74","img/motor_6.png","74","motor","6","13","1","0","0","","",""
"null","339206","HierDyavs2pooq","05","05","1","iti","null","img/motor_6.png","74","motor","","","","","","","",""
"496","339709","HierDyavs2pooq","05","05","1","motor","72","img/motor_5.png","72","motor","5","14","1","0","0","","",""
"null","339820","HierDyavs2pooq","05","05","1","iti","null","img/motor_5.png","72","motor","","","","","","","",""
"564","340393","HierDyavs2pooq","05","05","1","motor","75","img/motor_7.png","75","motor","7","15","1","0","0","","",""
"null","340501","HierDyavs2pooq","05","05","1","iti","null","img/motor_7.png","75","motor","","","","","","","",""
"544","341053","HierDyavs2pooq","05","05","1","motor","83","img/motor_2.png","83","motor","2","16","1","0","0","","",""
"null","341165","HierDyavs2pooq","05","05","1","iti","null","img/motor_2.png","83","motor","","","","","","","",""
"534","341705","HierDyavs2pooq","05","05","1","motor","70","img/motor_4.png","70","motor","4","17","1","0","0","","",""
"null","341813","HierDyavs2pooq","05","05","1","iti","null","img/motor_4.png","70","motor","","","","","","","",""
"593","342412","HierDyavs2pooq","05","05","1","motor","74","img/motor_6.png","74","motor","6","18","1","0","0","","",""
"null","342520","HierDyavs2pooq","05","05","1","iti","null","img/motor_6.png","74","motor","","","","","","","",""
"539","343067","HierDyavs2pooq","05","05","1","motor","65","img/motor_1.png","65","motor","1","19","1","0","0","","",""
"null","343177","HierDyavs2pooq","05","05","1","iti","null","img/motor_1.png","65","motor","","","","","","","",""
"569","343757","HierDyavs2pooq","05","05","1","motor","72","img/motor_5.png","72","motor","5","20","1","0","0","","",""
"null","343868","HierDyavs2pooq","05","05","1","iti","null","img/motor_5.png","72","motor","","","","","","","",""
"535","344412","HierDyavs2pooq","05","05","1","motor","74","img/motor_6.png","74","motor","6","21","1","0","0","","",""
"null","344522","HierDyavs2pooq","05","05","1","iti","null","img/motor_6.png","74","motor","","","","","","","",""
"1613","346145","HierDyavs2pooq","05","05","1","motor","76","img/motor_8.png","76","motor","8","22","1","0","0","","",""
"null","346254","HierDyavs2pooq","05","05","1","iti","null","img/motor_8.png","76","motor","","","","","","","",""
"626","346890","HierDyavs2pooq","05","05","1","motor","70","img/motor_4.png","70","motor","4","23","1","0","0","","",""
"null","346999","HierDyavs2pooq","05","05","1","iti","null","img/motor_4.png","70","motor","","","","","","","",""
"486","347495","HierDyavs2pooq","05","05","1","motor","72","img/motor_5.png","72","motor","5","24","1","0","0","","",""
"null","347606","HierDyavs2pooq","05","05","1","iti","null","img/motor_5.png","72","motor","","","","","","","",""
"651","348266","HierDyavs2pooq","05","05","1","motor","83","img/motor_2.png","83","motor","2","25","1","0","0","","",""
"null","348377","HierDyavs2pooq","05","05","1","iti","null","img/motor_2.png","83","motor","","","","","","","",""
"367","348753","HierDyavs2pooq","05","05","1","motor","83","img/motor_2.png","83","motor","2","26","1","0","0","","",""
"null","348864","HierDyavs2pooq","05","05","1","iti","null","img/motor_2.png","83","motor","","","","","","","",""
"628","349500","HierDyavs2pooq","05","05","1","motor","76","img/motor_8.png","76","motor","8","27","1","0","0","","",""
"null","349611","HierDyavs2pooq","05","05","1","iti","null","img/motor_8.png","76","motor","","","","","","","",""
"924","350545","HierDyavs2pooq","05","05","1","motor","70","img/motor_4.png","70","motor","4","28","1","0","0","","",""
"null","350656","HierDyavs2pooq","05","05","1","iti","null","img/motor_4.png","70","motor","","","","","","","",""
"416","351082","HierDyavs2pooq","05","05","1","motor","68","img/motor_3.png","68","motor","3","29","1","0","0","","",""
"null","351192","HierDyavs2pooq","05","05","1","iti","null","img/motor_3.png","68","motor","","","","","","","",""
"467","351669","HierDyavs2pooq","05","05","1","motor","68","img/motor_3.png","68","motor","3","30","1","0","0","","",""
"null","351779","HierDyavs2pooq","05","05","1","iti","null","img/motor_3.png","68","motor","","","","","","","",""
"528","352317","HierDyavs2pooq","05","05","1","motor","65","img/motor_1.png","65","motor","1","31","1","0","0","","",""
"null","352428","HierDyavs2pooq","05","05","1","iti","null","img/motor_1.png","65","motor","","","","","","","",""
"494","352932","HierDyavs2pooq","05","05","1","motor","72","img/motor_5.png","72","motor","5","32","1","0","0","","",""
"null","353043","HierDyavs2pooq","05","05","1","iti","null","img/motor_5.png","72","motor","","","","","","","",""
"547","353597","HierDyavs2pooq","05","05","1","motor","76","img/motor_8.png","76","motor","8","33","1","0","0","","",""
"null","353706","HierDyavs2pooq","05","05","1","iti","null","img/motor_8.png","76","motor","","","","","","","",""
"627","354343","HierDyavs2pooq","05","05","1","motor","83","img/motor_2.png","83","motor","2","34","1","0","0","","",""
"null","354453","HierDyavs2pooq","05","05","1","iti","null","img/motor_2.png","83","motor","","","","","","","",""
"386","354849","HierDyavs2pooq","05","05","1","motor","68","img/motor_3.png","68","motor","3","35","1","0","0","","",""
"null","354957","HierDyavs2pooq","05","05","1","iti","null","img/motor_3.png","68","motor","","","","","","","",""
"468","355433","HierDyavs2pooq","05","05","1","motor","65","img/motor_1.png","65","motor","1","36","1","0","0","","",""
"null","355542","HierDyavs2pooq","05","05","1","iti","null","img/motor_1.png","65","motor","","","","","","","",""
"461","356010","HierDyavs2pooq","05","05","1","motor","72","img/motor_5.png","72","motor","5","37","1","0","0","","",""
"null","356122","HierDyavs2pooq","05","05","1","iti","null","img/motor_5.png","72","motor","","","","","","","",""
"471","356603","HierDyavs2pooq","05","05","1","motor","76","img/motor_8.png","76","motor","8","38","1","0","0","","",""
"null","356712","HierDyavs2pooq","05","05","1","iti","null","img/motor_8.png","76","motor","","","","","","","",""
"751","357473","HierDyavs2pooq","05","05","1","motor","83","img/motor_2.png","83","motor","2","39","1","0","0","","",""
"null","357581","HierDyavs2pooq","05","05","1","iti","null","img/motor_2.png","83","motor","","","","","","","",""
"355","357947","HierDyavs2pooq","05","05","1","motor","83","img/motor_2.png","83","motor","2","40","1","0","0","","",""
"null","358057","HierDyavs2pooq","05","05","1","iti","null","img/motor_2.png","83","motor","","","","","","","",""
"716","358782","HierDyavs2pooq","05","05","1","motor","76","img/motor_8.png","76","motor","8","41","1","0","0","","",""
"null","358891","HierDyavs2pooq","05","05","1","iti","null","img/motor_8.png","76","motor","","","","","","","",""
"713","359612","HierDyavs2pooq","05","05","1","motor","65","img/motor_1.png","65","motor","1","42","1","0","0","","",""
"null","359722","HierDyavs2pooq","05","05","1","iti","null","img/motor_1.png","65","motor","","","","","","","",""
"362","360093","HierDyavs2pooq","05","05","1","motor","65","img/motor_1.png","65","motor","1","43","1","0","0","","",""
"null","360203","HierDyavs2pooq","05","05","1","iti","null","img/motor_1.png","65","motor","","","","","","","",""
"663","360877","HierDyavs2pooq","05","05","1","motor","72","img/motor_5.png","72","motor","5","44","1","0","0","","",""
"null","360985","HierDyavs2pooq","05","05","1","iti","null","img/motor_5.png","72","motor","","","","","","","",""
"455","361449","HierDyavs2pooq","05","05","1","motor","74","img/motor_6.png","74","motor","6","45","1","0","0","","",""
"null","361560","HierDyavs2pooq","05","05","1","iti","null","img/motor_6.png","74","motor","","","","","","","",""
"698","362268","HierDyavs2pooq","05","05","1","motor","68","img/motor_3.png","68","motor","3","46","1","0","0","","",""
"null","362379","HierDyavs2pooq","05","05","1","iti","null","img/motor_3.png","68","motor","","","","","","","",""
"360","362746","HierDyavs2pooq","05","05","1","motor","83","img/motor_2.png","83","motor","2","47","1","0","0","","",""
"null","362857","HierDyavs2pooq","05","05","1","iti","null","img/motor_2.png","83","motor","","","","","","","",""
"684","363551","HierDyavs2pooq","05","05","1","motor","74","img/motor_6.png","74","motor","6","48","1","0","0","","",""
"null","363659","HierDyavs2pooq","05","05","1","iti","null","img/motor_6.png","74","motor","","","","","","","",""
"548","364214","HierDyavs2pooq","05","05","1","motor","65","img/motor_1.png","65","motor","1","49","1","0","0","","",""
"null","364323","HierDyavs2pooq","05","05","1","iti","null","img/motor_1.png","65","motor","","","","","","","",""
"471","364802","HierDyavs2pooq","05","05","1","motor","75","img/motor_7.png","75","motor","7","50","1","0","0","","",""
"null","364914","HierDyavs2pooq","05","05","1","iti","null","img/motor_7.png","75","motor","","","","","","","",""
"593","365513","HierDyavs2pooq","05","05","1","motor","72","img/motor_5.png","72","motor","5","51","1","0","0","","",""
"null","365622","HierDyavs2pooq","05","05","1","iti","null","img/motor_5.png","72","motor","","","","","","","",""
"694","366324","HierDyavs2pooq","05","05","1","motor","68","img/motor_3.png","68","motor","3","52","1","0","0","","",""
"null","366433","HierDyavs2pooq","05","05","1","iti","null","img/motor_3.png","68","motor","","","","","","","",""
"482","366924","HierDyavs2pooq","05","05","1","motor","70","img/motor_4.png","70","motor","4","53","1","0","0","","",""
"null","367034","HierDyavs2pooq","05","05","1","iti","null","img/motor_4.png","70","motor","","","","","","","",""
"606","367650","HierDyavs2pooq","05","05","1","motor","75","img/motor_7.png","75","motor","7","54","1","0","0","","",""
"null","367760","HierDyavs2pooq","05","05","1","iti","null","img/motor_7.png","75","motor","","","","","","","",""
"503","368272","HierDyavs2pooq","05","05","1","motor","74","img/motor_6.png","74","motor","6","55","1","0","0","","",""
"null","368383","HierDyavs2pooq","05","05","1","iti","null","img/motor_6.png","74","motor","","","","","","","",""
"587","368979","HierDyavs2pooq","05","05","1","motor","75","img/motor_7.png","75","motor","7","56","1","0","0","","",""
"null","369089","HierDyavs2pooq","05","05","1","iti","null","img/motor_7.png","75","motor","","","","","","","",""
"514","369611","HierDyavs2pooq","05","05","1","motor","76","img/motor_8.png","76","motor","8","57","1","0","0","","",""
"null","369722","HierDyavs2pooq","05","05","1","iti","null","img/motor_8.png","76","motor","","","","","","","",""
"567","370300","HierDyavs2pooq","05","05","1","motor","74","img/motor_6.png","74","motor","6","58","1","0","0","","",""
"null","370411","HierDyavs2pooq","05","05","1","iti","null","img/motor_6.png","74","motor","","","","","","","",""
"492","370912","HierDyavs2pooq","05","05","1","motor","75","img/motor_7.png","75","motor","7","59","1","0","0","","",""
"null","371020","HierDyavs2pooq","05","05","1","iti","null","img/motor_7.png","75","motor","","","","","","","",""
"629","371657","HierDyavs2pooq","05","05","1","motor","68","img/motor_3.png","68","motor","3","60","1","0","0","","",""
"null","371765","HierDyavs2pooq","05","05","1","iti","null","img/motor_3.png","68","motor","","","","","","","",""
"583","372357","HierDyavs2pooq","05","05","1","motor","76","img/motor_8.png","76","motor","8","61","1","0","0","","",""
"null","372466","HierDyavs2pooq","05","05","1","iti","null","img/motor_8.png","76","motor","","","","","","","",""
"492","372965","HierDyavs2pooq","05","05","1","motor","65","img/motor_1.png","65","motor","1","62","1","0","0","","",""
"null","373075","HierDyavs2pooq","05","05","1","iti","null","img/motor_1.png","65","motor","","","","","","","",""
"466","373550","HierDyavs2pooq","05","05","1","motor","76","img/motor_8.png","76","motor","8","63","1","0","0","","",""
"null","373660","HierDyavs2pooq","05","05","1","iti","null","img/motor_8.png","76","motor","","","","","","","",""
"548","374216","HierDyavs2pooq","05","05","1","motor","68","img/motor_3.png","68","motor","3","64","1","0","0","","",""
"null","374328","HierDyavs2pooq","05","05","1","iti","null","img/motor_3.png","68","motor","","","","","","","",""
"549","374886","HierDyavs2pooq","05","05","1","motor","74","img/motor_6.png","74","motor","6","65","1","0","0","","",""
"null","374997","HierDyavs2pooq","05","05","1","iti","null","img/motor_6.png","74","motor","","","","","","","",""
"512","375519","HierDyavs2pooq","05","05","1","motor","75","img/motor_7.png","75","motor","7","66","1","0","0","","",""
"null","375630","HierDyavs2pooq","05","05","1","iti","null","img/motor_7.png","75","motor","","","","","","","",""
"657","376295","HierDyavs2pooq","05","05","1","motor","83","img/motor_2.png","83","motor","2","67","1","0","0","","",""
"null","376403","HierDyavs2pooq","05","05","1","iti","null","img/motor_2.png","83","motor","","","","","","","",""
"445","376858","HierDyavs2pooq","05","05","1","motor","70","img/motor_4.png","70","motor","4","68","1","0","0","","",""
"null","376967","HierDyavs2pooq","05","05","1","iti","null","img/motor_4.png","70","motor","","","","","","","",""
"493","377468","HierDyavs2pooq","05","05","1","motor","65","img/motor_1.png","65","motor","1","69","1","0","0","","",""
"null","377577","HierDyavs2pooq","05","05","1","iti","null","img/motor_1.png","65","motor","","","","","","","",""
"531","378118","HierDyavs2pooq","05","05","1","motor","68","img/motor_3.png","68","motor","3","70","1","0","0","","",""
"null","378227","HierDyavs2pooq","05","05","1","iti","null","img/motor_3.png","68","motor","","","","","","","",""
"418","378655","HierDyavs2pooq","05","05","1","motor","68","img/motor_3.png","68","motor","3","71","1","0","0","","",""
"null","378766","HierDyavs2pooq","05","05","1","iti","null","img/motor_3.png","68","motor","","","","","","","",""
"440","379213","HierDyavs2pooq","05","05","1","motor","83","img/motor_2.png","83","motor","2","72","1","0","0","","",""
"null","379325","HierDyavs2pooq","05","05","1","iti","null","img/motor_2.png","83","motor","","","","","","","",""
"460","379795","HierDyavs2pooq","05","05","1","motor","70","img/motor_4.png","70","motor","4","73","1","0","0","","",""
"null","379907","HierDyavs2pooq","05","05","1","iti","null","img/motor_4.png","70","motor","","","","","","","",""
"480","380395","HierDyavs2pooq","05","05","1","motor","75","img/motor_7.png","75","motor","7","74","1","0","0","","",""
"null","380507","HierDyavs2pooq","05","05","1","iti","null","img/motor_7.png","75","motor","","","","","","","",""
"302","380818","HierDyavs2pooq","05","05","1","motor","75","img/motor_7.png","75","motor","7","75","1","0","0","","",""
"null","380928","HierDyavs2pooq","05","05","1","iti","null","img/motor_7.png","75","motor","","","","","","","",""
"332","381271","HierDyavs2pooq","05","05","1","motor","74","img/motor_6.png","74","motor","6","76","1","0","0","","",""
"null","381383","HierDyavs2pooq","05","05","1","iti","null","img/motor_6.png","74","motor","","","","","","","",""
"610","382000","HierDyavs2pooq","05","05","1","motor","68","img/motor_3.png","68","motor","3","77","1","0","0","","",""
"null","382111","HierDyavs2pooq","05","05","1","iti","null","img/motor_3.png","68","motor","","","","","","","",""
"393","382513","HierDyavs2pooq","05","05","1","motor","83","img/motor_2.png","83","motor","2","78","1","0","0","","",""
"null","382623","HierDyavs2pooq","05","05","1","iti","null","img/motor_2.png","83","motor","","","","","","","",""
"497","383128","HierDyavs2pooq","05","05","1","motor","65","img/motor_1.png","65","motor","1","79","1","0","0","","",""
"null","383236","HierDyavs2pooq","05","05","1","iti","null","img/motor_1.png","65","motor","","","","","","","",""
"567","383813","HierDyavs2pooq","05","05","1","motor","72","img/motor_5.png","72","motor","5","80","1","0","0","","",""
"null","383924","HierDyavs2pooq","05","05","1","iti","null","img/motor_5.png","72","motor","","","","","","","",""
"306","384237","HierDyavs2pooq","05","05","1","motor","74","img/motor_6.png","74","motor","6","81","1","0","0","","",""
"null","384347","HierDyavs2pooq","05","05","1","iti","null","img/motor_6.png","74","motor","","","","","","","",""
"532","384886","HierDyavs2pooq","05","05","1","motor","83","img/motor_2.png","83","motor","2","82","1","0","0","","",""
"null","384994","HierDyavs2pooq","05","05","1","iti","null","img/motor_2.png","83","motor","","","","","","","",""
"445","385446","HierDyavs2pooq","05","05","1","motor","74","img/motor_5.png","72","motor","5","83","0","1","0","","",""
"303","385757","HierDyavs2pooq","05","05","1","motorRepeat","72","img/motor_5.png","72","motor","5","83","1","0","0","","",""
"null","385866","HierDyavs2pooq","05","05","1","iti","null","img/motor_5.png","72","motor","","","","","","","",""
"550","386424","HierDyavs2pooq","05","05","1","motor","65","img/motor_1.png","65","motor","1","84","1","0","0","","",""
"null","386531","HierDyavs2pooq","05","05","1","iti","null","img/motor_1.png","65","motor","","","","","","","",""
"520","387058","HierDyavs2pooq","05","05","1","motor","70","img/motor_4.png","70","motor","4","85","1","0","0","","",""
"null","387168","HierDyavs2pooq","05","05","1","iti","null","img/motor_4.png","70","motor","","","","","","","",""
"435","387609","HierDyavs2pooq","05","05","1","motor","68","img/motor_3.png","68","motor","3","86","1","0","0","","",""
"null","387717","HierDyavs2pooq","05","05","1","iti","null","img/motor_3.png","68","motor","","","","","","","",""
"859","388584","HierDyavs2pooq","05","05","1","motor","75","img/motor_7.png","75","motor","7","87","1","0","0","","",""
"null","388693","HierDyavs2pooq","05","05","1","iti","null","img/motor_7.png","75","motor","","","","","","","",""
"540","389241","HierDyavs2pooq","05","05","1","motor","65","img/motor_1.png","65","motor","1","88","1","0","0","","",""
"null","389349","HierDyavs2pooq","05","05","1","iti","null","img/motor_1.png","65","motor","","","","","","","",""
"556","389912","HierDyavs2pooq","05","05","1","motor","70","img/motor_4.png","70","motor","4","89","1","0","0","","",""
"null","390019","HierDyavs2pooq","05","05","1","iti","null","img/motor_4.png","70","motor","","","","","","","",""
"413","390439","HierDyavs2pooq","05","05","1","motor","65","img/motor_1.png","65","motor","1","90","1","0","0","","",""
"null","390546","HierDyavs2pooq","05","05","1","iti","null","img/motor_1.png","65","motor","","","","","","","",""
"867","391421","HierDyavs2pooq","05","05","1","motor","68","img/motor_3.png","68","motor","3","91","1","0","0","","",""
"null","391529","HierDyavs2pooq","05","05","1","iti","null","img/motor_3.png","68","motor","","","","","","","",""
"664","392200","HierDyavs2pooq","05","05","1","motor","65","img/motor_1.png","65","motor","1","92","1","0","0","","",""
"null","392308","HierDyavs2pooq","05","05","1","iti","null","img/motor_1.png","65","motor","","","","","","","",""
"526","392842","HierDyavs2pooq","05","05","1","motor","76","img/motor_8.png","76","motor","8","93","1","0","0","","",""
"null","392952","HierDyavs2pooq","05","05","1","iti","null","img/motor_8.png","76","motor","","","","","","","",""
"439","393400","HierDyavs2pooq","05","05","1","motor","72","img/motor_5.png","72","motor","5","94","1","0","0","","",""
"null","393508","HierDyavs2pooq","05","05","1","iti","null","img/motor_5.png","72","motor","","","","","","","",""
"506","394021","HierDyavs2pooq","05","05","1","motor","70","img/motor_4.png","70","motor","4","95","1","0","0","","",""
"null","394130","HierDyavs2pooq","05","05","1","iti","null","img/motor_4.png","70","motor","","","","","","","",""
"493","394628","HierDyavs2pooq","05","05","1","motor","75","img/motor_7.png","75","motor","7","96","1","0","0","","",""
"null","394739","HierDyavs2pooq","05","05","1","iti","null","img/motor_7.png","75","motor","","","","","","","",""
"545","395291","HierDyavs2pooq","05","05","1","motor","70","img/motor_4.png","70","motor","4","97","1","0","0","","",""
"null","395399","HierDyavs2pooq","05","05","1","iti","null","img/motor_4.png","70","motor","","","","","","","",""
"567","395974","HierDyavs2pooq","05","05","1","motor","72","img/motor_5.png","72","motor","5","98","1","0","0","","",""
"null","396082","HierDyavs2pooq","05","05","1","iti","null","img/motor_5.png","72","motor","","","","","","","",""
"527","396615","HierDyavs2pooq","05","05","1","motor","76","img/motor_8.png","76","motor","8","99","1","0","0","","",""
"null","396724","HierDyavs2pooq","05","05","1","iti","null","img/motor_8.png","76","motor","","","","","","","",""
"474","397207","HierDyavs2pooq","05","05","1","motor","65","img/motor_1.png","65","motor","1","100","1","0","0","","",""
"null","397315","HierDyavs2pooq","05","05","1","iti","null","img/motor_1.png","65","motor","","","","","","","",""
"531","397856","HierDyavs2pooq","05","05","1","motor","72","img/motor_5.png","72","motor","5","101","1","0","0","","",""
"null","397964","HierDyavs2pooq","05","05","1","iti","null","img/motor_5.png","72","motor","","","","","","","",""
"502","398474","HierDyavs2pooq","05","05","1","motor","76","img/motor_8.png","76","motor","8","102","1","0","0","","",""
"null","398585","HierDyavs2pooq","05","05","1","iti","null","img/motor_8.png","76","motor","","","","","","","",""
"433","399029","HierDyavs2pooq","05","05","1","motor","83","img/motor_1.png","65","motor","1","103","0","1","0","","",""
"344","399383","HierDyavs2pooq","05","05","1","motorRepeat","65","img/motor_1.png","65","motor","1","103","1","0","0","","",""
"null","399493","HierDyavs2pooq","05","05","1","iti","null","img/motor_1.png","65","motor","","","","","","","",""
"589","400093","HierDyavs2pooq","05","05","1","motor","83","img/motor_3.png","68","motor","3","104","0","1","0","","",""
"332","400434","HierDyavs2pooq","05","05","1","motorRepeat","68","img/motor_3.png","68","motor","3","104","1","0","0","","",""
"null","400544","HierDyavs2pooq","05","05","1","iti","null","img/motor_3.png","68","motor","","","","","","","",""
"542","401097","HierDyavs2pooq","05","05","1","motor","65","img/motor_1.png","65","motor","1","105","1","0","0","","",""
"null","401207","HierDyavs2pooq","05","05","1","iti","null","img/motor_1.png","65","motor","","","","","","","",""
"747","401963","HierDyavs2pooq","05","05","1","motor","76","img/motor_8.png","76","motor","8","106","1","0","0","","",""
"null","402074","HierDyavs2pooq","05","05","1","iti","null","img/motor_8.png","76","motor","","","","","","","",""
"503","402586","HierDyavs2pooq","05","05","1","motor","70","img/motor_4.png","70","motor","4","107","1","0","0","","",""
"null","402696","HierDyavs2pooq","05","05","1","iti","null","img/motor_4.png","70","motor","","","","","","","",""
"416","403124","HierDyavs2pooq","05","05","1","motor","68","img/motor_3.png","68","motor","3","108","1","0","0","","",""
"null","403232","HierDyavs2pooq","05","05","1","iti","null","img/motor_3.png","68","motor","","","","","","","",""
"605","403847","HierDyavs2pooq","05","05","1","motor","74","img/motor_6.png","74","motor","6","109","1","0","0","","",""
"null","403958","HierDyavs2pooq","05","05","1","iti","null","img/motor_6.png","74","motor","","","","","","","",""
"476","404443","HierDyavs2pooq","05","05","1","motor","68","img/motor_3.png","68","motor","3","110","1","0","0","","",""
"null","404555","HierDyavs2pooq","05","05","1","iti","null","img/motor_3.png","68","motor","","","","","","","",""
"563","405127","HierDyavs2pooq","05","05","1","motor","74","img/motor_6.png","74","motor","6","111","1","0","0","","",""
"null","405237","HierDyavs2pooq","05","05","1","iti","null","img/motor_6.png","74","motor","","","","","","","",""
"385","405633","HierDyavs2pooq","05","05","1","motor","68","img/motor_4.png","70","motor","4","112","0","1","0","","",""
"260","405903","HierDyavs2pooq","05","05","1","motorRepeat","70","img/motor_4.png","70","motor","4","112","1","0","0","","",""
"null","406013","HierDyavs2pooq","05","05","1","iti","null","img/motor_4.png","70","motor","","","","","","","",""
"537","406561","HierDyavs2pooq","05","05","1","motor","83","img/motor_2.png","83","motor","2","113","1","0","0","","",""
"null","406673","HierDyavs2pooq","05","05","1","iti","null","img/motor_2.png","83","motor","","","","","","","",""
"561","407243","HierDyavs2pooq","05","05","1","motor","72","img/motor_5.png","72","motor","5","114","1","0","0","","",""
"null","407354","HierDyavs2pooq","05","05","1","iti","null","img/motor_5.png","72","motor","","","","","","","",""
"506","407870","HierDyavs2pooq","05","05","1","motor","83","img/motor_2.png","83","motor","2","115","1","0","0","","",""
"null","407980","HierDyavs2pooq","05","05","1","iti","null","img/motor_2.png","83","motor","","","","","","","",""
"556","408543","HierDyavs2pooq","05","05","1","motor","75","img/motor_7.png","75","motor","7","116","1","0","0","","",""
"null","408653","HierDyavs2pooq","05","05","1","iti","null","img/motor_7.png","75","motor","","","","","","","",""
"517","409179","HierDyavs2pooq","05","05","1","motor","74","img/motor_6.png","74","motor","6","117","1","0","0","","",""
"null","409291","HierDyavs2pooq","05","05","1","iti","null","img/motor_6.png","74","motor","","","","","","","",""
"522","409823","HierDyavs2pooq","05","05","1","motor","65","img/motor_1.png","65","motor","1","118","1","0","0","","",""
"null","409935","HierDyavs2pooq","05","05","1","iti","null","img/motor_1.png","65","motor","","","","","","","",""
"681","410626","HierDyavs2pooq","05","05","1","motor","74","img/motor_6.png","74","motor","6","119","1","0","0","","",""
"null","410735","HierDyavs2pooq","05","05","1","iti","null","img/motor_6.png","74","motor","","","","","","","",""
"528","411273","HierDyavs2pooq","05","05","1","motor","65","img/motor_1.png","65","motor","1","120","1","0","0","","",""
"null","411385","HierDyavs2pooq","05","05","1","iti","null","img/motor_1.png","65","motor","","","","","","","",""
"465","411860","HierDyavs2pooq","05","05","1","motor","83","img/motor_2.png","83","motor","2","121","1","0","0","","",""
"null","411969","HierDyavs2pooq","05","05","1","iti","null","img/motor_2.png","83","motor","","","","","","","",""
"488","412465","HierDyavs2pooq","05","05","1","motor","72","img/motor_5.png","72","motor","5","122","1","0","0","","",""
"null","412574","HierDyavs2pooq","05","05","1","iti","null","img/motor_5.png","72","motor","","","","","","","",""
"460","413046","HierDyavs2pooq","05","05","1","motor","76","img/motor_8.png","76","motor","8","123","1","0","0","","",""
"null","413156","HierDyavs2pooq","05","05","1","iti","null","img/motor_8.png","76","motor","","","","","","","",""
"677","413842","HierDyavs2pooq","05","05","1","motor","74","img/motor_6.png","74","motor","6","124","1","0","0","","",""
"null","413953","HierDyavs2pooq","05","05","1","iti","null","img/motor_6.png","74","motor","","","","","","","",""
"335","414299","HierDyavs2pooq","05","05","1","motor","74","img/motor_6.png","74","motor","6","125","1","0","0","","",""
"null","414409","HierDyavs2pooq","05","05","1","iti","null","img/motor_6.png","74","motor","","","","","","","",""
"432","414850","HierDyavs2pooq","05","05","1","motor","75","img/motor_7.png","75","motor","7","126","1","0","0","","",""
"null","414960","HierDyavs2pooq","05","05","1","iti","null","img/motor_7.png","75","motor","","","","","","","",""
"512","415482","HierDyavs2pooq","05","05","1","motor","70","img/motor_4.png","70","motor","4","127","1","0","0","","",""
"null","415593","HierDyavs2pooq","05","05","1","iti","null","img/motor_4.png","70","motor","","","","","","","",""
"583","416186","HierDyavs2pooq","05","05","1","motor","72","img/motor_5.png","72","motor","5","128","1","0","0","","",""
"null","416295","HierDyavs2pooq","05","05","1","iti","null","img/motor_5.png","72","motor","","","","","","","",""
"433","416739","HierDyavs2pooq","05","05","1","motor","65","img/motor_1.png","65","motor","1","129","1","0","0","","",""
"null","416849","HierDyavs2pooq","05","05","1","iti","null","img/motor_1.png","65","motor","","","","","","","",""
"466","417325","HierDyavs2pooq","05","05","1","motor","72","img/motor_5.png","72","motor","5","130","1","0","0","","",""
"null","417435","HierDyavs2pooq","05","05","1","iti","null","img/motor_5.png","72","motor","","","","","","","",""
"659","418104","HierDyavs2pooq","05","05","1","motor","68","img/motor_3.png","68","motor","3","131","1","0","0","","",""
"null","418214","HierDyavs2pooq","05","05","1","iti","null","img/motor_3.png","68","motor","","","","","","","",""
"504","418726","HierDyavs2pooq","05","05","1","motor","74","img/motor_6.png","74","motor","6","132","1","0","0","","",""
"null","418836","HierDyavs2pooq","05","05","1","iti","null","img/motor_6.png","74","motor","","","","","","","",""
"427","419270","HierDyavs2pooq","05","05","1","motor","83","img/motor_2.png","83","motor","2","133","1","0","0","","",""
"null","419382","HierDyavs2pooq","05","05","1","iti","null","img/motor_2.png","83","motor","","","","","","","",""
"568","419959","HierDyavs2pooq","05","05","1","motor","74","img/motor_6.png","74","motor","6","134","1","0","0","","",""
"null","420068","HierDyavs2pooq","05","05","1","iti","null","img/motor_6.png","74","motor","","","","","","","",""
"668","420745","HierDyavs2pooq","05","05","1","motor","68","img/motor_3.png","68","motor","3","135","1","0","0","","",""
"null","420856","HierDyavs2pooq","05","05","1","iti","null","img/motor_3.png","68","motor","","","","","","","",""
"516","421384","HierDyavs2pooq","05","05","1","motor","74","img/motor_6.png","74","motor","6","136","1","0","0","","",""
"null","421491","HierDyavs2pooq","05","05","1","iti","null","img/motor_6.png","74","motor","","","","","","","",""
"607","422108","HierDyavs2pooq","05","05","1","motor","76","img/motor_8.png","76","motor","8","137","1","0","0","","",""
"null","422217","HierDyavs2pooq","05","05","1","iti","null","img/motor_8.png","76","motor","","","","","","","",""
"430","422657","HierDyavs2pooq","05","05","1","motor","65","img/motor_1.png","65","motor","1","138","1","0","0","","",""
"null","422766","HierDyavs2pooq","05","05","1","iti","null","img/motor_1.png","65","motor","","","","","","","",""
"505","423282","HierDyavs2pooq","05","05","1","motor","70","img/motor_4.png","70","motor","4","139","1","0","0","","",""
"null","423393","HierDyavs2pooq","05","05","1","iti","null","img/motor_4.png","70","motor","","","","","","","",""
"1103","424503","HierDyavs2pooq","05","05","1","motor","70","img/motor_7.png","75","motor","7","140","0","1","0","","",""
"374","424886","HierDyavs2pooq","05","05","1","motorRepeat","74","img/motor_7.png","75","motor","7","140","0","1","0","","",""
"264","425159","HierDyavs2pooq","05","05","1","motorRepeat","75","img/motor_7.png","75","motor","7","140","1","0","0","","",""
"null","425269","HierDyavs2pooq","05","05","1","iti","null","img/motor_7.png","75","motor","","","","","","","",""
"588","425864","HierDyavs2pooq","05","05","1","motor","74","img/motor_6.png","74","motor","6","141","1","0","0","","",""
"null","425975","HierDyavs2pooq","05","05","1","iti","null","img/motor_6.png","74","motor","","","","","","","",""
"523","426505","HierDyavs2pooq","05","05","1","motor","72","img/motor_5.png","72","motor","5","142","1","0","0","","",""
"null","426613","HierDyavs2pooq","05","05","1","iti","null","img/motor_5.png","72","motor","","","","","","","",""
"565","427185","HierDyavs2pooq","05","05","1","motor","70","img/motor_4.png","70","motor","4","143","1","0","0","","",""
"null","427293","HierDyavs2pooq","05","05","1","iti","null","img/motor_4.png","70","motor","","","","","","","",""
"525","427828","HierDyavs2pooq","05","05","1","motor","76","img/motor_8.png","76","motor","8","144","1","0","0","","",""
"null","427939","HierDyavs2pooq","05","05","1","iti","null","img/motor_8.png","76","motor","","","","","","","",""
"718","428667","HierDyavs2pooq","05","05","1","motor","68","img/motor_3.png","68","motor","3","145","1","0","0","","",""
"null","428779","HierDyavs2pooq","05","05","1","iti","null","img/motor_3.png","68","motor","","","","","","","",""
"460","429248","HierDyavs2pooq","05","05","1","motor","65","img/motor_1.png","65","motor","1","146","1","0","0","","",""
"null","429361","HierDyavs2pooq","05","05","1","iti","null","img/motor_1.png","65","motor","","","","","","","",""
"783","430153","HierDyavs2pooq","05","05","1","motor","75","img/motor_7.png","75","motor","7","147","1","0","0","","",""
"null","430264","HierDyavs2pooq","05","05","1","iti","null","img/motor_7.png","75","motor","","","","","","","",""
"536","430812","HierDyavs2pooq","05","05","1","motor","70","img/motor_4.png","70","motor","4","148","1","0","0","","",""
"null","430922","HierDyavs2pooq","05","05","1","iti","null","img/motor_4.png","70","motor","","","","","","","",""
"491","431423","HierDyavs2pooq","05","05","1","motor","68","img/motor_3.png","68","motor","3","149","1","0","0","","",""
"null","431533","HierDyavs2pooq","05","05","1","iti","null","img/motor_3.png","68","motor","","","","","","","",""
"480","432023","HierDyavs2pooq","05","05","1","motor","70","img/motor_4.png","70","motor","4","150","1","0","0","","",""
"null","432135","HierDyavs2pooq","05","05","1","iti","null","img/motor_4.png","70","motor","","","","","","","",""
"567","432710","HierDyavs2pooq","05","05","1","motor","83","img/motor_2.png","83","motor","2","151","1","0","0","","",""
"null","432821","HierDyavs2pooq","05","05","1","iti","null","img/motor_2.png","83","motor","","","","","","","",""
"483","433313","HierDyavs2pooq","05","05","1","motor","65","img/motor_1.png","65","motor","1","152","1","0","0","","",""
"null","433424","HierDyavs2pooq","05","05","1","iti","null","img/motor_1.png","65","motor","","","","","","","",""
"506","433939","HierDyavs2pooq","05","05","1","motor","76","img/motor_8.png","76","motor","8","153","1","0","0","","",""
"null","434050","HierDyavs2pooq","05","05","1","iti","null","img/motor_8.png","76","motor","","","","","","","",""
"604","434666","HierDyavs2pooq","05","05","1","motor","74","img/motor_6.png","74","motor","6","154","1","0","0","","",""
"null","434776","HierDyavs2pooq","05","05","1","iti","null","img/motor_6.png","74","motor","","","","","","","",""
"486","435272","HierDyavs2pooq","05","05","1","motor","76","img/motor_8.png","76","motor","8","155","1","0","0","","",""
"null","435382","HierDyavs2pooq","05","05","1","iti","null","img/motor_8.png","76","motor","","","","","","","",""
"767","436157","HierDyavs2pooq","05","05","1","motor","68","img/motor_3.png","68","motor","3","156","1","0","0","","",""
"null","436269","HierDyavs2pooq","05","05","1","iti","null","img/motor_3.png","68","motor","","","","","","","",""
"391","436671","HierDyavs2pooq","05","05","1","motor","70","img/motor_4.png","70","motor","4","157","1","0","0","","",""
"null","436782","HierDyavs2pooq","05","05","1","iti","null","img/motor_4.png","70","motor","","","","","","","",""
"497","437288","HierDyavs2pooq","05","05","1","motor","76","img/motor_8.png","76","motor","8","158","1","0","0","","",""
"null","437397","HierDyavs2pooq","05","05","1","iti","null","img/motor_8.png","76","motor","","","","","","","",""
"579","437986","HierDyavs2pooq","05","05","1","motor","83","img/motor_2.png","83","motor","2","159","1","0","0","","",""
"null","438097","HierDyavs2pooq","05","05","1","iti","null","img/motor_2.png","83","motor","","","","","","","",""
"516","438624","HierDyavs2pooq","05","05","1","motor","70","img/motor_4.png","70","motor","4","160","1","0","0","","",""
"null","438735","HierDyavs2pooq","05","05","1","iti","null","img/motor_4.png","70","motor","","","","","","","",""
"430","439176","HierDyavs2pooq","05","05","1","motor","83","img/motor_2.png","83","motor","2","161","1","0","0","","",""
"null","439286","HierDyavs2pooq","05","05","1","iti","null","img/motor_2.png","83","motor","","","","","","","",""
"355","439652","HierDyavs2pooq","05","05","1","motor","83","img/motor_2.png","83","motor","2","162","1","0","0","","",""
"null","439764","HierDyavs2pooq","05","05","1","iti","null","img/motor_2.png","83","motor","","","","","","","",""
"608","440382","HierDyavs2pooq","05","05","1","motor","74","img/motor_6.png","74","motor","6","163","1","0","0","","",""
"null","440492","HierDyavs2pooq","05","05","1","iti","null","img/motor_6.png","74","motor","","","","","","","",""
"571","441072","HierDyavs2pooq","05","05","1","motor","76","img/motor_8.png","76","motor","8","164","1","0","0","","",""
"null","441184","HierDyavs2pooq","05","05","1","iti","null","img/motor_8.png","76","motor","","","","","","","",""
"464","441659","HierDyavs2pooq","05","05","1","motor","72","img/motor_5.png","72","motor","5","165","1","0","0","","",""
"null","441767","HierDyavs2pooq","05","05","1","iti","null","img/motor_5.png","72","motor","","","","","","","",""
"380","442156","HierDyavs2pooq","05","05","1","motor","72","img/motor_5.png","72","motor","5","166","1","0","0","","",""
"null","442268","HierDyavs2pooq","05","05","1","iti","null","img/motor_5.png","72","motor","","","","","","","",""
"552","442829","HierDyavs2pooq","05","05","1","motor","76","img/motor_8.png","76","motor","8","167","1","0","0","","",""
"null","442941","HierDyavs2pooq","05","05","1","iti","null","img/motor_8.png","76","motor","","","","","","","",""
"417","443367","HierDyavs2pooq","05","05","1","motor","72","img/motor_5.png","72","motor","5","168","1","0","0","","",""
"null","443478","HierDyavs2pooq","05","05","1","iti","null","img/motor_5.png","72","motor","","","","","","","",""
"421","443905","HierDyavs2pooq","05","05","1","motor","72","img/motor_5.png","72","motor","5","169","1","0","0","","",""
"null","444015","HierDyavs2pooq","05","05","1","iti","null","img/motor_5.png","72","motor","","","","","","","",""
"524","444550","HierDyavs2pooq","05","05","1","motor","65","img/motor_1.png","65","motor","1","170","1","0","0","","",""
"null","444661","HierDyavs2pooq","05","05","1","iti","null","img/motor_1.png","65","motor","","","","","","","",""
"718","445388","HierDyavs2pooq","05","05","1","motor","75","img/motor_7.png","75","motor","7","171","1","0","0","","",""
"null","445496","HierDyavs2pooq","05","05","1","iti","null","img/motor_7.png","75","motor","","","","","","","",""
"500","446007","HierDyavs2pooq","05","05","1","motor","83","img/motor_2.png","83","motor","2","172","1","0","0","","",""
"null","446118","HierDyavs2pooq","05","05","1","iti","null","img/motor_2.png","83","motor","","","","","","","",""
"415","446544","HierDyavs2pooq","05","05","1","motor","68","img/motor_3.png","68","motor","3","173","1","0","0","","",""
"null","446654","HierDyavs2pooq","05","05","1","iti","null","img/motor_3.png","68","motor","","","","","","","",""
"350","447015","HierDyavs2pooq","05","05","1","motor","68","img/motor_3.png","68","motor","3","174","1","0","0","","",""
"null","447125","HierDyavs2pooq","05","05","1","iti","null","img/motor_3.png","68","motor","","","","","","","",""
"597","447731","HierDyavs2pooq","05","05","1","motor","76","img/motor_8.png","76","motor","8","175","1","0","0","","",""
"null","447843","HierDyavs2pooq","05","05","1","iti","null","img/motor_8.png","76","motor","","","","","","","",""
"311","448164","HierDyavs2pooq","05","05","1","motor","76","img/motor_8.png","76","motor","8","176","1","0","0","","",""
"null","448274","HierDyavs2pooq","05","05","1","iti","null","img/motor_8.png","76","motor","","","","","","","",""
"471","448755","HierDyavs2pooq","05","05","1","motor","75","img/motor_7.png","75","motor","7","177","1","0","0","","",""
"null","448866","HierDyavs2pooq","05","05","1","iti","null","img/motor_7.png","75","motor","","","","","","","",""
"598","449473","HierDyavs2pooq","05","05","1","motor","70","img/motor_4.png","70","motor","4","178","1","0","0","","",""
"null","449583","HierDyavs2pooq","05","05","1","iti","null","img/motor_4.png","70","motor","","","","","","","",""
"537","450131","HierDyavs2pooq","05","05","1","motor","76","img/motor_8.png","76","motor","8","179","1","0","0","","",""
"null","450241","HierDyavs2pooq","05","05","1","iti","null","img/motor_8.png","76","motor","","","","","","","",""
"613","450862","HierDyavs2pooq","05","05","1","motor","68","img/motor_3.png","68","motor","3","180","1","0","0","","",""
"null","450973","HierDyavs2pooq","05","05","1","iti","null","img/motor_3.png","68","motor","","","","","","","",""
"174","451156","HierDyavs2pooq","05","05","1","motor","68","img/motor_7.png","75","motor","7","181","0","1","0","","",""
"405","451570","HierDyavs2pooq","05","05","1","motorRepeat","75","img/motor_7.png","75","motor","7","181","1","0","0","","",""
"null","451682","HierDyavs2pooq","05","05","1","iti","null","img/motor_7.png","75","motor","","","","","","","",""
"883","452572","HierDyavs2pooq","05","05","1","motor","72","img/motor_5.png","72","motor","5","182","1","0","0","","",""
"null","452682","HierDyavs2pooq","05","05","1","iti","null","img/motor_5.png","72","motor","","","","","","","",""
"337","453029","HierDyavs2pooq","05","05","1","motor","72","img/motor_5.png","72","motor","5","183","1","0","0","","",""
"null","453137","HierDyavs2pooq","05","05","1","iti","null","img/motor_5.png","72","motor","","","","","","","",""
"512","453659","HierDyavs2pooq","05","05","1","motor","65","img/motor_1.png","65","motor","1","184","1","0","0","","",""
"null","453770","HierDyavs2pooq","05","05","1","iti","null","img/motor_1.png","65","motor","","","","","","","",""
"702","454482","HierDyavs2pooq","05","05","1","motor","75","img/motor_7.png","75","motor","7","185","1","0","0","","",""
"null","454593","HierDyavs2pooq","05","05","1","iti","null","img/motor_7.png","75","motor","","","","","","","",""
"672","455276","HierDyavs2pooq","05","05","1","motor","68","img/motor_3.png","68","motor","3","186","1","0","0","","",""
"null","455388","HierDyavs2pooq","05","05","1","iti","null","img/motor_3.png","68","motor","","","","","","","",""
"651","456047","HierDyavs2pooq","05","05","1","motor","76","img/motor_8.png","76","motor","8","187","1","0","0","","",""
"null","456159","HierDyavs2pooq","05","05","1","iti","null","img/motor_8.png","76","motor","","","","","","","",""
"611","456780","HierDyavs2pooq","05","05","1","motor","70","img/motor_4.png","70","motor","4","188","1","0","0","","",""
"null","456892","HierDyavs2pooq","05","05","1","iti","null","img/motor_4.png","70","motor","","","","","","","",""
"621","457522","HierDyavs2pooq","05","05","1","motor","75","img/motor_7.png","75","motor","7","189","1","0","0","","",""
"null","457633","HierDyavs2pooq","05","05","1","iti","null","img/motor_7.png","75","motor","","","","","","","",""
"668","458310","HierDyavs2pooq","05","05","1","motor","83","img/motor_2.png","83","motor","2","190","1","0","0","","",""
"null","458422","HierDyavs2pooq","05","05","1","iti","null","img/motor_2.png","83","motor","","","","","","","",""
"598","459030","HierDyavs2pooq","05","05","1","motor","76","img/motor_8.png","76","motor","8","191","1","0","0","","",""
"null","459141","HierDyavs2pooq","05","05","1","iti","null","img/motor_8.png","76","motor","","","","","","","",""
"509","459661","HierDyavs2pooq","05","05","1","motor","70","img/motor_4.png","70","motor","4","192","1","0","0","","",""
"null","459772","HierDyavs2pooq","05","05","1","iti","null","img/motor_4.png","70","motor","","","","","","","",""
"587","460370","HierDyavs2pooq","05","05","1","motor","68","img/motor_3.png","68","motor","3","193","1","0","0","","",""
"null","460480","HierDyavs2pooq","05","05","1","iti","null","img/motor_3.png","68","motor","","","","","","","",""
"517","461006","HierDyavs2pooq","05","05","1","motor","75","img/motor_7.png","75","motor","7","194","1","0","0","","",""
"null","461116","HierDyavs2pooq","05","05","1","iti","null","img/motor_7.png","75","motor","","","","","","","",""
"793","461919","HierDyavs2pooq","05","05","1","motor","83","img/motor_2.png","83","motor","2","195","1","0","0","","",""
"null","462029","HierDyavs2pooq","05","05","1","iti","null","img/motor_2.png","83","motor","","","","","","","",""
"554","462593","HierDyavs2pooq","05","05","1","motor","65","img/motor_1.png","65","motor","1","196","1","0","0","","",""
"null","462704","HierDyavs2pooq","05","05","1","iti","null","img/motor_1.png","65","motor","","","","","","","",""
"730","463445","HierDyavs2pooq","05","05","1","motor","75","img/motor_7.png","75","motor","7","197","1","0","0","","",""
"null","463557","HierDyavs2pooq","05","05","1","iti","null","img/motor_7.png","75","motor","","","","","","","",""
"506","464072","HierDyavs2pooq","05","05","1","motor","72","img/motor_5.png","72","motor","5","198","1","0","0","","",""
"null","464182","HierDyavs2pooq","05","05","1","iti","null","img/motor_5.png","72","motor","","","","","","","",""
"563","464755","HierDyavs2pooq","05","05","1","motor","68","img/motor_2.png","83","motor","2","199","0","1","0","","",""
"342","465108","HierDyavs2pooq","05","05","1","motorRepeat","83","img/motor_2.png","83","motor","2","199","1","0","0","","",""
"null","465218","HierDyavs2pooq","05","05","1","iti","null","img/motor_2.png","83","motor","","","","","","","",""
"653","465880","HierDyavs2pooq","05","05","1","motor","76","img/motor_8.png","76","motor","8","200","1","0","0","","",""
"null","465990","HierDyavs2pooq","05","05","1","iti","null","img/motor_8.png","76","motor","","","","","","","",""
"652","466653","HierDyavs2pooq","05","05","1","motor","74","img/motor_6.png","74","motor","6","201","1","0","0","","",""
"null","466765","HierDyavs2pooq","05","05","1","iti","null","img/motor_6.png","74","motor","","","","","","","",""
"548","467323","HierDyavs2pooq","05","05","1","motor","76","img/motor_8.png","76","motor","8","202","1","0","0","","",""
"null","467436","HierDyavs2pooq","05","05","1","iti","null","img/motor_8.png","76","motor","","","","","","","",""
"411","467856","HierDyavs2pooq","05","05","1","motor","76","img/motor_8.png","76","motor","8","203","1","0","0","","",""
"null","467965","HierDyavs2pooq","05","05","1","iti","null","img/motor_8.png","76","motor","","","","","","","",""
"605","468579","HierDyavs2pooq","05","05","1","motor","68","img/motor_3.png","68","motor","3","204","1","0","0","","",""
"null","468690","HierDyavs2pooq","05","05","1","iti","null","img/motor_3.png","68","motor","","","","","","","",""
"512","469211","HierDyavs2pooq","05","05","1","motor","76","img/motor_8.png","76","motor","8","205","1","0","0","","",""
"null","469321","HierDyavs2pooq","05","05","1","iti","null","img/motor_8.png","76","motor","","","","","","","",""
"754","470085","HierDyavs2pooq","05","05","1","motor","70","img/motor_4.png","70","motor","4","206","1","0","0","","",""
"null","470197","HierDyavs2pooq","05","05","1","iti","null","img/motor_4.png","70","motor","","","","","","","",""
"430","470636","HierDyavs2pooq","05","05","1","motor","65","img/motor_1.png","65","motor","1","207","1","0","0","","",""
"null","470748","HierDyavs2pooq","05","05","1","iti","null","img/motor_1.png","65","motor","","","","","","","",""
"441","471198","HierDyavs2pooq","05","05","1","motor","76","img/motor_8.png","76","motor","8","208","1","0","0","","",""
"null","471309","HierDyavs2pooq","05","05","1","iti","null","img/motor_8.png","76","motor","","","","","","","",""
"461","471780","HierDyavs2pooq","05","05","1","motor","72","img/motor_5.png","72","motor","5","209","1","0","0","","",""
"null","471892","HierDyavs2pooq","05","05","1","iti","null","img/motor_5.png","72","motor","","","","","","","",""
"496","472398","HierDyavs2pooq","05","05","1","motor","65","img/motor_1.png","65","motor","1","210","1","0","0","","",""
"null","472507","HierDyavs2pooq","05","05","1","iti","null","img/motor_1.png","65","motor","","","","","","","",""
"385","472900","HierDyavs2pooq","05","05","1","motor","65","img/motor_1.png","65","motor","1","211","1","0","0","","",""
"null","473012","HierDyavs2pooq","05","05","1","iti","null","img/motor_1.png","65","motor","","","","","","","",""
"586","473609","HierDyavs2pooq","05","05","1","motor","75","img/motor_7.png","75","motor","7","212","1","0","0","","",""
"null","473719","HierDyavs2pooq","05","05","1","iti","null","img/motor_7.png","75","motor","","","","","","","",""
"422","474152","HierDyavs2pooq","05","05","1","motor","75","img/motor_7.png","75","motor","7","213","1","0","0","","",""
"null","474264","HierDyavs2pooq","05","05","1","iti","null","img/motor_7.png","75","motor","","","","","","","",""
"437","474711","HierDyavs2pooq","05","05","1","motor","72","img/motor_5.png","72","motor","5","214","1","0","0","","",""
"null","474823","HierDyavs2pooq","05","05","1","iti","null","img/motor_5.png","72","motor","","","","","","","",""
"442","475275","HierDyavs2pooq","05","05","1","motor","75","img/motor_7.png","75","motor","7","215","1","0","0","","",""
"null","475386","HierDyavs2pooq","05","05","1","iti","null","img/motor_7.png","75","motor","","","","","","","",""
"616","476012","HierDyavs2pooq","05","05","1","motor","83","img/motor_2.png","83","motor","2","216","1","0","0","","",""
"null","476124","HierDyavs2pooq","05","05","1","iti","null","img/motor_2.png","83","motor","","","","","","","",""
"516","476650","HierDyavs2pooq","05","05","1","motor","72","img/motor_5.png","72","motor","5","217","1","0","0","","",""
"null","476758","HierDyavs2pooq","05","05","1","iti","null","img/motor_5.png","72","motor","","","","","","","",""
"502","477268","HierDyavs2pooq","05","05","1","motor","75","img/motor_7.png","75","motor","7","218","1","0","0","","",""
"null","477380","HierDyavs2pooq","05","05","1","iti","null","img/motor_7.png","75","motor","","","","","","","",""
"413","477803","HierDyavs2pooq","05","05","1","motor","75","img/motor_7.png","75","motor","7","219","1","0","0","","",""
"null","477915","HierDyavs2pooq","05","05","1","iti","null","img/motor_7.png","75","motor","","","","","","","",""
"612","478537","HierDyavs2pooq","05","05","1","motor","68","img/motor_3.png","68","motor","3","220","1","0","0","","",""
"null","478647","HierDyavs2pooq","05","05","1","iti","null","img/motor_3.png","68","motor","","","","","","","",""
"500","479159","HierDyavs2pooq","05","05","1","motor","72","img/motor_5.png","72","motor","5","221","1","0","0","","",""
"null","479271","HierDyavs2pooq","05","05","1","iti","null","img/motor_5.png","72","motor","","","","","","","",""
"522","479802","HierDyavs2pooq","05","05","1","motor","83","img/motor_2.png","83","motor","2","222","1","0","0","","",""
"null","479914","HierDyavs2pooq","05","05","1","iti","null","img/motor_2.png","83","motor","","","","","","","",""
"347","480269","HierDyavs2pooq","05","05","1","motor","83","img/motor_2.png","83","motor","2","223","1","0","0","","",""
"null","480380","HierDyavs2pooq","05","05","1","iti","null","img/motor_2.png","83","motor","","","","","","","",""
"909","481302","HierDyavs2pooq","05","05","1","motor","72","img/motor_5.png","72","motor","5","224","1","0","0","","",""
"null","481413","HierDyavs2pooq","05","05","1","iti","null","img/motor_5.png","72","motor","","","","","","","",""
"348","481771","HierDyavs2pooq","05","05","1","motor","72","img/motor_5.png","72","motor","5","225","1","0","0","","",""
"null","481884","HierDyavs2pooq","05","05","1","iti","null","img/motor_5.png","72","motor","","","","","","","",""
"608","482502","HierDyavs2pooq","05","05","1","motor","70","img/motor_4.png","70","motor","4","226","1","0","0","","",""
"null","482612","HierDyavs2pooq","05","05","1","iti","null","img/motor_4.png","70","motor","","","","","","","",""
"600","483221","HierDyavs2pooq","05","05","1","motor","75","img/motor_7.png","75","motor","7","227","1","0","0","","",""
"null","483333","HierDyavs2pooq","05","05","1","iti","null","img/motor_7.png","75","motor","","","","","","","",""
"670","484012","HierDyavs2pooq","05","05","1","motor","72","img/motor_5.png","72","motor","5","228","1","0","0","","",""
"null","484124","HierDyavs2pooq","05","05","1","iti","null","img/motor_5.png","72","motor","","","","","","","",""
"372","484506","HierDyavs2pooq","05","05","1","motor","72","img/motor_5.png","72","motor","5","229","1","0","0","","",""
"null","484619","HierDyavs2pooq","05","05","1","iti","null","img/motor_5.png","72","motor","","","","","","","",""
"556","485182","HierDyavs2pooq","05","05","1","motor","74","img/motor_6.png","74","motor","6","230","1","0","0","","",""
"null","485291","HierDyavs2pooq","05","05","1","iti","null","img/motor_6.png","74","motor","","","","","","","",""
"678","485977","HierDyavs2pooq","05","05","1","motor","70","img/motor_4.png","70","motor","4","231","1","0","0","","",""
"null","486086","HierDyavs2pooq","05","05","1","iti","null","img/motor_4.png","70","motor","","","","","","","",""
"564","486657","HierDyavs2pooq","05","05","1","motor","76","img/motor_8.png","76","motor","8","232","1","0","0","","",""
"null","486769","HierDyavs2pooq","05","05","1","iti","null","img/motor_8.png","76","motor","","","","","","","",""
"386","487164","HierDyavs2pooq","05","05","1","motor","76","img/motor_8.png","76","motor","8","233","1","0","0","","",""
"null","487276","HierDyavs2pooq","05","05","1","iti","null","img/motor_8.png","76","motor","","","","","","","",""
"649","487934","HierDyavs2pooq","05","05","1","motor","74","img/motor_6.png","74","motor","6","234","1","0","0","","",""
"null","488045","HierDyavs2pooq","05","05","1","iti","null","img/motor_6.png","74","motor","","","","","","","",""
"564","488617","HierDyavs2pooq","05","05","1","motor","70","img/motor_4.png","70","motor","4","235","1","0","0","","",""
"null","488726","HierDyavs2pooq","05","05","1","iti","null","img/motor_4.png","70","motor","","","","","","","",""
"1473","490207","HierDyavs2pooq","05","05","1","motor","76","img/motor_8.png","76","motor","8","236","1","0","0","","",""
"null","490318","HierDyavs2pooq","05","05","1","iti","null","img/motor_8.png","76","motor","","","","","","","",""
"564","490891","HierDyavs2pooq","05","05","1","motor","70","img/motor_4.png","70","motor","4","237","1","0","0","","",""
"null","491001","HierDyavs2pooq","05","05","1","iti","null","img/motor_4.png","70","motor","","","","","","","",""
"519","491529","HierDyavs2pooq","05","05","1","motor","68","img/motor_2.png","83","motor","2","238","0","1","0","","",""
"273","491811","HierDyavs2pooq","05","05","1","motorRepeat","83","img/motor_2.png","83","motor","2","238","1","0","0","","",""
"null","491920","HierDyavs2pooq","05","05","1","iti","null","img/motor_2.png","83","motor","","","","","","","",""
"1180","493110","HierDyavs2pooq","05","05","1","motor","70","img/motor_4.png","70","motor","4","239","1","0","0","","",""
"null","493221","HierDyavs2pooq","05","05","1","iti","null","img/motor_4.png","70","motor","","","","","","","",""
"585","493812","HierDyavs2pooq","05","05","1","motor","75","img/motor_7.png","75","motor","7","240","1","0","0","","",""
"null","493920","HierDyavs2pooq","05","05","1","iti","null","img/motor_7.png","75","motor","","","","","","","",""
"589","494519","HierDyavs2pooq","05","05","1","motor","74","img/motor_6.png","74","motor","6","241","1","0","0","","",""
"null","494632","HierDyavs2pooq","05","05","1","iti","null","img/motor_6.png","74","motor","","","","","","","",""
"482","495123","HierDyavs2pooq","05","05","1","motor","75","img/motor_7.png","75","motor","7","242","1","0","0","","",""
"null","495233","HierDyavs2pooq","05","05","1","iti","null","img/motor_7.png","75","motor","","","","","","","",""
"651","495896","HierDyavs2pooq","05","05","1","motor","83","img/motor_2.png","83","motor","2","243","1","0","0","","",""
"null","496005","HierDyavs2pooq","05","05","1","iti","null","img/motor_2.png","83","motor","","","","","","","",""
"514","496527","HierDyavs2pooq","05","05","1","motor","75","img/motor_7.png","75","motor","7","244","1","0","0","","",""
"null","496639","HierDyavs2pooq","05","05","1","iti","null","img/motor_7.png","75","motor","","","","","","","",""
"575","497224","HierDyavs2pooq","05","05","1","motor","72","img/motor_5.png","72","motor","5","245","1","0","0","","",""
"null","497336","HierDyavs2pooq","05","05","1","iti","null","img/motor_5.png","72","motor","","","","","","","",""
"402","497747","HierDyavs2pooq","05","05","1","motor","70","img/motor_4.png","70","motor","4","246","1","0","0","","",""
"null","497858","HierDyavs2pooq","05","05","1","iti","null","img/motor_4.png","70","motor","","","","","","","",""
"477","498345","HierDyavs2pooq","05","05","1","motor","72","img/motor_5.png","72","motor","5","247","1","0","0","","",""
"null","498455","HierDyavs2pooq","05","05","1","iti","null","img/motor_5.png","72","motor","","","","","","","",""
"492","498956","HierDyavs2pooq","05","05","1","motor","83","img/motor_2.png","83","motor","2","248","1","0","0","","",""
"null","499066","HierDyavs2pooq","05","05","1","iti","null","img/motor_2.png","83","motor","","","","","","","",""
"525","499600","HierDyavs2pooq","05","05","1","motor","75","img/motor_7.png","75","motor","7","249","1","0","0","","",""
"null","499709","HierDyavs2pooq","05","05","1","iti","null","img/motor_7.png","75","motor","","","","","","","",""
"667","500387","HierDyavs2pooq","05","05","1","motor","68","img/motor_3.png","68","motor","3","250","1","0","0","","",""
"null","500497","HierDyavs2pooq","05","05","1","iti","null","img/motor_3.png","68","motor","","","","","","","",""
"531","501036","HierDyavs2pooq","05","05","1","motor","65","img/motor_1.png","65","motor","1","251","1","0","0","","",""
"null","501143","HierDyavs2pooq","05","05","1","iti","null","img/motor_1.png","65","motor","","","","","","","",""
"477","501627","HierDyavs2pooq","05","05","1","motor","83","img/motor_2.png","83","motor","2","252","1","0","0","","",""
"null","501736","HierDyavs2pooq","05","05","1","iti","null","img/motor_2.png","83","motor","","","","","","","",""
"507","502252","HierDyavs2pooq","05","05","1","motor","70","img/motor_4.png","70","motor","4","253","1","0","0","","",""
"null","502363","HierDyavs2pooq","05","05","1","iti","null","img/motor_4.png","70","motor","","","","","","","",""
"343","502715","HierDyavs2pooq","05","05","1","motor","70","img/motor_4.png","70","motor","4","254","1","0","0","","",""
"null","502827","HierDyavs2pooq","05","05","1","iti","null","img/motor_4.png","70","motor","","","","","","","",""
"507","503343","HierDyavs2pooq","05","05","1","motor","83","img/motor_2.png","83","motor","2","255","1","0","0","","",""
"null","503453","HierDyavs2pooq","05","05","1","iti","null","img/motor_2.png","83","motor","","","","","","","",""
"604","504068","HierDyavs2pooq","05","05","1","motor","75","img/motor_7.png","75","motor","7","256","1","0","0","","",""
"null","504180","HierDyavs2pooq","05","05","1","iti","null","img/motor_7.png","75","motor","","","","","","","",""
"639","504825","HierDyavs2pooq","05","05","1","motor","68","img/motor_3.png","68","motor","3","257","1","0","0","","",""
"null","504935","HierDyavs2pooq","05","05","1","iti","null","img/motor_3.png","68","motor","","","","","","","",""
"900","505842","HierDyavs2pooq","05","05","1","motor","72","img/motor_5.png","72","motor","5","258","1","0","0","","",""
"null","505950","HierDyavs2pooq","05","05","1","iti","null","img/motor_5.png","72","motor","","","","","","","",""
"586","506543","HierDyavs2pooq","05","05","1","motor","70","img/motor_4.png","70","motor","4","259","1","0","0","","",""
"null","506652","HierDyavs2pooq","05","05","1","iti","null","img/motor_4.png","70","motor","","","","","","","",""
"494","507155","HierDyavs2pooq","05","05","1","motor","68","img/motor_3.png","68","motor","3","260","1","0","0","","",""
"null","507264","HierDyavs2pooq","05","05","1","iti","null","img/motor_3.png","68","motor","","","","","","","",""
"574","507849","HierDyavs2pooq","05","05","1","motor","75","img/motor_7.png","75","motor","7","261","1","0","0","","",""
"78","507958","HierDyavs2pooq","05","05","1","iti","75","img/motor_7.png","75","motor","","","","","","","",""
"575","508542","HierDyavs2pooq","05","05","1","motor","65","img/motor_1.png","65","motor","1","262","1","0","0","","",""
"null","508650","HierDyavs2pooq","05","05","1","iti","null","img/motor_1.png","65","motor","","","","","","","",""
"445","509105","HierDyavs2pooq","05","05","1","motor","76","img/motor_8.png","76","motor","8","263","1","0","0","","",""
"null","509213","HierDyavs2pooq","05","05","1","iti","null","img/motor_8.png","76","motor","","","","","","","",""
"1412","510636","HierDyavs2pooq","05","05","1","motor","68","img/motor_3.png","68","motor","3","264","1","0","0","","",""
"null","510745","HierDyavs2pooq","05","05","1","iti","null","img/motor_3.png","68","motor","","","","","","","",""
"591","511345","HierDyavs2pooq","05","05","1","motor","75","img/motor_7.png","75","motor","7","265","1","0","0","","",""
"null","511453","HierDyavs2pooq","05","05","1","iti","null","img/motor_7.png","75","motor","","","","","","","",""
"407","511868","HierDyavs2pooq","05","05","1","motor","75","img/motor_7.png","75","motor","7","266","1","0","0","","",""
"null","511977","HierDyavs2pooq","05","05","1","iti","null","img/motor_7.png","75","motor","","","","","","","",""
"562","512548","HierDyavs2pooq","05","05","1","motor","70","img/motor_4.png","70","motor","4","267","1","0","0","","",""
"null","512656","HierDyavs2pooq","05","05","1","iti","null","img/motor_4.png","70","motor","","","","","","","",""
"629","513295","HierDyavs2pooq","05","05","1","motor","74","img/motor_6.png","74","motor","6","268","1","0","0","","",""
"null","513407","HierDyavs2pooq","05","05","1","iti","null","img/motor_6.png","74","motor","","","","","","","",""
"506","513924","HierDyavs2pooq","05","05","1","motor","65","img/motor_1.png","65","motor","1","269","1","0","0","","",""
"null","514036","HierDyavs2pooq","05","05","1","iti","null","img/motor_1.png","65","motor","","","","","","","",""
"581","514627","HierDyavs2pooq","05","05","1","motor","83","img/motor_2.png","83","motor","2","270","1","0","0","","",""
"null","514737","HierDyavs2pooq","05","05","1","iti","null","img/motor_2.png","83","motor","","","","","","","",""
"494","515242","HierDyavs2pooq","05","05","1","motor","75","img/motor_7.png","75","motor","7","271","1","0","0","","",""
"null","515353","HierDyavs2pooq","05","05","1","iti","null","img/motor_7.png","75","motor","","","","","","","",""
"472","515836","HierDyavs2pooq","05","05","1","motor","83","img/motor_3.png","68","motor","3","272","0","1","0","","",""
"325","516172","HierDyavs2pooq","05","05","1","motorRepeat","68","img/motor_3.png","68","motor","3","272","1","0","0","","",""
"null","516284","HierDyavs2pooq","05","05","1","iti","null","img/motor_3.png","68","motor","","","","","","","",""
"637","516931","HierDyavs2pooq","05","05","1","motor","83","img/motor_2.png","83","motor","2","273","1","0","0","","",""
"null","517042","HierDyavs2pooq","05","05","1","iti","null","img/motor_2.png","83","motor","","","","","","","",""
"745","517799","HierDyavs2pooq","05","05","1","motor","74","img/motor_6.png","74","motor","6","274","1","0","0","","",""
"null","517909","HierDyavs2pooq","05","05","1","iti","null","img/motor_6.png","74","motor","","","","","","","",""
"824","518741","HierDyavs2pooq","05","05","1","motor","70","img/motor_4.png","70","motor","4","275","1","0","0","","",""
"null","518852","HierDyavs2pooq","05","05","1","iti","null","img/motor_4.png","70","motor","","","","","","","",""
"590","519454","HierDyavs2pooq","05","05","1","motor","83","img/motor_2.png","83","motor","2","276","1","0","0","","",""
"null","519566","HierDyavs2pooq","05","05","1","iti","null","img/motor_2.png","83","motor","","","","","","","",""
"641","520214","HierDyavs2pooq","05","05","1","motor","75","img/motor_7.png","75","motor","7","277","1","0","0","","",""
"null","520325","HierDyavs2pooq","05","05","1","iti","null","img/motor_7.png","75","motor","","","","","","","",""
"604","520940","HierDyavs2pooq","05","05","1","motor","65","img/motor_1.png","65","motor","1","278","1","0","0","","",""
"null","521049","HierDyavs2pooq","05","05","1","iti","null","img/motor_1.png","65","motor","","","","","","","",""
"693","521753","HierDyavs2pooq","05","05","1","motor","70","img/motor_4.png","70","motor","4","279","1","0","0","","",""
"null","521865","HierDyavs2pooq","05","05","1","iti","null","img/motor_4.png","70","motor","","","","","","","",""
"716","522589","HierDyavs2pooq","05","05","1","motor","74","img/motor_6.png","74","motor","6","280","1","0","0","","",""
"null","522697","HierDyavs2pooq","05","05","1","iti","null","img/motor_6.png","74","motor","","","","","","","",""
"641","523347","HierDyavs2pooq","05","05","1","motor","68","img/motor_3.png","68","motor","3","281","1","0","0","","",""
"null","523456","HierDyavs2pooq","05","05","1","iti","null","img/motor_3.png","68","motor","","","","","","","",""
"585","524050","HierDyavs2pooq","05","05","1","motor","76","img/motor_8.png","76","motor","8","282","1","0","0","","",""
"null","524163","HierDyavs2pooq","05","05","1","iti","null","img/motor_8.png","76","motor","","","","","","","",""
"619","524791","HierDyavs2pooq","05","05","1","motor","74","img/motor_6.png","74","motor","6","283","1","0","0","","",""
"null","524899","HierDyavs2pooq","05","05","1","iti","null","img/motor_6.png","74","motor","","","","","","","",""
"638","525546","HierDyavs2pooq","05","05","1","motor","83","img/motor_2.png","83","motor","2","284","1","0","0","","",""
"null","525654","HierDyavs2pooq","05","05","1","iti","null","img/motor_2.png","83","motor","","","","","","","",""
"411","526073","HierDyavs2pooq","05","05","1","motor","68","img/motor_3.png","68","motor","3","285","1","0","0","","",""
"null","526181","HierDyavs2pooq","05","05","1","iti","null","img/motor_3.png","68","motor","","","","","","","",""
"560","526750","HierDyavs2pooq","05","05","1","motor","83","img/motor_2.png","83","motor","2","286","1","0","0","","",""
"null","526859","HierDyavs2pooq","05","05","1","iti","null","img/motor_2.png","83","motor","","","","","","","",""
"590","527457","HierDyavs2pooq","05","05","1","motor","74","img/motor_6.png","74","motor","6","287","1","0","0","","",""
"null","527565","HierDyavs2pooq","05","05","1","iti","null","img/motor_6.png","74","motor","","","","","","","",""
"553","528127","HierDyavs2pooq","05","05","1","motor","83","img/motor_2.png","83","motor","2","288","1","0","0","","",""
"null","528236","HierDyavs2pooq","05","05","1","iti","null","img/motor_2.png","83","motor","","","","","","","",""
"598","528841","HierDyavs2pooq","05","05","1","motor","74","img/motor_6.png","74","motor","6","289","1","0","0","","",""
"null","528952","HierDyavs2pooq","05","05","1","iti","null","img/motor_6.png","74","motor","","","","","","","",""
"323","529282","HierDyavs2pooq","05","05","1","motor","74","img/motor_6.png","74","motor","6","290","1","0","0","","",""
"null","529392","HierDyavs2pooq","05","05","1","iti","null","img/motor_6.png","74","motor","","","","","","","",""
"617","530016","HierDyavs2pooq","05","05","1","motor","68","img/motor_3.png","68","motor","3","291","1","0","0","","",""
"null","530125","HierDyavs2pooq","05","05","1","iti","null","img/motor_3.png","68","motor","","","","","","","",""
"644","530778","HierDyavs2pooq","05","05","1","motor","74","img/motor_6.png","74","motor","6","292","1","0","0","","",""
"null","530891","HierDyavs2pooq","05","05","1","iti","null","img/motor_6.png","74","motor","","","","","","","",""
"552","531451","HierDyavs2pooq","05","05","1","motor","75","img/motor_7.png","75","motor","7","293","1","0","0","","",""
"null","531562","HierDyavs2pooq","05","05","1","iti","null","img/motor_7.png","75","motor","","","","","","","",""
"558","532129","HierDyavs2pooq","05","05","1","motor","83","img/motor_2.png","83","motor","2","294","1","0","0","","",""
"null","532237","HierDyavs2pooq","05","05","1","iti","null","img/motor_2.png","83","motor","","","","","","","",""
"611","532859","HierDyavs2pooq","05","05","1","motor","76","img/motor_8.png","76","motor","8","295","1","0","0","","",""
"null","532968","HierDyavs2pooq","05","05","1","iti","null","img/motor_8.png","76","motor","","","","","","","",""
"960","533939","HierDyavs2pooq","05","05","1","motor","72","img/motor_5.png","72","motor","5","296","1","0","0","","",""
"null","534048","HierDyavs2pooq","05","05","1","iti","null","img/motor_5.png","72","motor","","","","","","","",""
"773","534831","HierDyavs2pooq","05","05","1","motor","83","img/motor_2.png","83","motor","2","297","1","0","0","","",""
"null","534942","HierDyavs2pooq","05","05","1","iti","null","img/motor_2.png","83","motor","","","","","","","",""
"562","535513","HierDyavs2pooq","05","05","1","motor","65","img/motor_1.png","65","motor","1","298","1","0","0","","",""
"null","535623","HierDyavs2pooq","05","05","1","iti","null","img/motor_1.png","65","motor","","","","","","","",""
"533","536166","HierDyavs2pooq","05","05","1","motor","76","img/motor_8.png","76","motor","8","299","1","0","0","","",""
"null","536277","HierDyavs2pooq","05","05","1","iti","null","img/motor_8.png","76","motor","","","","","","","",""
"711","536995","HierDyavs2pooq","05","05","1","motor","65","img/motor_1.png","65","motor","1","300","1","0","0","","",""
"null","537106","HierDyavs2pooq","05","05","1","iti","null","img/motor_1.png","65","motor","","","","","","","",""
"556","537673","HierDyavs2pooq","05","05","1","motor","75","img/motor_6.png","74","motor","6","301","0","1","0","","",""
"411","538094","HierDyavs2pooq","05","05","1","motorRepeat","74","img/motor_6.png","74","motor","6","301","1","0","0","","",""
"null","538206","HierDyavs2pooq","05","05","1","iti","null","img/motor_6.png","74","motor","","","","","","","",""
"545","538761","HierDyavs2pooq","05","05","1","motor","72","img/motor_5.png","72","motor","5","302","1","0","0","","",""
"null","538871","HierDyavs2pooq","05","05","1","iti","null","img/motor_5.png","72","motor","","","","","","","",""
"598","539476","HierDyavs2pooq","05","05","1","motor","75","img/motor_7.png","75","motor","7","303","1","0","0","","",""
"null","539588","HierDyavs2pooq","05","05","1","iti","null","img/motor_7.png","75","motor","","","","","","","",""
"464","540060","HierDyavs2pooq","05","05","1","motor","74","img/motor_6.png","74","motor","6","304","1","0","0","","",""
"null","540170","HierDyavs2pooq","05","05","1","iti","null","img/motor_6.png","74","motor","","","","","","","",""
"628","540806","HierDyavs2pooq","05","05","1","motor","70","img/motor_4.png","70","motor","4","305","1","0","0","","",""
"null","540915","HierDyavs2pooq","05","05","1","iti","null","img/motor_4.png","70","motor","","","","","","","",""
"423","541346","HierDyavs2pooq","05","05","1","motor","68","img/motor_3.png","68","motor","3","306","1","0","0","","",""
"null","541454","HierDyavs2pooq","05","05","1","iti","null","img/motor_3.png","68","motor","","","","","","","",""
"752","542216","HierDyavs2pooq","05","05","1","motor","76","img/motor_8.png","76","motor","8","307","1","0","0","","",""
"null","542326","HierDyavs2pooq","05","05","1","iti","null","img/motor_8.png","76","motor","","","","","","","",""
"823","543159","HierDyavs2pooq","05","05","1","motor","68","img/motor_3.png","68","motor","3","308","1","0","0","","",""
"null","543270","HierDyavs2pooq","05","05","1","iti","null","img/motor_3.png","68","motor","","","","","","","",""
"566","543846","HierDyavs2pooq","05","05","1","motor","72","img/motor_5.png","72","motor","5","309","1","0","0","","",""
"null","543955","HierDyavs2pooq","05","05","1","iti","null","img/motor_5.png","72","motor","","","","","","","",""
"586","544551","HierDyavs2pooq","05","05","1","motor","75","img/motor_7.png","75","motor","7","310","1","0","0","","",""
"null","544661","HierDyavs2pooq","05","05","1","iti","null","img/motor_7.png","75","motor","","","","","","","",""
"368","545037","HierDyavs2pooq","05","05","1","motor","74","img/motor_6.png","74","motor","6","311","1","0","0","","",""
"null","545149","HierDyavs2pooq","05","05","1","iti","null","img/motor_6.png","74","motor","","","","","","","",""
"654","545813","HierDyavs2pooq","05","05","1","motor","83","img/motor_2.png","83","motor","2","312","1","0","0","","",""
"null","545922","HierDyavs2pooq","05","05","1","iti","null","img/motor_2.png","83","motor","","","","","","","",""
"573","546505","HierDyavs2pooq","05","05","1","motor","65","img/motor_1.png","65","motor","1","313","1","0","0","","",""
"null","546618","HierDyavs2pooq","05","05","1","iti","null","img/motor_1.png","65","motor","","","","","","","",""
"603","547232","HierDyavs2pooq","05","05","1","motor","70","img/motor_4.png","70","motor","4","314","1","0","0","","",""
"null","547342","HierDyavs2pooq","05","05","1","iti","null","img/motor_4.png","70","motor","","","","","","","",""
"365","547715","HierDyavs2pooq","05","05","1","motor","70","img/motor_4.png","70","motor","4","315","1","0","0","","",""
"null","547827","HierDyavs2pooq","05","05","1","iti","null","img/motor_4.png","70","motor","","","","","","","",""
"586","548424","HierDyavs2pooq","05","05","1","motor","74","img/motor_6.png","74","motor","6","316","1","0","0","","",""
"null","548536","HierDyavs2pooq","05","05","1","iti","null","img/motor_6.png","74","motor","","","","","","","",""
"305","548849","HierDyavs2pooq","05","05","1","motor","74","img/motor_6.png","74","motor","6","317","1","0","0","","",""
"null","548960","HierDyavs2pooq","05","05","1","iti","null","img/motor_6.png","74","motor","","","","","","","",""
"537","549507","HierDyavs2pooq","05","05","1","motor","65","img/motor_1.png","65","motor","1","318","1","0","0","","",""
"null","549619","HierDyavs2pooq","05","05","1","iti","null","img/motor_1.png","65","motor","","","","","","","",""
"350","549980","HierDyavs2pooq","05","05","1","motor","83","img/motor_2.png","83","motor","2","319","1","0","0","","",""
"null","550091","HierDyavs2pooq","05","05","1","iti","null","img/motor_2.png","83","motor","","","","","","","",""
"611","550712","HierDyavs2pooq","05","05","1","motor","70","img/motor_4.png","70","motor","4","320","1","0","0","","",""
"null","550824","HierDyavs2pooq","05","05","1","iti","null","img/motor_4.png","70","motor","","","","","","","",""
"391","551225","HierDyavs2pooq","05","05","1","motor","70","img/motor_4.png","70","motor","4","321","1","0","0","","",""
"null","551336","HierDyavs2pooq","05","05","1","iti","null","img/motor_4.png","70","motor","","","","","","","",""
"554","551902","HierDyavs2pooq","05","05","1","motor","83","img/motor_2.png","83","motor","2","322","1","0","0","","",""
"null","552009","HierDyavs2pooq","05","05","1","iti","null","img/motor_2.png","83","motor","","","","","","","",""
"460","552479","HierDyavs2pooq","05","05","1","motor","68","img/motor_3.png","68","motor","3","323","1","0","0","","",""
"null","552592","HierDyavs2pooq","05","05","1","iti","null","img/motor_3.png","68","motor","","","","","","","",""
"410","553013","HierDyavs2pooq","05","05","1","motor","68","img/motor_3.png","68","motor","3","324","1","0","0","","",""
"null","553121","HierDyavs2pooq","05","05","1","iti","null","img/motor_3.png","68","motor","","","","","","","",""
"423","553554","HierDyavs2pooq","05","05","1","motor","65","img/motor_1.png","65","motor","1","325","1","0","0","","",""
"null","553666","HierDyavs2pooq","05","05","1","iti","null","img/motor_1.png","65","motor","","","","","","","",""
"489","554166","HierDyavs2pooq","05","05","1","motor","76","img/motor_8.png","76","motor","8","326","1","0","0","","",""
"null","554278","HierDyavs2pooq","05","05","1","iti","null","img/motor_8.png","76","motor","","","","","","","",""
"375","554664","HierDyavs2pooq","05","05","1","motor","75","img/motor_7.png","75","motor","7","327","1","0","0","","",""
"null","554774","HierDyavs2pooq","05","05","1","iti","null","img/motor_7.png","75","motor","","","","","","","",""
"686","555470","HierDyavs2pooq","05","05","1","motor","68","img/motor_3.png","68","motor","3","328","1","0","0","","",""
"null","555578","HierDyavs2pooq","05","05","1","iti","null","img/motor_3.png","68","motor","","","","","","","",""
"539","556126","HierDyavs2pooq","05","05","1","motor","75","img/motor_7.png","75","motor","7","329","1","0","0","","",""
"null","556235","HierDyavs2pooq","05","05","1","iti","null","img/motor_7.png","75","motor","","","","","","","",""
"530","556775","HierDyavs2pooq","05","05","1","motor","72","img/motor_5.png","72","motor","5","330","1","0","0","","",""
"null","556886","HierDyavs2pooq","05","05","1","iti","null","img/motor_5.png","72","motor","","","","","","","",""
"778","557673","HierDyavs2pooq","05","05","1","motor","68","img/motor_3.png","68","motor","3","331","1","0","0","","",""
"null","557782","HierDyavs2pooq","05","05","1","iti","null","img/motor_3.png","68","motor","","","","","","","",""
"685","558475","HierDyavs2pooq","05","05","1","motor","70","img/motor_4.png","70","motor","4","332","1","0","0","","",""
"null","558588","HierDyavs2pooq","05","05","1","iti","null","img/motor_4.png","70","motor","","","","","","","",""
"397","558996","HierDyavs2pooq","05","05","1","motor","72","img/motor_5.png","72","motor","5","333","1","0","0","","",""
"null","559107","HierDyavs2pooq","05","05","1","iti","null","img/motor_5.png","72","motor","","","","","","","",""
"495","559614","HierDyavs2pooq","05","05","1","motor","70","img/motor_4.png","70","motor","4","334","1","0","0","","",""
"null","559723","HierDyavs2pooq","05","05","1","iti","null","img/motor_4.png","70","motor","","","","","","","",""
"444","560175","HierDyavs2pooq","05","05","1","motor","65","img/motor_1.png","65","motor","1","335","1","0","0","","",""
"null","560285","HierDyavs2pooq","05","05","1","iti","null","img/motor_1.png","65","motor","","","","","","","",""
"629","560922","HierDyavs2pooq","05","05","1","motor","68","img/motor_3.png","68","motor","3","336","1","0","0","","",""
"null","561031","HierDyavs2pooq","05","05","1","iti","null","img/motor_3.png","68","motor","","","","","","","",""
"448","561488","HierDyavs2pooq","05","05","1","motor","70","img/motor_4.png","70","motor","4","337","1","0","0","","",""
"null","561597","HierDyavs2pooq","05","05","1","iti","null","img/motor_4.png","70","motor","","","","","","","",""
"577","562187","HierDyavs2pooq","05","05","1","motor","74","img/motor_6.png","74","motor","6","338","1","0","0","","",""
"null","562297","HierDyavs2pooq","05","05","1","iti","null","img/motor_6.png","74","motor","","","","","","","",""
"408","562713","HierDyavs2pooq","05","05","1","motor","76","img/motor_8.png","76","motor","8","339","1","0","0","","",""
"null","562823","HierDyavs2pooq","05","05","1","iti","null","img/motor_8.png","76","motor","","","","","","","",""
"379","563212","HierDyavs2pooq","05","05","1","motor","72","img/motor_5.png","72","motor","5","340","1","0","0","","",""
"null","563323","HierDyavs2pooq","05","05","1","iti","null","img/motor_5.png","72","motor","","","","","","","",""
"633","563964","HierDyavs2pooq","05","05","1","motor","83","img/motor_2.png","83","motor","2","341","1","0","0","","",""
"null","564075","HierDyavs2pooq","05","05","1","iti","null","img/motor_2.png","83","motor","","","","","","","",""
"326","564412","HierDyavs2pooq","05","05","1","motor","83","img/motor_1.png","65","motor","1","342","0","1","0","","",""
"274","564693","HierDyavs2pooq","05","05","1","motorRepeat","65","img/motor_1.png","65","motor","1","342","1","0","0","","",""
"null","564802","HierDyavs2pooq","05","05","1","iti","null","img/motor_1.png","65","motor","","","","","","","",""
"646","565456","HierDyavs2pooq","05","05","1","motor","65","img/motor_1.png","65","motor","1","343","1","0","0","","",""
"null","565563","HierDyavs2pooq","05","05","1","iti","null","img/motor_1.png","65","motor","","","","","","","",""
"1024","566595","HierDyavs2pooq","05","05","1","motor","68","img/motor_3.png","68","motor","3","344","1","0","0","","",""
"null","566703","HierDyavs2pooq","05","05","1","iti","null","img/motor_3.png","68","motor","","","","","","","",""
"494","567206","HierDyavs2pooq","05","05","1","motor","70","img/motor_4.png","70","motor","4","345","1","0","0","","",""
"null","567314","HierDyavs2pooq","05","05","1","iti","null","img/motor_4.png","70","motor","","","","","","","",""
"464","567786","HierDyavs2pooq","05","05","1","motor","72","img/motor_5.png","72","motor","5","346","1","0","0","","",""
"null","567898","HierDyavs2pooq","05","05","1","iti","null","img/motor_5.png","72","motor","","","","","","","",""
"436","568342","HierDyavs2pooq","05","05","1","motor","65","img/motor_1.png","65","motor","1","347","1","0","0","","",""
"null","568454","HierDyavs2pooq","05","05","1","iti","null","img/motor_1.png","65","motor","","","","","","","",""
"358","568824","HierDyavs2pooq","05","05","1","motor","83","img/motor_2.png","83","motor","2","348","1","0","0","","",""
"null","568936","HierDyavs2pooq","05","05","1","iti","null","img/motor_2.png","83","motor","","","","","","","",""
"639","569583","HierDyavs2pooq","05","05","1","motor","75","img/motor_7.png","75","motor","7","349","1","0","0","","",""
"null","569695","HierDyavs2pooq","05","05","1","iti","null","img/motor_7.png","75","motor","","","","","","","",""
"433","570139","HierDyavs2pooq","05","05","1","motor","83","img/motor_1.png","65","motor","1","350","0","1","0","","",""
"368","570518","HierDyavs2pooq","05","05","1","motorRepeat","65","img/motor_1.png","65","motor","1","350","1","0","0","","",""
"null","570627","HierDyavs2pooq","05","05","1","iti","null","img/motor_1.png","65","motor","","","","","","","",""
"738","571374","HierDyavs2pooq","05","05","1","motor","70","img/motor_4.png","70","motor","4","351","1","0","0","","",""
"null","571482","HierDyavs2pooq","05","05","1","iti","null","img/motor_4.png","70","motor","","","","","","","",""
"437","571929","HierDyavs2pooq","05","05","1","motor","83","img/motor_2.png","83","motor","2","352","1","0","0","","",""
"null","572039","HierDyavs2pooq","05","05","1","iti","null","img/motor_2.png","83","motor","","","","","","","",""
"895","572945","HierDyavs2pooq","05","05","1","motor","72","img/motor_5.png","72","motor","5","353","1","0","0","","",""
"null","573057","HierDyavs2pooq","05","05","1","iti","null","img/motor_5.png","72","motor","","","","","","","",""
"538","573606","HierDyavs2pooq","05","05","1","motor","76","img/motor_8.png","76","motor","8","354","1","0","0","","",""
"null","573718","HierDyavs2pooq","05","05","1","iti","null","img/motor_8.png","76","motor","","","","","","","",""
"660","574385","HierDyavs2pooq","05","05","1","motor","74","img/motor_6.png","74","motor","6","355","1","0","0","","",""
"null","574495","HierDyavs2pooq","05","05","1","iti","null","img/motor_6.png","74","motor","","","","","","","",""
"753","575256","HierDyavs2pooq","05","05","1","motor","72","img/motor_5.png","72","motor","5","356","1","0","0","","",""
"null","575369","HierDyavs2pooq","05","05","1","iti","null","img/motor_5.png","72","motor","","","","","","","",""
"582","575959","HierDyavs2pooq","05","05","1","motor","68","img/motor_3.png","68","motor","3","357","1","0","0","","",""
"null","576072","HierDyavs2pooq","05","05","1","iti","null","img/motor_3.png","68","motor","","","","","","","",""
"495","576578","HierDyavs2pooq","05","05","1","motor","72","img/motor_5.png","72","motor","5","358","1","0","0","","",""
"null","576690","HierDyavs2pooq","05","05","1","iti","null","img/motor_5.png","72","motor","","","","","","","",""
"494","577196","HierDyavs2pooq","05","05","1","motor","65","img/motor_1.png","65","motor","1","359","1","0","0","","",""
"null","577309","HierDyavs2pooq","05","05","1","iti","null","img/motor_1.png","65","motor","","","","","","","",""
"540","577860","HierDyavs2pooq","05","05","1","motor","74","img/motor_6.png","74","motor","6","360","1","0","0","","",""
"null","577970","HierDyavs2pooq","05","05","1","iti","null","img/motor_6.png","74","motor","","","","","","","",""
"564","578545","HierDyavs2pooq","05","05","1","motor","70","img/motor_4.png","70","motor","4","361","1","0","0","","",""
"null","578657","HierDyavs2pooq","05","05","1","iti","null","img/motor_4.png","70","motor","","","","","","","",""
"624","579293","HierDyavs2pooq","05","05","1","motor","65","img/motor_1.png","65","motor","1","362","1","0","0","","",""
"null","579406","HierDyavs2pooq","05","05","1","iti","null","img/motor_1.png","65","motor","","","","","","","",""
"506","579922","HierDyavs2pooq","05","05","1","motor","68","img/motor_3.png","68","motor","3","363","1","0","0","","",""
"null","580032","HierDyavs2pooq","05","05","1","iti","null","img/motor_3.png","68","motor","","","","","","","",""
"530","580572","HierDyavs2pooq","05","05","1","motor","83","img/motor_2.png","83","motor","2","364","1","0","0","","",""
"null","580685","HierDyavs2pooq","05","05","1","iti","null","img/motor_2.png","83","motor","","","","","","","",""
"396","581090","HierDyavs2pooq","05","05","1","motor","68","img/motor_3.png","68","motor","3","365","1","0","0","","",""
"null","581201","HierDyavs2pooq","05","05","1","iti","null","img/motor_3.png","68","motor","","","","","","","",""
"510","581721","HierDyavs2pooq","05","05","1","motor","75","img/motor_7.png","75","motor","7","366","1","0","0","","",""
"null","581833","HierDyavs2pooq","05","05","1","iti","null","img/motor_7.png","75","motor","","","","","","","",""
"471","582315","HierDyavs2pooq","05","05","1","motor","65","img/motor_1.png","65","motor","1","367","1","0","0","","",""
"null","582428","HierDyavs2pooq","05","05","1","iti","null","img/motor_1.png","65","motor","","","","","","","",""
"374","582811","HierDyavs2pooq","05","05","1","motor","65","img/motor_1.png","65","motor","1","368","1","0","0","","",""
"null","582924","HierDyavs2pooq","05","05","1","iti","null","img/motor_1.png","65","motor","","","","","","","",""
"667","583598","HierDyavs2pooq","05","05","1","motor","75","img/motor_7.png","75","motor","7","369","1","0","0","","",""
"null","583710","HierDyavs2pooq","05","05","1","iti","null","img/motor_7.png","75","motor","","","","","","","",""
"571","584293","HierDyavs2pooq","05","05","1","motor","76","img/motor_8.png","76","motor","8","370","1","0","0","","",""
"null","584403","HierDyavs2pooq","05","05","1","iti","null","img/motor_8.png","76","motor","","","","","","","",""
"606","585017","HierDyavs2pooq","05","05","1","motor","70","img/motor_4.png","70","motor","4","371","1","0","0","","",""
"null","585129","HierDyavs2pooq","05","05","1","iti","null","img/motor_4.png","70","motor","","","","","","","",""
"668","585809","HierDyavs2pooq","05","05","1","motor","68","img/motor_3.png","68","motor","3","372","1","0","0","","",""
"null","585921","HierDyavs2pooq","05","05","1","iti","null","img/motor_3.png","68","motor","","","","","","","",""
"503","586434","HierDyavs2pooq","05","05","1","motor","74","img/motor_6.png","74","motor","6","373","1","0","0","","",""
"null","586544","HierDyavs2pooq","05","05","1","iti","null","img/motor_6.png","74","motor","","","","","","","",""
"472","587026","HierDyavs2pooq","05","05","1","motor","68","img/motor_3.png","68","motor","3","374","1","0","0","","",""
"null","587137","HierDyavs2pooq","05","05","1","iti","null","img/motor_3.png","68","motor","","","","","","","",""
"553","587701","HierDyavs2pooq","05","05","1","motor","72","img/motor_5.png","72","motor","5","375","1","0","0","","",""
"null","587813","HierDyavs2pooq","05","05","1","iti","null","img/motor_5.png","72","motor","","","","","","","",""
"857","588680","HierDyavs2pooq","05","05","1","motor","70","img/motor_4.png","70","motor","4","376","1","0","0","","",""
"null","588792","HierDyavs2pooq","05","05","1","iti","null","img/motor_4.png","70","motor","","","","","","","",""
"811","589613","HierDyavs2pooq","05","05","1","motor","76","img/motor_8.png","76","motor","8","377","1","0","0","","",""
"null","589725","HierDyavs2pooq","05","05","1","iti","null","img/motor_8.png","76","motor","","","","","","","",""
"516","590252","HierDyavs2pooq","05","05","1","motor","75","img/motor_7.png","75","motor","7","378","1","0","0","","",""
"null","590363","HierDyavs2pooq","05","05","1","iti","null","img/motor_7.png","75","motor","","","","","","","",""
"509","590881","HierDyavs2pooq","05","05","1","motor","65","img/motor_1.png","65","motor","1","379","1","0","0","","",""
"null","590993","HierDyavs2pooq","05","05","1","iti","null","img/motor_1.png","65","motor","","","","","","","",""
"381","591384","HierDyavs2pooq","05","05","1","motor","83","img/motor_2.png","83","motor","2","380","1","0","0","","",""
"null","591496","HierDyavs2pooq","05","05","1","iti","null","img/motor_2.png","83","motor","","","","","","","",""
"626","592133","HierDyavs2pooq","05","05","1","motor","72","img/motor_5.png","72","motor","5","381","1","0","0","","",""
"null","592244","HierDyavs2pooq","05","05","1","iti","null","img/motor_5.png","72","motor","","","","","","","",""
"480","592735","HierDyavs2pooq","05","05","1","motor","74","img/motor_6.png","74","motor","6","382","1","0","0","","",""
"null","592845","HierDyavs2pooq","05","05","1","iti","null","img/motor_6.png","74","motor","","","","","","","",""
"644","593499","HierDyavs2pooq","05","05","1","motor","76","img/motor_8.png","76","motor","8","383","1","0","0","","",""
"null","593609","HierDyavs2pooq","05","05","1","iti","null","img/motor_8.png","76","motor","","","","","","","",""
"447","594066","HierDyavs2pooq","05","05","1","motor","75","img/motor_7.png","75","motor","7","384","1","0","0","","",""
"null","594177","HierDyavs2pooq","05","05","1","iti","null","img/motor_7.png","75","motor","","","","","","","",""
"424","594612","HierDyavs2pooq","05","05","1","motor","74","img/motor_6.png","74","motor","6","385","1","0","0","","",""
"null","594723","HierDyavs2pooq","05","05","1","iti","null","img/motor_6.png","74","motor","","","","","","","",""
"487","595218","HierDyavs2pooq","05","05","1","motor","65","img/motor_1.png","65","motor","1","386","1","0","0","","",""
"null","595330","HierDyavs2pooq","05","05","1","iti","null","img/motor_1.png","65","motor","","","","","","","",""
"537","595878","HierDyavs2pooq","05","05","1","motor","70","img/motor_4.png","70","motor","4","387","1","0","0","","",""
"null","595988","HierDyavs2pooq","05","05","1","iti","null","img/motor_4.png","70","motor","","","","","","","",""
"630","596630","HierDyavs2pooq","05","05","1","motor","74","img/motor_6.png","74","motor","6","388","1","0","0","","",""
"null","596742","HierDyavs2pooq","05","05","1","iti","null","img/motor_6.png","74","motor","","","","","","","",""
"593","597344","HierDyavs2pooq","05","05","1","motor","83","img/motor_2.png","83","motor","2","389","1","0","0","","",""
"null","597453","HierDyavs2pooq","05","05","1","iti","null","img/motor_2.png","83","motor","","","","","","","",""
"898","598361","HierDyavs2pooq","05","05","1","motor","75","img/motor_7.png","75","motor","7","390","1","0","0","","",""
"null","598470","HierDyavs2pooq","05","05","1","iti","null","img/motor_7.png","75","motor","","","","","","","",""
"658","599139","HierDyavs2pooq","05","05","1","motor","76","img/motor_8.png","76","motor","8","391","1","0","0","","",""
"null","599252","HierDyavs2pooq","05","05","1","iti","null","img/motor_8.png","76","motor","","","","","","","",""
"569","599831","HierDyavs2pooq","05","05","1","motor","75","img/motor_7.png","75","motor","7","392","1","0","0","","",""
"null","599942","HierDyavs2pooq","05","05","1","iti","null","img/motor_7.png","75","motor","","","","","","","",""
"622","600573","HierDyavs2pooq","05","05","1","motor","70","img/motor_4.png","70","motor","4","393","1","0","0","","",""
"null","600683","HierDyavs2pooq","05","05","1","iti","null","img/motor_4.png","70","motor","","","","","","","",""
"799","601491","HierDyavs2pooq","05","05","1","motor","72","img/motor_6.png","74","motor","6","394","0","1","0","","",""
"447","601947","HierDyavs2pooq","05","05","1","motorRepeat","74","img/motor_6.png","74","motor","6","394","1","0","0","","",""
"null","602056","HierDyavs2pooq","05","05","1","iti","null","img/motor_6.png","74","motor","","","","","","","",""
"527","602591","HierDyavs2pooq","05","05","1","motor","76","img/motor_8.png","76","motor","8","395","1","0","0","","",""
"null","602701","HierDyavs2pooq","05","05","1","iti","null","img/motor_8.png","76","motor","","","","","","","",""
"625","603334","HierDyavs2pooq","05","05","1","motor","68","img/motor_2.png","83","motor","2","396","0","1","0","","",""
"283","603626","HierDyavs2pooq","05","05","1","motorRepeat","83","img/motor_2.png","83","motor","2","396","1","0","0","","",""
"null","603736","HierDyavs2pooq","05","05","1","iti","null","img/motor_2.png","83","motor","","","","","","","",""
"482","604226","HierDyavs2pooq","05","05","1","motor","68","img/motor_3.png","68","motor","3","397","1","0","0","","",""
"null","604336","HierDyavs2pooq","05","05","1","iti","null","img/motor_3.png","68","motor","","","","","","","",""
"375","604720","HierDyavs2pooq","05","05","1","motor","68","img/motor_3.png","68","motor","3","398","1","0","0","","",""
"null","604833","HierDyavs2pooq","05","05","1","iti","null","img/motor_3.png","68","motor","","","","","","","",""
"538","605381","HierDyavs2pooq","05","05","1","motor","83","img/motor_2.png","83","motor","2","399","1","0","0","","",""
"null","605493","HierDyavs2pooq","05","05","1","iti","null","img/motor_2.png","83","motor","","","","","","","",""
"647","606149","HierDyavs2pooq","05","05","1","motor","74","img/motor_6.png","74","motor","6","400","1","0","0","","",""
"null","606259","HierDyavs2pooq","05","05","1","iti","null","img/motor_6.png","74","motor","","","","","","","",""
"464","606731","HierDyavs2pooq","05","05","1","motor","70","img/motor_4.png","70","motor","4","401","1","0","0","","",""
"null","606840","HierDyavs2pooq","05","05","1","iti","null","img/motor_4.png","70","motor","","","","","","","",""
"464","607314","HierDyavs2pooq","05","05","1","motor","65","img/motor_1.png","65","motor","1","402","1","0","0","","",""
"null","607423","HierDyavs2pooq","05","05","1","iti","null","img/motor_1.png","65","motor","","","","","","","",""
"679","608112","HierDyavs2pooq","05","05","1","motor","68","img/motor_3.png","68","motor","3","403","1","0","0","","",""
"null","608221","HierDyavs2pooq","05","05","1","iti","null","img/motor_3.png","68","motor","","","","","","","",""
"524","608753","HierDyavs2pooq","05","05","1","motor","76","img/motor_8.png","76","motor","8","404","1","0","0","","",""
"null","608865","HierDyavs2pooq","05","05","1","iti","null","img/motor_8.png","76","motor","","","","","","","",""
"720","609593","HierDyavs2pooq","05","05","1","motor","83","img/motor_2.png","83","motor","2","405","1","0","0","","",""
"null","609703","HierDyavs2pooq","05","05","1","iti","null","img/motor_2.png","83","motor","","","","","","","",""
"828","610541","HierDyavs2pooq","05","05","1","motor","76","img/motor_8.png","76","motor","8","406","1","0","0","","",""
"null","610654","HierDyavs2pooq","05","05","1","iti","null","img/motor_8.png","76","motor","","","","","","","",""
"637","611299","HierDyavs2pooq","05","05","1","motor","72","img/motor_5.png","72","motor","5","407","1","0","0","","",""
"null","611409","HierDyavs2pooq","05","05","1","iti","null","img/motor_5.png","72","motor","","","","","","","",""
"702","612119","HierDyavs2pooq","05","05","1","motor","75","img/motor_7.png","75","motor","7","408","1","0","0","","",""
"null","612228","HierDyavs2pooq","05","05","1","iti","null","img/motor_7.png","75","motor","","","","","","","",""
"720","612956","HierDyavs2pooq","05","05","1","motor","68","img/motor_3.png","68","motor","3","409","1","0","0","","",""
"null","613066","HierDyavs2pooq","05","05","1","iti","null","img/motor_3.png","68","motor","","","","","","","",""
"665","613742","HierDyavs2pooq","05","05","1","motor","72","img/motor_5.png","72","motor","5","410","1","0","0","","",""
"null","613854","HierDyavs2pooq","05","05","1","iti","null","img/motor_5.png","72","motor","","","","","","","",""
