"rt","time_elapsed","subject","subID","group","day","trialType","phase","key_press","stim","stimNum","corrresp","hierarchy","trialNum","corr","responses"
"1215870.6000000015","1215872","HierDy1lbyvto7","sub13","01","03","","","","","","","","","",""
"","1219924","HierDy1lbyvto7","sub13","01","03","fullscreen","","","","","","","","",""
"22058.29999999702","1241984","HierDy1lbyvto7","sub13","01","03","","prac","","","","","","","",""
"3835.10000000149","1245822","HierDy1lbyvto7","sub13","01","03","","","32","","","","","","",""
"2351.2999999970198","1248174","HierDy1lbyvto7","sub13","01","03","","prac","","","","","","","",""
"771.7999999970198","1248947","HierDy1lbyvto7","sub13","01","03","rl","test","76","img/b_s_stripes.png","4","70","color,shape,pattern","1","0",""
"null","1249958","HierDy1lbyvto7","sub13","01","03","feedback","test","null","","","na","","1","",""
"1602.3000000044703","1251562","HierDy1lbyvto7","sub13","01","03","rl","test","74","img/r_c_stripes.png","6","74","color,shape,pattern","2","1",""
"null","1252569","HierDy1lbyvto7","sub13","01","03","feedback","test","null","","","na","","2","",""
"1075","1253645","HierDy1lbyvto7","sub13","01","03","rl","test","68","img/b_s_dots.png","3","68","color,shape,pattern","3","1",""
"null","1254668","HierDy1lbyvto7","sub13","01","03","feedback","test","null","","","na","","3","",""
"884.1000000014901","1255553","HierDy1lbyvto7","sub13","01","03","rl","test","65","img/b_c_dots.png","1","65","color,shape,pattern","4","1",""
"null","1256565","HierDy1lbyvto7","sub13","01","03","feedback","test","null","","","na","","4","",""
"811.5","1257378","HierDy1lbyvto7","sub13","01","03","rl","test","75","img/r_s_dots.png","7","75","color,shape,pattern","5","1",""
"null","1258399","HierDy1lbyvto7","sub13","01","03","feedback","test","null","","","na","","5","",""
"750.4000000059605","1259151","HierDy1lbyvto7","sub13","01","03","rl","test","72","img/r_c_dots.png","5","72","color,shape,pattern","6","1",""
"null","1260168","HierDy1lbyvto7","sub13","01","03","feedback","test","null","","","na","","6","",""
"1035.6000000014901","1261206","HierDy1lbyvto7","sub13","01","03","rl","test","83","img/b_c_stripes.png","2","83","color,shape,pattern","7","1",""
"null","1262215","HierDy1lbyvto7","sub13","01","03","feedback","test","null","","","na","","7","",""
"1327.8999999985099","1263545","HierDy1lbyvto7","sub13","01","03","rl","test","75","img/r_s_dots.png","7","75","color,shape,pattern","8","1",""
"null","1264569","HierDy1lbyvto7","sub13","01","03","feedback","test","null","","","na","","8","",""
"1241.7999999970198","1265812","HierDy1lbyvto7","sub13","01","03","rl","test","74","img/r_c_stripes.png","6","74","color,shape,pattern","9","1",""
"null","1266819","HierDy1lbyvto7","sub13","01","03","feedback","test","null","","","na","","9","",""
"910.1000000014901","1267731","HierDy1lbyvto7","sub13","01","03","rl","test","72","img/r_s_stripes.png","8","76","color,shape,pattern","10","0",""
"null","1268738","HierDy1lbyvto7","sub13","01","03","feedback","test","null","","","na","","10","",""
"498.3999999985099","1269238","HierDy1lbyvto7","sub13","01","03","rl","test","76","img/r_s_stripes.png","8","76","color,shape,pattern","11","1",""
"null","1270258","HierDy1lbyvto7","sub13","01","03","feedback","test","null","","","na","","11","",""
"821.3999999985099","1271081","HierDy1lbyvto7","sub13","01","03","rl","test","65","img/b_c_dots.png","1","65","color,shape,pattern","12","1",""
"null","1272089","HierDy1lbyvto7","sub13","01","03","feedback","test","null","","","na","","12","",""
"573.3000000044703","1272664","HierDy1lbyvto7","sub13","01","03","rl","test","70","img/b_s_stripes.png","4","70","color,shape,pattern","13","1",""
"null","1273671","HierDy1lbyvto7","sub13","01","03","feedback","test","null","","","na","","13","",""
"564.1999999955297","1274236","HierDy1lbyvto7","sub13","01","03","rl","test","68","img/b_s_dots.png","3","68","color,shape,pattern","14","1",""
"null","1275259","HierDy1lbyvto7","sub13","01","03","feedback","test","null","","","na","","14","",""
"766.3999999985099","1276027","HierDy1lbyvto7","sub13","01","03","rl","test","70","img/b_s_stripes.png","4","70","color,shape,pattern","15","1",""
"null","1277038","HierDy1lbyvto7","sub13","01","03","feedback","test","null","","","na","","15","",""
"772.3999999985099","1277812","HierDy1lbyvto7","sub13","01","03","rl","test","83","img/b_c_stripes.png","2","83","color,shape,pattern","16","1",""
"null","1278818","HierDy1lbyvto7","sub13","01","03","feedback","test","null","","","na","","16","",""
"614.6999999955297","1279434","HierDy1lbyvto7","sub13","01","03","rl","test","76","img/r_s_stripes.png","8","76","color,shape,pattern","17","1",""
"null","1280450","HierDy1lbyvto7","sub13","01","03","feedback","test","null","","","na","","17","",""
"1102.3000000044703","1281554","HierDy1lbyvto7","sub13","01","03","rl","test","74","img/r_c_dots.png","5","72","color,shape,pattern","18","0",""
"null","1282569","HierDy1lbyvto7","sub13","01","03","feedback","test","null","","","na","","18","",""
"923.1000000014901","1283493","HierDy1lbyvto7","sub13","01","03","rl","test","83","img/b_c_stripes.png","2","83","color,shape,pattern","19","1",""
"null","1284508","HierDy1lbyvto7","sub13","01","03","feedback","test","null","","","na","","19","",""
"497.79999999701977","1285008","HierDy1lbyvto7","sub13","01","03","rl","test","72","img/r_c_dots.png","5","72","color,shape,pattern","20","1",""
"null","1286029","HierDy1lbyvto7","sub13","01","03","feedback","test","null","","","na","","20","",""
"1182.1000000014901","1287212","HierDy1lbyvto7","sub13","01","03","rl","test","68","img/b_s_dots.png","3","68","color,shape,pattern","21","1",""
"null","1288229","HierDy1lbyvto7","sub13","01","03","feedback","test","null","","","na","","21","",""
"786.3000000044703","1289016","HierDy1lbyvto7","sub13","01","03","rl","test","75","img/r_s_dots.png","7","75","color,shape,pattern","22","1",""
"null","1290038","HierDy1lbyvto7","sub13","01","03","feedback","test","null","","","na","","22","",""
"1474.6999999955297","1291514","HierDy1lbyvto7","sub13","01","03","rl","test","74","img/r_c_stripes.png","6","74","color,shape,pattern","23","1",""
"null","1292519","HierDy1lbyvto7","sub13","01","03","feedback","test","null","","","na","","23","",""
"1727.0999999940395","1294248","HierDy1lbyvto7","sub13","01","03","rl","test","83","img/b_c_stripes.png","2","83","color,shape,pattern","24","1",""
"null","1295259","HierDy1lbyvto7","sub13","01","03","feedback","test","null","","","na","","24","",""
"437.1000000014901","1295697","HierDy1lbyvto7","sub13","01","03","rl","test","65","img/b_c_dots.png","1","65","color,shape,pattern","25","1",""
"null","1296709","HierDy1lbyvto7","sub13","01","03","feedback","test","null","","","na","","25","",""
"697.2000000029802","1297407","HierDy1lbyvto7","sub13","01","03","rl","test","75","img/r_s_dots.png","7","75","color,shape,pattern","26","1",""
"null","1298419","HierDy1lbyvto7","sub13","01","03","feedback","test","null","","","na","","26","",""
"591.3999999985099","1299012","HierDy1lbyvto7","sub13","01","03","rl","test","76","img/r_s_stripes.png","8","76","color,shape,pattern","27","1",""
"null","1300029","HierDy1lbyvto7","sub13","01","03","feedback","test","null","","","na","","27","",""
"810.8999999985099","1300841","HierDy1lbyvto7","sub13","01","03","rl","test","65","img/b_c_dots.png","1","65","color,shape,pattern","28","1",""
"null","1301859","HierDy1lbyvto7","sub13","01","03","feedback","test","null","","","na","","28","",""
"548.2000000029802","1302408","HierDy1lbyvto7","sub13","01","03","rl","test","65","img/b_c_dots.png","1","65","color,shape,pattern","29","1",""
"null","1303428","HierDy1lbyvto7","sub13","01","03","feedback","test","null","","","na","","29","",""
"631.1000000014901","1304061","HierDy1lbyvto7","sub13","01","03","rl","test","70","img/b_s_stripes.png","4","70","color,shape,pattern","30","1",""
"null","1305069","HierDy1lbyvto7","sub13","01","03","feedback","test","null","","","na","","30","",""
"771.2000000029802","1305842","HierDy1lbyvto7","sub13","01","03","rl","test","68","img/b_s_dots.png","3","68","color,shape,pattern","31","1",""
"null","1306854","HierDy1lbyvto7","sub13","01","03","feedback","test","null","","","na","","31","",""
"864.3000000044703","1307721","HierDy1lbyvto7","sub13","01","03","rl","test","72","img/r_c_dots.png","5","72","color,shape,pattern","32","1",""
"null","1308729","HierDy1lbyvto7","sub13","01","03","feedback","test","null","","","na","","32","",""
"874.1000000014901","1309604","HierDy1lbyvto7","sub13","01","03","rl","test","75","img/r_s_dots.png","7","75","color,shape,pattern","33","1",""
"null","1310629","HierDy1lbyvto7","sub13","01","03","feedback","test","null","","","na","","33","",""
"1242.3999999985099","1311872","HierDy1lbyvto7","sub13","01","03","rl","test","74","img/r_c_stripes.png","6","74","color,shape,pattern","34","1",""
"null","1312889","HierDy1lbyvto7","sub13","01","03","feedback","test","null","","","na","","34","",""
"807.7999999970198","1313698","HierDy1lbyvto7","sub13","01","03","rl","test","70","img/b_s_dots.png","3","68","color,shape,pattern","35","0",""
"null","1314719","HierDy1lbyvto7","sub13","01","03","feedback","test","null","","","na","","35","",""
"1296.3000000044703","1316017","HierDy1lbyvto7","sub13","01","03","rl","test","74","img/r_c_stripes.png","6","74","color,shape,pattern","36","1",""
"null","1317038","HierDy1lbyvto7","sub13","01","03","feedback","test","null","","","na","","36","",""
"957.2000000029802","1317997","HierDy1lbyvto7","sub13","01","03","rl","test","83","img/b_c_stripes.png","2","83","color,shape,pattern","37","1",""
"null","1319018","HierDy1lbyvto7","sub13","01","03","feedback","test","null","","","na","","37","",""
"912.3000000044703","1319932","HierDy1lbyvto7","sub13","01","03","rl","test","75","img/r_s_dots.png","7","75","color,shape,pattern","38","1",""
"null","1320958","HierDy1lbyvto7","sub13","01","03","feedback","test","null","","","na","","38","",""
"775.6999999955297","1321735","HierDy1lbyvto7","sub13","01","03","rl","test","70","img/b_s_stripes.png","4","70","color,shape,pattern","39","1",""
"null","1322758","HierDy1lbyvto7","sub13","01","03","feedback","test","null","","","na","","39","",""
"1545.6000000014901","1324305","HierDy1lbyvto7","sub13","01","03","rl","test","72","img/r_c_dots.png","5","72","color,shape,pattern","40","1",""
"null","1325310","HierDy1lbyvto7","sub13","01","03","feedback","test","null","","","na","","40","",""
"600.7999999970198","1325912","HierDy1lbyvto7","sub13","01","03","rl","test","76","img/r_s_stripes.png","8","76","color,shape,pattern","41","1",""
"null","1326920","HierDy1lbyvto7","sub13","01","03","feedback","test","null","","","na","","41","",""
"870.2999999970198","1327791","HierDy1lbyvto7","sub13","01","03","rl","test","75","img/r_c_stripes.png","6","74","color,shape,pattern","42","0",""
"null","1328808","HierDy1lbyvto7","sub13","01","03","feedback","test","null","","","na","","42","",""
"648.2999999970198","1329458","HierDy1lbyvto7","sub13","01","03","rl","test","74","img/r_c_stripes.png","6","74","color,shape,pattern","43","1",""
"null","1330468","HierDy1lbyvto7","sub13","01","03","feedback","test","null","","","na","","43","",""
"1235.1000000014901","1331705","HierDy1lbyvto7","sub13","01","03","rl","test","68","img/b_c_dots.png","1","65","color,shape,pattern","44","0",""
"null","1332729","HierDy1lbyvto7","sub13","01","03","feedback","test","null","","","na","","44","",""
"603.6999999955297","1333334","HierDy1lbyvto7","sub13","01","03","rl","test","70","img/b_s_stripes.png","4","70","color,shape,pattern","45","1",""
"null","1334358","HierDy1lbyvto7","sub13","01","03","feedback","test","null","","","na","","45","",""
"528.5","1334889","HierDy1lbyvto7","sub13","01","03","rl","test","68","img/b_s_dots.png","3","68","color,shape,pattern","46","1",""
"null","1335909","HierDy1lbyvto7","sub13","01","03","feedback","test","null","","","na","","46","",""
"713.5","1336624","HierDy1lbyvto7","sub13","01","03","rl","test","83","img/b_c_stripes.png","2","83","color,shape,pattern","47","1",""
"null","1337638","HierDy1lbyvto7","sub13","01","03","feedback","test","null","","","na","","47","",""
"661.6000000014901","1338301","HierDy1lbyvto7","sub13","01","03","rl","test","76","img/r_s_stripes.png","8","76","color,shape,pattern","48","1",""
"null","1339318","HierDy1lbyvto7","sub13","01","03","feedback","test","null","","","na","","48","",""
"1267.0999999940395","1340587","HierDy1lbyvto7","sub13","01","03","rl","test","72","img/r_c_dots.png","5","72","color,shape,pattern","49","1",""
"null","1341598","HierDy1lbyvto7","sub13","01","03","feedback","test","null","","","na","","49","",""
"1315.5","1342915","HierDy1lbyvto7","sub13","01","03","rl","test","75","img/r_s_dots.png","7","75","color,shape,pattern","50","1",""
"null","1343937","HierDy1lbyvto7","sub13","01","03","feedback","test","null","","","na","","50","",""
"715.5","1344654","HierDy1lbyvto7","sub13","01","03","rl","test","72","img/r_c_dots.png","5","72","color,shape,pattern","51","1",""
"null","1345658","HierDy1lbyvto7","sub13","01","03","feedback","test","null","","","na","","51","",""
"621.1999999955297","1346281","HierDy1lbyvto7","sub13","01","03","rl","test","76","img/r_s_stripes.png","8","76","color,shape,pattern","52","1",""
"null","1347288","HierDy1lbyvto7","sub13","01","03","feedback","test","null","","","na","","52","",""
"799.2000000029802","1348089","HierDy1lbyvto7","sub13","01","03","rl","test","70","img/b_s_stripes.png","4","70","color,shape,pattern","53","1",""
"null","1349108","HierDy1lbyvto7","sub13","01","03","feedback","test","null","","","na","","53","",""
"734.5","1349844","HierDy1lbyvto7","sub13","01","03","rl","test","68","img/b_s_dots.png","3","68","color,shape,pattern","54","1",""
"null","1350859","HierDy1lbyvto7","sub13","01","03","feedback","test","null","","","na","","54","",""
"835.3999999985099","1351696","HierDy1lbyvto7","sub13","01","03","rl","test","76","img/r_s_stripes.png","8","76","color,shape,pattern","55","1",""
"null","1352711","HierDy1lbyvto7","sub13","01","03","feedback","test","null","","","na","","55","",""
"1120.3000000044703","1353833","HierDy1lbyvto7","sub13","01","03","rl","test","72","img/r_c_dots.png","5","72","color,shape,pattern","56","1",""
"null","1354848","HierDy1lbyvto7","sub13","01","03","feedback","test","null","","","na","","56","",""
"701.5","1355551","HierDy1lbyvto7","sub13","01","03","rl","test","65","img/b_c_dots.png","1","65","color,shape,pattern","57","1",""
"null","1356559","HierDy1lbyvto7","sub13","01","03","feedback","test","null","","","na","","57","",""
"1286.2000000029802","1357846","HierDy1lbyvto7","sub13","01","03","rl","test","74","img/r_c_stripes.png","6","74","color,shape,pattern","58","1",""
"null","1358858","HierDy1lbyvto7","sub13","01","03","feedback","test","null","","","na","","58","",""
"903.1999999955297","1359763","HierDy1lbyvto7","sub13","01","03","rl","test","83","img/b_c_stripes.png","2","83","color,shape,pattern","59","1",""
"null","1360778","HierDy1lbyvto7","sub13","01","03","feedback","test","null","","","na","","59","",""
"819.3999999985099","1361599","HierDy1lbyvto7","sub13","01","03","rl","test","83","img/b_c_stripes.png","2","83","color,shape,pattern","60","1",""
"null","1362618","HierDy1lbyvto7","sub13","01","03","feedback","test","null","","","na","","60","",""
"1493.7999999970198","1364114","HierDy1lbyvto7","sub13","01","03","rl","test","68","img/b_c_dots.png","1","65","color,shape,pattern","61","0",""
"null","1365118","HierDy1lbyvto7","sub13","01","03","feedback","test","null","","","na","","61","",""
"771.7999999970198","1365892","HierDy1lbyvto7","sub13","01","03","rl","test","70","img/b_s_stripes.png","4","70","color,shape,pattern","62","1",""
"null","1366908","HierDy1lbyvto7","sub13","01","03","feedback","test","null","","","na","","62","",""
"803.2000000029802","1367713","HierDy1lbyvto7","sub13","01","03","rl","test","75","img/r_s_dots.png","7","75","color,shape,pattern","63","1",""
"null","1368730","HierDy1lbyvto7","sub13","01","03","feedback","test","null","","","na","","63","",""
"1337.7000000029802","1370070","HierDy1lbyvto7","sub13","01","03","rl","test","68","img/b_s_dots.png","3","68","color,shape,pattern","64","1",""
"null","1371088","HierDy1lbyvto7","sub13","01","03","feedback","test","null","","","na","","64","",""
"1204.3999999985099","1372294","HierDy1lbyvto7","sub13","01","03","rl","test","74","img/r_c_stripes.png","6","74","color,shape,pattern","65","1",""
"null","1373308","HierDy1lbyvto7","sub13","01","03","feedback","test","null","","","na","","65","",""
"831","1374140","HierDy1lbyvto7","sub13","01","03","rl","test","65","img/b_c_dots.png","1","65","color,shape,pattern","66","1",""
"null","1375168","HierDy1lbyvto7","sub13","01","03","feedback","test","null","","","na","","66","",""
"1891.5","1377061","HierDy1lbyvto7","sub13","01","03","rl","test","74","img/r_c_dots.png","5","72","color,shape,pattern","67","0",""
"null","1378079","HierDy1lbyvto7","sub13","01","03","feedback","test","null","","","na","","67","",""
"1224","1379304","HierDy1lbyvto7","sub13","01","03","rl","test","70","img/b_s_stripes.png","4","70","color,shape,pattern","68","1",""
"null","1380320","HierDy1lbyvto7","sub13","01","03","feedback","test","null","","","na","","68","",""
"834.1000000014901","1381155","HierDy1lbyvto7","sub13","01","03","rl","test","76","img/r_s_stripes.png","8","76","color,shape,pattern","69","1",""
"null","1382159","HierDy1lbyvto7","sub13","01","03","feedback","test","null","","","na","","69","",""
"547.7000000029802","1382707","HierDy1lbyvto7","sub13","01","03","rl","test","76","img/r_s_stripes.png","8","76","color,shape,pattern","70","1",""
"null","1383719","HierDy1lbyvto7","sub13","01","03","feedback","test","null","","","na","","70","",""
"1886","1385606","HierDy1lbyvto7","sub13","01","03","rl","test","70","img/b_s_stripes.png","4","70","color,shape,pattern","71","1",""
"null","1386619","HierDy1lbyvto7","sub13","01","03","feedback","test","null","","","na","","71","",""
"1494.8000000044703","1388115","HierDy1lbyvto7","sub13","01","03","rl","test","75","img/r_s_dots.png","7","75","color,shape,pattern","72","1",""
"null","1389119","HierDy1lbyvto7","sub13","01","03","feedback","test","null","","","na","","72","",""
"943.8999999985099","1390064","HierDy1lbyvto7","sub13","01","03","rl","test","83","img/b_c_stripes.png","2","83","color,shape,pattern","73","1",""
"null","1391079","HierDy1lbyvto7","sub13","01","03","feedback","test","null","","","na","","73","",""
"1071.2000000029802","1392151","HierDy1lbyvto7","sub13","01","03","rl","test","68","img/b_s_dots.png","3","68","color,shape,pattern","74","1",""
"null","1393159","HierDy1lbyvto7","sub13","01","03","feedback","test","null","","","na","","74","",""
"1871.9000000059605","1395032","HierDy1lbyvto7","sub13","01","03","rl","test","83","img/b_c_stripes.png","2","83","color,shape,pattern","75","1",""
"null","1396051","HierDy1lbyvto7","sub13","01","03","feedback","test","null","","","na","","75","",""
"886.8000000044703","1396939","HierDy1lbyvto7","sub13","01","03","rl","test","75","img/r_s_dots.png","7","75","color,shape,pattern","76","1",""
"null","1397950","HierDy1lbyvto7","sub13","01","03","feedback","test","null","","","na","","76","",""
"877.7000000029802","1398830","HierDy1lbyvto7","sub13","01","03","rl","test","68","img/b_s_dots.png","3","68","color,shape,pattern","77","1",""
"null","1399849","HierDy1lbyvto7","sub13","01","03","feedback","test","null","","","na","","77","",""
"873.0999999940395","1400723","HierDy1lbyvto7","sub13","01","03","rl","test","72","img/r_c_dots.png","5","72","color,shape,pattern","78","1",""
"null","1401728","HierDy1lbyvto7","sub13","01","03","feedback","test","null","","","na","","78","",""
"889.3000000044703","1402619","HierDy1lbyvto7","sub13","01","03","rl","test","74","img/r_c_stripes.png","6","74","color,shape,pattern","79","1",""
"null","1403635","HierDy1lbyvto7","sub13","01","03","feedback","test","null","","","na","","79","",""
"819.1000000014901","1404455","HierDy1lbyvto7","sub13","01","03","rl","test","65","img/b_c_dots.png","1","65","color,shape,pattern","80","1",""
"null","1405470","HierDy1lbyvto7","sub13","01","03","feedback","test","null","","","na","","80","",""
"726.8999999985099","1406198","HierDy1lbyvto7","sub13","01","03","rl","test","74","img/r_c_stripes.png","6","74","color,shape,pattern","81","1",""
"null","1407209","HierDy1lbyvto7","sub13","01","03","feedback","test","null","","","na","","81","",""
"1210.3999999985099","1408421","HierDy1lbyvto7","sub13","01","03","rl","test","76","img/r_s_stripes.png","8","76","color,shape,pattern","82","1",""
"null","1409449","HierDy1lbyvto7","sub13","01","03","feedback","test","null","","","na","","82","",""
"593","1410043","HierDy1lbyvto7","sub13","01","03","rl","test","68","img/b_s_dots.png","3","68","color,shape,pattern","83","1",""
"null","1411048","HierDy1lbyvto7","sub13","01","03","feedback","test","null","","","na","","83","",""
"929.7000000029802","1411979","HierDy1lbyvto7","sub13","01","03","rl","test","75","img/r_s_dots.png","7","75","color,shape,pattern","84","1",""
"null","1412984","HierDy1lbyvto7","sub13","01","03","feedback","test","null","","","na","","84","",""
"706.6000000014901","1413692","HierDy1lbyvto7","sub13","01","03","rl","test","65","img/b_c_dots.png","1","65","color,shape,pattern","85","1",""
"null","1414718","HierDy1lbyvto7","sub13","01","03","feedback","test","null","","","na","","85","",""
"680.5","1415400","HierDy1lbyvto7","sub13","01","03","rl","test","70","img/b_s_stripes.png","4","70","color,shape,pattern","86","1",""
"null","1416418","HierDy1lbyvto7","sub13","01","03","feedback","test","null","","","na","","86","",""
"749.7000000029802","1417169","HierDy1lbyvto7","sub13","01","03","rl","test","83","img/b_c_stripes.png","2","83","color,shape,pattern","87","1",""
"null","1418179","HierDy1lbyvto7","sub13","01","03","feedback","test","null","","","na","","87","",""
"782.1000000014901","1418962","HierDy1lbyvto7","sub13","01","03","rl","test","72","img/r_c_dots.png","5","72","color,shape,pattern","88","1",""
"null","1419978","HierDy1lbyvto7","sub13","01","03","feedback","test","null","","","na","","88","",""
"710.6000000014901","1420690","HierDy1lbyvto7","sub13","01","03","rl","test","72","img/r_c_dots.png","5","72","color,shape,pattern","89","1",""
"null","1421708","HierDy1lbyvto7","sub13","01","03","feedback","test","null","","","na","","89","",""
"796","1422506","HierDy1lbyvto7","sub13","01","03","rl","test","68","img/b_s_dots.png","3","68","color,shape,pattern","90","1",""
"null","1423519","HierDy1lbyvto7","sub13","01","03","feedback","test","null","","","na","","90","",""
"718.2000000029802","1424239","HierDy1lbyvto7","sub13","01","03","rl","test","75","img/r_s_dots.png","7","75","color,shape,pattern","91","1",""
"null","1425259","HierDy1lbyvto7","sub13","01","03","feedback","test","null","","","na","","91","",""
"1003.6000000014901","1426264","HierDy1lbyvto7","sub13","01","03","rl","test","83","img/b_c_stripes.png","2","83","color,shape,pattern","92","1",""
"null","1427288","HierDy1lbyvto7","sub13","01","03","feedback","test","null","","","na","","92","",""
"683","1427973","HierDy1lbyvto7","sub13","01","03","rl","test","76","img/r_s_stripes.png","8","76","color,shape,pattern","93","1",""
"null","1428989","HierDy1lbyvto7","sub13","01","03","feedback","test","null","","","na","","93","",""
"846.7999999970198","1429837","HierDy1lbyvto7","sub13","01","03","rl","test","65","img/b_c_dots.png","1","65","color,shape,pattern","94","1",""
"null","1430849","HierDy1lbyvto7","sub13","01","03","feedback","test","null","","","na","","94","",""
"961.6999999955297","1431812","HierDy1lbyvto7","sub13","01","03","rl","test","74","img/r_c_stripes.png","6","74","color,shape,pattern","95","1",""
"null","1432820","HierDy1lbyvto7","sub13","01","03","feedback","test","null","","","na","","95","",""
"765.6000000014901","1433587","HierDy1lbyvto7","sub13","01","03","rl","test","65","img/b_c_dots.png","1","65","color,shape,pattern","96","1",""
"null","1434608","HierDy1lbyvto7","sub13","01","03","feedback","test","null","","","na","","96","",""
"592.1999999955297","1435202","HierDy1lbyvto7","sub13","01","03","rl","test","70","img/b_s_stripes.png","4","70","color,shape,pattern","97","1",""
"null","1436209","HierDy1lbyvto7","sub13","01","03","feedback","test","null","","","na","","97","",""
"787.1000000014901","1436998","HierDy1lbyvto7","sub13","01","03","rl","test","68","img/b_s_dots.png","3","68","color,shape,pattern","98","1",""
"null","1438019","HierDy1lbyvto7","sub13","01","03","feedback","test","null","","","na","","98","",""
"646.5","1438667","HierDy1lbyvto7","sub13","01","03","rl","test","74","img/r_c_stripes.png","6","74","color,shape,pattern","99","1",""
"null","1439689","HierDy1lbyvto7","sub13","01","03","feedback","test","null","","","na","","99","",""
"615.1000000014901","1440306","HierDy1lbyvto7","sub13","01","03","rl","test","70","img/b_s_stripes.png","4","70","color,shape,pattern","100","1",""
"null","1441318","HierDy1lbyvto7","sub13","01","03","feedback","test","null","","","na","","100","",""
"627.3000000044703","1441947","HierDy1lbyvto7","sub13","01","03","rl","test","76","img/r_s_stripes.png","8","76","color,shape,pattern","101","1",""
"null","1442964","HierDy1lbyvto7","sub13","01","03","feedback","test","null","","","na","","101","",""
"1956.4000000059605","1444922","HierDy1lbyvto7","sub13","01","03","rl","test","72","img/r_c_dots.png","5","72","color,shape,pattern","102","1",""
"null","1445928","HierDy1lbyvto7","sub13","01","03","feedback","test","null","","","na","","102","",""
"576.8999999985099","1446507","HierDy1lbyvto7","sub13","01","03","rl","test","72","img/r_c_dots.png","5","72","color,shape,pattern","103","1",""
"null","1447529","HierDy1lbyvto7","sub13","01","03","feedback","test","null","","","na","","103","",""
"663.8999999985099","1448194","HierDy1lbyvto7","sub13","01","03","rl","test","68","img/b_s_dots.png","3","68","color,shape,pattern","104","1",""
"null","1449208","HierDy1lbyvto7","sub13","01","03","feedback","test","null","","","na","","104","",""
"1129.1999999955297","1450339","HierDy1lbyvto7","sub13","01","03","rl","test","83","img/b_c_stripes.png","2","83","color,shape,pattern","105","1",""
"null","1451349","HierDy1lbyvto7","sub13","01","03","feedback","test","null","","","na","","105","",""
"1251.5","1452602","HierDy1lbyvto7","sub13","01","03","rl","test","75","img/r_s_dots.png","7","75","color,shape,pattern","106","1",""
"null","1453618","HierDy1lbyvto7","sub13","01","03","feedback","test","null","","","na","","106","",""
"812.5","1454432","HierDy1lbyvto7","sub13","01","03","rl","test","83","img/b_c_stripes.png","2","83","color,shape,pattern","107","1",""
"null","1455449","HierDy1lbyvto7","sub13","01","03","feedback","test","null","","","na","","107","",""
"1066","1456516","HierDy1lbyvto7","sub13","01","03","rl","test","65","img/b_c_dots.png","1","65","color,shape,pattern","108","1",""
"null","1457539","HierDy1lbyvto7","sub13","01","03","feedback","test","null","","","na","","108","",""
"1707.3999999985099","1459248","HierDy1lbyvto7","sub13","01","03","rl","test","75","img/r_s_dots.png","7","75","color,shape,pattern","109","1",""
"null","1460259","HierDy1lbyvto7","sub13","01","03","feedback","test","null","","","na","","109","",""
"462.20000000298023","1460722","HierDy1lbyvto7","sub13","01","03","rl","test","76","img/r_s_stripes.png","8","76","color,shape,pattern","110","1",""
"null","1461732","HierDy1lbyvto7","sub13","01","03","feedback","test","null","","","na","","110","",""
"690.3000000044703","1462423","HierDy1lbyvto7","sub13","01","03","rl","test","70","img/b_s_stripes.png","4","70","color,shape,pattern","111","1",""
"null","1463439","HierDy1lbyvto7","sub13","01","03","feedback","test","null","","","na","","111","",""
"617.8999999985099","1464058","HierDy1lbyvto7","sub13","01","03","rl","test","70","img/b_s_stripes.png","4","70","color,shape,pattern","112","1",""
"null","1465070","HierDy1lbyvto7","sub13","01","03","feedback","test","null","","","na","","112","",""
"1588.1000000014901","1466659","HierDy1lbyvto7","sub13","01","03","rl","test","74","img/r_c_stripes.png","6","74","color,shape,pattern","113","1",""
"null","1467677","HierDy1lbyvto7","sub13","01","03","feedback","test","null","","","na","","113","",""
"860.3999999985099","1468539","HierDy1lbyvto7","sub13","01","03","rl","test","65","img/b_c_dots.png","1","65","color,shape,pattern","114","1",""
"null","1469545","HierDy1lbyvto7","sub13","01","03","feedback","test","null","","","na","","114","",""
"1748.1000000014901","1471294","HierDy1lbyvto7","sub13","01","03","rl","test","76","img/r_s_stripes.png","8","76","color,shape,pattern","115","1",""
"null","1472309","HierDy1lbyvto7","sub13","01","03","feedback","test","null","","","na","","115","",""
"960.3000000044703","1473271","HierDy1lbyvto7","sub13","01","03","rl","test","75","img/r_s_dots.png","7","75","color,shape,pattern","116","1",""
"null","1474290","HierDy1lbyvto7","sub13","01","03","feedback","test","null","","","na","","116","",""
"925.8000000044703","1475218","HierDy1lbyvto7","sub13","01","03","rl","test","83","img/b_c_stripes.png","2","83","color,shape,pattern","117","1",""
"null","1476230","HierDy1lbyvto7","sub13","01","03","feedback","test","null","","","na","","117","",""
"1574.8999999985099","1477807","HierDy1lbyvto7","sub13","01","03","rl","test","72","img/r_c_dots.png","5","72","color,shape,pattern","118","1",""
"null","1478819","HierDy1lbyvto7","sub13","01","03","feedback","test","null","","","na","","118","",""
"804.6000000014901","1479625","HierDy1lbyvto7","sub13","01","03","rl","test","68","img/b_s_dots.png","3","68","color,shape,pattern","119","1",""
"null","1480638","HierDy1lbyvto7","sub13","01","03","feedback","test","null","","","na","","119","",""
"1168.3999999985099","1481808","HierDy1lbyvto7","sub13","01","03","rl","test","74","img/r_c_stripes.png","6","74","color,shape,pattern","120","1",""
"null","1482829","HierDy1lbyvto7","sub13","01","03","feedback","test","null","","","na","","120","",""
"1074.8999999985099","1483905","HierDy1lbyvto7","sub13","01","03","rl","test","83","img/b_c_stripes.png","2","83","color,shape,pattern","121","1",""
"null","1484910","HierDy1lbyvto7","sub13","01","03","feedback","test","null","","","na","","121","",""
"1301.8999999985099","1486213","HierDy1lbyvto7","sub13","01","03","rl","test","65","img/b_c_dots.png","1","65","color,shape,pattern","122","1",""
"null","1487229","HierDy1lbyvto7","sub13","01","03","feedback","test","null","","","na","","122","",""
"1239.7000000029802","1488470","HierDy1lbyvto7","sub13","01","03","rl","test","72","img/r_c_dots.png","5","72","color,shape,pattern","123","1",""
"null","1489479","HierDy1lbyvto7","sub13","01","03","feedback","test","null","","","na","","123","",""
"1428.5","1490909","HierDy1lbyvto7","sub13","01","03","rl","test","76","img/r_s_stripes.png","8","76","color,shape,pattern","124","1",""
"null","1491929","HierDy1lbyvto7","sub13","01","03","feedback","test","null","","","na","","124","",""
"715.8999999985099","1492647","HierDy1lbyvto7","sub13","01","03","rl","test","70","img/b_s_stripes.png","4","70","color,shape,pattern","125","1",""
"null","1493664","HierDy1lbyvto7","sub13","01","03","feedback","test","null","","","na","","125","",""
"1066.3999999985099","1494732","HierDy1lbyvto7","sub13","01","03","rl","test","74","img/r_c_stripes.png","6","74","color,shape,pattern","126","1",""
"null","1495749","HierDy1lbyvto7","sub13","01","03","feedback","test","null","","","na","","126","",""
"779.7000000029802","1496530","HierDy1lbyvto7","sub13","01","03","rl","test","72","img/r_c_dots.png","5","72","color,shape,pattern","127","1",""
"null","1497549","HierDy1lbyvto7","sub13","01","03","feedback","test","null","","","na","","127","",""
"1147.1000000014901","1498698","HierDy1lbyvto7","sub13","01","03","rl","test","75","img/r_s_dots.png","7","75","color,shape,pattern","128","1",""
"null","1499715","HierDy1lbyvto7","sub13","01","03","feedback","test","null","","","na","","128","",""
"1385.8000000044703","1501102","HierDy1lbyvto7","sub13","01","03","rl","test","68","img/b_s_dots.png","3","68","color,shape,pattern","129","1",""
"null","1502117","HierDy1lbyvto7","sub13","01","03","feedback","test","null","","","na","","129","",""
"844","1502962","HierDy1lbyvto7","sub13","01","03","rl","test","68","img/b_s_dots.png","3","68","color,shape,pattern","130","1",""
"null","1503969","HierDy1lbyvto7","sub13","01","03","feedback","test","null","","","na","","130","",""
"870.6999999955297","1504841","HierDy1lbyvto7","sub13","01","03","rl","test","75","img/r_s_dots.png","7","75","color,shape,pattern","131","1",""
"null","1505850","HierDy1lbyvto7","sub13","01","03","feedback","test","null","","","na","","131","",""
"845.5","1506697","HierDy1lbyvto7","sub13","01","03","rl","test","65","img/b_c_dots.png","1","65","color,shape,pattern","132","1",""
"null","1507703","HierDy1lbyvto7","sub13","01","03","feedback","test","null","","","na","","132","",""
"774.2000000029802","1508478","HierDy1lbyvto7","sub13","01","03","rl","test","76","img/r_s_stripes.png","8","76","color,shape,pattern","133","1",""
"null","1509499","HierDy1lbyvto7","sub13","01","03","feedback","test","null","","","na","","133","",""
"986.3000000044703","1510487","HierDy1lbyvto7","sub13","01","03","rl","test","83","img/b_c_stripes.png","2","83","color,shape,pattern","134","1",""
"null","1511499","HierDy1lbyvto7","sub13","01","03","feedback","test","null","","","na","","134","",""
"1081.3000000044703","1512582","HierDy1lbyvto7","sub13","01","03","rl","test","76","img/r_s_stripes.png","8","76","color,shape,pattern","135","1",""
"null","1513605","HierDy1lbyvto7","sub13","01","03","feedback","test","null","","","na","","135","",""
"861.5","1514468","HierDy1lbyvto7","sub13","01","03","rl","test","70","img/b_s_stripes.png","4","70","color,shape,pattern","136","1",""
"null","1515489","HierDy1lbyvto7","sub13","01","03","feedback","test","null","","","na","","136","",""
"690.6000000014901","1516181","HierDy1lbyvto7","sub13","01","03","rl","test","68","img/b_s_dots.png","3","68","color,shape,pattern","137","1",""
"null","1517199","HierDy1lbyvto7","sub13","01","03","feedback","test","null","","","na","","137","",""
"1183.7000000029802","1518384","HierDy1lbyvto7","sub13","01","03","rl","test","74","img/r_c_stripes.png","6","74","color,shape,pattern","138","1",""
"null","1519405","HierDy1lbyvto7","sub13","01","03","feedback","test","null","","","na","","138","",""
"808.5999999940395","1520215","HierDy1lbyvto7","sub13","01","03","rl","test","75","img/r_s_dots.png","7","75","color,shape,pattern","139","1",""
"null","1521235","HierDy1lbyvto7","sub13","01","03","feedback","test","null","","","na","","139","",""
"675.7000000029802","1521912","HierDy1lbyvto7","sub13","01","03","rl","test","70","img/b_s_stripes.png","4","70","color,shape,pattern","140","1",""
"null","1522919","HierDy1lbyvto7","sub13","01","03","feedback","test","null","","","na","","140","",""
"1575.9000000059605","1524496","HierDy1lbyvto7","sub13","01","03","rl","test","72","img/r_c_dots.png","5","72","color,shape,pattern","141","1",""
"null","1525519","HierDy1lbyvto7","sub13","01","03","feedback","test","null","","","na","","141","",""
"968.5","1526489","HierDy1lbyvto7","sub13","01","03","rl","test","83","img/b_c_stripes.png","2","83","color,shape,pattern","142","1",""
"null","1527509","HierDy1lbyvto7","sub13","01","03","feedback","test","null","","","na","","142","",""
"1208.8999999985099","1528719","HierDy1lbyvto7","sub13","01","03","rl","test","74","img/r_c_stripes.png","6","74","color,shape,pattern","143","1",""
"null","1529741","HierDy1lbyvto7","sub13","01","03","feedback","test","null","","","na","","143","",""
"978.5999999940395","1530721","HierDy1lbyvto7","sub13","01","03","rl","test","65","img/b_c_dots.png","1","65","color,shape,pattern","144","1",""
"null","1531741","HierDy1lbyvto7","sub13","01","03","feedback","test","null","","","na","","144","",""
"1327.0999999940395","1533069","HierDy1lbyvto7","sub13","01","03","rl","test","74","img/r_c_stripes.png","6","74","color,shape,pattern","145","1",""
"null","1534077","HierDy1lbyvto7","sub13","01","03","feedback","test","null","","","na","","145","",""
"633.3000000044703","1534712","HierDy1lbyvto7","sub13","01","03","rl","test","70","img/b_s_stripes.png","4","70","color,shape,pattern","146","1",""
"null","1535724","HierDy1lbyvto7","sub13","01","03","feedback","test","null","","","na","","146","",""
"938.8999999985099","1536665","HierDy1lbyvto7","sub13","01","03","rl","test","65","img/b_c_dots.png","1","65","color,shape,pattern","147","1",""
"null","1537675","HierDy1lbyvto7","sub13","01","03","feedback","test","null","","","na","","147","",""
"635.5","1538312","HierDy1lbyvto7","sub13","01","03","rl","test","76","img/r_s_stripes.png","8","76","color,shape,pattern","148","1",""
"null","1539319","HierDy1lbyvto7","sub13","01","03","feedback","test","null","","","na","","148","",""
"782.3999999985099","1540103","HierDy1lbyvto7","sub13","01","03","rl","test","83","img/b_c_stripes.png","2","83","color,shape,pattern","149","1",""
"null","1541110","HierDy1lbyvto7","sub13","01","03","feedback","test","null","","","na","","149","",""
"868.6000000014901","1541979","HierDy1lbyvto7","sub13","01","03","rl","test","75","img/r_s_dots.png","7","75","color,shape,pattern","150","1",""
"null","1542994","HierDy1lbyvto7","sub13","01","03","feedback","test","null","","","na","","150","",""
"792.3999999985099","1543788","HierDy1lbyvto7","sub13","01","03","rl","test","68","img/b_s_dots.png","3","68","color,shape,pattern","151","1",""
"null","1544795","HierDy1lbyvto7","sub13","01","03","feedback","test","null","","","na","","151","",""
"704.8999999985099","1545501","HierDy1lbyvto7","sub13","01","03","rl","test","68","img/b_s_dots.png","3","68","color,shape,pattern","152","1",""
"null","1546529","HierDy1lbyvto7","sub13","01","03","feedback","test","null","","","na","","152","",""
"580.5","1547111","HierDy1lbyvto7","sub13","01","03","rl","test","76","img/r_s_stripes.png","8","76","color,shape,pattern","153","1",""
"null","1548129","HierDy1lbyvto7","sub13","01","03","feedback","test","null","","","na","","153","",""
"1082.5","1549213","HierDy1lbyvto7","sub13","01","03","rl","test","75","img/r_s_dots.png","7","75","color,shape,pattern","154","1",""
"null","1550229","HierDy1lbyvto7","sub13","01","03","feedback","test","null","","","na","","154","",""
"779.2999999970198","1551010","HierDy1lbyvto7","sub13","01","03","rl","test","72","img/r_c_dots.png","5","72","color,shape,pattern","155","1",""
"null","1552015","HierDy1lbyvto7","sub13","01","03","feedback","test","null","","","na","","155","",""
"766","1552782","HierDy1lbyvto7","sub13","01","03","rl","test","65","img/b_c_dots.png","1","65","color,shape,pattern","156","1",""
"null","1553799","HierDy1lbyvto7","sub13","01","03","feedback","test","null","","","na","","156","",""
"921.2000000029802","1554722","HierDy1lbyvto7","sub13","01","03","rl","test","72","img/r_c_dots.png","5","72","color,shape,pattern","157","1",""
"null","1555732","HierDy1lbyvto7","sub13","01","03","feedback","test","null","","","na","","157","",""
"1334.0999999940395","1557067","HierDy1lbyvto7","sub13","01","03","rl","test","74","img/r_c_stripes.png","6","74","color,shape,pattern","158","1",""
"null","1558084","HierDy1lbyvto7","sub13","01","03","feedback","test","null","","","na","","158","",""
"1456.1000000014901","1559541","HierDy1lbyvto7","sub13","01","03","rl","test","83","img/b_c_stripes.png","2","83","color,shape,pattern","159","1",""
"null","1560564","HierDy1lbyvto7","sub13","01","03","feedback","test","null","","","na","","159","",""
"682.2000000029802","1561247","HierDy1lbyvto7","sub13","01","03","rl","test","70","img/b_s_stripes.png","4","70","color,shape,pattern","160","1",""
"null","1562259","HierDy1lbyvto7","sub13","01","03","feedback","test","null","","","na","","160","",""
"805.2000000029802","1563066","HierDy1lbyvto7","sub13","01","03","rl","test","70","img/b_s_stripes.png","4","70","color,shape,pattern","161","1",""
"null","1564088","HierDy1lbyvto7","sub13","01","03","feedback","test","null","","","na","","161","",""
"791.3999999985099","1564881","HierDy1lbyvto7","sub13","01","03","rl","test","83","img/b_c_stripes.png","2","83","color,shape,pattern","162","1",""
"null","1565900","HierDy1lbyvto7","sub13","01","03","feedback","test","null","","","na","","162","",""
"982.1000000014901","1566883","HierDy1lbyvto7","sub13","01","03","rl","test","72","img/r_c_dots.png","5","72","color,shape,pattern","163","1",""
"null","1567901","HierDy1lbyvto7","sub13","01","03","feedback","test","null","","","na","","163","",""
"854.9000000059605","1568758","HierDy1lbyvto7","sub13","01","03","rl","test","68","img/b_s_dots.png","3","68","color,shape,pattern","164","1",""
"null","1569769","HierDy1lbyvto7","sub13","01","03","feedback","test","null","","","na","","164","",""
"1140.1000000014901","1570910","HierDy1lbyvto7","sub13","01","03","rl","test","74","img/r_c_stripes.png","6","74","color,shape,pattern","165","1",""
"null","1571928","HierDy1lbyvto7","sub13","01","03","feedback","test","null","","","na","","165","",""
"1436.6999999955297","1573366","HierDy1lbyvto7","sub13","01","03","rl","test","65","img/b_c_dots.png","1","65","color,shape,pattern","166","1",""
"null","1574388","HierDy1lbyvto7","sub13","01","03","feedback","test","null","","","na","","166","",""
"534.1000000014901","1574924","HierDy1lbyvto7","sub13","01","03","rl","test","65","img/b_c_dots.png","1","65","color,shape,pattern","167","1",""
"null","1575939","HierDy1lbyvto7","sub13","01","03","feedback","test","null","","","na","","167","",""
"701.2000000029802","1576642","HierDy1lbyvto7","sub13","01","03","rl","test","76","img/r_s_stripes.png","8","76","color,shape,pattern","168","1",""
"null","1577651","HierDy1lbyvto7","sub13","01","03","feedback","test","null","","","na","","168","",""
"709.6000000014901","1578362","HierDy1lbyvto7","sub13","01","03","rl","test","75","img/r_s_dots.png","7","75","color,shape,pattern","169","1",""
"null","1579371","HierDy1lbyvto7","sub13","01","03","feedback","test","null","","","na","","169","",""
"1034.6000000014901","1580407","HierDy1lbyvto7","sub13","01","03","rl","test","74","img/r_c_stripes.png","6","74","color,shape,pattern","170","1",""
"null","1581421","HierDy1lbyvto7","sub13","01","03","feedback","test","null","","","na","","170","",""
"757.5","1582180","HierDy1lbyvto7","sub13","01","03","rl","test","72","img/r_c_dots.png","5","72","color,shape,pattern","171","1",""
"null","1583208","HierDy1lbyvto7","sub13","01","03","feedback","test","null","","","na","","171","",""
"645.5","1583856","HierDy1lbyvto7","sub13","01","03","rl","test","76","img/r_s_stripes.png","8","76","color,shape,pattern","172","1",""
"null","1584871","HierDy1lbyvto7","sub13","01","03","feedback","test","null","","","na","","172","",""
"741.0999999940395","1585613","HierDy1lbyvto7","sub13","01","03","rl","test","68","img/b_s_dots.png","3","68","color,shape,pattern","173","1",""
"null","1586625","HierDy1lbyvto7","sub13","01","03","feedback","test","null","","","na","","173","",""
"712.8999999985099","1587339","HierDy1lbyvto7","sub13","01","03","rl","test","76","img/r_s_stripes.png","8","76","color,shape,pattern","174","1",""
"null","1588349","HierDy1lbyvto7","sub13","01","03","feedback","test","null","","","na","","174","",""
"960.3000000044703","1589311","HierDy1lbyvto7","sub13","01","03","rl","test","75","img/r_s_dots.png","7","75","color,shape,pattern","175","1",""
"null","1590319","HierDy1lbyvto7","sub13","01","03","feedback","test","null","","","na","","175","",""
"1158.6000000014901","1591479","HierDy1lbyvto7","sub13","01","03","rl","test","70","img/b_s_stripes.png","4","70","color,shape,pattern","176","1",""
"null","1592492","HierDy1lbyvto7","sub13","01","03","feedback","test","null","","","na","","176","",""
"1092.6999999955297","1593586","HierDy1lbyvto7","sub13","01","03","rl","test","83","img/b_c_stripes.png","2","83","color,shape,pattern","177","1",""
"null","1594597","HierDy1lbyvto7","sub13","01","03","feedback","test","null","","","na","","177","",""
"1386.7000000029802","1595985","HierDy1lbyvto7","sub13","01","03","rl","test","75","img/r_s_dots.png","7","75","color,shape,pattern","178","1",""
"null","1596999","HierDy1lbyvto7","sub13","01","03","feedback","test","null","","","na","","178","",""
"866.3999999985099","1597866","HierDy1lbyvto7","sub13","01","03","rl","test","72","img/r_c_dots.png","5","72","color,shape,pattern","179","1",""
"null","1598874","HierDy1lbyvto7","sub13","01","03","feedback","test","null","","","na","","179","",""
"994.3000000044703","1599870","HierDy1lbyvto7","sub13","01","03","rl","test","68","img/b_s_dots.png","3","68","color,shape,pattern","180","1",""
"null","1600892","HierDy1lbyvto7","sub13","01","03","feedback","test","null","","","na","","180","",""
"1294.3999999985099","1602188","HierDy1lbyvto7","sub13","01","03","rl","test","74","img/r_c_stripes.png","6","74","color,shape,pattern","181","1",""
"null","1603204","HierDy1lbyvto7","sub13","01","03","feedback","test","null","","","na","","181","",""
"820.5","1604025","HierDy1lbyvto7","sub13","01","03","rl","test","65","img/b_c_dots.png","1","65","color,shape,pattern","182","1",""
"null","1605045","HierDy1lbyvto7","sub13","01","03","feedback","test","null","","","na","","182","",""
"603.3000000044703","1605650","HierDy1lbyvto7","sub13","01","03","rl","test","83","img/b_c_stripes.png","2","83","color,shape,pattern","183","1",""
"null","1606661","HierDy1lbyvto7","sub13","01","03","feedback","test","null","","","na","","183","",""
"983.1000000014901","1607646","HierDy1lbyvto7","sub13","01","03","rl","test","72","img/r_c_dots.png","5","72","color,shape,pattern","184","1",""
"null","1608661","HierDy1lbyvto7","sub13","01","03","feedback","test","null","","","na","","184","",""
"1105.3999999985099","1609768","HierDy1lbyvto7","sub13","01","03","rl","test","70","img/b_s_stripes.png","4","70","color,shape,pattern","185","1",""
"null","1610779","HierDy1lbyvto7","sub13","01","03","feedback","test","null","","","na","","185","",""
"1321.2000000029802","1612101","HierDy1lbyvto7","sub13","01","03","rl","test","65","img/b_c_dots.png","1","65","color,shape,pattern","186","1",""
"null","1613121","HierDy1lbyvto7","sub13","01","03","feedback","test","null","","","na","","186","",""
"667.2000000029802","1613790","HierDy1lbyvto7","sub13","01","03","rl","test","70","img/b_s_stripes.png","4","70","color,shape,pattern","187","1",""
"null","1614799","HierDy1lbyvto7","sub13","01","03","feedback","test","null","","","na","","187","",""
"824.6000000014901","1615625","HierDy1lbyvto7","sub13","01","03","rl","test","76","img/r_s_stripes.png","8","76","color,shape,pattern","188","1",""
"null","1616631","HierDy1lbyvto7","sub13","01","03","feedback","test","null","","","na","","188","",""
"653","1617285","HierDy1lbyvto7","sub13","01","03","rl","test","75","img/r_s_dots.png","7","75","color,shape,pattern","189","1",""
"null","1618300","HierDy1lbyvto7","sub13","01","03","feedback","test","null","","","na","","189","",""
"1571.2999999970198","1619873","HierDy1lbyvto7","sub13","01","03","rl","test","68","img/b_s_dots.png","3","68","color,shape,pattern","190","1",""
"null","1620880","HierDy1lbyvto7","sub13","01","03","feedback","test","null","","","na","","190","",""
"624.3000000044703","1621506","HierDy1lbyvto7","sub13","01","03","rl","test","68","img/b_s_dots.png","3","68","color,shape,pattern","191","1",""
"null","1622509","HierDy1lbyvto7","sub13","01","03","feedback","test","null","","","na","","191","",""
"939.2000000029802","1623450","HierDy1lbyvto7","sub13","01","03","rl","test","74","img/r_c_stripes.png","6","74","color,shape,pattern","192","1",""
"null","1624465","HierDy1lbyvto7","sub13","01","03","feedback","test","null","","","na","","192","",""
"1013.6999999955297","1625480","HierDy1lbyvto7","sub13","01","03","rl","test","83","img/b_c_stripes.png","2","83","color,shape,pattern","193","1",""
"null","1626501","HierDy1lbyvto7","sub13","01","03","feedback","test","null","","","na","","193","",""
"618.5","1627121","HierDy1lbyvto7","sub13","01","03","rl","test","65","img/b_c_dots.png","1","65","color,shape,pattern","194","1",""
"null","1628135","HierDy1lbyvto7","sub13","01","03","feedback","test","null","","","na","","194","",""
"1145.3000000044703","1629282","HierDy1lbyvto7","sub13","01","03","rl","test","74","img/r_c_stripes.png","6","74","color,shape,pattern","195","1",""
"null","1630301","HierDy1lbyvto7","sub13","01","03","feedback","test","null","","","na","","195","",""
"822.6000000014901","1631125","HierDy1lbyvto7","sub13","01","03","rl","test","72","img/r_c_dots.png","5","72","color,shape,pattern","196","1",""
"null","1632139","HierDy1lbyvto7","sub13","01","03","feedback","test","null","","","na","","196","",""
"888.8999999985099","1633029","HierDy1lbyvto7","sub13","01","03","rl","test","70","img/b_s_stripes.png","4","70","color,shape,pattern","197","1",""
"null","1634050","HierDy1lbyvto7","sub13","01","03","feedback","test","null","","","na","","197","",""
"1738.3000000044703","1635790","HierDy1lbyvto7","sub13","01","03","rl","test","83","img/b_c_stripes.png","2","83","color,shape,pattern","198","1",""
"null","1636809","HierDy1lbyvto7","sub13","01","03","feedback","test","null","","","na","","198","",""
"738.1000000014901","1637549","HierDy1lbyvto7","sub13","01","03","rl","test","76","img/r_s_stripes.png","8","76","color,shape,pattern","199","1",""
"null","1638571","HierDy1lbyvto7","sub13","01","03","feedback","test","null","","","na","","199","",""
"617.9000000059605","1639191","HierDy1lbyvto7","sub13","01","03","rl","test","65","img/b_c_dots.png","1","65","color,shape,pattern","200","1",""
"null","1640199","HierDy1lbyvto7","sub13","01","03","feedback","test","null","","","na","","200","",""
"937","1641138","HierDy1lbyvto7","sub13","01","03","rl","test","75","img/r_s_dots.png","7","75","color,shape,pattern","201","1",""
"null","1642145","HierDy1lbyvto7","sub13","01","03","feedback","test","null","","","na","","201","",""
"602.8999999985099","1642750","HierDy1lbyvto7","sub13","01","03","rl","test","75","img/r_s_dots.png","7","75","color,shape,pattern","202","1",""
"null","1643760","HierDy1lbyvto7","sub13","01","03","feedback","test","null","","","na","","202","",""
"648.8000000044703","1644410","HierDy1lbyvto7","sub13","01","03","rl","test","76","img/r_s_stripes.png","8","76","color,shape,pattern","203","1",""
"null","1645425","HierDy1lbyvto7","sub13","01","03","feedback","test","null","","","na","","203","",""
"1428.2999999970198","1646854","HierDy1lbyvto7","sub13","01","03","rl","test","68","img/b_s_dots.png","3","68","color,shape,pattern","204","1",""
"null","1647871","HierDy1lbyvto7","sub13","01","03","feedback","test","null","","","na","","204","",""
"833.3999999985099","1648706","HierDy1lbyvto7","sub13","01","03","rl","test","72","img/r_c_dots.png","5","72","color,shape,pattern","205","1",""
"null","1649725","HierDy1lbyvto7","sub13","01","03","feedback","test","null","","","na","","205","",""
"885.6000000014901","1650612","HierDy1lbyvto7","sub13","01","03","rl","test","83","img/b_c_stripes.png","2","83","color,shape,pattern","206","1",""
"null","1651638","HierDy1lbyvto7","sub13","01","03","feedback","test","null","","","na","","206","",""
"1060.7000000029802","1652701","HierDy1lbyvto7","sub13","01","03","rl","test","72","img/r_c_dots.png","5","72","color,shape,pattern","207","1",""
"null","1653725","HierDy1lbyvto7","sub13","01","03","feedback","test","null","","","na","","207","",""
"715.5","1654442","HierDy1lbyvto7","sub13","01","03","rl","test","74","img/r_c_stripes.png","6","74","color,shape,pattern","208","1",""
"null","1655459","HierDy1lbyvto7","sub13","01","03","feedback","test","null","","","na","","208","",""
"874.3999999985099","1656335","HierDy1lbyvto7","sub13","01","03","rl","test","75","img/r_s_dots.png","7","75","color,shape,pattern","209","1",""
"null","1657359","HierDy1lbyvto7","sub13","01","03","feedback","test","null","","","na","","209","",""
"1098.1999999955297","1658458","HierDy1lbyvto7","sub13","01","03","rl","test","70","img/b_s_stripes.png","4","70","color,shape,pattern","210","1",""
"null","1659460","HierDy1lbyvto7","sub13","01","03","feedback","test","null","","","na","","210","",""
"1731.6000000014901","1661193","HierDy1lbyvto7","sub13","01","03","rl","test","74","img/r_c_stripes.png","6","74","color,shape,pattern","211","1",""
"null","1662209","HierDy1lbyvto7","sub13","01","03","feedback","test","null","","","na","","211","",""
"557.7000000029802","1662768","HierDy1lbyvto7","sub13","01","03","rl","test","76","img/r_s_stripes.png","8","76","color,shape,pattern","212","1",""
"null","1663776","HierDy1lbyvto7","sub13","01","03","feedback","test","null","","","na","","212","",""
"1064.6000000014901","1664842","HierDy1lbyvto7","sub13","01","03","rl","test","70","img/b_s_stripes.png","4","70","color,shape,pattern","213","1",""
"null","1665861","HierDy1lbyvto7","sub13","01","03","feedback","test","null","","","na","","213","",""
"775.8999999985099","1666638","HierDy1lbyvto7","sub13","01","03","rl","test","65","img/b_c_dots.png","1","65","color,shape,pattern","214","1",""
"null","1667660","HierDy1lbyvto7","sub13","01","03","feedback","test","null","","","na","","214","",""
"608.8999999985099","1668270","HierDy1lbyvto7","sub13","01","03","rl","test","70","img/b_s_stripes.png","4","70","color,shape,pattern","215","1",""
"null","1669279","HierDy1lbyvto7","sub13","01","03","feedback","test","null","","","na","","215","",""
"793.5999999940395","1670074","HierDy1lbyvto7","sub13","01","03","rl","test","68","img/b_s_dots.png","3","68","color,shape,pattern","216","1",""
"null","1671078","HierDy1lbyvto7","sub13","01","03","feedback","test","null","","","na","","216","",""
"654.6000000014901","1671734","HierDy1lbyvto7","sub13","01","03","rl","test","68","img/b_s_dots.png","3","68","color,shape,pattern","217","1",""
"null","1672745","HierDy1lbyvto7","sub13","01","03","feedback","test","null","","","na","","217","",""
"746","1673492","HierDy1lbyvto7","sub13","01","03","rl","test","65","img/b_c_dots.png","1","65","color,shape,pattern","218","1",""
"null","1674508","HierDy1lbyvto7","sub13","01","03","feedback","test","null","","","na","","218","",""
"989.1999999955297","1675499","HierDy1lbyvto7","sub13","01","03","rl","test","83","img/b_c_stripes.png","2","83","color,shape,pattern","219","1",""
"null","1676519","HierDy1lbyvto7","sub13","01","03","feedback","test","null","","","na","","219","",""
"603.0999999940395","1677124","HierDy1lbyvto7","sub13","01","03","rl","test","83","img/b_c_stripes.png","2","83","color,shape,pattern","220","1",""
"null","1678131","HierDy1lbyvto7","sub13","01","03","feedback","test","null","","","na","","220","",""
"592.1000000014901","1678724","HierDy1lbyvto7","sub13","01","03","rl","test","72","img/r_c_dots.png","5","72","color,shape,pattern","221","1",""
"null","1679749","HierDy1lbyvto7","sub13","01","03","feedback","test","null","","","na","","221","",""
"883.1000000014901","1680633","HierDy1lbyvto7","sub13","01","03","rl","test","76","img/r_s_stripes.png","8","76","color,shape,pattern","222","1",""
"null","1681649","HierDy1lbyvto7","sub13","01","03","feedback","test","null","","","na","","222","",""
"778.5","1682429","HierDy1lbyvto7","sub13","01","03","rl","test","75","img/r_s_dots.png","7","75","color,shape,pattern","223","1",""
"null","1683449","HierDy1lbyvto7","sub13","01","03","feedback","test","null","","","na","","223","",""
"699.3999999985099","1684150","HierDy1lbyvto7","sub13","01","03","rl","test","65","img/b_c_dots.png","1","65","color,shape,pattern","224","1",""
"null","1685169","HierDy1lbyvto7","sub13","01","03","feedback","test","null","","","na","","224","",""
"580.7000000029802","1685751","HierDy1lbyvto7","sub13","01","03","rl","test","83","img/b_c_stripes.png","2","83","color,shape,pattern","225","1",""
"null","1686764","HierDy1lbyvto7","sub13","01","03","feedback","test","null","","","na","","225","",""
"1410.3999999985099","1688176","HierDy1lbyvto7","sub13","01","03","rl","test","74","img/r_c_stripes.png","6","74","color,shape,pattern","226","1",""
"null","1689189","HierDy1lbyvto7","sub13","01","03","feedback","test","null","","","na","","226","",""
"503.90000000596046","1689695","HierDy1lbyvto7","sub13","01","03","rl","test","72","img/r_c_dots.png","5","72","color,shape,pattern","227","1",""
"null","1690709","HierDy1lbyvto7","sub13","01","03","feedback","test","null","","","na","","227","",""
"525","1691236","HierDy1lbyvto7","sub13","01","03","rl","test","74","img/r_c_stripes.png","6","74","color,shape,pattern","228","1",""
"null","1692251","HierDy1lbyvto7","sub13","01","03","feedback","test","null","","","na","","228","",""
"648.2999999970198","1692901","HierDy1lbyvto7","sub13","01","03","rl","test","76","img/r_s_stripes.png","8","76","color,shape,pattern","229","1",""
"null","1693924","HierDy1lbyvto7","sub13","01","03","feedback","test","null","","","na","","229","",""
"619.9000000059605","1694545","HierDy1lbyvto7","sub13","01","03","rl","test","70","img/b_s_stripes.png","4","70","color,shape,pattern","230","1",""
"null","1695559","HierDy1lbyvto7","sub13","01","03","feedback","test","null","","","na","","230","",""
"798.6000000014901","1696359","HierDy1lbyvto7","sub13","01","03","rl","test","75","img/r_s_dots.png","7","75","color,shape,pattern","231","1",""
"null","1697369","HierDy1lbyvto7","sub13","01","03","feedback","test","null","","","na","","231","",""
"1255.6000000014901","1698626","HierDy1lbyvto7","sub13","01","03","rl","test","68","img/b_s_dots.png","3","68","color,shape,pattern","232","1",""
"null","1699636","HierDy1lbyvto7","sub13","01","03","feedback","test","null","","","na","","232","",""
"739.4000000059605","1700377","HierDy1lbyvto7","sub13","01","03","rl","test","70","img/b_s_stripes.png","4","70","color,shape,pattern","233","1",""
"null","1701389","HierDy1lbyvto7","sub13","01","03","feedback","test","null","","","na","","233","",""
"1610.6000000014901","1703001","HierDy1lbyvto7","sub13","01","03","rl","test","83","img/b_c_stripes.png","2","83","color,shape,pattern","234","1",""
"null","1704021","HierDy1lbyvto7","sub13","01","03","feedback","test","null","","","na","","234","",""
"719","1704741","HierDy1lbyvto7","sub13","01","03","rl","test","75","img/r_s_dots.png","7","75","color,shape,pattern","235","1",""
"null","1705757","HierDy1lbyvto7","sub13","01","03","feedback","test","null","","","na","","235","",""
"656.2999999970198","1706415","HierDy1lbyvto7","sub13","01","03","rl","test","76","img/r_s_stripes.png","8","76","color,shape,pattern","236","1",""
"null","1707424","HierDy1lbyvto7","sub13","01","03","feedback","test","null","","","na","","236","",""
"1116","1708542","HierDy1lbyvto7","sub13","01","03","rl","test","68","img/b_s_dots.png","3","68","color,shape,pattern","237","1",""
"null","1709555","HierDy1lbyvto7","sub13","01","03","feedback","test","null","","","na","","237","",""
"992.8000000044703","1710549","HierDy1lbyvto7","sub13","01","03","rl","test","72","img/r_c_dots.png","5","72","color,shape,pattern","238","1",""
"null","1711564","HierDy1lbyvto7","sub13","01","03","feedback","test","null","","","na","","238","",""
"800.5","1712366","HierDy1lbyvto7","sub13","01","03","rl","test","65","img/b_c_dots.png","1","65","color,shape,pattern","239","1",""
"null","1713389","HierDy1lbyvto7","sub13","01","03","feedback","test","null","","","na","","239","",""
"1200.2000000029802","1714591","HierDy1lbyvto7","sub13","01","03","rl","test","74","img/r_c_stripes.png","6","74","color,shape,pattern","240","1",""
"null","1715609","HierDy1lbyvto7","sub13","01","03","feedback","test","null","","","na","","240","",""
"845.5","1716456","HierDy1lbyvto7","sub13","01","03","rl","test","74","img/r_c_dots.png","5","72","color,shape,pattern","241","0",""
"null","1717470","HierDy1lbyvto7","sub13","01","03","feedback","test","null","","","na","","241","",""
"896.7999999970198","1718368","HierDy1lbyvto7","sub13","01","03","rl","test","75","img/r_s_dots.png","7","75","color,shape,pattern","242","1",""
"null","1719375","HierDy1lbyvto7","sub13","01","03","feedback","test","null","","","na","","242","",""
"1651","1721027","HierDy1lbyvto7","sub13","01","03","rl","test","83","img/b_c_stripes.png","2","83","color,shape,pattern","243","1",""
"null","1722044","HierDy1lbyvto7","sub13","01","03","feedback","test","null","","","na","","243","",""
"590.0999999940395","1722635","HierDy1lbyvto7","sub13","01","03","rl","test","65","img/b_c_dots.png","1","65","color,shape,pattern","244","1",""
"null","1723649","HierDy1lbyvto7","sub13","01","03","feedback","test","null","","","na","","244","",""
"813.1000000014901","1724463","HierDy1lbyvto7","sub13","01","03","rl","test","70","img/b_s_stripes.png","4","70","color,shape,pattern","245","1",""
"null","1725477","HierDy1lbyvto7","sub13","01","03","feedback","test","null","","","na","","245","",""
"1418.3999999985099","1726897","HierDy1lbyvto7","sub13","01","03","rl","test","76","img/r_s_stripes.png","8","76","color,shape,pattern","246","1",""
"null","1727909","HierDy1lbyvto7","sub13","01","03","feedback","test","null","","","na","","246","",""
"1247.3999999985099","1729158","HierDy1lbyvto7","sub13","01","03","rl","test","83","img/b_c_stripes.png","2","83","color,shape,pattern","247","1",""
"null","1730180","HierDy1lbyvto7","sub13","01","03","feedback","test","null","","","na","","247","",""
"1612","1731793","HierDy1lbyvto7","sub13","01","03","rl","test","74","img/r_c_stripes.png","6","74","color,shape,pattern","248","1",""
"null","1732812","HierDy1lbyvto7","sub13","01","03","feedback","test","null","","","na","","248","",""
"14754.10000000149","1747572","HierDy1lbyvto7","sub13","01","03","","","","","","","","","","{""Q0"":""5""}"
"8795.5","1756372","HierDy1lbyvto7","sub13","01","03","","","","","","","","","","{""Q0"":""i really concentrated""}"
"2437.4000000059605","1758810","HierDy1lbyvto7","sub13","01","03","","","","","","","","","",""
