"rt","time_elapsed","subject","subID","group","day","trialType","phase","key_press","stim","stimNum","corrresp","hierarchy","trialNum","corr","responses"
"19574.300000190735","19577","HierDyb1wpppvd","sub03","03","5","","","","","","","","","",""
"","23680","HierDyb1wpppvd","sub03","03","5","fullscreen","","","","","","","","",""
"2864.699999809265","26545","HierDyb1wpppvd","sub03","03","5","","prac","","","","","","","",""
"712.3000001907349","27260","HierDyb1wpppvd","sub03","03","5","","","32","","","","","","",""
"1443.8000001907349","28704","HierDyb1wpppvd","sub03","03","5","","prac","","","","","","","",""
"1945.4000000953674","30651","HierDyb1wpppvd","sub03","03","5","rl","test","83","img/r_c_diag.png","2","83","color,pattern,shape","1","1",""
"null","31660","HierDyb1wpppvd","sub03","03","5","feedback","test","null","","","na","","1","",""
"752.7999997138977","32414","HierDyb1wpppvd","sub03","03","5","rl","test","75","img/p_t_dots.png","7","75","color,pattern,shape","2","1",""
"null","33416","HierDyb1wpppvd","sub03","03","5","feedback","test","null","","","na","","2","",""
"561.9000000953674","33979","HierDyb1wpppvd","sub03","03","5","rl","test","74","img/p_c_diag.png","6","74","color,pattern,shape","3","1",""
"null","34989","HierDyb1wpppvd","sub03","03","5","feedback","test","null","","","na","","3","",""
"996.3000001907349","35986","HierDyb1wpppvd","sub03","03","5","rl","test","68","img/r_t_dots.png","3","68","color,pattern,shape","4","1",""
"null","36994","HierDyb1wpppvd","sub03","03","5","feedback","test","null","","","na","","4","",""
"985","37980","HierDyb1wpppvd","sub03","03","5","rl","test","65","img/r_t_diag.png","1","65","color,pattern,shape","5","1",""
"null","38987","HierDyb1wpppvd","sub03","03","5","feedback","test","null","","","na","","5","",""
"769.5","39757","HierDyb1wpppvd","sub03","03","5","rl","test","70","img/r_c_dots.png","4","70","color,pattern,shape","6","1",""
"null","40762","HierDyb1wpppvd","sub03","03","5","feedback","test","null","","","na","","6","",""
"615.3999996185303","41379","HierDyb1wpppvd","sub03","03","5","rl","test","74","img/p_c_diag.png","6","74","color,pattern,shape","7","1",""
"null","42384","HierDyb1wpppvd","sub03","03","5","feedback","test","null","","","na","","7","",""
"811.5","43196","HierDyb1wpppvd","sub03","03","5","rl","test","76","img/p_c_dots.png","8","76","color,pattern,shape","8","1",""
"null","44204","HierDyb1wpppvd","sub03","03","5","feedback","test","null","","","na","","8","",""
"637.4000000953674","44842","HierDyb1wpppvd","sub03","03","5","rl","test","72","img/p_t_diag.png","5","72","color,pattern,shape","9","1",""
"null","45853","HierDyb1wpppvd","sub03","03","5","feedback","test","null","","","na","","9","",""
"810.5","46665","HierDyb1wpppvd","sub03","03","5","rl","test","68","img/r_t_dots.png","3","68","color,pattern,shape","10","1",""
"null","47677","HierDyb1wpppvd","sub03","03","5","feedback","test","null","","","na","","10","",""
"892.0999999046326","48570","HierDyb1wpppvd","sub03","03","5","rl","test","72","img/p_t_diag.png","5","72","color,pattern,shape","11","1",""
"null","49576","HierDyb1wpppvd","sub03","03","5","feedback","test","null","","","na","","11","",""
"963.1999998092651","50540","HierDyb1wpppvd","sub03","03","5","rl","test","83","img/r_c_diag.png","2","83","color,pattern,shape","12","1",""
"null","51544","HierDyb1wpppvd","sub03","03","5","feedback","test","null","","","na","","12","",""
"866.5999999046326","52411","HierDyb1wpppvd","sub03","03","5","rl","test","68","img/r_t_dots.png","3","68","color,pattern,shape","13","1",""
"null","53416","HierDyb1wpppvd","sub03","03","5","feedback","test","null","","","na","","13","",""
"588.9000000953674","54006","HierDyb1wpppvd","sub03","03","5","rl","test","65","img/r_t_diag.png","1","65","color,pattern,shape","14","1",""
"null","55017","HierDyb1wpppvd","sub03","03","5","feedback","test","null","","","na","","14","",""
"673.9000000953674","55692","HierDyb1wpppvd","sub03","03","5","rl","test","75","img/p_t_dots.png","7","75","color,pattern,shape","15","1",""
"null","56697","HierDyb1wpppvd","sub03","03","5","feedback","test","null","","","na","","15","",""
"640.9000000953674","57339","HierDyb1wpppvd","sub03","03","5","rl","test","76","img/p_c_dots.png","8","76","color,pattern,shape","16","1",""
"null","58345","HierDyb1wpppvd","sub03","03","5","feedback","test","null","","","na","","16","",""
"1069","59415","HierDyb1wpppvd","sub03","03","5","rl","test","70","img/r_c_dots.png","4","70","color,pattern,shape","17","1",""
"null","60421","HierDyb1wpppvd","sub03","03","5","feedback","test","null","","","na","","17","",""
"650.1999998092651","61072","HierDyb1wpppvd","sub03","03","5","rl","test","70","img/r_c_dots.png","4","70","color,pattern,shape","18","1",""
"null","62086","HierDyb1wpppvd","sub03","03","5","feedback","test","null","","","na","","18","",""
"685.9000000953674","62772","HierDyb1wpppvd","sub03","03","5","rl","test","83","img/r_c_diag.png","2","83","color,pattern,shape","19","1",""
"null","63778","HierDyb1wpppvd","sub03","03","5","feedback","test","null","","","na","","19","",""
"1136.9000000953674","64916","HierDyb1wpppvd","sub03","03","5","rl","test","76","img/p_c_dots.png","8","76","color,pattern,shape","20","1",""
"null","65926","HierDyb1wpppvd","sub03","03","5","feedback","test","null","","","na","","20","",""
"667.1999998092651","66594","HierDyb1wpppvd","sub03","03","5","rl","test","74","img/p_c_diag.png","6","74","color,pattern,shape","21","1",""
"null","67601","HierDyb1wpppvd","sub03","03","5","feedback","test","null","","","na","","21","",""
"909.5","68511","HierDyb1wpppvd","sub03","03","5","rl","test","65","img/r_t_diag.png","1","65","color,pattern,shape","22","1",""
"null","69516","HierDyb1wpppvd","sub03","03","5","feedback","test","null","","","na","","22","",""
"892.8000001907349","70410","HierDyb1wpppvd","sub03","03","5","rl","test","72","img/p_t_diag.png","5","72","color,pattern,shape","23","1",""
"null","71422","HierDyb1wpppvd","sub03","03","5","feedback","test","null","","","na","","23","",""
"707.7999997138977","72132","HierDyb1wpppvd","sub03","03","5","rl","test","75","img/p_t_dots.png","7","75","color,pattern,shape","24","1",""
"null","73142","HierDyb1wpppvd","sub03","03","5","feedback","test","null","","","na","","24","",""
"557.5999999046326","73700","HierDyb1wpppvd","sub03","03","5","rl","test","72","img/p_t_diag.png","5","72","color,pattern,shape","25","1",""
"null","74708","HierDyb1wpppvd","sub03","03","5","feedback","test","null","","","na","","25","",""
"588.3000001907349","75297","HierDyb1wpppvd","sub03","03","5","rl","test","74","img/p_c_diag.png","6","74","color,pattern,shape","26","1",""
"null","76306","HierDyb1wpppvd","sub03","03","5","feedback","test","null","","","na","","26","",""
"844","77151","HierDyb1wpppvd","sub03","03","5","rl","test","70","img/r_t_dots.png","3","68","color,pattern,shape","27","0",""
"null","78154","HierDyb1wpppvd","sub03","03","5","feedback","test","null","","","na","","27","",""
"610.1999998092651","78765","HierDyb1wpppvd","sub03","03","5","rl","test","65","img/r_t_diag.png","1","65","color,pattern,shape","28","1",""
"null","79770","HierDyb1wpppvd","sub03","03","5","feedback","test","null","","","na","","28","",""
"700.6000003814697","80471","HierDyb1wpppvd","sub03","03","5","rl","test","83","img/r_c_diag.png","2","83","color,pattern,shape","29","1",""
"null","81477","HierDyb1wpppvd","sub03","03","5","feedback","test","null","","","na","","29","",""
"740.4000000953674","82219","HierDyb1wpppvd","sub03","03","5","rl","test","83","img/r_c_diag.png","2","83","color,pattern,shape","30","1",""
"null","83226","HierDyb1wpppvd","sub03","03","5","feedback","test","null","","","na","","30","",""
"627.2999997138977","83854","HierDyb1wpppvd","sub03","03","5","rl","test","70","img/r_c_dots.png","4","70","color,pattern,shape","31","1",""
"null","84858","HierDyb1wpppvd","sub03","03","5","feedback","test","null","","","na","","31","",""
"1027","85886","HierDyb1wpppvd","sub03","03","5","rl","test","70","img/r_c_dots.png","4","70","color,pattern,shape","32","1",""
"null","86894","HierDyb1wpppvd","sub03","03","5","feedback","test","null","","","na","","32","",""
"794.2999997138977","87689","HierDyb1wpppvd","sub03","03","5","rl","test","76","img/p_c_dots.png","8","76","color,pattern,shape","33","1",""
"null","88701","HierDyb1wpppvd","sub03","03","5","feedback","test","null","","","na","","33","",""
"746.5","89448","HierDyb1wpppvd","sub03","03","5","rl","test","75","img/p_t_dots.png","7","75","color,pattern,shape","34","1",""
"null","90458","HierDyb1wpppvd","sub03","03","5","feedback","test","null","","","na","","34","",""
"750.5999999046326","91210","HierDyb1wpppvd","sub03","03","5","rl","test","65","img/r_t_diag.png","1","65","color,pattern,shape","35","1",""
"null","92218","HierDyb1wpppvd","sub03","03","5","feedback","test","null","","","na","","35","",""
"660.7000002861023","92880","HierDyb1wpppvd","sub03","03","5","rl","test","75","img/p_t_dots.png","7","75","color,pattern,shape","36","1",""
"null","93885","HierDyb1wpppvd","sub03","03","5","feedback","test","null","","","na","","36","",""
"574.4000000953674","94461","HierDyb1wpppvd","sub03","03","5","rl","test","76","img/p_c_dots.png","8","76","color,pattern,shape","37","1",""
"null","95465","HierDyb1wpppvd","sub03","03","5","feedback","test","null","","","na","","37","",""
"880.8000001907349","96347","HierDyb1wpppvd","sub03","03","5","rl","test","68","img/r_t_dots.png","3","68","color,pattern,shape","38","1",""
"null","97358","HierDyb1wpppvd","sub03","03","5","feedback","test","null","","","na","","38","",""
"553.7000002861023","97913","HierDyb1wpppvd","sub03","03","5","rl","test","72","img/p_t_diag.png","5","72","color,pattern,shape","39","1",""
"null","98923","HierDyb1wpppvd","sub03","03","5","feedback","test","null","","","na","","39","",""
"525.7999997138977","99449","HierDyb1wpppvd","sub03","03","5","rl","test","74","img/p_c_diag.png","6","74","color,pattern,shape","40","1",""
"null","100462","HierDyb1wpppvd","sub03","03","5","feedback","test","null","","","na","","40","",""
"598.1999998092651","101062","HierDyb1wpppvd","sub03","03","5","rl","test","75","img/p_t_dots.png","7","75","color,pattern,shape","41","1",""
"null","102066","HierDyb1wpppvd","sub03","03","5","feedback","test","null","","","na","","41","",""
"559.4000000953674","102626","HierDyb1wpppvd","sub03","03","5","rl","test","72","img/p_t_diag.png","5","72","color,pattern,shape","42","1",""
"null","103639","HierDyb1wpppvd","sub03","03","5","feedback","test","null","","","na","","42","",""
"648.7999997138977","104288","HierDyb1wpppvd","sub03","03","5","rl","test","76","img/p_c_dots.png","8","76","color,pattern,shape","43","1",""
"null","105290","HierDyb1wpppvd","sub03","03","5","feedback","test","null","","","na","","43","",""
"658.2999997138977","105949","HierDyb1wpppvd","sub03","03","5","rl","test","74","img/p_c_diag.png","6","74","color,pattern,shape","44","1",""
"null","106954","HierDyb1wpppvd","sub03","03","5","feedback","test","null","","","na","","44","",""
"728.3000001907349","107683","HierDyb1wpppvd","sub03","03","5","rl","test","83","img/r_c_diag.png","2","83","color,pattern,shape","45","1",""
"null","108695","HierDyb1wpppvd","sub03","03","5","feedback","test","null","","","na","","45","",""
"636.9000000953674","109332","HierDyb1wpppvd","sub03","03","5","rl","test","68","img/r_t_dots.png","3","68","color,pattern,shape","46","1",""
"null","110339","HierDyb1wpppvd","sub03","03","5","feedback","test","null","","","na","","46","",""
"573.1000003814697","110912","HierDyb1wpppvd","sub03","03","5","rl","test","70","img/r_c_dots.png","4","70","color,pattern,shape","47","1",""
"null","111915","HierDyb1wpppvd","sub03","03","5","feedback","test","null","","","na","","47","",""
"570.6000003814697","112487","HierDyb1wpppvd","sub03","03","5","rl","test","65","img/r_t_diag.png","1","65","color,pattern,shape","48","1",""
"null","113492","HierDyb1wpppvd","sub03","03","5","feedback","test","null","","","na","","48","",""
"634.4000000953674","114127","HierDyb1wpppvd","sub03","03","5","rl","test","65","img/r_t_diag.png","1","65","color,pattern,shape","49","1",""
"null","115130","HierDyb1wpppvd","sub03","03","5","feedback","test","null","","","na","","49","",""
"736","115867","HierDyb1wpppvd","sub03","03","5","rl","test","76","img/p_c_dots.png","8","76","color,pattern,shape","50","1",""
"null","116874","HierDyb1wpppvd","sub03","03","5","feedback","test","null","","","na","","50","",""
"797.8000001907349","117673","HierDyb1wpppvd","sub03","03","5","rl","test","68","img/r_t_dots.png","3","68","color,pattern,shape","51","1",""
"null","118676","HierDyb1wpppvd","sub03","03","5","feedback","test","null","","","na","","51","",""
"569.3000001907349","119246","HierDyb1wpppvd","sub03","03","5","rl","test","72","img/p_t_diag.png","5","72","color,pattern,shape","52","1",""
"null","120251","HierDyb1wpppvd","sub03","03","5","feedback","test","null","","","na","","52","",""
"906.9000000953674","121159","HierDyb1wpppvd","sub03","03","5","rl","test","70","img/r_c_dots.png","4","70","color,pattern,shape","53","1",""
"null","122165","HierDyb1wpppvd","sub03","03","5","feedback","test","null","","","na","","53","",""
"601","122767","HierDyb1wpppvd","sub03","03","5","rl","test","83","img/r_c_diag.png","2","83","color,pattern,shape","54","1",""
"null","123775","HierDyb1wpppvd","sub03","03","5","feedback","test","null","","","na","","54","",""
"612.6999998092651","124389","HierDyb1wpppvd","sub03","03","5","rl","test","74","img/p_c_diag.png","6","74","color,pattern,shape","55","1",""
"null","125395","HierDyb1wpppvd","sub03","03","5","feedback","test","null","","","na","","55","",""
"830.3999996185303","126226","HierDyb1wpppvd","sub03","03","5","rl","test","75","img/p_t_dots.png","7","75","color,pattern,shape","56","1",""
"null","127236","HierDyb1wpppvd","sub03","03","5","feedback","test","null","","","na","","56","",""
"686.8000001907349","127923","HierDyb1wpppvd","sub03","03","5","rl","test","74","img/p_c_diag.png","6","74","color,pattern,shape","57","1",""
"null","128931","HierDyb1wpppvd","sub03","03","5","feedback","test","null","","","na","","57","",""
"683.3000001907349","129616","HierDyb1wpppvd","sub03","03","5","rl","test","83","img/r_c_diag.png","2","83","color,pattern,shape","58","1",""
"null","130619","HierDyb1wpppvd","sub03","03","5","feedback","test","null","","","na","","58","",""
"680.0999999046326","131300","HierDyb1wpppvd","sub03","03","5","rl","test","75","img/p_t_dots.png","7","75","color,pattern,shape","59","1",""
"null","132310","HierDyb1wpppvd","sub03","03","5","feedback","test","null","","","na","","59","",""
"798.5","133110","HierDyb1wpppvd","sub03","03","5","rl","test","70","img/r_c_dots.png","4","70","color,pattern,shape","60","1",""
"null","134115","HierDyb1wpppvd","sub03","03","5","feedback","test","null","","","na","","60","",""
"647.1999998092651","134763","HierDyb1wpppvd","sub03","03","5","rl","test","65","img/r_t_diag.png","1","65","color,pattern,shape","61","1",""
"null","135771","HierDyb1wpppvd","sub03","03","5","feedback","test","null","","","na","","61","",""
"1032.1999998092651","136804","HierDyb1wpppvd","sub03","03","5","rl","test","76","img/p_c_dots.png","8","76","color,pattern,shape","62","1",""
"null","137815","HierDyb1wpppvd","sub03","03","5","feedback","test","null","","","na","","62","",""
"537.0999999046326","138353","HierDyb1wpppvd","sub03","03","5","rl","test","74","img/p_t_diag.png","5","72","color,pattern,shape","63","0",""
"null","139356","HierDyb1wpppvd","sub03","03","5","feedback","test","null","","","na","","63","",""
"1645.6999998092651","141002","HierDyb1wpppvd","sub03","03","5","rl","test","68","img/r_t_dots.png","3","68","color,pattern,shape","64","1",""
"null","142012","HierDyb1wpppvd","sub03","03","5","feedback","test","null","","","na","","64","",""
"529.2999997138977","142542","HierDyb1wpppvd","sub03","03","5","rl","test","68","img/r_t_dots.png","3","68","color,pattern,shape","65","1",""
"null","143551","HierDyb1wpppvd","sub03","03","5","feedback","test","null","","","na","","65","",""
"964.5999999046326","144516","HierDyb1wpppvd","sub03","03","5","rl","test","74","img/p_c_diag.png","6","74","color,pattern,shape","66","1",""
"null","145527","HierDyb1wpppvd","sub03","03","5","feedback","test","null","","","na","","66","",""
"697.5999999046326","146225","HierDyb1wpppvd","sub03","03","5","rl","test","75","img/p_t_dots.png","7","75","color,pattern,shape","67","1",""
"null","147231","HierDyb1wpppvd","sub03","03","5","feedback","test","null","","","na","","67","",""
"939.5999999046326","148171","HierDyb1wpppvd","sub03","03","5","rl","test","83","img/r_c_diag.png","2","83","color,pattern,shape","68","1",""
"null","149179","HierDyb1wpppvd","sub03","03","5","feedback","test","null","","","na","","68","",""
"1318.5999999046326","150498","HierDyb1wpppvd","sub03","03","5","rl","test","72","img/p_t_diag.png","5","72","color,pattern,shape","69","1",""
"null","151511","HierDyb1wpppvd","sub03","03","5","feedback","test","null","","","na","","69","",""
"738.0999999046326","152250","HierDyb1wpppvd","sub03","03","5","rl","test","68","img/r_t_dots.png","3","68","color,pattern,shape","70","1",""
"null","153260","HierDyb1wpppvd","sub03","03","5","feedback","test","null","","","na","","70","",""
"941.4000000953674","154203","HierDyb1wpppvd","sub03","03","5","rl","test","70","img/r_c_dots.png","4","70","color,pattern,shape","71","1",""
"null","155212","HierDyb1wpppvd","sub03","03","5","feedback","test","null","","","na","","71","",""
"728.0999999046326","155941","HierDyb1wpppvd","sub03","03","5","rl","test","76","img/p_c_dots.png","8","76","color,pattern,shape","72","1",""
"null","156950","HierDyb1wpppvd","sub03","03","5","feedback","test","null","","","na","","72","",""
"925.3000001907349","157876","HierDyb1wpppvd","sub03","03","5","rl","test","65","img/r_t_diag.png","1","65","color,pattern,shape","73","1",""
"null","158886","HierDyb1wpppvd","sub03","03","5","feedback","test","null","","","na","","73","",""
"1386.1999998092651","160273","HierDyb1wpppvd","sub03","03","5","rl","test","70","img/p_c_dots.png","8","76","color,pattern,shape","74","0",""
"null","161276","HierDyb1wpppvd","sub03","03","5","feedback","test","null","","","na","","74","",""
"668.6999998092651","161945","HierDyb1wpppvd","sub03","03","5","rl","test","83","img/r_c_diag.png","2","83","color,pattern,shape","75","1",""
"null","162948","HierDyb1wpppvd","sub03","03","5","feedback","test","null","","","na","","75","",""
"771.7000002861023","163720","HierDyb1wpppvd","sub03","03","5","rl","test","65","img/r_t_diag.png","1","65","color,pattern,shape","76","1",""
"null","164727","HierDyb1wpppvd","sub03","03","5","feedback","test","null","","","na","","76","",""
"600.2999997138977","165328","HierDyb1wpppvd","sub03","03","5","rl","test","72","img/p_t_diag.png","5","72","color,pattern,shape","77","1",""
"null","166332","HierDyb1wpppvd","sub03","03","5","feedback","test","null","","","na","","77","",""
"643","166975","HierDyb1wpppvd","sub03","03","5","rl","test","74","img/p_c_diag.png","6","74","color,pattern,shape","78","1",""
"null","167981","HierDyb1wpppvd","sub03","03","5","feedback","test","null","","","na","","78","",""
"814.5999999046326","168796","HierDyb1wpppvd","sub03","03","5","rl","test","76","img/p_c_dots.png","8","76","color,pattern,shape","79","1",""
"null","169804","HierDyb1wpppvd","sub03","03","5","feedback","test","null","","","na","","79","",""
"1096.0999999046326","170901","HierDyb1wpppvd","sub03","03","5","rl","test","70","img/r_c_dots.png","4","70","color,pattern,shape","80","1",""
"null","171913","HierDyb1wpppvd","sub03","03","5","feedback","test","null","","","na","","80","",""
"675.6999998092651","172589","HierDyb1wpppvd","sub03","03","5","rl","test","75","img/p_t_dots.png","7","75","color,pattern,shape","81","1",""
"null","173597","HierDyb1wpppvd","sub03","03","5","feedback","test","null","","","na","","81","",""
"693.9000000953674","174292","HierDyb1wpppvd","sub03","03","5","rl","test","65","img/r_t_diag.png","1","65","color,pattern,shape","82","1",""
"null","175301","HierDyb1wpppvd","sub03","03","5","feedback","test","null","","","na","","82","",""
"744.5","176046","HierDyb1wpppvd","sub03","03","5","rl","test","68","img/r_t_dots.png","3","68","color,pattern,shape","83","1",""
"null","177054","HierDyb1wpppvd","sub03","03","5","feedback","test","null","","","na","","83","",""
"669.4000000953674","177724","HierDyb1wpppvd","sub03","03","5","rl","test","70","img/r_c_dots.png","4","70","color,pattern,shape","84","1",""
"null","178734","HierDyb1wpppvd","sub03","03","5","feedback","test","null","","","na","","84","",""
"682.5","179418","HierDyb1wpppvd","sub03","03","5","rl","test","65","img/r_t_diag.png","1","65","color,pattern,shape","85","1",""
"null","180421","HierDyb1wpppvd","sub03","03","5","feedback","test","null","","","na","","85","",""
"701.5","181124","HierDyb1wpppvd","sub03","03","5","rl","test","83","img/r_c_diag.png","2","83","color,pattern,shape","86","1",""
"null","182135","HierDyb1wpppvd","sub03","03","5","feedback","test","null","","","na","","86","",""
"499.19999980926514","182636","HierDyb1wpppvd","sub03","03","5","rl","test","83","img/r_c_diag.png","2","83","color,pattern,shape","87","1",""
"null","183649","HierDyb1wpppvd","sub03","03","5","feedback","test","null","","","na","","87","",""
"1217.5999999046326","184868","HierDyb1wpppvd","sub03","03","5","rl","test","75","img/p_t_dots.png","7","75","color,pattern,shape","88","1",""
"null","185881","HierDyb1wpppvd","sub03","03","5","feedback","test","null","","","na","","88","",""
"448.40000009536743","186330","HierDyb1wpppvd","sub03","03","5","rl","test","75","img/p_t_dots.png","7","75","color,pattern,shape","89","1",""
"null","187336","HierDyb1wpppvd","sub03","03","5","feedback","test","null","","","na","","89","",""
"559.0999999046326","187896","HierDyb1wpppvd","sub03","03","5","rl","test","72","img/p_t_diag.png","5","72","color,pattern,shape","90","1",""
"null","188904","HierDyb1wpppvd","sub03","03","5","feedback","test","null","","","na","","90","",""
"606.0999999046326","189511","HierDyb1wpppvd","sub03","03","5","rl","test","75","img/p_t_dots.png","7","75","color,pattern,shape","91","1",""
"null","190516","HierDyb1wpppvd","sub03","03","5","feedback","test","null","","","na","","91","",""
"608.9000000953674","191126","HierDyb1wpppvd","sub03","03","5","rl","test","74","img/p_c_diag.png","6","74","color,pattern,shape","92","1",""
"null","192136","HierDyb1wpppvd","sub03","03","5","feedback","test","null","","","na","","92","",""
"1011","193148","HierDyb1wpppvd","sub03","03","5","rl","test","76","img/p_c_dots.png","8","76","color,pattern,shape","93","1",""
"null","194158","HierDyb1wpppvd","sub03","03","5","feedback","test","null","","","na","","93","",""
"800.7999997138977","194960","HierDyb1wpppvd","sub03","03","5","rl","test","72","img/p_t_diag.png","5","72","color,pattern,shape","94","1",""
"null","195969","HierDyb1wpppvd","sub03","03","5","feedback","test","null","","","na","","94","",""
"573","196543","HierDyb1wpppvd","sub03","03","5","rl","test","74","img/p_c_diag.png","6","74","color,pattern,shape","95","1",""
"null","197550","HierDyb1wpppvd","sub03","03","5","feedback","test","null","","","na","","95","",""
"569.3000001907349","198120","HierDyb1wpppvd","sub03","03","5","rl","test","72","img/p_t_diag.png","5","72","color,pattern,shape","96","1",""
"null","199128","HierDyb1wpppvd","sub03","03","5","feedback","test","null","","","na","","96","",""
"1021.0999999046326","200153","HierDyb1wpppvd","sub03","03","5","rl","test","70","img/r_c_dots.png","4","70","color,pattern,shape","97","1",""
"null","201157","HierDyb1wpppvd","sub03","03","5","feedback","test","null","","","na","","97","",""
"587.2999997138977","201745","HierDyb1wpppvd","sub03","03","5","rl","test","68","img/r_t_dots.png","3","68","color,pattern,shape","98","1",""
"null","202752","HierDyb1wpppvd","sub03","03","5","feedback","test","null","","","na","","98","",""
"811.5","203564","HierDyb1wpppvd","sub03","03","5","rl","test","76","img/p_c_dots.png","8","76","color,pattern,shape","99","1",""
"null","204574","HierDyb1wpppvd","sub03","03","5","feedback","test","null","","","na","","99","",""
"1369.0999999046326","205944","HierDyb1wpppvd","sub03","03","5","rl","test","65","img/r_t_diag.png","1","65","color,pattern,shape","100","1",""
"null","206951","HierDyb1wpppvd","sub03","03","5","feedback","test","null","","","na","","100","",""
"789.7000002861023","207741","HierDyb1wpppvd","sub03","03","5","rl","test","74","img/p_c_diag.png","6","74","color,pattern,shape","101","1",""
"null","208749","HierDyb1wpppvd","sub03","03","5","feedback","test","null","","","na","","101","",""
"769.5","209520","HierDyb1wpppvd","sub03","03","5","rl","test","83","img/r_c_diag.png","2","83","color,pattern,shape","102","1",""
"null","210525","HierDyb1wpppvd","sub03","03","5","feedback","test","null","","","na","","102","",""
"651.7000002861023","211177","HierDyb1wpppvd","sub03","03","5","rl","test","68","img/r_t_dots.png","3","68","color,pattern,shape","103","1",""
"null","212181","HierDyb1wpppvd","sub03","03","5","feedback","test","null","","","na","","103","",""
"885.0999999046326","213067","HierDyb1wpppvd","sub03","03","5","rl","test","70","img/r_c_dots.png","4","70","color,pattern,shape","104","1",""
"null","214072","HierDyb1wpppvd","sub03","03","5","feedback","test","null","","","na","","104","",""
"699","214772","HierDyb1wpppvd","sub03","03","5","rl","test","72","img/p_t_diag.png","5","72","color,pattern,shape","105","1",""
"null","215778","HierDyb1wpppvd","sub03","03","5","feedback","test","null","","","na","","105","",""
"679.9000000953674","216459","HierDyb1wpppvd","sub03","03","5","rl","test","75","img/p_t_dots.png","7","75","color,pattern,shape","106","1",""
"null","217462","HierDyb1wpppvd","sub03","03","5","feedback","test","null","","","na","","106","",""
"594.5","218058","HierDyb1wpppvd","sub03","03","5","rl","test","76","img/p_c_dots.png","8","76","color,pattern,shape","107","1",""
"null","219062","HierDyb1wpppvd","sub03","03","5","feedback","test","null","","","na","","107","",""
"1108.5","220172","HierDyb1wpppvd","sub03","03","5","rl","test","70","img/r_c_dots.png","4","70","color,pattern,shape","108","1",""
"null","221177","HierDyb1wpppvd","sub03","03","5","feedback","test","null","","","na","","108","",""
"896.5","222074","HierDyb1wpppvd","sub03","03","5","rl","test","74","img/p_c_diag.png","6","74","color,pattern,shape","109","1",""
"null","223083","HierDyb1wpppvd","sub03","03","5","feedback","test","null","","","na","","109","",""
"625.3000001907349","223709","HierDyb1wpppvd","sub03","03","5","rl","test","65","img/r_t_diag.png","1","65","color,pattern,shape","110","1",""
"null","224717","HierDyb1wpppvd","sub03","03","5","feedback","test","null","","","na","","110","",""
"525.5999999046326","225244","HierDyb1wpppvd","sub03","03","5","rl","test","83","img/r_c_diag.png","2","83","color,pattern,shape","111","1",""
"null","226245","HierDyb1wpppvd","sub03","03","5","feedback","test","null","","","na","","111","",""
"479.90000009536743","226726","HierDyb1wpppvd","sub03","03","5","rl","test","65","img/r_t_diag.png","1","65","color,pattern,shape","112","1",""
"null","227735","HierDyb1wpppvd","sub03","03","5","feedback","test","null","","","na","","112","",""
"799.7999997138977","228536","HierDyb1wpppvd","sub03","03","5","rl","test","68","img/r_t_dots.png","3","68","color,pattern,shape","113","1",""
"null","229542","HierDyb1wpppvd","sub03","03","5","feedback","test","null","","","na","","113","",""
"602.6999998092651","230146","HierDyb1wpppvd","sub03","03","5","rl","test","68","img/r_c_diag.png","2","83","color,pattern,shape","114","0",""
"null","231151","HierDyb1wpppvd","sub03","03","5","feedback","test","null","","","na","","114","",""
"791","231943","HierDyb1wpppvd","sub03","03","5","rl","test","76","img/p_c_dots.png","8","76","color,pattern,shape","115","1",""
"null","232951","HierDyb1wpppvd","sub03","03","5","feedback","test","null","","","na","","115","",""
"874.1999998092651","233827","HierDyb1wpppvd","sub03","03","5","rl","test","72","img/p_t_diag.png","5","72","color,pattern,shape","116","1",""
"null","234829","HierDyb1wpppvd","sub03","03","5","feedback","test","null","","","na","","116","",""
"761.2999997138977","235592","HierDyb1wpppvd","sub03","03","5","rl","test","70","img/r_c_dots.png","4","70","color,pattern,shape","117","1",""
"null","236598","HierDyb1wpppvd","sub03","03","5","feedback","test","null","","","na","","117","",""
"699.6999998092651","237299","HierDyb1wpppvd","sub03","03","5","rl","test","75","img/p_t_dots.png","7","75","color,pattern,shape","118","1",""
"null","238306","HierDyb1wpppvd","sub03","03","5","feedback","test","null","","","na","","118","",""
"430.30000019073486","238738","HierDyb1wpppvd","sub03","03","5","rl","test","75","img/p_t_dots.png","7","75","color,pattern,shape","119","1",""
"null","239743","HierDyb1wpppvd","sub03","03","5","feedback","test","null","","","na","","119","",""
"812.0999999046326","240556","HierDyb1wpppvd","sub03","03","5","rl","test","76","img/p_c_dots.png","8","76","color,pattern,shape","120","1",""
"null","241559","HierDyb1wpppvd","sub03","03","5","feedback","test","null","","","na","","120","",""
"553.4000000953674","242113","HierDyb1wpppvd","sub03","03","5","rl","test","74","img/p_c_diag.png","6","74","color,pattern,shape","121","1",""
"null","243119","HierDyb1wpppvd","sub03","03","5","feedback","test","null","","","na","","121","",""
"960.9000000953674","244081","HierDyb1wpppvd","sub03","03","5","rl","test","68","img/r_t_dots.png","3","68","color,pattern,shape","122","1",""
"null","245091","HierDyb1wpppvd","sub03","03","5","feedback","test","null","","","na","","122","",""
"546.5999999046326","245638","HierDyb1wpppvd","sub03","03","5","rl","test","65","img/r_t_diag.png","1","65","color,pattern,shape","123","1",""
"null","246649","HierDyb1wpppvd","sub03","03","5","feedback","test","null","","","na","","123","",""
"809.6999998092651","247460","HierDyb1wpppvd","sub03","03","5","rl","test","68","img/r_t_dots.png","3","68","color,pattern,shape","124","1",""
"null","248463","HierDyb1wpppvd","sub03","03","5","feedback","test","null","","","na","","124","",""
"742.3999996185303","249207","HierDyb1wpppvd","sub03","03","5","rl","test","74","img/p_c_diag.png","6","74","color,pattern,shape","125","1",""
"null","250219","HierDyb1wpppvd","sub03","03","5","feedback","test","null","","","na","","125","",""
"570.9000000953674","250791","HierDyb1wpppvd","sub03","03","5","rl","test","72","img/p_t_diag.png","5","72","color,pattern,shape","126","1",""
"null","251799","HierDyb1wpppvd","sub03","03","5","feedback","test","null","","","na","","126","",""
"1080.0999999046326","252880","HierDyb1wpppvd","sub03","03","5","rl","test","83","img/r_c_diag.png","2","83","color,pattern,shape","127","1",""
"null","253889","HierDyb1wpppvd","sub03","03","5","feedback","test","null","","","na","","127","",""
"510.40000009536743","254401","HierDyb1wpppvd","sub03","03","5","rl","test","65","img/r_t_diag.png","1","65","color,pattern,shape","128","1",""
"null","255411","HierDyb1wpppvd","sub03","03","5","feedback","test","null","","","na","","128","",""
"758.9000000953674","256171","HierDyb1wpppvd","sub03","03","5","rl","test","70","img/r_c_dots.png","4","70","color,pattern,shape","129","1",""
"null","257176","HierDyb1wpppvd","sub03","03","5","feedback","test","null","","","na","","129","",""
"521.7999997138977","257698","HierDyb1wpppvd","sub03","03","5","rl","test","70","img/r_c_dots.png","4","70","color,pattern,shape","130","1",""
"null","258703","HierDyb1wpppvd","sub03","03","5","feedback","test","null","","","na","","130","",""
"711.3000001907349","259415","HierDyb1wpppvd","sub03","03","5","rl","test","68","img/r_t_dots.png","3","68","color,pattern,shape","131","1",""
"null","260422","HierDyb1wpppvd","sub03","03","5","feedback","test","null","","","na","","131","",""
"690.5999999046326","261114","HierDyb1wpppvd","sub03","03","5","rl","test","72","img/p_t_diag.png","5","72","color,pattern,shape","132","1",""
"null","262119","HierDyb1wpppvd","sub03","03","5","feedback","test","null","","","na","","132","",""
"593.0999999046326","262712","HierDyb1wpppvd","sub03","03","5","rl","test","75","img/p_t_dots.png","7","75","color,pattern,shape","133","1",""
"null","263722","HierDyb1wpppvd","sub03","03","5","feedback","test","null","","","na","","133","",""
"701.9000000953674","264425","HierDyb1wpppvd","sub03","03","5","rl","test","76","img/p_c_dots.png","8","76","color,pattern,shape","134","1",""
"null","265431","HierDyb1wpppvd","sub03","03","5","feedback","test","null","","","na","","134","",""
"612","266044","HierDyb1wpppvd","sub03","03","5","rl","test","74","img/p_c_diag.png","6","74","color,pattern,shape","135","1",""
"null","267051","HierDyb1wpppvd","sub03","03","5","feedback","test","null","","","na","","135","",""
"595.4000000953674","267647","HierDyb1wpppvd","sub03","03","5","rl","test","75","img/p_t_dots.png","7","75","color,pattern,shape","136","1",""
"null","268656","HierDyb1wpppvd","sub03","03","5","feedback","test","null","","","na","","136","",""
"659.6000003814697","269317","HierDyb1wpppvd","sub03","03","5","rl","test","70","img/r_c_dots.png","4","70","color,pattern,shape","137","1",""
"null","270321","HierDyb1wpppvd","sub03","03","5","feedback","test","null","","","na","","137","",""
"563.1999998092651","270885","HierDyb1wpppvd","sub03","03","5","rl","test","83","img/r_c_diag.png","2","83","color,pattern,shape","138","1",""
"null","271888","HierDyb1wpppvd","sub03","03","5","feedback","test","null","","","na","","138","",""
"521.6999998092651","272411","HierDyb1wpppvd","sub03","03","5","rl","test","83","img/r_c_diag.png","2","83","color,pattern,shape","139","1",""
"null","273416","HierDyb1wpppvd","sub03","03","5","feedback","test","null","","","na","","139","",""
"813.1999998092651","274230","HierDyb1wpppvd","sub03","03","5","rl","test","76","img/p_c_dots.png","8","76","color,pattern,shape","140","1",""
"null","275234","HierDyb1wpppvd","sub03","03","5","feedback","test","null","","","na","","140","",""
"627.0999999046326","275862","HierDyb1wpppvd","sub03","03","5","rl","test","65","img/r_t_diag.png","1","65","color,pattern,shape","141","1",""
"null","276872","HierDyb1wpppvd","sub03","03","5","feedback","test","null","","","na","","141","",""
"609.1999998092651","277483","HierDyb1wpppvd","sub03","03","5","rl","test","72","img/p_t_diag.png","5","72","color,pattern,shape","142","1",""
"null","278488","HierDyb1wpppvd","sub03","03","5","feedback","test","null","","","na","","142","",""
"580.7000002861023","279069","HierDyb1wpppvd","sub03","03","5","rl","test","83","img/r_c_diag.png","2","83","color,pattern,shape","143","1",""
"null","280074","HierDyb1wpppvd","sub03","03","5","feedback","test","null","","","na","","143","",""
"880.0999999046326","280955","HierDyb1wpppvd","sub03","03","5","rl","test","75","img/p_t_dots.png","7","75","color,pattern,shape","144","1",""
"null","281960","HierDyb1wpppvd","sub03","03","5","feedback","test","null","","","na","","144","",""
"1136.0999999046326","283098","HierDyb1wpppvd","sub03","03","5","rl","test","68","img/r_t_dots.png","3","68","color,pattern,shape","145","1",""
"null","284107","HierDyb1wpppvd","sub03","03","5","feedback","test","null","","","na","","145","",""
"622.3000001907349","284731","HierDyb1wpppvd","sub03","03","5","rl","test","74","img/p_c_diag.png","6","74","color,pattern,shape","146","1",""
"null","285735","HierDyb1wpppvd","sub03","03","5","feedback","test","null","","","na","","146","",""
"908.7000002861023","286645","HierDyb1wpppvd","sub03","03","5","rl","test","68","img/r_t_dots.png","3","68","color,pattern,shape","147","1",""
"null","287647","HierDyb1wpppvd","sub03","03","5","feedback","test","null","","","na","","147","",""
"575.2999997138977","288223","HierDyb1wpppvd","sub03","03","5","rl","test","76","img/p_c_dots.png","8","76","color,pattern,shape","148","1",""
"null","289235","HierDyb1wpppvd","sub03","03","5","feedback","test","null","","","na","","148","",""
"581","289817","HierDyb1wpppvd","sub03","03","5","rl","test","74","img/p_c_diag.png","6","74","color,pattern,shape","149","1",""
"null","290825","HierDyb1wpppvd","sub03","03","5","feedback","test","null","","","na","","149","",""
"782.3999996185303","291608","HierDyb1wpppvd","sub03","03","5","rl","test","70","img/r_c_dots.png","4","70","color,pattern,shape","150","1",""
"null","292617","HierDyb1wpppvd","sub03","03","5","feedback","test","null","","","na","","150","",""
"776.3000001907349","293394","HierDyb1wpppvd","sub03","03","5","rl","test","72","img/p_t_diag.png","5","72","color,pattern,shape","151","1",""
"null","294402","HierDyb1wpppvd","sub03","03","5","feedback","test","null","","","na","","151","",""
"706.4000000953674","295109","HierDyb1wpppvd","sub03","03","5","rl","test","68","img/r_t_dots.png","3","68","color,pattern,shape","152","1",""
"null","296112","HierDyb1wpppvd","sub03","03","5","feedback","test","null","","","na","","152","",""
"983.5","297096","HierDyb1wpppvd","sub03","03","5","rl","test","76","img/p_c_dots.png","8","76","color,pattern,shape","153","1",""
"null","298107","HierDyb1wpppvd","sub03","03","5","feedback","test","null","","","na","","153","",""
"849.7999997138977","298957","HierDyb1wpppvd","sub03","03","5","rl","test","70","img/r_c_dots.png","4","70","color,pattern,shape","154","1",""
"null","299960","HierDyb1wpppvd","sub03","03","5","feedback","test","null","","","na","","154","",""
"557.7999997138977","300518","HierDyb1wpppvd","sub03","03","5","rl","test","65","img/r_t_diag.png","1","65","color,pattern,shape","155","1",""
"null","301520","HierDyb1wpppvd","sub03","03","5","feedback","test","null","","","na","","155","",""
"568.8000001907349","302090","HierDyb1wpppvd","sub03","03","5","rl","test","75","img/p_t_dots.png","7","75","color,pattern,shape","156","1",""
"null","303096","HierDyb1wpppvd","sub03","03","5","feedback","test","null","","","na","","156","",""
"716.7000002861023","303814","HierDyb1wpppvd","sub03","03","5","rl","test","74","img/p_t_diag.png","5","72","color,pattern,shape","157","0",""
"null","304817","HierDyb1wpppvd","sub03","03","5","feedback","test","null","","","na","","157","",""
"901.1999998092651","305719","HierDyb1wpppvd","sub03","03","5","rl","test","83","img/r_c_diag.png","2","83","color,pattern,shape","158","1",""
"null","306721","HierDyb1wpppvd","sub03","03","5","feedback","test","null","","","na","","158","",""
"680","307402","HierDyb1wpppvd","sub03","03","5","rl","test","68","img/r_t_dots.png","3","68","color,pattern,shape","159","1",""
"null","308411","HierDyb1wpppvd","sub03","03","5","feedback","test","null","","","na","","159","",""
"531.5","308944","HierDyb1wpppvd","sub03","03","5","rl","test","65","img/r_t_diag.png","1","65","color,pattern,shape","160","1",""
"null","309956","HierDyb1wpppvd","sub03","03","5","feedback","test","null","","","na","","160","",""
"623.5","310581","HierDyb1wpppvd","sub03","03","5","rl","test","74","img/p_c_diag.png","6","74","color,pattern,shape","161","1",""
"null","311584","HierDyb1wpppvd","sub03","03","5","feedback","test","null","","","na","","161","",""
"715","312303","HierDyb1wpppvd","sub03","03","5","rl","test","74","img/p_c_diag.png","6","74","color,pattern,shape","162","1",""
"null","313314","HierDyb1wpppvd","sub03","03","5","feedback","test","null","","","na","","162","",""
"541.6999998092651","313856","HierDyb1wpppvd","sub03","03","5","rl","test","65","img/r_t_diag.png","1","65","color,pattern,shape","163","1",""
"null","314865","HierDyb1wpppvd","sub03","03","5","feedback","test","null","","","na","","163","",""
"710.4000000953674","315576","HierDyb1wpppvd","sub03","03","5","rl","test","75","img/p_t_dots.png","7","75","color,pattern,shape","164","1",""
"null","316584","HierDyb1wpppvd","sub03","03","5","feedback","test","null","","","na","","164","",""
"815.7999997138977","317402","HierDyb1wpppvd","sub03","03","5","rl","test","65","img/r_t_diag.png","1","65","color,pattern,shape","165","1",""
"null","318413","HierDyb1wpppvd","sub03","03","5","feedback","test","null","","","na","","165","",""
"652.9000000953674","319067","HierDyb1wpppvd","sub03","03","5","rl","test","72","img/p_t_diag.png","5","72","color,pattern,shape","166","1",""
"null","320075","HierDyb1wpppvd","sub03","03","5","feedback","test","null","","","na","","166","",""
"789.5999999046326","320866","HierDyb1wpppvd","sub03","03","5","rl","test","70","img/r_c_dots.png","4","70","color,pattern,shape","167","1",""
"null","321874","HierDyb1wpppvd","sub03","03","5","feedback","test","null","","","na","","167","",""
"886.7000002861023","322761","HierDyb1wpppvd","sub03","03","5","rl","test","76","img/p_c_dots.png","8","76","color,pattern,shape","168","1",""
"null","323774","HierDyb1wpppvd","sub03","03","5","feedback","test","null","","","na","","168","",""
"897.7999997138977","324672","HierDyb1wpppvd","sub03","03","5","rl","test","83","img/r_c_diag.png","2","83","color,pattern,shape","169","1",""
"null","325681","HierDyb1wpppvd","sub03","03","5","feedback","test","null","","","na","","169","",""
"611.5","326293","HierDyb1wpppvd","sub03","03","5","rl","test","75","img/p_t_dots.png","7","75","color,pattern,shape","170","1",""
"null","327294","HierDyb1wpppvd","sub03","03","5","feedback","test","null","","","na","","170","",""
"937","328232","HierDyb1wpppvd","sub03","03","5","rl","test","70","img/r_c_dots.png","4","70","color,pattern,shape","171","1",""
"null","329243","HierDyb1wpppvd","sub03","03","5","feedback","test","null","","","na","","171","",""
"590.2999997138977","329834","HierDyb1wpppvd","sub03","03","5","rl","test","83","img/r_c_diag.png","2","83","color,pattern,shape","172","1",""
"null","330842","HierDyb1wpppvd","sub03","03","5","feedback","test","null","","","na","","172","",""
"617.6999998092651","331460","HierDyb1wpppvd","sub03","03","5","rl","test","72","img/p_t_diag.png","5","72","color,pattern,shape","173","1",""
"null","332465","HierDyb1wpppvd","sub03","03","5","feedback","test","null","","","na","","173","",""
"653.5","333120","HierDyb1wpppvd","sub03","03","5","rl","test","68","img/r_t_dots.png","3","68","color,pattern,shape","174","1",""
"null","334134","HierDyb1wpppvd","sub03","03","5","feedback","test","null","","","na","","174","",""
"719.5999999046326","334854","HierDyb1wpppvd","sub03","03","5","rl","test","68","img/r_t_dots.png","3","68","color,pattern,shape","175","1",""
"null","335858","HierDyb1wpppvd","sub03","03","5","feedback","test","null","","","na","","175","",""
"576.8000001907349","336436","HierDyb1wpppvd","sub03","03","5","rl","test","74","img/p_c_diag.png","6","74","color,pattern,shape","176","1",""
"null","337442","HierDyb1wpppvd","sub03","03","5","feedback","test","null","","","na","","176","",""
"581.9000000953674","338025","HierDyb1wpppvd","sub03","03","5","rl","test","76","img/p_c_dots.png","8","76","color,pattern,shape","177","1",""
"null","339036","HierDyb1wpppvd","sub03","03","5","feedback","test","null","","","na","","177","",""
"629.9000000953674","339666","HierDyb1wpppvd","sub03","03","5","rl","test","74","img/p_c_diag.png","6","74","color,pattern,shape","178","1",""
"null","340675","HierDyb1wpppvd","sub03","03","5","feedback","test","null","","","na","","178","",""
"561.5","341237","HierDyb1wpppvd","sub03","03","5","rl","test","76","img/p_c_dots.png","8","76","color,pattern,shape","179","1",""
"null","342246","HierDyb1wpppvd","sub03","03","5","feedback","test","null","","","na","","179","",""
"563.4000000953674","342810","HierDyb1wpppvd","sub03","03","5","rl","test","65","img/r_t_diag.png","1","65","color,pattern,shape","180","1",""
"null","343820","HierDyb1wpppvd","sub03","03","5","feedback","test","null","","","na","","180","",""
"1258.3999996185303","345079","HierDyb1wpppvd","sub03","03","5","rl","test","72","img/p_t_diag.png","5","72","color,pattern,shape","181","1",""
"null","346085","HierDyb1wpppvd","sub03","03","5","feedback","test","null","","","na","","181","",""
"1255.4000000953674","347341","HierDyb1wpppvd","sub03","03","5","rl","test","83","img/r_c_diag.png","2","83","color,pattern,shape","182","1",""
"null","348345","HierDyb1wpppvd","sub03","03","5","feedback","test","null","","","na","","182","",""
"796.6999998092651","349143","HierDyb1wpppvd","sub03","03","5","rl","test","75","img/p_t_dots.png","7","75","color,pattern,shape","183","1",""
"null","350147","HierDyb1wpppvd","sub03","03","5","feedback","test","null","","","na","","183","",""
"896.5","351044","HierDyb1wpppvd","sub03","03","5","rl","test","72","img/p_c_diag.png","6","74","color,pattern,shape","184","0",""
"null","352051","HierDyb1wpppvd","sub03","03","5","feedback","test","null","","","na","","184","",""
"699.3000001907349","352751","HierDyb1wpppvd","sub03","03","5","rl","test","70","img/r_c_dots.png","4","70","color,pattern,shape","185","1",""
"null","353754","HierDyb1wpppvd","sub03","03","5","feedback","test","null","","","na","","185","",""
"589.5999999046326","354345","HierDyb1wpppvd","sub03","03","5","rl","test","72","img/p_t_diag.png","5","72","color,pattern,shape","186","1",""
"null","355357","HierDyb1wpppvd","sub03","03","5","feedback","test","null","","","na","","186","",""
"721.7000002861023","356080","HierDyb1wpppvd","sub03","03","5","rl","test","68","img/r_t_dots.png","3","68","color,pattern,shape","187","1",""
"null","357085","HierDyb1wpppvd","sub03","03","5","feedback","test","null","","","na","","187","",""
"551.4000000953674","357637","HierDyb1wpppvd","sub03","03","5","rl","test","70","img/r_c_dots.png","4","70","color,pattern,shape","188","1",""
"null","358645","HierDyb1wpppvd","sub03","03","5","feedback","test","null","","","na","","188","",""
"1215.9000000953674","359861","HierDyb1wpppvd","sub03","03","5","rl","test","76","img/p_c_dots.png","8","76","color,pattern,shape","189","1",""
"null","360863","HierDyb1wpppvd","sub03","03","5","feedback","test","null","","","na","","189","",""
"655.3000001907349","361519","HierDyb1wpppvd","sub03","03","5","rl","test","65","img/r_t_diag.png","1","65","color,pattern,shape","190","1",""
"null","362525","HierDyb1wpppvd","sub03","03","5","feedback","test","null","","","na","","190","",""
"1063.2000002861023","363589","HierDyb1wpppvd","sub03","03","5","rl","test","68","img/r_t_dots.png","3","68","color,pattern,shape","191","1",""
"null","364593","HierDyb1wpppvd","sub03","03","5","feedback","test","null","","","na","","191","",""
"728.3000001907349","365323","HierDyb1wpppvd","sub03","03","5","rl","test","75","img/p_t_dots.png","7","75","color,pattern,shape","192","1",""
"null","366330","HierDyb1wpppvd","sub03","03","5","feedback","test","null","","","na","","192","",""
"1008.5999999046326","367340","HierDyb1wpppvd","sub03","03","5","rl","test","83","img/r_c_diag.png","2","83","color,pattern,shape","193","1",""
"null","368347","HierDyb1wpppvd","sub03","03","5","feedback","test","null","","","na","","193","",""
"450.3999996185303","368799","HierDyb1wpppvd","sub03","03","5","rl","test","83","img/r_c_diag.png","2","83","color,pattern,shape","194","1",""
"null","369807","HierDyb1wpppvd","sub03","03","5","feedback","test","null","","","na","","194","",""
"689.1999998092651","370497","HierDyb1wpppvd","sub03","03","5","rl","test","70","img/r_c_dots.png","4","70","color,pattern,shape","195","1",""
"null","371507","HierDyb1wpppvd","sub03","03","5","feedback","test","null","","","na","","195","",""
"817.3000001907349","372325","HierDyb1wpppvd","sub03","03","5","rl","test","74","img/p_c_diag.png","6","74","color,pattern,shape","196","1",""
"null","373331","HierDyb1wpppvd","sub03","03","5","feedback","test","null","","","na","","196","",""
"542.9000000953674","373875","HierDyb1wpppvd","sub03","03","5","rl","test","75","img/p_t_dots.png","7","75","color,pattern,shape","197","1",""
"null","374883","HierDyb1wpppvd","sub03","03","5","feedback","test","null","","","na","","197","",""
"518.5","375402","HierDyb1wpppvd","sub03","03","5","rl","test","65","img/r_t_diag.png","1","65","color,pattern,shape","198","1",""
"null","376411","HierDyb1wpppvd","sub03","03","5","feedback","test","null","","","na","","198","",""
"669.5999999046326","377082","HierDyb1wpppvd","sub03","03","5","rl","test","72","img/p_t_diag.png","5","72","color,pattern,shape","199","1",""
"null","378093","HierDyb1wpppvd","sub03","03","5","feedback","test","null","","","na","","199","",""
"752","378846","HierDyb1wpppvd","sub03","03","5","rl","test","76","img/p_c_dots.png","8","76","color,pattern,shape","200","1",""
"null","379855","HierDyb1wpppvd","sub03","03","5","feedback","test","null","","","na","","200","",""
"458.90000009536743","380315","HierDyb1wpppvd","sub03","03","5","rl","test","76","img/p_c_dots.png","8","76","color,pattern,shape","201","1",""
"null","381327","HierDyb1wpppvd","sub03","03","5","feedback","test","null","","","na","","201","",""
"584.5999999046326","381913","HierDyb1wpppvd","sub03","03","5","rl","test","65","img/r_t_diag.png","1","65","color,pattern,shape","202","1",""
"null","382918","HierDyb1wpppvd","sub03","03","5","feedback","test","null","","","na","","202","",""
"551.2000002861023","383470","HierDyb1wpppvd","sub03","03","5","rl","test","75","img/p_t_dots.png","7","75","color,pattern,shape","203","1",""
"null","384474","HierDyb1wpppvd","sub03","03","5","feedback","test","null","","","na","","203","",""
"615.7000002861023","385090","HierDyb1wpppvd","sub03","03","5","rl","test","68","img/r_t_dots.png","3","68","color,pattern,shape","204","1",""
"null","386103","HierDyb1wpppvd","sub03","03","5","feedback","test","null","","","na","","204","",""
"840.0999999046326","386944","HierDyb1wpppvd","sub03","03","5","rl","test","72","img/p_t_diag.png","5","72","color,pattern,shape","205","1",""
"null","387949","HierDyb1wpppvd","sub03","03","5","feedback","test","null","","","na","","205","",""
"595.7999997138977","388546","HierDyb1wpppvd","sub03","03","5","rl","test","75","img/p_t_dots.png","7","75","color,pattern,shape","206","1",""
"null","389560","HierDyb1wpppvd","sub03","03","5","feedback","test","null","","","na","","206","",""
"570.0999999046326","390131","HierDyb1wpppvd","sub03","03","5","rl","test","72","img/p_t_diag.png","5","72","color,pattern,shape","207","1",""
"null","391144","HierDyb1wpppvd","sub03","03","5","feedback","test","null","","","na","","207","",""
"1192.5999999046326","392337","HierDyb1wpppvd","sub03","03","5","rl","test","83","img/r_c_diag.png","2","83","color,pattern,shape","208","1",""
"null","393342","HierDyb1wpppvd","sub03","03","5","feedback","test","null","","","na","","208","",""
"691.5999999046326","394035","HierDyb1wpppvd","sub03","03","5","rl","test","76","img/p_c_dots.png","8","76","color,pattern,shape","209","1",""
"null","395048","HierDyb1wpppvd","sub03","03","5","feedback","test","null","","","na","","209","",""
"555.8000001907349","395604","HierDyb1wpppvd","sub03","03","5","rl","test","70","img/r_c_dots.png","4","70","color,pattern,shape","210","1",""
"null","396611","HierDyb1wpppvd","sub03","03","5","feedback","test","null","","","na","","210","",""
"558.5","397170","HierDyb1wpppvd","sub03","03","5","rl","test","74","img/p_c_diag.png","6","74","color,pattern,shape","211","1",""
"null","398182","HierDyb1wpppvd","sub03","03","5","feedback","test","null","","","na","","211","",""
"429.5","398612","HierDyb1wpppvd","sub03","03","5","rl","test","74","img/p_c_diag.png","6","74","color,pattern,shape","212","1",""
"null","399620","HierDyb1wpppvd","sub03","03","5","feedback","test","null","","","na","","212","",""
"667.1999998092651","400288","HierDyb1wpppvd","sub03","03","5","rl","test","70","img/r_c_dots.png","4","70","color,pattern,shape","213","1",""
"null","401295","HierDyb1wpppvd","sub03","03","5","feedback","test","null","","","na","","213","",""
"577.7999997138977","401874","HierDyb1wpppvd","sub03","03","5","rl","test","75","img/r_t_dots.png","3","68","color,pattern,shape","214","0",""
"null","402884","HierDyb1wpppvd","sub03","03","5","feedback","test","null","","","na","","214","",""
"523.0999999046326","403408","HierDyb1wpppvd","sub03","03","5","rl","test","83","img/r_c_diag.png","2","83","color,pattern,shape","215","1",""
"null","404415","HierDyb1wpppvd","sub03","03","5","feedback","test","null","","","na","","215","",""
"867.5","405283","HierDyb1wpppvd","sub03","03","5","rl","test","65","img/r_t_diag.png","1","65","color,pattern,shape","216","1",""
"null","406296","HierDyb1wpppvd","sub03","03","5","feedback","test","null","","","na","","216","",""
"762.0999999046326","407059","HierDyb1wpppvd","sub03","03","5","rl","test","74","img/p_c_diag.png","6","74","color,pattern,shape","217","1",""
"null","408072","HierDyb1wpppvd","sub03","03","5","feedback","test","null","","","na","","217","",""
"723.3000001907349","408796","HierDyb1wpppvd","sub03","03","5","rl","test","76","img/p_c_dots.png","8","76","color,pattern,shape","218","1",""
"null","409804","HierDyb1wpppvd","sub03","03","5","feedback","test","null","","","na","","218","",""
"691.9000000953674","410497","HierDyb1wpppvd","sub03","03","5","rl","test","72","img/p_t_diag.png","5","72","color,pattern,shape","219","1",""
"null","411500","HierDyb1wpppvd","sub03","03","5","feedback","test","null","","","na","","219","",""
"940.9000000953674","412442","HierDyb1wpppvd","sub03","03","5","rl","test","70","img/r_c_dots.png","4","70","color,pattern,shape","220","1",""
"null","413451","HierDyb1wpppvd","sub03","03","5","feedback","test","null","","","na","","220","",""
"759.8000001907349","414212","HierDyb1wpppvd","sub03","03","5","rl","test","75","img/p_t_dots.png","7","75","color,pattern,shape","221","1",""
"null","415220","HierDyb1wpppvd","sub03","03","5","feedback","test","null","","","na","","221","",""
"809","416030","HierDyb1wpppvd","sub03","03","5","rl","test","76","img/p_c_dots.png","8","76","color,pattern,shape","222","1",""
"null","417040","HierDyb1wpppvd","sub03","03","5","feedback","test","null","","","na","","222","",""
"706.7999997138977","417748","HierDyb1wpppvd","sub03","03","5","rl","test","75","img/p_t_dots.png","7","75","color,pattern,shape","223","1",""
"null","418760","HierDyb1wpppvd","sub03","03","5","feedback","test","null","","","na","","223","",""
"697.8000001907349","419459","HierDyb1wpppvd","sub03","03","5","rl","test","83","img/r_c_diag.png","2","83","color,pattern,shape","224","1",""
"null","420470","HierDyb1wpppvd","sub03","03","5","feedback","test","null","","","na","","224","",""
"843.0999999046326","421314","HierDyb1wpppvd","sub03","03","5","rl","test","68","img/r_t_dots.png","3","68","color,pattern,shape","225","1",""
"null","422328","HierDyb1wpppvd","sub03","03","5","feedback","test","null","","","na","","225","",""
"531.5","422861","HierDyb1wpppvd","sub03","03","5","rl","test","65","img/r_t_diag.png","1","65","color,pattern,shape","226","1",""
"null","423868","HierDyb1wpppvd","sub03","03","5","feedback","test","null","","","na","","226","",""
"797.8000001907349","424667","HierDyb1wpppvd","sub03","03","5","rl","test","68","img/r_t_dots.png","3","68","color,pattern,shape","227","1",""
"null","425677","HierDyb1wpppvd","sub03","03","5","feedback","test","null","","","na","","227","",""
"731.1000003814697","426409","HierDyb1wpppvd","sub03","03","5","rl","test","70","img/r_c_dots.png","4","70","color,pattern,shape","228","1",""
"null","427415","HierDyb1wpppvd","sub03","03","5","feedback","test","null","","","na","","228","",""
"596.3000001907349","428012","HierDyb1wpppvd","sub03","03","5","rl","test","83","img/r_c_diag.png","2","83","color,pattern,shape","229","1",""
"null","429021","HierDyb1wpppvd","sub03","03","5","feedback","test","null","","","na","","229","",""
"539.6999998092651","429561","HierDyb1wpppvd","sub03","03","5","rl","test","74","img/p_c_diag.png","6","74","color,pattern,shape","230","1",""
"null","430567","HierDyb1wpppvd","sub03","03","5","feedback","test","null","","","na","","230","",""
"520.5","431089","HierDyb1wpppvd","sub03","03","5","rl","test","65","img/r_t_diag.png","1","65","color,pattern,shape","231","1",""
"null","432093","HierDyb1wpppvd","sub03","03","5","feedback","test","null","","","na","","231","",""
"589.7000002861023","432683","HierDyb1wpppvd","sub03","03","5","rl","test","83","img/r_t_diag.png","1","65","color,pattern,shape","232","0",""
"null","433697","HierDyb1wpppvd","sub03","03","5","feedback","test","null","","","na","","232","",""
"589.6999998092651","434287","HierDyb1wpppvd","sub03","03","5","rl","test","72","img/p_t_diag.png","5","72","color,pattern,shape","233","1",""
"null","435292","HierDyb1wpppvd","sub03","03","5","feedback","test","null","","","na","","233","",""
"533","435826","HierDyb1wpppvd","sub03","03","5","rl","test","74","img/p_c_diag.png","6","74","color,pattern,shape","234","1",""
"null","436829","HierDyb1wpppvd","sub03","03","5","feedback","test","null","","","na","","234","",""
"868.6000003814697","437698","HierDyb1wpppvd","sub03","03","5","rl","test","70","img/r_c_dots.png","4","70","color,pattern,shape","235","1",""
"null","438701","HierDyb1wpppvd","sub03","03","5","feedback","test","null","","","na","","235","",""
"551","439253","HierDyb1wpppvd","sub03","03","5","rl","test","72","img/p_t_diag.png","5","72","color,pattern,shape","236","1",""
"null","440263","HierDyb1wpppvd","sub03","03","5","feedback","test","null","","","na","","236","",""
"645","440909","HierDyb1wpppvd","sub03","03","5","rl","test","76","img/p_c_dots.png","8","76","color,pattern,shape","237","1",""
"null","441920","HierDyb1wpppvd","sub03","03","5","feedback","test","null","","","na","","237","",""
"692.1999998092651","442613","HierDyb1wpppvd","sub03","03","5","rl","test","75","img/p_t_dots.png","7","75","color,pattern,shape","238","1",""
"null","443624","HierDyb1wpppvd","sub03","03","5","feedback","test","null","","","na","","238","",""
"756.5999999046326","444382","HierDyb1wpppvd","sub03","03","5","rl","test","68","img/r_t_dots.png","3","68","color,pattern,shape","239","1",""
"null","445386","HierDyb1wpppvd","sub03","03","5","feedback","test","null","","","na","","239","",""
"660.6000003814697","446047","HierDyb1wpppvd","sub03","03","5","rl","test","83","img/r_c_diag.png","2","83","color,pattern,shape","240","1",""
"null","447057","HierDyb1wpppvd","sub03","03","5","feedback","test","null","","","na","","240","",""
"912.8000001907349","447971","HierDyb1wpppvd","sub03","03","5","rl","test","70","img/r_c_dots.png","4","70","color,pattern,shape","241","1",""
"null","448985","HierDyb1wpppvd","sub03","03","5","feedback","test","null","","","na","","241","",""
"856.0999999046326","449842","HierDyb1wpppvd","sub03","03","5","rl","test","72","img/p_t_diag.png","5","72","color,pattern,shape","242","1",""
"null","450847","HierDyb1wpppvd","sub03","03","5","feedback","test","null","","","na","","242","",""
"663.5999999046326","451511","HierDyb1wpppvd","sub03","03","5","rl","test","83","img/r_c_diag.png","2","83","color,pattern,shape","243","1",""
"null","452517","HierDyb1wpppvd","sub03","03","5","feedback","test","null","","","na","","243","",""
"538.5999999046326","453057","HierDyb1wpppvd","sub03","03","5","rl","test","65","img/r_t_diag.png","1","65","color,pattern,shape","244","1",""
"null","454064","HierDyb1wpppvd","sub03","03","5","feedback","test","null","","","na","","244","",""
"1058.8999996185303","455124","HierDyb1wpppvd","sub03","03","5","rl","test","76","img/p_c_dots.png","8","76","color,pattern,shape","245","1",""
"null","456133","HierDyb1wpppvd","sub03","03","5","feedback","test","null","","","na","","245","",""
"632.6999998092651","456767","HierDyb1wpppvd","sub03","03","5","rl","test","83","img/r_t_dots.png","3","68","color,pattern,shape","246","0",""
"null","457778","HierDyb1wpppvd","sub03","03","5","feedback","test","null","","","na","","246","",""
"767.2999997138977","458546","HierDyb1wpppvd","sub03","03","5","rl","test","74","img/p_c_diag.png","6","74","color,pattern,shape","247","1",""
"null","459548","HierDyb1wpppvd","sub03","03","5","feedback","test","null","","","na","","247","",""
"771.7000002861023","460321","HierDyb1wpppvd","sub03","03","5","rl","test","68","img/p_t_dots.png","7","75","color,pattern,shape","248","0",""
"null","461328","HierDyb1wpppvd","sub03","03","5","feedback","test","null","","","na","","248","",""
"6024.60000038147","467365","HierDyb1wpppvd","sub03","03","5","","","","","","","","","","{""Q0"":""7""}"
"24977.099999904633","492346","HierDyb1wpppvd","sub03","03","5","","","","","","","","","","{""Q0"":""nothing in particular""}"
"2157.2000002861023","494504","HierDyb1wpppvd","sub03","03","5","","","","","","","","","",""
