"rt","time_elapsed","subject","subID","group","day","trialType","key_press","stim","corrresp","phase","stimNum","trialNum","corr","repeatTrial","motorSwitch","hierarchy","responses"
"15611","15619","HierDyys5tnf6k","sub06","06","8","","","","","","","","","","","",""
"","17320","HierDyys5tnf6k","sub06","06","8","fullscreen","","","","","","","","","","",""
"165010","182343","HierDyys5tnf6k","sub06","06","8","","","","","","","","","","","",""
"4376","186731","HierDyys5tnf6k","sub06","06","8","motor","76","img/motor_8.png","76","motor","8","1","1","0","0","",""
"null","186843","HierDyys5tnf6k","sub06","06","8","iti","null","img/motor_8.png","76","motor","","","","","","",""
"657","187509","HierDyys5tnf6k","sub06","06","8","motor","72","img/motor_5.png","72","motor","5","2","1","0","0","",""
"null","187619","HierDyys5tnf6k","sub06","06","8","iti","null","img/motor_5.png","72","motor","","","","","","",""
"606","188235","HierDyys5tnf6k","sub06","06","8","motor","70","img/motor_4.png","70","motor","4","3","1","0","0","",""
"null","188345","HierDyys5tnf6k","sub06","06","8","iti","null","img/motor_4.png","70","motor","","","","","","",""
"482","188835","HierDyys5tnf6k","sub06","06","8","motor","65","img/motor_1.png","65","motor","1","4","1","0","0","",""
"null","188946","HierDyys5tnf6k","sub06","06","8","iti","null","img/motor_1.png","65","motor","","","","","","",""
"417","189373","HierDyys5tnf6k","sub06","06","8","motor","65","img/motor_1.png","65","motor","1","5","1","0","0","",""
"null","189484","HierDyys5tnf6k","sub06","06","8","iti","null","img/motor_1.png","65","motor","","","","","","",""
"425","189918","HierDyys5tnf6k","sub06","06","8","motor","76","img/motor_8.png","76","motor","8","6","1","0","0","",""
"null","190026","HierDyys5tnf6k","sub06","06","8","iti","null","img/motor_8.png","76","motor","","","","","","",""
"452","190488","HierDyys5tnf6k","sub06","06","8","motor","68","img/motor_3.png","68","motor","3","7","1","0","0","",""
"null","190599","HierDyys5tnf6k","sub06","06","8","iti","null","img/motor_3.png","68","motor","","","","","","",""
"460","191069","HierDyys5tnf6k","sub06","06","8","motor","72","img/motor_5.png","72","motor","5","8","1","0","0","",""
"null","191178","HierDyys5tnf6k","sub06","06","8","iti","null","img/motor_5.png","72","motor","","","","","","",""
"412","191600","HierDyys5tnf6k","sub06","06","8","motor","74","img/motor_6.png","74","motor","6","9","1","0","0","",""
"null","191711","HierDyys5tnf6k","sub06","06","8","iti","null","img/motor_6.png","74","motor","","","","","","",""
"562","192282","HierDyys5tnf6k","sub06","06","8","motor","83","img/motor_2.png","83","motor","2","10","1","0","0","",""
"null","192393","HierDyys5tnf6k","sub06","06","8","iti","null","img/motor_2.png","83","motor","","","","","","",""
"381","192783","HierDyys5tnf6k","sub06","06","8","motor","76","img/motor_8.png","76","motor","8","11","1","0","0","",""
"null","192892","HierDyys5tnf6k","sub06","06","8","iti","null","img/motor_8.png","76","motor","","","","","","",""
"474","193376","HierDyys5tnf6k","sub06","06","8","motor","65","img/motor_1.png","65","motor","1","12","1","0","0","",""
"null","193488","HierDyys5tnf6k","sub06","06","8","iti","null","img/motor_1.png","65","motor","","","","","","",""
"446","193943","HierDyys5tnf6k","sub06","06","8","motor","83","img/motor_2.png","83","motor","2","13","1","0","0","",""
"null","194053","HierDyys5tnf6k","sub06","06","8","iti","null","img/motor_2.png","83","motor","","","","","","",""
"444","194507","HierDyys5tnf6k","sub06","06","8","motor","83","img/motor_2.png","83","motor","2","14","1","0","0","",""
"null","194619","HierDyys5tnf6k","sub06","06","8","iti","null","img/motor_2.png","83","motor","","","","","","",""
"369","194998","HierDyys5tnf6k","sub06","06","8","motor","68","img/motor_3.png","68","motor","3","15","1","0","0","",""
"null","195108","HierDyys5tnf6k","sub06","06","8","iti","null","img/motor_3.png","68","motor","","","","","","",""
"376","195494","HierDyys5tnf6k","sub06","06","8","motor","76","img/motor_8.png","76","motor","8","16","1","0","0","",""
"null","195605","HierDyys5tnf6k","sub06","06","8","iti","null","img/motor_8.png","76","motor","","","","","","",""
"331","195947","HierDyys5tnf6k","sub06","06","8","motor","72","img/motor_5.png","72","motor","5","17","1","0","0","",""
"null","196058","HierDyys5tnf6k","sub06","06","8","iti","null","img/motor_5.png","72","motor","","","","","","",""
"409","196478","HierDyys5tnf6k","sub06","06","8","motor","70","img/motor_4.png","70","motor","4","18","1","0","0","",""
"null","196589","HierDyys5tnf6k","sub06","06","8","iti","null","img/motor_4.png","70","motor","","","","","","",""
"447","197046","HierDyys5tnf6k","sub06","06","8","motor","74","img/motor_5.png","72","motor","5","19","0","1","0","",""
"160","197217","HierDyys5tnf6k","sub06","06","8","motorRepeat","72","img/motor_5.png","72","motor","5","19","1","0","0","",""
"null","197328","HierDyys5tnf6k","sub06","06","8","iti","null","img/motor_5.png","72","motor","","","","","","",""
"432","197770","HierDyys5tnf6k","sub06","06","8","motor","75","img/motor_7.png","75","motor","7","20","1","0","0","",""
"null","197883","HierDyys5tnf6k","sub06","06","8","iti","null","img/motor_7.png","75","motor","","","","","","",""
"538","198429","HierDyys5tnf6k","sub06","06","8","motor","70","img/motor_3.png","68","motor","3","21","0","1","0","",""
"100","198540","HierDyys5tnf6k","sub06","06","8","motorRepeat","68","img/motor_3.png","68","motor","3","21","1","0","0","",""
"null","198650","HierDyys5tnf6k","sub06","06","8","iti","null","img/motor_3.png","68","motor","","","","","","",""
"47","198705","HierDyys5tnf6k","sub06","06","8","motor","68","img/motor_1.png","65","motor","1","22","0","1","0","",""
"365","199078","HierDyys5tnf6k","sub06","06","8","motorRepeat","65","img/motor_1.png","65","motor","1","22","1","0","0","",""
"null","199187","HierDyys5tnf6k","sub06","06","8","iti","null","img/motor_1.png","65","motor","","","","","","",""
"374","199568","HierDyys5tnf6k","sub06","06","8","motor","68","img/motor_3.png","68","motor","3","23","1","0","0","",""
"null","199677","HierDyys5tnf6k","sub06","06","8","iti","null","img/motor_3.png","68","motor","","","","","","",""
"396","200084","HierDyys5tnf6k","sub06","06","8","motor","76","img/motor_8.png","76","motor","8","24","1","0","0","",""
"null","200195","HierDyys5tnf6k","sub06","06","8","iti","null","img/motor_8.png","76","motor","","","","","","",""
"422","200627","HierDyys5tnf6k","sub06","06","8","motor","75","img/motor_7.png","75","motor","7","25","1","0","0","",""
"null","200737","HierDyys5tnf6k","sub06","06","8","iti","null","img/motor_7.png","75","motor","","","","","","",""
"409","201156","HierDyys5tnf6k","sub06","06","8","motor","70","img/motor_4.png","70","motor","4","26","1","0","0","",""
"null","201267","HierDyys5tnf6k","sub06","06","8","iti","null","img/motor_4.png","70","motor","","","","","","",""
"490","201768","HierDyys5tnf6k","sub06","06","8","motor","68","img/motor_2.png","83","motor","2","27","0","1","0","",""
"481","202261","HierDyys5tnf6k","sub06","06","8","motorRepeat","65","img/motor_2.png","83","motor","2","27","0","1","0","",""
"306","202575","HierDyys5tnf6k","sub06","06","8","motorRepeat","83","img/motor_2.png","83","motor","2","27","1","0","0","",""
"null","202685","HierDyys5tnf6k","sub06","06","8","iti","null","img/motor_2.png","83","motor","","","","","","",""
"399","203094","HierDyys5tnf6k","sub06","06","8","motor","74","img/motor_6.png","74","motor","6","28","1","0","0","",""
"23","203202","HierDyys5tnf6k","sub06","06","8","iti","72","img/motor_6.png","74","motor","","","","","","",""
"482","203693","HierDyys5tnf6k","sub06","06","8","motor","65","img/motor_1.png","65","motor","1","29","1","0","0","",""
"null","203800","HierDyys5tnf6k","sub06","06","8","iti","null","img/motor_1.png","65","motor","","","","","","",""
"639","204449","HierDyys5tnf6k","sub06","06","8","motor","83","img/motor_2.png","83","motor","2","30","1","0","0","",""
"null","204556","HierDyys5tnf6k","sub06","06","8","iti","null","img/motor_2.png","83","motor","","","","","","",""
"439","205006","HierDyys5tnf6k","sub06","06","8","motor","65","img/motor_1.png","65","motor","1","31","1","0","0","",""
"null","205114","HierDyys5tnf6k","sub06","06","8","iti","null","img/motor_1.png","65","motor","","","","","","",""
"786","205910","HierDyys5tnf6k","sub06","06","8","motor","74","img/motor_6.png","74","motor","6","32","1","0","0","",""
"null","206020","HierDyys5tnf6k","sub06","06","8","iti","null","img/motor_6.png","74","motor","","","","","","",""
"427","206455","HierDyys5tnf6k","sub06","06","8","motor","74","img/motor_6.png","74","motor","6","33","1","0","0","",""
"null","206564","HierDyys5tnf6k","sub06","06","8","iti","null","img/motor_6.png","74","motor","","","","","","",""
"48","206620","HierDyys5tnf6k","sub06","06","8","motor","74","img/motor_7.png","75","motor","7","34","0","1","0","",""
"354","206982","HierDyys5tnf6k","sub06","06","8","motorRepeat","75","img/motor_7.png","75","motor","7","34","1","0","0","",""
"null","207093","HierDyys5tnf6k","sub06","06","8","iti","null","img/motor_7.png","75","motor","","","","","","",""
"578","207681","HierDyys5tnf6k","sub06","06","8","motor","68","img/motor_3.png","68","motor","3","35","1","0","0","",""
"null","207792","HierDyys5tnf6k","sub06","06","8","iti","null","img/motor_3.png","68","motor","","","","","","",""
"313","208114","HierDyys5tnf6k","sub06","06","8","motor","70","img/motor_4.png","70","motor","4","36","1","0","0","",""
"null","208225","HierDyys5tnf6k","sub06","06","8","iti","null","img/motor_4.png","70","motor","","","","","","",""
"420","208655","HierDyys5tnf6k","sub06","06","8","motor","76","img/motor_8.png","76","motor","8","37","1","0","0","",""
"null","208766","HierDyys5tnf6k","sub06","06","8","iti","null","img/motor_8.png","76","motor","","","","","","",""
"445","209222","HierDyys5tnf6k","sub06","06","8","motor","70","img/motor_4.png","70","motor","4","38","1","0","0","",""
"null","209332","HierDyys5tnf6k","sub06","06","8","iti","null","img/motor_4.png","70","motor","","","","","","",""
"353","209695","HierDyys5tnf6k","sub06","06","8","motor","72","img/motor_5.png","72","motor","5","39","1","0","0","",""
"null","209805","HierDyys5tnf6k","sub06","06","8","iti","null","img/motor_5.png","72","motor","","","","","","",""
"621","210436","HierDyys5tnf6k","sub06","06","8","motor","75","img/motor_7.png","75","motor","7","40","1","0","0","",""
"null","210546","HierDyys5tnf6k","sub06","06","8","iti","null","img/motor_7.png","75","motor","","","","","","",""
"366","210923","HierDyys5tnf6k","sub06","06","8","motor","74","img/motor_5.png","72","motor","5","41","0","1","0","",""
"296","211229","HierDyys5tnf6k","sub06","06","8","motorRepeat","72","img/motor_5.png","72","motor","5","41","1","0","0","",""
"null","211340","HierDyys5tnf6k","sub06","06","8","iti","null","img/motor_5.png","72","motor","","","","","","",""
"455","211804","HierDyys5tnf6k","sub06","06","8","motor","75","img/motor_7.png","75","motor","7","42","1","0","0","",""
"null","211913","HierDyys5tnf6k","sub06","06","8","iti","null","img/motor_7.png","75","motor","","","","","","",""
"632","212553","HierDyys5tnf6k","sub06","06","8","motor","83","img/motor_2.png","83","motor","2","43","1","0","0","",""
"null","212659","HierDyys5tnf6k","sub06","06","8","iti","null","img/motor_2.png","83","motor","","","","","","",""
"413","213077","HierDyys5tnf6k","sub06","06","8","motor","76","img/motor_8.png","76","motor","8","44","1","0","0","",""
"null","213184","HierDyys5tnf6k","sub06","06","8","iti","null","img/motor_8.png","76","motor","","","","","","",""
"485","213674","HierDyys5tnf6k","sub06","06","8","motor","70","img/motor_4.png","70","motor","4","45","1","0","0","",""
"null","213780","HierDyys5tnf6k","sub06","06","8","iti","null","img/motor_4.png","70","motor","","","","","","",""
"482","214268","HierDyys5tnf6k","sub06","06","8","motor","68","img/motor_3.png","68","motor","3","46","1","0","0","",""
"null","214374","HierDyys5tnf6k","sub06","06","8","iti","null","img/motor_3.png","68","motor","","","","","","",""
"339","214718","HierDyys5tnf6k","sub06","06","8","motor","74","img/motor_6.png","74","motor","6","47","1","0","0","",""
"null","214828","HierDyys5tnf6k","sub06","06","8","iti","null","img/motor_6.png","74","motor","","","","","","",""
"380","215215","HierDyys5tnf6k","sub06","06","8","motor","70","img/motor_5.png","72","motor","5","48","0","1","0","",""
"79","215299","HierDyys5tnf6k","sub06","06","8","motorRepeat","72","img/motor_5.png","72","motor","5","48","1","0","0","",""
"null","215407","HierDyys5tnf6k","sub06","06","8","iti","null","img/motor_5.png","72","motor","","","","","","",""
"483","215899","HierDyys5tnf6k","sub06","06","8","motor","68","img/motor_3.png","68","motor","3","49","1","0","0","",""
"null","216005","HierDyys5tnf6k","sub06","06","8","iti","null","img/motor_3.png","68","motor","","","","","","",""
"401","216415","HierDyys5tnf6k","sub06","06","8","motor","76","img/motor_8.png","76","motor","8","50","1","0","0","",""
"null","216521","HierDyys5tnf6k","sub06","06","8","iti","null","img/motor_8.png","76","motor","","","","","","",""
"601","217131","HierDyys5tnf6k","sub06","06","8","motor","83","img/motor_2.png","83","motor","2","51","1","0","0","",""
"null","217239","HierDyys5tnf6k","sub06","06","8","iti","null","img/motor_2.png","83","motor","","","","","","",""
"364","217611","HierDyys5tnf6k","sub06","06","8","motor","75","img/motor_7.png","75","motor","7","52","1","0","0","",""
"null","217720","HierDyys5tnf6k","sub06","06","8","iti","null","img/motor_7.png","75","motor","","","","","","",""
"553","218280","HierDyys5tnf6k","sub06","06","8","motor","68","img/motor_3.png","68","motor","3","53","1","0","0","",""
"null","218388","HierDyys5tnf6k","sub06","06","8","iti","null","img/motor_3.png","68","motor","","","","","","",""
"490","218886","HierDyys5tnf6k","sub06","06","8","motor","68","img/motor_3.png","68","motor","3","54","1","0","0","",""
"null","218992","HierDyys5tnf6k","sub06","06","8","iti","null","img/motor_3.png","68","motor","","","","","","",""
"513","219513","HierDyys5tnf6k","sub06","06","8","motor","83","img/motor_2.png","83","motor","2","55","1","0","0","",""
"null","219620","HierDyys5tnf6k","sub06","06","8","iti","null","img/motor_2.png","83","motor","","","","","","",""
"352","219979","HierDyys5tnf6k","sub06","06","8","motor","76","img/motor_8.png","76","motor","8","56","1","0","0","",""
"null","220086","HierDyys5tnf6k","sub06","06","8","iti","null","img/motor_8.png","76","motor","","","","","","",""
"646","220740","HierDyys5tnf6k","sub06","06","8","motor","83","img/motor_2.png","83","motor","2","57","1","0","0","",""
"null","220849","HierDyys5tnf6k","sub06","06","8","iti","null","img/motor_2.png","83","motor","","","","","","",""
"565","221420","HierDyys5tnf6k","sub06","06","8","motor","68","img/motor_3.png","68","motor","3","58","1","0","0","",""
"null","221529","HierDyys5tnf6k","sub06","06","8","iti","null","img/motor_3.png","68","motor","","","","","","",""
"376","221911","HierDyys5tnf6k","sub06","06","8","motor","65","img/motor_1.png","65","motor","1","59","1","0","0","",""
"null","222020","HierDyys5tnf6k","sub06","06","8","iti","null","img/motor_1.png","65","motor","","","","","","",""
"404","222430","HierDyys5tnf6k","sub06","06","8","motor","70","img/motor_4.png","70","motor","4","60","1","0","0","",""
"null","222537","HierDyys5tnf6k","sub06","06","8","iti","null","img/motor_4.png","70","motor","","","","","","",""
"485","223031","HierDyys5tnf6k","sub06","06","8","motor","83","img/motor_2.png","83","motor","2","61","1","0","0","",""
"null","223139","HierDyys5tnf6k","sub06","06","8","iti","null","img/motor_2.png","83","motor","","","","","","",""
"477","223625","HierDyys5tnf6k","sub06","06","8","motor","74","img/motor_7.png","75","motor","7","62","0","1","0","",""
"138","223771","HierDyys5tnf6k","sub06","06","8","motorRepeat","75","img/motor_7.png","75","motor","7","62","1","0","0","",""
"null","223883","HierDyys5tnf6k","sub06","06","8","iti","null","img/motor_7.png","75","motor","","","","","","",""
"588","224478","HierDyys5tnf6k","sub06","06","8","motor","70","img/motor_4.png","70","motor","4","63","1","0","0","",""
"null","224584","HierDyys5tnf6k","sub06","06","8","iti","null","img/motor_4.png","70","motor","","","","","","",""
"492","225086","HierDyys5tnf6k","sub06","06","8","motor","68","img/motor_3.png","68","motor","3","64","1","0","0","",""
"null","225192","HierDyys5tnf6k","sub06","06","8","iti","null","img/motor_3.png","68","motor","","","","","","",""
"427","225628","HierDyys5tnf6k","sub06","06","8","motor","75","img/motor_7.png","75","motor","7","65","1","0","0","",""
"null","225738","HierDyys5tnf6k","sub06","06","8","iti","null","img/motor_7.png","75","motor","","","","","","",""
"453","226198","HierDyys5tnf6k","sub06","06","8","motor","68","img/motor_3.png","68","motor","3","66","1","0","0","",""
"null","226304","HierDyys5tnf6k","sub06","06","8","iti","null","img/motor_3.png","68","motor","","","","","","",""
"355","226666","HierDyys5tnf6k","sub06","06","8","motor","74","img/motor_5.png","72","motor","5","67","0","1","0","",""
"253","226930","HierDyys5tnf6k","sub06","06","8","motorRepeat","72","img/motor_5.png","72","motor","5","67","1","0","0","",""
"null","227039","HierDyys5tnf6k","sub06","06","8","iti","null","img/motor_5.png","72","motor","","","","","","",""
"427","227473","HierDyys5tnf6k","sub06","06","8","motor","70","img/motor_3.png","68","motor","3","68","0","1","0","",""
"229","227709","HierDyys5tnf6k","sub06","06","8","motorRepeat","68","img/motor_3.png","68","motor","3","68","1","0","0","",""
"null","227815","HierDyys5tnf6k","sub06","06","8","iti","null","img/motor_3.png","68","motor","","","","","","",""
"358","228181","HierDyys5tnf6k","sub06","06","8","motor","68","img/motor_3.png","68","motor","3","69","1","0","0","",""
"null","228289","HierDyys5tnf6k","sub06","06","8","iti","null","img/motor_3.png","68","motor","","","","","","",""
"130","228427","HierDyys5tnf6k","sub06","06","8","motor","68","img/motor_2.png","83","motor","2","70","0","1","0","",""
"323","228759","HierDyys5tnf6k","sub06","06","8","motorRepeat","65","img/motor_2.png","83","motor","2","70","0","1","0","",""
"251","229018","HierDyys5tnf6k","sub06","06","8","motorRepeat","83","img/motor_2.png","83","motor","2","70","1","0","0","",""
"null","229127","HierDyys5tnf6k","sub06","06","8","iti","null","img/motor_2.png","83","motor","","","","","","",""
"412","229547","HierDyys5tnf6k","sub06","06","8","motor","72","img/motor_5.png","72","motor","5","71","1","0","0","",""
"null","229656","HierDyys5tnf6k","sub06","06","8","iti","null","img/motor_5.png","72","motor","","","","","","",""
"430","230094","HierDyys5tnf6k","sub06","06","8","motor","65","img/motor_1.png","65","motor","1","72","1","0","0","",""
"null","230201","HierDyys5tnf6k","sub06","06","8","iti","null","img/motor_1.png","65","motor","","","","","","",""
"537","230746","HierDyys5tnf6k","sub06","06","8","motor","75","img/motor_8.png","76","motor","8","73","0","1","0","",""
"220","230976","HierDyys5tnf6k","sub06","06","8","motorRepeat","76","img/motor_8.png","76","motor","8","73","1","0","0","",""
"null","231082","HierDyys5tnf6k","sub06","06","8","iti","null","img/motor_8.png","76","motor","","","","","","",""
"418","231508","HierDyys5tnf6k","sub06","06","8","motor","65","img/motor_1.png","65","motor","1","74","1","0","0","",""
"null","231617","HierDyys5tnf6k","sub06","06","8","iti","null","img/motor_1.png","65","motor","","","","","","",""
"397","232020","HierDyys5tnf6k","sub06","06","8","motor","76","img/motor_8.png","76","motor","8","75","1","0","0","",""
"null","232129","HierDyys5tnf6k","sub06","06","8","iti","null","img/motor_8.png","76","motor","","","","","","",""
"868","233007","HierDyys5tnf6k","sub06","06","8","motor","68","img/motor_2.png","83","motor","2","76","0","1","0","",""
"339","233355","HierDyys5tnf6k","sub06","06","8","motorRepeat","83","img/motor_2.png","83","motor","2","76","1","0","0","",""
"null","233465","HierDyys5tnf6k","sub06","06","8","iti","null","img/motor_2.png","83","motor","","","","","","",""
"520","233995","HierDyys5tnf6k","sub06","06","8","motor","65","img/motor_1.png","65","motor","1","77","1","0","0","",""
"null","234106","HierDyys5tnf6k","sub06","06","8","iti","null","img/motor_1.png","65","motor","","","","","","",""
"372","234489","HierDyys5tnf6k","sub06","06","8","motor","83","img/motor_2.png","83","motor","2","78","1","0","0","",""
"null","234598","HierDyys5tnf6k","sub06","06","8","iti","null","img/motor_2.png","83","motor","","","","","","",""
"348","234955","HierDyys5tnf6k","sub06","06","8","motor","65","img/motor_1.png","65","motor","1","79","1","0","0","",""
"null","235065","HierDyys5tnf6k","sub06","06","8","iti","null","img/motor_1.png","65","motor","","","","","","",""
"593","235667","HierDyys5tnf6k","sub06","06","8","motor","75","img/motor_7.png","75","motor","7","80","1","0","0","",""
"null","235778","HierDyys5tnf6k","sub06","06","8","iti","null","img/motor_7.png","75","motor","","","","","","",""
"463","236249","HierDyys5tnf6k","sub06","06","8","motor","74","img/motor_6.png","74","motor","6","81","1","0","0","",""
"null","236360","HierDyys5tnf6k","sub06","06","8","iti","null","img/motor_6.png","74","motor","","","","","","",""
"603","236972","HierDyys5tnf6k","sub06","06","8","motor","83","img/motor_2.png","83","motor","2","82","1","0","0","",""
"null","237083","HierDyys5tnf6k","sub06","06","8","iti","null","img/motor_2.png","83","motor","","","","","","",""
"361","237454","HierDyys5tnf6k","sub06","06","8","motor","70","img/motor_4.png","70","motor","4","83","1","0","0","",""
"null","237565","HierDyys5tnf6k","sub06","06","8","iti","null","img/motor_4.png","70","motor","","","","","","",""
"406","237981","HierDyys5tnf6k","sub06","06","8","motor","76","img/motor_8.png","76","motor","8","84","1","0","0","",""
"null","238092","HierDyys5tnf6k","sub06","06","8","iti","null","img/motor_8.png","76","motor","","","","","","",""
"684","238787","HierDyys5tnf6k","sub06","06","8","motor","83","img/motor_2.png","83","motor","2","85","1","0","0","",""
"null","238897","HierDyys5tnf6k","sub06","06","8","iti","null","img/motor_2.png","83","motor","","","","","","",""
"334","239241","HierDyys5tnf6k","sub06","06","8","motor","70","img/motor_4.png","70","motor","4","86","1","0","0","",""
"null","239350","HierDyys5tnf6k","sub06","06","8","iti","null","img/motor_4.png","70","motor","","","","","","",""
"297","239657","HierDyys5tnf6k","sub06","06","8","motor","72","img/motor_7.png","75","motor","7","87","0","1","0","",""
"197","239864","HierDyys5tnf6k","sub06","06","8","motorRepeat","74","img/motor_7.png","75","motor","7","87","0","1","0","",""
"310","240184","HierDyys5tnf6k","sub06","06","8","motorRepeat","75","img/motor_7.png","75","motor","7","87","1","0","0","",""
"null","240295","HierDyys5tnf6k","sub06","06","8","iti","null","img/motor_7.png","75","motor","","","","","","",""
"365","240671","HierDyys5tnf6k","sub06","06","8","motor","76","img/motor_8.png","76","motor","8","88","1","0","0","",""
"null","240783","HierDyys5tnf6k","sub06","06","8","iti","null","img/motor_8.png","76","motor","","","","","","",""
"301","241094","HierDyys5tnf6k","sub06","06","8","motor","72","img/motor_5.png","72","motor","5","89","1","0","0","",""
"null","241204","HierDyys5tnf6k","sub06","06","8","iti","null","img/motor_5.png","72","motor","","","","","","",""
"567","241781","HierDyys5tnf6k","sub06","06","8","motor","68","img/motor_2.png","83","motor","2","90","0","1","0","",""
"202","241994","HierDyys5tnf6k","sub06","06","8","motorRepeat","83","img/motor_2.png","83","motor","2","90","1","0","0","",""
"null","242105","HierDyys5tnf6k","sub06","06","8","iti","null","img/motor_2.png","83","motor","","","","","","",""
"451","242564","HierDyys5tnf6k","sub06","06","8","motor","72","img/motor_5.png","72","motor","5","91","1","0","0","",""
"null","242676","HierDyys5tnf6k","sub06","06","8","iti","null","img/motor_5.png","72","motor","","","","","","",""
"460","243146","HierDyys5tnf6k","sub06","06","8","motor","65","img/motor_1.png","65","motor","1","92","1","0","0","",""
"null","243257","HierDyys5tnf6k","sub06","06","8","iti","null","img/motor_1.png","65","motor","","","","","","",""
"486","243753","HierDyys5tnf6k","sub06","06","8","motor","83","img/motor_2.png","83","motor","2","93","1","0","0","",""
"null","243864","HierDyys5tnf6k","sub06","06","8","iti","null","img/motor_2.png","83","motor","","","","","","",""
"398","244272","HierDyys5tnf6k","sub06","06","8","motor","72","img/motor_6.png","74","motor","6","94","0","1","0","",""
"291","244573","HierDyys5tnf6k","sub06","06","8","motorRepeat","74","img/motor_6.png","74","motor","6","94","1","0","0","",""
"null","244684","HierDyys5tnf6k","sub06","06","8","iti","null","img/motor_6.png","74","motor","","","","","","",""
"383","245077","HierDyys5tnf6k","sub06","06","8","motor","75","img/motor_7.png","75","motor","7","95","1","0","0","",""
"null","245188","HierDyys5tnf6k","sub06","06","8","iti","null","img/motor_7.png","75","motor","","","","","","",""
"412","245608","HierDyys5tnf6k","sub06","06","8","motor","72","img/motor_6.png","74","motor","6","96","0","1","0","",""
"208","245824","HierDyys5tnf6k","sub06","06","8","motorRepeat","74","img/motor_6.png","74","motor","6","96","1","0","0","",""
"null","245934","HierDyys5tnf6k","sub06","06","8","iti","null","img/motor_6.png","74","motor","","","","","","",""
"395","246339","HierDyys5tnf6k","sub06","06","8","motor","76","img/motor_8.png","76","motor","8","97","1","0","0","",""
"null","246451","HierDyys5tnf6k","sub06","06","8","iti","null","img/motor_8.png","76","motor","","","","","","",""
"370","246830","HierDyys5tnf6k","sub06","06","8","motor","74","img/motor_7.png","75","motor","7","98","0","1","0","",""
"0","246837","HierDyys5tnf6k","sub06","06","8","motorRepeat","76","img/motor_7.png","75","motor","7","98","0","1","0","",""
"434","247282","HierDyys5tnf6k","sub06","06","8","motorRepeat","75","img/motor_7.png","75","motor","7","98","1","0","0","",""
"null","247392","HierDyys5tnf6k","sub06","06","8","iti","null","img/motor_7.png","75","motor","","","","","","",""
"1101","248503","HierDyys5tnf6k","sub06","06","8","motor","68","img/motor_2.png","83","motor","2","99","0","1","0","",""
"250","248763","HierDyys5tnf6k","sub06","06","8","motorRepeat","83","img/motor_2.png","83","motor","2","99","1","0","0","",""
"null","248873","HierDyys5tnf6k","sub06","06","8","iti","null","img/motor_2.png","83","motor","","","","","","",""
"486","249370","HierDyys5tnf6k","sub06","06","8","motor","70","img/motor_4.png","70","motor","4","100","1","0","0","",""
"null","249482","HierDyys5tnf6k","sub06","06","8","iti","null","img/motor_4.png","70","motor","","","","","","",""
"643","250135","HierDyys5tnf6k","sub06","06","8","motor","75","img/motor_7.png","75","motor","7","101","1","0","0","",""
"null","250247","HierDyys5tnf6k","sub06","06","8","iti","null","img/motor_7.png","75","motor","","","","","","",""
"644","250899","HierDyys5tnf6k","sub06","06","8","motor","83","img/motor_2.png","83","motor","2","102","1","0","0","",""
"null","251010","HierDyys5tnf6k","sub06","06","8","iti","null","img/motor_2.png","83","motor","","","","","","",""
"418","251437","HierDyys5tnf6k","sub06","06","8","motor","72","img/motor_5.png","72","motor","5","103","1","0","0","",""
"null","251547","HierDyys5tnf6k","sub06","06","8","iti","null","img/motor_5.png","72","motor","","","","","","",""
"337","251894","HierDyys5tnf6k","sub06","06","8","motor","72","img/motor_5.png","72","motor","5","104","1","0","0","",""
"null","252005","HierDyys5tnf6k","sub06","06","8","iti","null","img/motor_5.png","72","motor","","","","","","",""
"433","252447","HierDyys5tnf6k","sub06","06","8","motor","74","img/motor_6.png","74","motor","6","105","1","0","0","",""
"null","252556","HierDyys5tnf6k","sub06","06","8","iti","null","img/motor_6.png","74","motor","","","","","","",""
"453","253019","HierDyys5tnf6k","sub06","06","8","motor","70","img/motor_4.png","70","motor","4","106","1","0","0","",""
"null","253130","HierDyys5tnf6k","sub06","06","8","iti","null","img/motor_4.png","70","motor","","","","","","",""
"420","253560","HierDyys5tnf6k","sub06","06","8","motor","72","img/motor_5.png","72","motor","5","107","1","0","0","",""
"null","253671","HierDyys5tnf6k","sub06","06","8","iti","null","img/motor_5.png","72","motor","","","","","","",""
"591","254272","HierDyys5tnf6k","sub06","06","8","motor","83","img/motor_2.png","83","motor","2","108","1","0","0","",""
"null","254383","HierDyys5tnf6k","sub06","06","8","iti","null","img/motor_2.png","83","motor","","","","","","",""
"498","254891","HierDyys5tnf6k","sub06","06","8","motor","65","img/motor_1.png","65","motor","1","109","1","0","0","",""
"null","255002","HierDyys5tnf6k","sub06","06","8","iti","null","img/motor_1.png","65","motor","","","","","","",""
"474","255486","HierDyys5tnf6k","sub06","06","8","motor","74","img/motor_6.png","74","motor","6","110","1","0","0","",""
"null","255596","HierDyys5tnf6k","sub06","06","8","iti","null","img/motor_6.png","74","motor","","","","","","",""
"615","256219","HierDyys5tnf6k","sub06","06","8","motor","75","img/motor_7.png","75","motor","7","111","1","0","0","",""
"null","256327","HierDyys5tnf6k","sub06","06","8","iti","null","img/motor_7.png","75","motor","","","","","","",""
"597","256934","HierDyys5tnf6k","sub06","06","8","motor","65","img/motor_1.png","65","motor","1","112","1","0","0","",""
"null","257044","HierDyys5tnf6k","sub06","06","8","iti","null","img/motor_1.png","65","motor","","","","","","",""
"489","257542","HierDyys5tnf6k","sub06","06","8","motor","76","img/motor_8.png","76","motor","8","113","1","0","0","",""
"null","257652","HierDyys5tnf6k","sub06","06","8","iti","null","img/motor_8.png","76","motor","","","","","","",""
"526","258188","HierDyys5tnf6k","sub06","06","8","motor","68","img/motor_3.png","68","motor","3","114","1","0","0","",""
"null","258298","HierDyys5tnf6k","sub06","06","8","iti","null","img/motor_3.png","68","motor","","","","","","",""
"542","258850","HierDyys5tnf6k","sub06","06","8","motor","75","img/motor_7.png","75","motor","7","115","1","0","0","",""
"null","258962","HierDyys5tnf6k","sub06","06","8","iti","null","img/motor_7.png","75","motor","","","","","","",""
"367","259339","HierDyys5tnf6k","sub06","06","8","motor","74","img/motor_6.png","74","motor","6","116","1","0","0","",""
"null","259450","HierDyys5tnf6k","sub06","06","8","iti","null","img/motor_6.png","74","motor","","","","","","",""
"320","259781","HierDyys5tnf6k","sub06","06","8","motor","72","img/motor_5.png","72","motor","5","117","1","0","0","",""
"null","259891","HierDyys5tnf6k","sub06","06","8","iti","null","img/motor_5.png","72","motor","","","","","","",""
"399","260303","HierDyys5tnf6k","sub06","06","8","motor","76","img/motor_8.png","76","motor","8","118","1","0","0","",""
"null","260415","HierDyys5tnf6k","sub06","06","8","iti","null","img/motor_8.png","76","motor","","","","","","",""
"599","261026","HierDyys5tnf6k","sub06","06","8","motor","70","img/motor_4.png","70","motor","4","119","1","0","0","",""
"null","261138","HierDyys5tnf6k","sub06","06","8","iti","null","img/motor_4.png","70","motor","","","","","","",""
"311","261461","HierDyys5tnf6k","sub06","06","8","motor","72","img/motor_6.png","74","motor","6","120","0","1","0","",""
"267","261739","HierDyys5tnf6k","sub06","06","8","motorRepeat","74","img/motor_6.png","74","motor","6","120","1","0","0","",""
"null","261851","HierDyys5tnf6k","sub06","06","8","iti","null","img/motor_6.png","74","motor","","","","","","",""
"477","262339","HierDyys5tnf6k","sub06","06","8","motor","72","img/motor_5.png","72","motor","5","121","1","0","0","",""
"null","262449","HierDyys5tnf6k","sub06","06","8","iti","null","img/motor_5.png","72","motor","","","","","","",""
"564","263024","HierDyys5tnf6k","sub06","06","8","motor","68","img/motor_3.png","68","motor","3","122","1","0","0","",""
"null","263136","HierDyys5tnf6k","sub06","06","8","iti","null","img/motor_3.png","68","motor","","","","","","",""
"437","263583","HierDyys5tnf6k","sub06","06","8","motor","72","img/motor_6.png","74","motor","6","123","0","1","0","",""
"233","263825","HierDyys5tnf6k","sub06","06","8","motorRepeat","74","img/motor_6.png","74","motor","6","123","1","0","0","",""
"null","263937","HierDyys5tnf6k","sub06","06","8","iti","null","img/motor_6.png","74","motor","","","","","","",""
"445","264395","HierDyys5tnf6k","sub06","06","8","motor","83","img/motor_1.png","65","motor","1","124","0","1","0","",""
"175","264582","HierDyys5tnf6k","sub06","06","8","motorRepeat","65","img/motor_1.png","65","motor","1","124","1","0","0","",""
"null","264695","HierDyys5tnf6k","sub06","06","8","iti","null","img/motor_1.png","65","motor","","","","","","",""
"544","265250","HierDyys5tnf6k","sub06","06","8","motor","72","img/motor_5.png","72","motor","5","125","1","0","0","",""
"null","265360","HierDyys5tnf6k","sub06","06","8","iti","null","img/motor_5.png","72","motor","","","","","","",""
"383","265755","HierDyys5tnf6k","sub06","06","8","motor","74","img/motor_6.png","74","motor","6","126","1","0","0","",""
"null","265867","HierDyys5tnf6k","sub06","06","8","iti","null","img/motor_6.png","74","motor","","","","","","",""
"568","266446","HierDyys5tnf6k","sub06","06","8","motor","83","img/motor_2.png","83","motor","2","127","1","0","0","",""
"null","266555","HierDyys5tnf6k","sub06","06","8","iti","null","img/motor_2.png","83","motor","","","","","","",""
"368","266933","HierDyys5tnf6k","sub06","06","8","motor","70","img/motor_4.png","70","motor","4","128","1","0","0","",""
"null","267044","HierDyys5tnf6k","sub06","06","8","iti","null","img/motor_4.png","70","motor","","","","","","",""
"561","267614","HierDyys5tnf6k","sub06","06","8","motor","83","img/motor_2.png","83","motor","2","129","1","0","0","",""
"null","267723","HierDyys5tnf6k","sub06","06","8","iti","null","img/motor_2.png","83","motor","","","","","","",""
"352","268081","HierDyys5tnf6k","sub06","06","8","motor","65","img/motor_1.png","65","motor","1","130","1","0","0","",""
"null","268192","HierDyys5tnf6k","sub06","06","8","iti","null","img/motor_1.png","65","motor","","","","","","",""
"527","268730","HierDyys5tnf6k","sub06","06","8","motor","74","img/motor_6.png","74","motor","6","131","1","0","0","",""
"null","268836","HierDyys5tnf6k","sub06","06","8","iti","null","img/motor_6.png","74","motor","","","","","","",""
"416","269261","HierDyys5tnf6k","sub06","06","8","motor","75","img/motor_7.png","75","motor","7","132","1","0","0","",""
"null","269373","HierDyys5tnf6k","sub06","06","8","iti","null","img/motor_7.png","75","motor","","","","","","",""
"350","269732","HierDyys5tnf6k","sub06","06","8","motor","74","img/motor_7.png","75","motor","7","133","0","1","0","",""
"222","269962","HierDyys5tnf6k","sub06","06","8","motorRepeat","75","img/motor_7.png","75","motor","7","133","1","0","0","",""
"null","270075","HierDyys5tnf6k","sub06","06","8","iti","null","img/motor_7.png","75","motor","","","","","","",""
"461","270544","HierDyys5tnf6k","sub06","06","8","motor","72","img/motor_4.png","70","motor","4","134","0","1","0","",""
"378","270928","HierDyys5tnf6k","sub06","06","8","motorRepeat","70","img/motor_4.png","70","motor","4","134","1","0","0","",""
"null","271036","HierDyys5tnf6k","sub06","06","8","iti","null","img/motor_4.png","70","motor","","","","","","",""
"494","271538","HierDyys5tnf6k","sub06","06","8","motor","68","img/motor_3.png","68","motor","3","135","1","0","0","",""
"null","271648","HierDyys5tnf6k","sub06","06","8","iti","null","img/motor_3.png","68","motor","","","","","","",""
"379","272035","HierDyys5tnf6k","sub06","06","8","motor","72","img/motor_5.png","72","motor","5","136","1","0","0","",""
"null","272143","HierDyys5tnf6k","sub06","06","8","iti","null","img/motor_5.png","72","motor","","","","","","",""
"446","272598","HierDyys5tnf6k","sub06","06","8","motor","76","img/motor_8.png","76","motor","8","137","1","0","0","",""
"null","272708","HierDyys5tnf6k","sub06","06","8","iti","null","img/motor_8.png","76","motor","","","","","","",""
"443","273161","HierDyys5tnf6k","sub06","06","8","motor","65","img/motor_1.png","65","motor","1","138","1","0","0","",""
"null","273272","HierDyys5tnf6k","sub06","06","8","iti","null","img/motor_1.png","65","motor","","","","","","",""
"495","273777","HierDyys5tnf6k","sub06","06","8","motor","68","img/motor_3.png","68","motor","3","139","1","0","0","",""
"null","273888","HierDyys5tnf6k","sub06","06","8","iti","null","img/motor_3.png","68","motor","","","","","","",""
"552","274450","HierDyys5tnf6k","sub06","06","8","motor","68","img/motor_3.png","68","motor","3","140","1","0","0","",""
"null","274560","HierDyys5tnf6k","sub06","06","8","iti","null","img/motor_3.png","68","motor","","","","","","",""
"407","274977","HierDyys5tnf6k","sub06","06","8","motor","74","img/motor_7.png","75","motor","7","141","0","1","0","",""
"177","275164","HierDyys5tnf6k","sub06","06","8","motorRepeat","75","img/motor_7.png","75","motor","7","141","1","0","0","",""
"null","275274","HierDyys5tnf6k","sub06","06","8","iti","null","img/motor_7.png","75","motor","","","","","","",""
"460","275743","HierDyys5tnf6k","sub06","06","8","motor","75","img/motor_7.png","75","motor","7","142","1","0","0","",""
"null","275854","HierDyys5tnf6k","sub06","06","8","iti","null","img/motor_7.png","75","motor","","","","","","",""
"765","276625","HierDyys5tnf6k","sub06","06","8","motor","68","img/motor_2.png","83","motor","2","143","0","1","0","",""
"149","276780","HierDyys5tnf6k","sub06","06","8","motorRepeat","83","img/motor_2.png","83","motor","2","143","1","0","0","",""
"null","276888","HierDyys5tnf6k","sub06","06","8","iti","null","img/motor_2.png","83","motor","","","","","","",""
"374","277270","HierDyys5tnf6k","sub06","06","8","motor","76","img/motor_8.png","76","motor","8","144","1","0","0","",""
"null","277377","HierDyys5tnf6k","sub06","06","8","iti","null","img/motor_8.png","76","motor","","","","","","",""
"355","277739","HierDyys5tnf6k","sub06","06","8","motor","65","img/motor_1.png","65","motor","1","145","1","0","0","",""
"null","277846","HierDyys5tnf6k","sub06","06","8","iti","null","img/motor_1.png","65","motor","","","","","","",""
"484","278337","HierDyys5tnf6k","sub06","06","8","motor","68","img/motor_3.png","68","motor","3","146","1","0","0","",""
"null","278446","HierDyys5tnf6k","sub06","06","8","iti","null","img/motor_3.png","68","motor","","","","","","",""
"590","279041","HierDyys5tnf6k","sub06","06","8","motor","76","img/motor_8.png","76","motor","8","147","1","0","0","",""
"null","279149","HierDyys5tnf6k","sub06","06","8","iti","null","img/motor_8.png","76","motor","","","","","","",""
"651","279808","HierDyys5tnf6k","sub06","06","8","motor","68","img/motor_3.png","68","motor","3","148","1","0","0","",""
"null","279916","HierDyys5tnf6k","sub06","06","8","iti","null","img/motor_3.png","68","motor","","","","","","",""
"410","280333","HierDyys5tnf6k","sub06","06","8","motor","76","img/motor_8.png","76","motor","8","149","1","0","0","",""
"null","280440","HierDyys5tnf6k","sub06","06","8","iti","null","img/motor_8.png","76","motor","","","","","","",""
"360","280806","HierDyys5tnf6k","sub06","06","8","motor","65","img/motor_1.png","65","motor","1","150","1","0","0","",""
"null","280914","HierDyys5tnf6k","sub06","06","8","iti","null","img/motor_1.png","65","motor","","","","","","",""
"533","281454","HierDyys5tnf6k","sub06","06","8","motor","75","img/motor_7.png","75","motor","7","151","1","0","0","",""
"null","281561","HierDyys5tnf6k","sub06","06","8","iti","null","img/motor_7.png","75","motor","","","","","","",""
"504","282074","HierDyys5tnf6k","sub06","06","8","motor","83","img/motor_2.png","83","motor","2","152","1","0","0","",""
"null","282181","HierDyys5tnf6k","sub06","06","8","iti","null","img/motor_2.png","83","motor","","","","","","",""
"483","282673","HierDyys5tnf6k","sub06","06","8","motor","76","img/motor_8.png","76","motor","8","153","1","0","0","",""
"null","282781","HierDyys5tnf6k","sub06","06","8","iti","null","img/motor_8.png","76","motor","","","","","","",""
"523","283313","HierDyys5tnf6k","sub06","06","8","motor","75","img/motor_7.png","75","motor","7","154","1","0","0","",""
"null","283422","HierDyys5tnf6k","sub06","06","8","iti","null","img/motor_7.png","75","motor","","","","","","",""
"479","283909","HierDyys5tnf6k","sub06","06","8","motor","76","img/motor_8.png","76","motor","8","155","1","0","0","",""
"null","284018","HierDyys5tnf6k","sub06","06","8","iti","null","img/motor_8.png","76","motor","","","","","","",""
"377","284403","HierDyys5tnf6k","sub06","06","8","motor","74","img/motor_6.png","74","motor","6","156","1","0","0","",""
"null","284514","HierDyys5tnf6k","sub06","06","8","iti","null","img/motor_6.png","74","motor","","","","","","",""
"1280","285800","HierDyys5tnf6k","sub06","06","8","motor","72","img/motor_5.png","72","motor","5","157","1","0","0","",""
"null","285907","HierDyys5tnf6k","sub06","06","8","iti","null","img/motor_5.png","72","motor","","","","","","",""
"392","286307","HierDyys5tnf6k","sub06","06","8","motor","76","img/motor_8.png","76","motor","8","158","1","0","0","",""
"null","286413","HierDyys5tnf6k","sub06","06","8","iti","null","img/motor_8.png","76","motor","","","","","","",""
"568","286990","HierDyys5tnf6k","sub06","06","8","motor","74","img/motor_6.png","74","motor","6","159","1","0","0","",""
"null","287097","HierDyys5tnf6k","sub06","06","8","iti","null","img/motor_6.png","74","motor","","","","","","",""
"374","287480","HierDyys5tnf6k","sub06","06","8","motor","76","img/motor_8.png","76","motor","8","160","1","0","0","",""
"null","287587","HierDyys5tnf6k","sub06","06","8","iti","null","img/motor_8.png","76","motor","","","","","","",""
"593","288188","HierDyys5tnf6k","sub06","06","8","motor","68","img/motor_3.png","68","motor","3","161","1","0","0","",""
"null","288293","HierDyys5tnf6k","sub06","06","8","iti","null","img/motor_3.png","68","motor","","","","","","",""
"615","288916","HierDyys5tnf6k","sub06","06","8","motor","83","img/motor_2.png","83","motor","2","162","1","0","0","",""
"null","289025","HierDyys5tnf6k","sub06","06","8","iti","null","img/motor_2.png","83","motor","","","","","","",""
"593","289627","HierDyys5tnf6k","sub06","06","8","motor","74","img/motor_6.png","74","motor","6","163","1","0","0","",""
"null","289736","HierDyys5tnf6k","sub06","06","8","iti","null","img/motor_6.png","74","motor","","","","","","",""
"337","290081","HierDyys5tnf6k","sub06","06","8","motor","74","img/motor_6.png","74","motor","6","164","1","0","0","",""
"null","290190","HierDyys5tnf6k","sub06","06","8","iti","null","img/motor_6.png","74","motor","","","","","","",""
"563","290761","HierDyys5tnf6k","sub06","06","8","motor","75","img/motor_7.png","75","motor","7","165","1","0","0","",""
"null","290869","HierDyys5tnf6k","sub06","06","8","iti","null","img/motor_7.png","75","motor","","","","","","",""
"457","291334","HierDyys5tnf6k","sub06","06","8","motor","68","img/motor_3.png","68","motor","3","166","1","0","0","",""
"null","291441","HierDyys5tnf6k","sub06","06","8","iti","null","img/motor_3.png","68","motor","","","","","","",""
"434","291883","HierDyys5tnf6k","sub06","06","8","motor","74","img/motor_6.png","74","motor","6","167","1","0","0","",""
"null","291989","HierDyys5tnf6k","sub06","06","8","iti","null","img/motor_6.png","74","motor","","","","","","",""
"576","292573","HierDyys5tnf6k","sub06","06","8","motor","68","img/motor_3.png","68","motor","3","168","1","0","0","",""
"null","292680","HierDyys5tnf6k","sub06","06","8","iti","null","img/motor_3.png","68","motor","","","","","","",""
"377","293066","HierDyys5tnf6k","sub06","06","8","motor","65","img/motor_2.png","83","motor","2","169","0","1","0","",""
"236","293311","HierDyys5tnf6k","sub06","06","8","motorRepeat","83","img/motor_2.png","83","motor","2","169","1","0","0","",""
"null","293418","HierDyys5tnf6k","sub06","06","8","iti","null","img/motor_2.png","83","motor","","","","","","",""
"347","293773","HierDyys5tnf6k","sub06","06","8","motor","74","img/motor_6.png","74","motor","6","170","1","0","0","",""
"null","293879","HierDyys5tnf6k","sub06","06","8","iti","null","img/motor_6.png","74","motor","","","","","","",""
"478","294366","HierDyys5tnf6k","sub06","06","8","motor","68","img/motor_3.png","68","motor","3","171","1","0","0","",""
"null","294473","HierDyys5tnf6k","sub06","06","8","iti","null","img/motor_3.png","68","motor","","","","","","",""
"417","294897","HierDyys5tnf6k","sub06","06","8","motor","70","img/motor_4.png","70","motor","4","172","1","0","0","",""
"null","295006","HierDyys5tnf6k","sub06","06","8","iti","null","img/motor_4.png","70","motor","","","","","","",""
"373","295386","HierDyys5tnf6k","sub06","06","8","motor","72","img/motor_5.png","72","motor","5","173","1","0","0","",""
"null","295494","HierDyys5tnf6k","sub06","06","8","iti","null","img/motor_5.png","72","motor","","","","","","",""
"550","296052","HierDyys5tnf6k","sub06","06","8","motor","70","img/motor_4.png","70","motor","4","174","1","0","0","",""
"null","296160","HierDyys5tnf6k","sub06","06","8","iti","null","img/motor_4.png","70","motor","","","","","","",""
"595","296765","HierDyys5tnf6k","sub06","06","8","motor","65","img/motor_1.png","65","motor","1","175","1","0","0","",""
"null","296872","HierDyys5tnf6k","sub06","06","8","iti","null","img/motor_1.png","65","motor","","","","","","",""
"461","297342","HierDyys5tnf6k","sub06","06","8","motor","72","img/motor_5.png","72","motor","5","176","1","0","0","",""
"null","297449","HierDyys5tnf6k","sub06","06","8","iti","null","img/motor_5.png","72","motor","","","","","","",""
"356","297814","HierDyys5tnf6k","sub06","06","8","motor","72","img/motor_5.png","72","motor","5","177","1","0","0","",""
"null","297920","HierDyys5tnf6k","sub06","06","8","iti","null","img/motor_5.png","72","motor","","","","","","",""
"177","298105","HierDyys5tnf6k","sub06","06","8","motor","72","img/motor_3.png","68","motor","3","178","0","1","0","",""
"277","298390","HierDyys5tnf6k","sub06","06","8","motorRepeat","70","img/motor_3.png","68","motor","3","178","0","1","0","",""
"82","298480","HierDyys5tnf6k","sub06","06","8","motorRepeat","68","img/motor_3.png","68","motor","3","178","1","0","0","",""
"null","298588","HierDyys5tnf6k","sub06","06","8","iti","null","img/motor_3.png","68","motor","","","","","","",""
"392","298989","HierDyys5tnf6k","sub06","06","8","motor","74","img/motor_5.png","72","motor","5","179","0","1","0","",""
"93","299089","HierDyys5tnf6k","sub06","06","8","motorRepeat","72","img/motor_5.png","72","motor","5","179","1","0","0","",""
"null","299198","HierDyys5tnf6k","sub06","06","8","iti","null","img/motor_5.png","72","motor","","","","","","",""
"549","299757","HierDyys5tnf6k","sub06","06","8","motor","70","img/motor_4.png","70","motor","4","180","1","0","0","",""
"null","299864","HierDyys5tnf6k","sub06","06","8","iti","null","img/motor_4.png","70","motor","","","","","","",""
"385","300258","HierDyys5tnf6k","sub06","06","8","motor","72","img/motor_5.png","72","motor","5","181","1","0","0","",""
"null","300366","HierDyys5tnf6k","sub06","06","8","iti","null","img/motor_5.png","72","motor","","","","","","",""
"542","300917","HierDyys5tnf6k","sub06","06","8","motor","68","img/motor_3.png","68","motor","3","182","1","0","0","",""
"null","301027","HierDyys5tnf6k","sub06","06","8","iti","null","img/motor_3.png","68","motor","","","","","","",""
"418","301455","HierDyys5tnf6k","sub06","06","8","motor","65","img/motor_1.png","65","motor","1","183","1","0","0","",""
"null","301563","HierDyys5tnf6k","sub06","06","8","iti","null","img/motor_1.png","65","motor","","","","","","",""
"545","302116","HierDyys5tnf6k","sub06","06","8","motor","75","img/motor_7.png","75","motor","7","184","1","0","0","",""
"null","302224","HierDyys5tnf6k","sub06","06","8","iti","null","img/motor_7.png","75","motor","","","","","","",""
"540","302774","HierDyys5tnf6k","sub06","06","8","motor","72","img/motor_5.png","72","motor","5","185","1","0","0","",""
"null","302881","HierDyys5tnf6k","sub06","06","8","iti","null","img/motor_5.png","72","motor","","","","","","",""
"348","303238","HierDyys5tnf6k","sub06","06","8","motor","72","img/motor_5.png","72","motor","5","186","1","0","0","",""
"null","303345","HierDyys5tnf6k","sub06","06","8","iti","null","img/motor_5.png","72","motor","","","","","","",""
"598","303952","HierDyys5tnf6k","sub06","06","8","motor","68","img/motor_2.png","83","motor","2","187","0","1","0","",""
"143","304104","HierDyys5tnf6k","sub06","06","8","motorRepeat","83","img/motor_2.png","83","motor","2","187","1","0","0","",""
"null","304211","HierDyys5tnf6k","sub06","06","8","iti","null","img/motor_2.png","83","motor","","","","","","",""
"407","304624","HierDyys5tnf6k","sub06","06","8","motor","72","img/motor_5.png","72","motor","5","188","1","0","0","",""
"null","304732","HierDyys5tnf6k","sub06","06","8","iti","null","img/motor_5.png","72","motor","","","","","","",""
"479","305218","HierDyys5tnf6k","sub06","06","8","motor","75","img/motor_7.png","75","motor","7","189","1","0","0","",""
"null","305325","HierDyys5tnf6k","sub06","06","8","iti","null","img/motor_7.png","75","motor","","","","","","",""
"348","305681","HierDyys5tnf6k","sub06","06","8","motor","72","img/motor_5.png","72","motor","5","190","1","0","0","",""
"null","305790","HierDyys5tnf6k","sub06","06","8","iti","null","img/motor_5.png","72","motor","","","","","","",""
"589","306387","HierDyys5tnf6k","sub06","06","8","motor","70","img/motor_4.png","70","motor","4","191","1","0","0","",""
"null","306494","HierDyys5tnf6k","sub06","06","8","iti","null","img/motor_4.png","70","motor","","","","","","",""
"442","306944","HierDyys5tnf6k","sub06","06","8","motor","70","img/motor_4.png","70","motor","4","192","1","0","0","",""
"null","307051","HierDyys5tnf6k","sub06","06","8","iti","null","img/motor_4.png","70","motor","","","","","","",""
"527","307586","HierDyys5tnf6k","sub06","06","8","motor","74","img/motor_6.png","74","motor","6","193","1","0","0","",""
"null","307693","HierDyys5tnf6k","sub06","06","8","iti","null","img/motor_6.png","74","motor","","","","","","",""
"443","308145","HierDyys5tnf6k","sub06","06","8","motor","65","img/motor_1.png","65","motor","1","194","1","0","0","",""
"null","308252","HierDyys5tnf6k","sub06","06","8","iti","null","img/motor_1.png","65","motor","","","","","","",""
"562","308823","HierDyys5tnf6k","sub06","06","8","motor","70","img/motor_4.png","70","motor","4","195","1","0","0","",""
"null","308930","HierDyys5tnf6k","sub06","06","8","iti","null","img/motor_4.png","70","motor","","","","","","",""
"669","309607","HierDyys5tnf6k","sub06","06","8","motor","83","img/motor_2.png","83","motor","2","196","1","0","0","",""
"null","309713","HierDyys5tnf6k","sub06","06","8","iti","null","img/motor_2.png","83","motor","","","","","","",""
"506","310228","HierDyys5tnf6k","sub06","06","8","motor","68","img/motor_3.png","68","motor","3","197","1","0","0","",""
"null","310335","HierDyys5tnf6k","sub06","06","8","iti","null","img/motor_3.png","68","motor","","","","","","",""
"566","310910","HierDyys5tnf6k","sub06","06","8","motor","74","img/motor_7.png","75","motor","7","198","0","1","0","",""
"142","311061","HierDyys5tnf6k","sub06","06","8","motorRepeat","75","img/motor_7.png","75","motor","7","198","1","0","0","",""
"null","311173","HierDyys5tnf6k","sub06","06","8","iti","null","img/motor_7.png","75","motor","","","","","","",""
"377","311557","HierDyys5tnf6k","sub06","06","8","motor","76","img/motor_8.png","76","motor","8","199","1","0","0","",""
"null","311668","HierDyys5tnf6k","sub06","06","8","iti","null","img/motor_8.png","76","motor","","","","","","",""
"309","311985","HierDyys5tnf6k","sub06","06","8","motor","74","img/motor_7.png","75","motor","7","200","0","1","0","",""
"203","312199","HierDyys5tnf6k","sub06","06","8","motorRepeat","75","img/motor_7.png","75","motor","7","200","1","0","0","",""
"null","312311","HierDyys5tnf6k","sub06","06","8","iti","null","img/motor_7.png","75","motor","","","","","","",""
"499","312819","HierDyys5tnf6k","sub06","06","8","motor","65","img/motor_1.png","65","motor","1","201","1","0","0","",""
"null","312927","HierDyys5tnf6k","sub06","06","8","iti","null","img/motor_1.png","65","motor","","","","","","",""
"376","313312","HierDyys5tnf6k","sub06","06","8","motor","72","img/motor_5.png","72","motor","5","202","1","0","0","",""
"null","313419","HierDyys5tnf6k","sub06","06","8","iti","null","img/motor_5.png","72","motor","","","","","","",""
"586","314015","HierDyys5tnf6k","sub06","06","8","motor","65","img/motor_1.png","65","motor","1","203","1","0","0","",""
"null","314121","HierDyys5tnf6k","sub06","06","8","iti","null","img/motor_1.png","65","motor","","","","","","",""
"501","314631","HierDyys5tnf6k","sub06","06","8","motor","76","img/motor_8.png","76","motor","8","204","1","0","0","",""
"null","314743","HierDyys5tnf6k","sub06","06","8","iti","null","img/motor_8.png","76","motor","","","","","","",""
"450","315201","HierDyys5tnf6k","sub06","06","8","motor","75","img/motor_7.png","75","motor","7","205","1","0","0","",""
"null","315312","HierDyys5tnf6k","sub06","06","8","iti","null","img/motor_7.png","75","motor","","","","","","",""
"379","315699","HierDyys5tnf6k","sub06","06","8","motor","74","img/motor_6.png","74","motor","6","206","1","0","0","",""
"null","315809","HierDyys5tnf6k","sub06","06","8","iti","null","img/motor_6.png","74","motor","","","","","","",""
"1178","316996","HierDyys5tnf6k","sub06","06","8","motor","83","img/motor_1.png","65","motor","1","207","0","1","0","",""
"593","317597","HierDyys5tnf6k","sub06","06","8","motorRepeat","65","img/motor_1.png","65","motor","1","207","1","0","0","",""
"null","317706","HierDyys5tnf6k","sub06","06","8","iti","null","img/motor_1.png","65","motor","","","","","","",""
"603","318319","HierDyys5tnf6k","sub06","06","8","motor","83","img/motor_2.png","83","motor","2","208","1","0","0","",""
"null","318427","HierDyys5tnf6k","sub06","06","8","iti","null","img/motor_2.png","83","motor","","","","","","",""
"611","319047","HierDyys5tnf6k","sub06","06","8","motor","76","img/motor_8.png","76","motor","8","209","1","0","0","",""
"null","319155","HierDyys5tnf6k","sub06","06","8","iti","null","img/motor_8.png","76","motor","","","","","","",""
"330","319495","HierDyys5tnf6k","sub06","06","8","motor","76","img/motor_8.png","76","motor","8","210","1","0","0","",""
"null","319603","HierDyys5tnf6k","sub06","06","8","iti","null","img/motor_8.png","76","motor","","","","","","",""
"986","320598","HierDyys5tnf6k","sub06","06","8","motor","68","img/motor_1.png","65","motor","1","211","0","1","0","",""
"326","320936","HierDyys5tnf6k","sub06","06","8","motorRepeat","70","img/motor_1.png","65","motor","1","211","0","1","0","",""
"90","321035","HierDyys5tnf6k","sub06","06","8","motorRepeat","83","img/motor_1.png","65","motor","1","211","0","1","0","",""
"162","321206","HierDyys5tnf6k","sub06","06","8","motorRepeat","65","img/motor_1.png","65","motor","1","211","1","0","0","",""
"null","321313","HierDyys5tnf6k","sub06","06","8","iti","null","img/motor_1.png","65","motor","","","","","","",""
"396","321717","HierDyys5tnf6k","sub06","06","8","motor","83","img/motor_3.png","68","motor","3","212","0","1","0","",""
"278","322003","HierDyys5tnf6k","sub06","06","8","motorRepeat","68","img/motor_3.png","68","motor","3","212","1","0","0","",""
"null","322110","HierDyys5tnf6k","sub06","06","8","iti","null","img/motor_3.png","68","motor","","","","","","",""
"376","322494","HierDyys5tnf6k","sub06","06","8","motor","70","img/motor_4.png","70","motor","4","213","1","0","0","",""
"null","322601","HierDyys5tnf6k","sub06","06","8","iti","null","img/motor_4.png","70","motor","","","","","","",""
"363","322971","HierDyys5tnf6k","sub06","06","8","motor","72","img/motor_5.png","72","motor","5","214","1","0","0","",""
"null","323082","HierDyys5tnf6k","sub06","06","8","iti","null","img/motor_5.png","72","motor","","","","","","",""
"613","323704","HierDyys5tnf6k","sub06","06","8","motor","68","img/motor_3.png","68","motor","3","215","1","0","0","",""
"null","323812","HierDyys5tnf6k","sub06","06","8","iti","null","img/motor_3.png","68","motor","","","","","","",""
"478","324298","HierDyys5tnf6k","sub06","06","8","motor","72","img/motor_5.png","72","motor","5","216","1","0","0","",""
"null","324405","HierDyys5tnf6k","sub06","06","8","iti","null","img/motor_5.png","72","motor","","","","","","",""
"506","324925","HierDyys5tnf6k","sub06","06","8","motor","74","img/motor_6.png","74","motor","6","217","1","0","0","",""
"null","325038","HierDyys5tnf6k","sub06","06","8","iti","null","img/motor_6.png","74","motor","","","","","","",""
"769","325818","HierDyys5tnf6k","sub06","06","8","motor","70","img/motor_4.png","70","motor","4","218","1","0","0","",""
"null","325927","HierDyys5tnf6k","sub06","06","8","iti","null","img/motor_4.png","70","motor","","","","","","",""
"541","326477","HierDyys5tnf6k","sub06","06","8","motor","83","img/motor_2.png","83","motor","2","219","1","0","0","",""
"null","326584","HierDyys5tnf6k","sub06","06","8","iti","null","img/motor_2.png","83","motor","","","","","","",""
"528","327122","HierDyys5tnf6k","sub06","06","8","motor","75","img/motor_7.png","75","motor","7","220","1","0","0","",""
"null","327230","HierDyys5tnf6k","sub06","06","8","iti","null","img/motor_7.png","75","motor","","","","","","",""
"457","327695","HierDyys5tnf6k","sub06","06","8","motor","74","img/motor_6.png","74","motor","6","221","1","0","0","",""
"null","327802","HierDyys5tnf6k","sub06","06","8","iti","null","img/motor_6.png","74","motor","","","","","","",""
"483","328293","HierDyys5tnf6k","sub06","06","8","motor","75","img/motor_7.png","75","motor","7","222","1","0","0","",""
"null","328401","HierDyys5tnf6k","sub06","06","8","iti","null","img/motor_7.png","75","motor","","","","","","",""
"275","328687","HierDyys5tnf6k","sub06","06","8","motor","74","img/motor_3.png","68","motor","3","223","0","1","0","",""
"288","328988","HierDyys5tnf6k","sub06","06","8","motorRepeat","68","img/motor_3.png","68","motor","3","223","1","0","0","",""
"null","329098","HierDyys5tnf6k","sub06","06","8","iti","null","img/motor_3.png","68","motor","","","","","","",""
"398","329507","HierDyys5tnf6k","sub06","06","8","motor","70","img/motor_4.png","70","motor","4","224","1","0","0","",""
"null","329615","HierDyys5tnf6k","sub06","06","8","iti","null","img/motor_4.png","70","motor","","","","","","",""
"490","330115","HierDyys5tnf6k","sub06","06","8","motor","75","img/motor_7.png","75","motor","7","225","1","0","0","",""
"null","330224","HierDyys5tnf6k","sub06","06","8","iti","null","img/motor_7.png","75","motor","","","","","","",""
"584","330816","HierDyys5tnf6k","sub06","06","8","motor","68","img/motor_3.png","68","motor","3","226","1","0","0","",""
"null","330925","HierDyys5tnf6k","sub06","06","8","iti","null","img/motor_3.png","68","motor","","","","","","",""
"394","331328","HierDyys5tnf6k","sub06","06","8","motor","83","img/motor_2.png","83","motor","2","227","1","0","0","",""
"null","331437","HierDyys5tnf6k","sub06","06","8","iti","null","img/motor_2.png","83","motor","","","","","","",""
"491","331937","HierDyys5tnf6k","sub06","06","8","motor","68","img/motor_3.png","68","motor","3","228","1","0","0","",""
"null","332045","HierDyys5tnf6k","sub06","06","8","iti","null","img/motor_3.png","68","motor","","","","","","",""
"448","332503","HierDyys5tnf6k","sub06","06","8","motor","76","img/motor_8.png","76","motor","8","229","1","0","0","",""
"null","332612","HierDyys5tnf6k","sub06","06","8","iti","null","img/motor_8.png","76","motor","","","","","","",""
"652","333272","HierDyys5tnf6k","sub06","06","8","motor","68","img/motor_3.png","68","motor","3","230","1","0","0","",""
"null","333381","HierDyys5tnf6k","sub06","06","8","iti","null","img/motor_3.png","68","motor","","","","","","",""
"423","333813","HierDyys5tnf6k","sub06","06","8","motor","72","img/motor_5.png","72","motor","5","231","1","0","0","",""
"null","333922","HierDyys5tnf6k","sub06","06","8","iti","null","img/motor_5.png","72","motor","","","","","","",""
"614","334545","HierDyys5tnf6k","sub06","06","8","motor","74","img/motor_6.png","74","motor","6","232","1","0","0","",""
"null","334654","HierDyys5tnf6k","sub06","06","8","iti","null","img/motor_6.png","74","motor","","","","","","",""
"475","335140","HierDyys5tnf6k","sub06","06","8","motor","76","img/motor_8.png","76","motor","8","233","1","0","0","",""
"null","335248","HierDyys5tnf6k","sub06","06","8","iti","null","img/motor_8.png","76","motor","","","","","","",""
"650","335907","HierDyys5tnf6k","sub06","06","8","motor","74","img/motor_6.png","74","motor","6","234","1","0","0","",""
"null","336015","HierDyys5tnf6k","sub06","06","8","iti","null","img/motor_6.png","74","motor","","","","","","",""
"801","336825","HierDyys5tnf6k","sub06","06","8","motor","83","img/motor_2.png","83","motor","2","235","1","0","0","",""
"null","336933","HierDyys5tnf6k","sub06","06","8","iti","null","img/motor_2.png","83","motor","","","","","","",""
"476","337419","HierDyys5tnf6k","sub06","06","8","motor","65","img/motor_1.png","65","motor","1","236","1","0","0","",""
"null","337527","HierDyys5tnf6k","sub06","06","8","iti","null","img/motor_1.png","65","motor","","","","","","",""
"363","337897","HierDyys5tnf6k","sub06","06","8","motor","65","img/motor_1.png","65","motor","1","237","1","0","0","",""
"null","338006","HierDyys5tnf6k","sub06","06","8","iti","null","img/motor_1.png","65","motor","","","","","","",""
"513","338525","HierDyys5tnf6k","sub06","06","8","motor","72","img/motor_5.png","72","motor","5","238","1","0","0","",""
"null","338634","HierDyys5tnf6k","sub06","06","8","iti","null","img/motor_5.png","72","motor","","","","","","",""
"436","339079","HierDyys5tnf6k","sub06","06","8","motor","76","img/motor_8.png","76","motor","8","239","1","0","0","",""
"null","339187","HierDyys5tnf6k","sub06","06","8","iti","null","img/motor_8.png","76","motor","","","","","","",""
"561","339755","HierDyys5tnf6k","sub06","06","8","motor","70","img/motor_4.png","70","motor","4","240","1","0","0","",""
"null","339863","HierDyys5tnf6k","sub06","06","8","iti","null","img/motor_4.png","70","motor","","","","","","",""
"608","340479","HierDyys5tnf6k","sub06","06","8","motor","83","img/motor_2.png","83","motor","2","241","1","0","0","",""
"null","340588","HierDyys5tnf6k","sub06","06","8","iti","null","img/motor_2.png","83","motor","","","","","","",""
"492","341089","HierDyys5tnf6k","sub06","06","8","motor","72","img/motor_6.png","74","motor","6","242","0","1","0","",""
"114","341211","HierDyys5tnf6k","sub06","06","8","motorRepeat","74","img/motor_6.png","74","motor","6","242","1","0","0","",""
"null","341321","HierDyys5tnf6k","sub06","06","8","iti","null","img/motor_6.png","74","motor","","","","","","",""
"400","341729","HierDyys5tnf6k","sub06","06","8","motor","68","img/motor_4.png","70","motor","4","243","0","1","0","",""
"202","341941","HierDyys5tnf6k","sub06","06","8","motorRepeat","70","img/motor_4.png","70","motor","4","243","1","0","0","",""
"null","342050","HierDyys5tnf6k","sub06","06","8","iti","null","img/motor_4.png","70","motor","","","","","","",""
"453","342511","HierDyys5tnf6k","sub06","06","8","motor","75","img/motor_8.png","76","motor","8","244","0","1","0","",""
"210","342728","HierDyys5tnf6k","sub06","06","8","motorRepeat","76","img/motor_8.png","76","motor","8","244","1","0","0","",""
"null","342838","HierDyys5tnf6k","sub06","06","8","iti","null","img/motor_8.png","76","motor","","","","","","",""
"448","343295","HierDyys5tnf6k","sub06","06","8","motor","72","img/motor_5.png","72","motor","5","245","1","0","0","",""
"null","343404","HierDyys5tnf6k","sub06","06","8","iti","null","img/motor_5.png","72","motor","","","","","","",""
"436","343849","HierDyys5tnf6k","sub06","06","8","motor","65","img/motor_1.png","65","motor","1","246","1","0","0","",""
"null","343957","HierDyys5tnf6k","sub06","06","8","iti","null","img/motor_1.png","65","motor","","","","","","",""
"449","344415","HierDyys5tnf6k","sub06","06","8","motor","68","img/motor_3.png","68","motor","3","247","1","0","0","",""
"null","344524","HierDyys5tnf6k","sub06","06","8","iti","null","img/motor_3.png","68","motor","","","","","","",""
"469","345001","HierDyys5tnf6k","sub06","06","8","motor","65","img/motor_1.png","65","motor","1","248","1","0","0","",""
"null","345111","HierDyys5tnf6k","sub06","06","8","iti","null","img/motor_1.png","65","motor","","","","","","",""
"480","345600","HierDyys5tnf6k","sub06","06","8","motor","70","img/motor_4.png","70","motor","4","249","1","0","0","",""
"null","345708","HierDyys5tnf6k","sub06","06","8","iti","null","img/motor_4.png","70","motor","","","","","","",""
"345","346062","HierDyys5tnf6k","sub06","06","8","motor","70","img/motor_4.png","70","motor","4","250","1","0","0","",""
"null","346171","HierDyys5tnf6k","sub06","06","8","iti","null","img/motor_4.png","70","motor","","","","","","",""
"513","346693","HierDyys5tnf6k","sub06","06","8","motor","68","img/motor_3.png","68","motor","3","251","1","0","0","",""
"null","346802","HierDyys5tnf6k","sub06","06","8","iti","null","img/motor_3.png","68","motor","","","","","","",""
"530","347341","HierDyys5tnf6k","sub06","06","8","motor","75","img/motor_7.png","75","motor","7","252","1","0","0","",""
"null","347449","HierDyys5tnf6k","sub06","06","8","iti","null","img/motor_7.png","75","motor","","","","","","",""
"635","348093","HierDyys5tnf6k","sub06","06","8","motor","83","img/motor_2.png","83","motor","2","253","1","0","0","",""
"null","348202","HierDyys5tnf6k","sub06","06","8","iti","null","img/motor_2.png","83","motor","","","","","","",""
"486","348696","HierDyys5tnf6k","sub06","06","8","motor","72","img/motor_5.png","72","motor","5","254","1","0","0","",""
"null","348805","HierDyys5tnf6k","sub06","06","8","iti","null","img/motor_5.png","72","motor","","","","","","",""
"685","349499","HierDyys5tnf6k","sub06","06","8","motor","70","img/motor_4.png","70","motor","4","255","1","0","0","",""
"null","349607","HierDyys5tnf6k","sub06","06","8","iti","null","img/motor_4.png","70","motor","","","","","","",""
"392","350008","HierDyys5tnf6k","sub06","06","8","motor","76","img/motor_8.png","76","motor","8","256","1","0","0","",""
"null","350117","HierDyys5tnf6k","sub06","06","8","iti","null","img/motor_8.png","76","motor","","","","","","",""
"816","350942","HierDyys5tnf6k","sub06","06","8","motor","83","img/motor_2.png","83","motor","2","257","1","0","0","",""
"null","351050","HierDyys5tnf6k","sub06","06","8","iti","null","img/motor_2.png","83","motor","","","","","","",""
"529","351589","HierDyys5tnf6k","sub06","06","8","motor","75","img/motor_7.png","75","motor","7","258","1","0","0","",""
"null","351698","HierDyys5tnf6k","sub06","06","8","iti","null","img/motor_7.png","75","motor","","","","","","",""
"412","352119","HierDyys5tnf6k","sub06","06","8","motor","70","img/motor_4.png","70","motor","4","259","1","0","0","",""
"null","352228","HierDyys5tnf6k","sub06","06","8","iti","null","img/motor_4.png","70","motor","","","","","","",""
"456","352695","HierDyys5tnf6k","sub06","06","8","motor","76","img/motor_8.png","76","motor","8","260","1","0","0","",""
"null","352803","HierDyys5tnf6k","sub06","06","8","iti","null","img/motor_8.png","76","motor","","","","","","",""
"517","353328","HierDyys5tnf6k","sub06","06","8","motor","68","img/motor_3.png","68","motor","3","261","1","0","0","",""
"null","353437","HierDyys5tnf6k","sub06","06","8","iti","null","img/motor_3.png","68","motor","","","","","","",""
"382","353828","HierDyys5tnf6k","sub06","06","8","motor","72","img/motor_5.png","72","motor","5","262","1","0","0","",""
"null","353936","HierDyys5tnf6k","sub06","06","8","iti","null","img/motor_5.png","72","motor","","","","","","",""
"386","354329","HierDyys5tnf6k","sub06","06","8","motor","76","img/motor_8.png","76","motor","8","263","1","0","0","",""
"null","354438","HierDyys5tnf6k","sub06","06","8","iti","null","img/motor_8.png","76","motor","","","","","","",""
"393","354841","HierDyys5tnf6k","sub06","06","8","motor","76","img/motor_8.png","76","motor","8","264","1","0","0","",""
"null","354950","HierDyys5tnf6k","sub06","06","8","iti","null","img/motor_8.png","76","motor","","","","","","",""
"400","355358","HierDyys5tnf6k","sub06","06","8","motor","76","img/motor_7.png","75","motor","7","265","0","1","0","",""
"159","355524","HierDyys5tnf6k","sub06","06","8","motorRepeat","75","img/motor_7.png","75","motor","7","265","1","0","0","",""
"null","355633","HierDyys5tnf6k","sub06","06","8","iti","null","img/motor_7.png","75","motor","","","","","","",""
"364","356006","HierDyys5tnf6k","sub06","06","8","motor","65","img/motor_1.png","65","motor","1","266","1","0","0","",""
"null","356115","HierDyys5tnf6k","sub06","06","8","iti","null","img/motor_1.png","65","motor","","","","","","",""
"668","356793","HierDyys5tnf6k","sub06","06","8","motor","75","img/motor_7.png","75","motor","7","267","1","0","0","",""
"null","356901","HierDyys5tnf6k","sub06","06","8","iti","null","img/motor_7.png","75","motor","","","","","","",""
"381","357290","HierDyys5tnf6k","sub06","06","8","motor","76","img/motor_8.png","76","motor","8","268","1","0","0","",""
"null","357400","HierDyys5tnf6k","sub06","06","8","iti","null","img/motor_8.png","76","motor","","","","","","",""
"634","358044","HierDyys5tnf6k","sub06","06","8","motor","83","img/motor_2.png","83","motor","2","269","1","0","0","",""
"null","358154","HierDyys5tnf6k","sub06","06","8","iti","null","img/motor_2.png","83","motor","","","","","","",""
"371","358533","HierDyys5tnf6k","sub06","06","8","motor","83","img/motor_2.png","83","motor","2","270","1","0","0","",""
"null","358643","HierDyys5tnf6k","sub06","06","8","iti","null","img/motor_2.png","83","motor","","","","","","",""
"146","358796","HierDyys5tnf6k","sub06","06","8","motor","83","img/motor_5.png","72","motor","5","271","0","1","0","",""
"260","359065","HierDyys5tnf6k","sub06","06","8","motorRepeat","72","img/motor_5.png","72","motor","5","271","1","0","0","",""
"null","359174","HierDyys5tnf6k","sub06","06","8","iti","null","img/motor_5.png","72","motor","","","","","","",""
"443","359625","HierDyys5tnf6k","sub06","06","8","motor","68","img/motor_3.png","68","motor","3","272","1","0","0","",""
"null","359733","HierDyys5tnf6k","sub06","06","8","iti","null","img/motor_3.png","68","motor","","","","","","",""
"468","360210","HierDyys5tnf6k","sub06","06","8","motor","72","img/motor_5.png","72","motor","5","273","1","0","0","",""
"null","360319","HierDyys5tnf6k","sub06","06","8","iti","null","img/motor_5.png","72","motor","","","","","","",""
"321","360648","HierDyys5tnf6k","sub06","06","8","motor","70","img/motor_2.png","83","motor","2","274","0","1","0","",""
"233","360890","HierDyys5tnf6k","sub06","06","8","motorRepeat","83","img/motor_2.png","83","motor","2","274","1","0","0","",""
"null","360998","HierDyys5tnf6k","sub06","06","8","iti","null","img/motor_2.png","83","motor","","","","","","",""
"605","361615","HierDyys5tnf6k","sub06","06","8","motor","75","img/motor_7.png","75","motor","7","275","1","0","0","",""
"null","361723","HierDyys5tnf6k","sub06","06","8","iti","null","img/motor_7.png","75","motor","","","","","","",""
"457","362189","HierDyys5tnf6k","sub06","06","8","motor","75","img/motor_7.png","75","motor","7","276","1","0","0","",""
"null","362298","HierDyys5tnf6k","sub06","06","8","iti","null","img/motor_7.png","75","motor","","","","","","",""
"430","362737","HierDyys5tnf6k","sub06","06","8","motor","72","img/motor_5.png","72","motor","5","277","1","0","0","",""
"null","362845","HierDyys5tnf6k","sub06","06","8","iti","null","img/motor_5.png","72","motor","","","","","","",""
"537","363390","HierDyys5tnf6k","sub06","06","8","motor","68","img/motor_3.png","68","motor","3","278","1","0","0","",""
"null","363499","HierDyys5tnf6k","sub06","06","8","iti","null","img/motor_3.png","68","motor","","","","","","",""
"404","363912","HierDyys5tnf6k","sub06","06","8","motor","76","img/motor_8.png","76","motor","8","279","1","0","0","",""
"null","364022","HierDyys5tnf6k","sub06","06","8","iti","null","img/motor_8.png","76","motor","","","","","","",""
"291","364325","HierDyys5tnf6k","sub06","06","8","motor","76","img/motor_7.png","75","motor","7","280","0","1","0","",""
"286","364619","HierDyys5tnf6k","sub06","06","8","motorRepeat","75","img/motor_7.png","75","motor","7","280","1","0","0","",""
"null","364729","HierDyys5tnf6k","sub06","06","8","iti","null","img/motor_7.png","75","motor","","","","","","",""
"338","365076","HierDyys5tnf6k","sub06","06","8","motor","74","img/motor_6.png","74","motor","6","281","1","0","0","",""
"null","365187","HierDyys5tnf6k","sub06","06","8","iti","null","img/motor_6.png","74","motor","","","","","","",""
"378","365574","HierDyys5tnf6k","sub06","06","8","motor","76","img/motor_8.png","76","motor","8","282","1","0","0","",""
"null","365686","HierDyys5tnf6k","sub06","06","8","iti","null","img/motor_8.png","76","motor","","","","","","",""
"516","366211","HierDyys5tnf6k","sub06","06","8","motor","70","img/motor_4.png","70","motor","4","283","1","0","0","",""
"null","366321","HierDyys5tnf6k","sub06","06","8","iti","null","img/motor_4.png","70","motor","","","","","","",""
"342","366674","HierDyys5tnf6k","sub06","06","8","motor","70","img/motor_4.png","70","motor","4","284","1","0","0","",""
"null","366785","HierDyys5tnf6k","sub06","06","8","iti","null","img/motor_4.png","70","motor","","","","","","",""
"88","366883","HierDyys5tnf6k","sub06","06","8","motor","70","img/motor_6.png","74","motor","6","285","0","1","0","",""
"252","367146","HierDyys5tnf6k","sub06","06","8","motorRepeat","74","img/motor_6.png","74","motor","6","285","1","0","0","",""
"null","367256","HierDyys5tnf6k","sub06","06","8","iti","null","img/motor_6.png","74","motor","","","","","","",""
"441","367708","HierDyys5tnf6k","sub06","06","8","motor","68","img/motor_3.png","68","motor","3","286","1","0","0","",""
"null","367819","HierDyys5tnf6k","sub06","06","8","iti","null","img/motor_3.png","68","motor","","","","","","",""
"371","368199","HierDyys5tnf6k","sub06","06","8","motor","65","img/motor_1.png","65","motor","1","287","1","0","0","",""
"null","368310","HierDyys5tnf6k","sub06","06","8","iti","null","img/motor_1.png","65","motor","","","","","","",""
"417","368735","HierDyys5tnf6k","sub06","06","8","motor","65","img/motor_2.png","83","motor","2","288","0","1","0","",""
"96","368841","HierDyys5tnf6k","sub06","06","8","motorRepeat","83","img/motor_2.png","83","motor","2","288","1","0","0","",""
"null","368952","HierDyys5tnf6k","sub06","06","8","iti","null","img/motor_2.png","83","motor","","","","","","",""
"451","369412","HierDyys5tnf6k","sub06","06","8","motor","70","img/motor_4.png","70","motor","4","289","1","0","0","",""
"null","369524","HierDyys5tnf6k","sub06","06","8","iti","null","img/motor_4.png","70","motor","","","","","","",""
"473","370005","HierDyys5tnf6k","sub06","06","8","motor","83","img/motor_2.png","83","motor","2","290","1","0","0","",""
"null","370117","HierDyys5tnf6k","sub06","06","8","iti","null","img/motor_2.png","83","motor","","","","","","",""
"497","370624","HierDyys5tnf6k","sub06","06","8","motor","83","img/motor_3.png","68","motor","3","291","0","1","0","",""
"116","370748","HierDyys5tnf6k","sub06","06","8","motorRepeat","68","img/motor_3.png","68","motor","3","291","1","0","0","",""
"null","370859","HierDyys5tnf6k","sub06","06","8","iti","null","img/motor_3.png","68","motor","","","","","","",""
"483","371351","HierDyys5tnf6k","sub06","06","8","motor","68","img/motor_2.png","83","motor","2","292","0","1","0","",""
"173","371533","HierDyys5tnf6k","sub06","06","8","motorRepeat","83","img/motor_2.png","83","motor","2","292","1","0","0","",""
"null","371644","HierDyys5tnf6k","sub06","06","8","iti","null","img/motor_2.png","83","motor","","","","","","",""
"533","372186","HierDyys5tnf6k","sub06","06","8","motor","76","img/motor_8.png","76","motor","8","293","1","0","0","",""
"null","372297","HierDyys5tnf6k","sub06","06","8","iti","null","img/motor_8.png","76","motor","","","","","","",""
"387","372693","HierDyys5tnf6k","sub06","06","8","motor","74","img/motor_6.png","74","motor","6","294","1","0","0","",""
"null","372805","HierDyys5tnf6k","sub06","06","8","iti","null","img/motor_6.png","74","motor","","","","","","",""
"491","373305","HierDyys5tnf6k","sub06","06","8","motor","72","img/motor_5.png","72","motor","5","295","1","0","0","",""
"null","373416","HierDyys5tnf6k","sub06","06","8","iti","null","img/motor_5.png","72","motor","","","","","","",""
"416","373841","HierDyys5tnf6k","sub06","06","8","motor","65","img/motor_1.png","65","motor","1","296","1","0","0","",""
"null","373951","HierDyys5tnf6k","sub06","06","8","iti","null","img/motor_1.png","65","motor","","","","","","",""
"423","374383","HierDyys5tnf6k","sub06","06","8","motor","68","img/motor_3.png","68","motor","3","297","1","0","0","",""
"null","374492","HierDyys5tnf6k","sub06","06","8","iti","null","img/motor_3.png","68","motor","","","","","","",""
"408","374910","HierDyys5tnf6k","sub06","06","8","motor","75","img/motor_6.png","74","motor","6","298","0","1","0","",""
"72","374989","HierDyys5tnf6k","sub06","06","8","motorRepeat","74","img/motor_6.png","74","motor","6","298","1","0","0","",""
"null","375099","HierDyys5tnf6k","sub06","06","8","iti","null","img/motor_6.png","74","motor","","","","","","",""
"614","375723","HierDyys5tnf6k","sub06","06","8","motor","68","img/motor_3.png","68","motor","3","299","1","0","0","",""
"null","375832","HierDyys5tnf6k","sub06","06","8","iti","null","img/motor_3.png","68","motor","","","","","","",""
"842","376683","HierDyys5tnf6k","sub06","06","8","motor","83","img/motor_2.png","83","motor","2","300","1","0","0","",""
"null","376793","HierDyys5tnf6k","sub06","06","8","iti","null","img/motor_2.png","83","motor","","","","","","",""
"429","377230","HierDyys5tnf6k","sub06","06","8","motor","70","img/motor_4.png","70","motor","4","301","1","0","0","",""
"null","377339","HierDyys5tnf6k","sub06","06","8","iti","null","img/motor_4.png","70","motor","","","","","","",""
"434","377781","HierDyys5tnf6k","sub06","06","8","motor","83","img/motor_2.png","83","motor","2","302","1","0","0","",""
"null","377889","HierDyys5tnf6k","sub06","06","8","iti","null","img/motor_2.png","83","motor","","","","","","",""
"549","378449","HierDyys5tnf6k","sub06","06","8","motor","83","img/motor_2.png","83","motor","2","303","1","0","0","",""
"null","378558","HierDyys5tnf6k","sub06","06","8","iti","null","img/motor_2.png","83","motor","","","","","","",""
"517","379087","HierDyys5tnf6k","sub06","06","8","motor","74","img/motor_7.png","75","motor","7","304","0","1","0","",""
"190","379285","HierDyys5tnf6k","sub06","06","8","motorRepeat","75","img/motor_7.png","75","motor","7","304","1","0","0","",""
"null","379394","HierDyys5tnf6k","sub06","06","8","iti","null","img/motor_7.png","75","motor","","","","","","",""
"395","379799","HierDyys5tnf6k","sub06","06","8","motor","72","img/motor_5.png","72","motor","5","305","1","0","0","",""
"null","379909","HierDyys5tnf6k","sub06","06","8","iti","null","img/motor_5.png","72","motor","","","","","","",""
"443","380361","HierDyys5tnf6k","sub06","06","8","motor","65","img/motor_1.png","65","motor","1","306","1","0","0","",""
"null","380472","HierDyys5tnf6k","sub06","06","8","iti","null","img/motor_1.png","65","motor","","","","","","",""
"398","380880","HierDyys5tnf6k","sub06","06","8","motor","72","img/motor_5.png","72","motor","5","307","1","0","0","",""
"null","380989","HierDyys5tnf6k","sub06","06","8","iti","null","img/motor_5.png","72","motor","","","","","","",""
"538","381535","HierDyys5tnf6k","sub06","06","8","motor","83","img/motor_2.png","83","motor","2","308","1","0","0","",""
"null","381645","HierDyys5tnf6k","sub06","06","8","iti","null","img/motor_2.png","83","motor","","","","","","",""
"424","382078","HierDyys5tnf6k","sub06","06","8","motor","83","img/motor_2.png","83","motor","2","309","1","0","0","",""
"null","382187","HierDyys5tnf6k","sub06","06","8","iti","null","img/motor_2.png","83","motor","","","","","","",""
"622","382817","HierDyys5tnf6k","sub06","06","8","motor","70","img/motor_4.png","70","motor","4","310","1","0","0","",""
"null","382926","HierDyys5tnf6k","sub06","06","8","iti","null","img/motor_4.png","70","motor","","","","","","",""
"449","383383","HierDyys5tnf6k","sub06","06","8","motor","68","img/motor_3.png","68","motor","3","311","1","0","0","",""
"null","383492","HierDyys5tnf6k","sub06","06","8","iti","null","img/motor_3.png","68","motor","","","","","","",""
"501","384001","HierDyys5tnf6k","sub06","06","8","motor","65","img/motor_1.png","65","motor","1","312","1","0","0","",""
"null","384110","HierDyys5tnf6k","sub06","06","8","iti","null","img/motor_1.png","65","motor","","","","","","",""
"608","384728","HierDyys5tnf6k","sub06","06","8","motor","75","img/motor_7.png","75","motor","7","313","1","0","0","",""
"null","384837","HierDyys5tnf6k","sub06","06","8","iti","null","img/motor_7.png","75","motor","","","","","","",""
"409","385254","HierDyys5tnf6k","sub06","06","8","motor","72","img/motor_5.png","72","motor","5","314","1","0","0","",""
"null","385366","HierDyys5tnf6k","sub06","06","8","iti","null","img/motor_5.png","72","motor","","","","","","",""
"369","385743","HierDyys5tnf6k","sub06","06","8","motor","72","img/motor_5.png","72","motor","5","315","1","0","0","",""
"null","385855","HierDyys5tnf6k","sub06","06","8","iti","null","img/motor_5.png","72","motor","","","","","","",""
"347","386212","HierDyys5tnf6k","sub06","06","8","motor","74","img/motor_7.png","75","motor","7","316","0","1","0","",""
"121","386342","HierDyys5tnf6k","sub06","06","8","motorRepeat","75","img/motor_7.png","75","motor","7","316","1","0","0","",""
"null","386452","HierDyys5tnf6k","sub06","06","8","iti","null","img/motor_7.png","75","motor","","","","","","",""
"380","386842","HierDyys5tnf6k","sub06","06","8","motor","83","img/motor_1.png","65","motor","1","317","0","1","0","",""
"121","386972","HierDyys5tnf6k","sub06","06","8","motorRepeat","65","img/motor_1.png","65","motor","1","317","1","0","0","",""
"null","387084","HierDyys5tnf6k","sub06","06","8","iti","null","img/motor_1.png","65","motor","","","","","","",""
"418","387510","HierDyys5tnf6k","sub06","06","8","motor","70","img/motor_4.png","70","motor","4","318","1","0","0","",""
"null","387620","HierDyys5tnf6k","sub06","06","8","iti","null","img/motor_4.png","70","motor","","","","","","",""
"352","387983","HierDyys5tnf6k","sub06","06","8","motor","65","img/motor_1.png","65","motor","1","319","1","0","0","",""
"null","388091","HierDyys5tnf6k","sub06","06","8","iti","null","img/motor_1.png","65","motor","","","","","","",""
"372","388472","HierDyys5tnf6k","sub06","06","8","motor","76","img/motor_8.png","76","motor","8","320","1","0","0","",""
"null","388581","HierDyys5tnf6k","sub06","06","8","iti","null","img/motor_8.png","76","motor","","","","","","",""
"346","388935","HierDyys5tnf6k","sub06","06","8","motor","70","img/motor_4.png","70","motor","4","321","1","0","0","",""
"null","389046","HierDyys5tnf6k","sub06","06","8","iti","null","img/motor_4.png","70","motor","","","","","","",""
"394","389452","HierDyys5tnf6k","sub06","06","8","motor","74","img/motor_6.png","74","motor","6","322","1","0","0","",""
"null","389564","HierDyys5tnf6k","sub06","06","8","iti","null","img/motor_6.png","74","motor","","","","","","",""
"513","390089","HierDyys5tnf6k","sub06","06","8","motor","70","img/motor_4.png","70","motor","4","323","1","0","0","",""
"null","390200","HierDyys5tnf6k","sub06","06","8","iti","null","img/motor_4.png","70","motor","","","","","","",""
"406","390617","HierDyys5tnf6k","sub06","06","8","motor","75","img/motor_7.png","75","motor","7","324","1","0","0","",""
"null","390730","HierDyys5tnf6k","sub06","06","8","iti","null","img/motor_7.png","75","motor","","","","","","",""
"636","391377","HierDyys5tnf6k","sub06","06","8","motor","68","img/motor_2.png","83","motor","2","325","0","1","0","",""
"378","391767","HierDyys5tnf6k","sub06","06","8","motorRepeat","83","img/motor_2.png","83","motor","2","325","1","0","0","",""
"null","391877","HierDyys5tnf6k","sub06","06","8","iti","null","img/motor_2.png","83","motor","","","","","","",""
"366","392254","HierDyys5tnf6k","sub06","06","8","motor","76","img/motor_8.png","76","motor","8","326","1","0","0","",""
"null","392364","HierDyys5tnf6k","sub06","06","8","iti","null","img/motor_8.png","76","motor","","","","","","",""
"429","392804","HierDyys5tnf6k","sub06","06","8","motor","65","img/motor_1.png","65","motor","1","327","1","0","0","",""
"null","392915","HierDyys5tnf6k","sub06","06","8","iti","null","img/motor_1.png","65","motor","","","","","","",""
"315","393240","HierDyys5tnf6k","sub06","06","8","motor","72","img/motor_5.png","72","motor","5","328","1","0","0","",""
"null","393349","HierDyys5tnf6k","sub06","06","8","iti","null","img/motor_5.png","72","motor","","","","","","",""
"366","393725","HierDyys5tnf6k","sub06","06","8","motor","76","img/motor_8.png","76","motor","8","329","1","0","0","",""
"null","393836","HierDyys5tnf6k","sub06","06","8","iti","null","img/motor_8.png","76","motor","","","","","","",""
"369","394216","HierDyys5tnf6k","sub06","06","8","motor","76","img/motor_8.png","76","motor","8","330","1","0","0","",""
"null","394327","HierDyys5tnf6k","sub06","06","8","iti","null","img/motor_8.png","76","motor","","","","","","",""
"467","394802","HierDyys5tnf6k","sub06","06","8","motor","65","img/motor_1.png","65","motor","1","331","1","0","0","",""
"null","394913","HierDyys5tnf6k","sub06","06","8","iti","null","img/motor_1.png","65","motor","","","","","","",""
"441","395364","HierDyys5tnf6k","sub06","06","8","motor","70","img/motor_4.png","70","motor","4","332","1","0","0","",""
"null","395475","HierDyys5tnf6k","sub06","06","8","iti","null","img/motor_4.png","70","motor","","","","","","",""
"344","395828","HierDyys5tnf6k","sub06","06","8","motor","72","img/motor_5.png","72","motor","5","333","1","0","0","",""
"null","395938","HierDyys5tnf6k","sub06","06","8","iti","null","img/motor_5.png","72","motor","","","","","","",""
"341","396289","HierDyys5tnf6k","sub06","06","8","motor","72","img/motor_5.png","72","motor","5","334","1","0","0","",""
"null","396398","HierDyys5tnf6k","sub06","06","8","iti","null","img/motor_5.png","72","motor","","","","","","",""
"478","396885","HierDyys5tnf6k","sub06","06","8","motor","65","img/motor_1.png","65","motor","1","335","1","0","0","",""
"null","396993","HierDyys5tnf6k","sub06","06","8","iti","null","img/motor_1.png","65","motor","","","","","","",""
"897","397899","HierDyys5tnf6k","sub06","06","8","motor","68","img/motor_3.png","68","motor","3","336","1","0","0","",""
"null","398008","HierDyys5tnf6k","sub06","06","8","iti","null","img/motor_3.png","68","motor","","","","","","",""
"470","398487","HierDyys5tnf6k","sub06","06","8","motor","65","img/motor_1.png","65","motor","1","337","1","0","0","",""
"null","398596","HierDyys5tnf6k","sub06","06","8","iti","null","img/motor_1.png","65","motor","","","","","","",""
"424","399030","HierDyys5tnf6k","sub06","06","8","motor","76","img/motor_8.png","76","motor","8","338","1","0","0","",""
"null","399139","HierDyys5tnf6k","sub06","06","8","iti","null","img/motor_8.png","76","motor","","","","","","",""
"745","399893","HierDyys5tnf6k","sub06","06","8","motor","68","img/motor_3.png","68","motor","3","339","1","0","0","",""
"null","400002","HierDyys5tnf6k","sub06","06","8","iti","null","img/motor_3.png","68","motor","","","","","","",""
"595","400606","HierDyys5tnf6k","sub06","06","8","motor","75","img/motor_7.png","75","motor","7","340","1","0","0","",""
"null","400716","HierDyys5tnf6k","sub06","06","8","iti","null","img/motor_7.png","75","motor","","","","","","",""
"417","401141","HierDyys5tnf6k","sub06","06","8","motor","76","img/motor_8.png","76","motor","8","341","1","0","0","",""
"null","401251","HierDyys5tnf6k","sub06","06","8","iti","null","img/motor_8.png","76","motor","","","","","","",""
"450","401709","HierDyys5tnf6k","sub06","06","8","motor","72","img/motor_5.png","72","motor","5","342","1","0","0","",""
"null","401817","HierDyys5tnf6k","sub06","06","8","iti","null","img/motor_5.png","72","motor","","","","","","",""
"480","402307","HierDyys5tnf6k","sub06","06","8","motor","74","img/motor_6.png","74","motor","6","343","1","0","0","",""
"null","402416","HierDyys5tnf6k","sub06","06","8","iti","null","img/motor_6.png","74","motor","","","","","","",""
"454","402880","HierDyys5tnf6k","sub06","06","8","motor","65","img/motor_1.png","65","motor","1","344","1","0","0","",""
"null","402989","HierDyys5tnf6k","sub06","06","8","iti","null","img/motor_1.png","65","motor","","","","","","",""
"634","403632","HierDyys5tnf6k","sub06","06","8","motor","68","img/motor_4.png","70","motor","4","345","0","1","0","",""
"437","404078","HierDyys5tnf6k","sub06","06","8","motorRepeat","70","img/motor_4.png","70","motor","4","345","1","0","0","",""
"null","404187","HierDyys5tnf6k","sub06","06","8","iti","null","img/motor_4.png","70","motor","","","","","","",""
"501","404697","HierDyys5tnf6k","sub06","06","8","motor","68","img/motor_3.png","68","motor","3","346","1","0","0","",""
"null","404806","HierDyys5tnf6k","sub06","06","8","iti","null","img/motor_3.png","68","motor","","","","","","",""
"416","405230","HierDyys5tnf6k","sub06","06","8","motor","70","img/motor_4.png","70","motor","4","347","1","0","0","",""
"null","405339","HierDyys5tnf6k","sub06","06","8","iti","null","img/motor_4.png","70","motor","","","","","","",""
"545","405891","HierDyys5tnf6k","sub06","06","8","motor","75","img/motor_7.png","75","motor","7","348","1","0","0","",""
"null","406001","HierDyys5tnf6k","sub06","06","8","iti","null","img/motor_7.png","75","motor","","","","","","",""
"429","406439","HierDyys5tnf6k","sub06","06","8","motor","70","img/motor_4.png","70","motor","4","349","1","0","0","",""
"null","406548","HierDyys5tnf6k","sub06","06","8","iti","null","img/motor_4.png","70","motor","","","","","","",""
"403","406960","HierDyys5tnf6k","sub06","06","8","motor","75","img/motor_8.png","76","motor","8","350","0","1","0","",""
"158","407126","HierDyys5tnf6k","sub06","06","8","motorRepeat","76","img/motor_8.png","76","motor","8","350","1","0","0","",""
"null","407236","HierDyys5tnf6k","sub06","06","8","iti","null","img/motor_8.png","76","motor","","","","","","",""
"444","407689","HierDyys5tnf6k","sub06","06","8","motor","72","img/motor_5.png","72","motor","5","351","1","0","0","",""
"null","407798","HierDyys5tnf6k","sub06","06","8","iti","null","img/motor_5.png","72","motor","","","","","","",""
"338","408145","HierDyys5tnf6k","sub06","06","8","motor","74","img/motor_7.png","75","motor","7","352","0","1","0","",""
"223","408377","HierDyys5tnf6k","sub06","06","8","motorRepeat","75","img/motor_7.png","75","motor","7","352","1","0","0","",""
"null","408487","HierDyys5tnf6k","sub06","06","8","iti","null","img/motor_7.png","75","motor","","","","","","",""
"388","408883","HierDyys5tnf6k","sub06","06","8","motor","75","img/motor_7.png","75","motor","7","353","1","0","0","",""
"null","408992","HierDyys5tnf6k","sub06","06","8","iti","null","img/motor_7.png","75","motor","","","","","","",""
"362","409363","HierDyys5tnf6k","sub06","06","8","motor","70","img/motor_3.png","68","motor","3","354","0","1","0","",""
"104","409477","HierDyys5tnf6k","sub06","06","8","motorRepeat","68","img/motor_3.png","68","motor","3","354","1","0","0","",""
"null","409584","HierDyys5tnf6k","sub06","06","8","iti","null","img/motor_3.png","68","motor","","","","","","",""
"379","409972","HierDyys5tnf6k","sub06","06","8","motor","70","img/motor_4.png","70","motor","4","355","1","0","0","",""
"null","410082","HierDyys5tnf6k","sub06","06","8","iti","null","img/motor_4.png","70","motor","","","","","","",""
"328","410419","HierDyys5tnf6k","sub06","06","8","motor","72","img/motor_5.png","72","motor","5","356","1","0","0","",""
"null","410528","HierDyys5tnf6k","sub06","06","8","iti","null","img/motor_5.png","72","motor","","","","","","",""
"495","411032","HierDyys5tnf6k","sub06","06","8","motor","65","img/motor_1.png","65","motor","1","357","1","0","0","",""
"null","411142","HierDyys5tnf6k","sub06","06","8","iti","null","img/motor_1.png","65","motor","","","","","","",""
"605","411758","HierDyys5tnf6k","sub06","06","8","motor","74","img/motor_6.png","74","motor","6","358","1","0","0","",""
"null","411867","HierDyys5tnf6k","sub06","06","8","iti","null","img/motor_6.png","74","motor","","","","","","",""
"776","412654","HierDyys5tnf6k","sub06","06","8","motor","68","img/motor_3.png","68","motor","3","359","1","0","0","",""
"null","412765","HierDyys5tnf6k","sub06","06","8","iti","null","img/motor_3.png","68","motor","","","","","","",""
"588","413363","HierDyys5tnf6k","sub06","06","8","motor","65","img/motor_1.png","65","motor","1","360","1","0","0","",""
"null","413473","HierDyys5tnf6k","sub06","06","8","iti","null","img/motor_1.png","65","motor","","","","","","",""
"356","413837","HierDyys5tnf6k","sub06","06","8","motor","65","img/motor_2.png","83","motor","2","361","0","1","0","",""
"111","413958","HierDyys5tnf6k","sub06","06","8","motorRepeat","83","img/motor_2.png","83","motor","2","361","1","0","0","",""
"null","414067","HierDyys5tnf6k","sub06","06","8","iti","null","img/motor_2.png","83","motor","","","","","","",""
"480","414557","HierDyys5tnf6k","sub06","06","8","motor","65","img/motor_1.png","65","motor","1","362","1","0","0","",""
"null","414666","HierDyys5tnf6k","sub06","06","8","iti","null","img/motor_1.png","65","motor","","","","","","",""
"528","415204","HierDyys5tnf6k","sub06","06","8","motor","74","img/motor_4.png","70","motor","4","363","0","1","0","",""
"239","415450","HierDyys5tnf6k","sub06","06","8","motorRepeat","72","img/motor_4.png","70","motor","4","363","0","1","0","",""
"116","415576","HierDyys5tnf6k","sub06","06","8","motorRepeat","70","img/motor_4.png","70","motor","4","363","1","0","0","",""
"null","415684","HierDyys5tnf6k","sub06","06","8","iti","null","img/motor_4.png","70","motor","","","","","","",""
"214","415906","HierDyys5tnf6k","sub06","06","8","motor","76","img/motor_7.png","75","motor","7","364","0","1","0","",""
"292","416207","HierDyys5tnf6k","sub06","06","8","motorRepeat","75","img/motor_7.png","75","motor","7","364","1","0","0","",""
"null","416316","HierDyys5tnf6k","sub06","06","8","iti","null","img/motor_7.png","75","motor","","","","","","",""
"540","416865","HierDyys5tnf6k","sub06","06","8","motor","65","img/motor_1.png","65","motor","1","365","1","0","0","",""
"null","416975","HierDyys5tnf6k","sub06","06","8","iti","null","img/motor_1.png","65","motor","","","","","","",""
"378","417362","HierDyys5tnf6k","sub06","06","8","motor","68","img/motor_3.png","68","motor","3","366","1","0","0","",""
"null","417471","HierDyys5tnf6k","sub06","06","8","iti","null","img/motor_3.png","68","motor","","","","","","",""
"364","417843","HierDyys5tnf6k","sub06","06","8","motor","68","img/motor_3.png","68","motor","3","367","1","0","0","",""
"null","417953","HierDyys5tnf6k","sub06","06","8","iti","null","img/motor_3.png","68","motor","","","","","","",""
"379","418340","HierDyys5tnf6k","sub06","06","8","motor","72","img/motor_6.png","74","motor","6","368","0","1","0","",""
"148","418496","HierDyys5tnf6k","sub06","06","8","motorRepeat","74","img/motor_6.png","74","motor","6","368","1","0","0","",""
"null","418605","HierDyys5tnf6k","sub06","06","8","iti","null","img/motor_6.png","74","motor","","","","","","",""
"374","418989","HierDyys5tnf6k","sub06","06","8","motor","74","img/motor_6.png","74","motor","6","369","1","0","0","",""
"null","419098","HierDyys5tnf6k","sub06","06","8","iti","null","img/motor_6.png","74","motor","","","","","","",""
"409","419516","HierDyys5tnf6k","sub06","06","8","motor","72","img/motor_5.png","72","motor","5","370","1","0","0","",""
"null","419625","HierDyys5tnf6k","sub06","06","8","iti","null","img/motor_5.png","72","motor","","","","","","",""
"320","419953","HierDyys5tnf6k","sub06","06","8","motor","74","img/motor_7.png","75","motor","7","371","0","1","0","",""
"187","420148","HierDyys5tnf6k","sub06","06","8","motorRepeat","75","img/motor_7.png","75","motor","7","371","1","0","0","",""
"null","420258","HierDyys5tnf6k","sub06","06","8","iti","null","img/motor_7.png","75","motor","","","","","","",""
"462","420730","HierDyys5tnf6k","sub06","06","8","motor","65","img/motor_1.png","65","motor","1","372","1","0","0","",""
"null","420839","HierDyys5tnf6k","sub06","06","8","iti","null","img/motor_1.png","65","motor","","","","","","",""
"506","421354","HierDyys5tnf6k","sub06","06","8","motor","65","img/motor_1.png","65","motor","1","373","1","0","0","",""
"null","421464","HierDyys5tnf6k","sub06","06","8","iti","null","img/motor_1.png","65","motor","","","","","","",""
"512","421986","HierDyys5tnf6k","sub06","06","8","motor","76","img/motor_8.png","76","motor","8","374","1","0","0","",""
"null","422095","HierDyys5tnf6k","sub06","06","8","iti","null","img/motor_8.png","76","motor","","","","","","",""
"563","422668","HierDyys5tnf6k","sub06","06","8","motor","75","img/motor_7.png","75","motor","7","375","1","0","0","",""
"null","422776","HierDyys5tnf6k","sub06","06","8","iti","null","img/motor_7.png","75","motor","","","","","","",""
"385","423170","HierDyys5tnf6k","sub06","06","8","motor","72","img/motor_5.png","72","motor","5","376","1","0","0","",""
"null","423280","HierDyys5tnf6k","sub06","06","8","iti","null","img/motor_5.png","72","motor","","","","","","",""
"480","423768","HierDyys5tnf6k","sub06","06","8","motor","68","img/motor_2.png","83","motor","2","377","0","1","0","",""
"175","423954","HierDyys5tnf6k","sub06","06","8","motorRepeat","83","img/motor_2.png","83","motor","2","377","1","0","0","",""
"null","424062","HierDyys5tnf6k","sub06","06","8","iti","null","img/motor_2.png","83","motor","","","","","","",""
"410","424481","HierDyys5tnf6k","sub06","06","8","motor","72","img/motor_5.png","72","motor","5","378","1","0","0","",""
"null","424590","HierDyys5tnf6k","sub06","06","8","iti","null","img/motor_5.png","72","motor","","","","","","",""
"501","425100","HierDyys5tnf6k","sub06","06","8","motor","65","img/motor_2.png","83","motor","2","379","0","1","0","",""
"135","425244","HierDyys5tnf6k","sub06","06","8","motorRepeat","83","img/motor_2.png","83","motor","2","379","1","0","0","",""
"null","425354","HierDyys5tnf6k","sub06","06","8","iti","null","img/motor_2.png","83","motor","","","","","","",""
"388","425752","HierDyys5tnf6k","sub06","06","8","motor","65","img/motor_1.png","65","motor","1","380","1","0","0","",""
"null","425862","HierDyys5tnf6k","sub06","06","8","iti","null","img/motor_1.png","65","motor","","","","","","",""
"497","426369","HierDyys5tnf6k","sub06","06","8","motor","72","img/motor_6.png","74","motor","6","381","0","1","0","",""
