"rt","time_elapsed","subject","subID","group","day","trialType","phase","key_press","stim","stimNum","corrresp","hierarchy","trialNum","corr","responses"
"41307","41312","HierDydpld6q3q","sub12","12","02","","","","","","","","","",""
"","45776","HierDydpld6q3q","sub12","12","02","fullscreen","","","","","","","","",""
"50718.700000047684","96496","HierDydpld6q3q","sub12","12","02","","prac","","","","","","","",""
"5468.199999988079","101968","HierDydpld6q3q","sub12","12","02","","","32","","","","","","",""
"5498.300000011921","107468","HierDydpld6q3q","sub12","12","02","","prac","","","","","","","",""
"1497.9000000357628","108970","HierDydpld6q3q","sub12","12","02","rl","test","72","img/r_d_stripes.png","5","72","shape,color,pattern","1","1",""
"null","109988","HierDydpld6q3q","sub12","12","02","feedback","test","null","","","na","","1","",""
"1253.5","111245","HierDydpld6q3q","sub12","12","02","rl","test","65","img/r_t_stripes.png","1","65","shape,color,pattern","2","1",""
"null","112252","HierDydpld6q3q","sub12","12","02","feedback","test","null","","","na","","2","",""
"1402.0999999642372","113656","HierDydpld6q3q","sub12","12","02","rl","test","70","img/b_t_check.png","4","70","shape,color,pattern","3","1",""
"null","114664","HierDydpld6q3q","sub12","12","02","feedback","test","null","","","na","","3","",""
"1199.5","115867","HierDydpld6q3q","sub12","12","02","rl","test","74","img/r_d_check.png","6","74","shape,color,pattern","4","1",""
"null","116883","HierDydpld6q3q","sub12","12","02","feedback","test","null","","","na","","4","",""
"1921.199999988079","118806","HierDydpld6q3q","sub12","12","02","rl","test","68","img/b_t_stripes.png","3","68","shape,color,pattern","5","1",""
"null","119816","HierDydpld6q3q","sub12","12","02","feedback","test","null","","","na","","5","",""
"null","122334","HierDydpld6q3q","sub12","12","02","rl","test","null","img/r_t_check.png","2","83","shape,color,pattern","6","0",""
"null","123343","HierDydpld6q3q","sub12","12","02","feedback","test","null","","","na","","6","",""
"1802.4000000357628","125147","HierDydpld6q3q","sub12","12","02","rl","test","75","img/b_d_stripes.png","7","75","shape,color,pattern","7","1",""
"null","126161","HierDydpld6q3q","sub12","12","02","feedback","test","null","","","na","","7","",""
"2408.100000023842","128571","HierDydpld6q3q","sub12","12","02","rl","test","68","img/b_t_stripes.png","3","68","shape,color,pattern","8","1",""
"null","129587","HierDydpld6q3q","sub12","12","02","feedback","test","null","","","na","","8","",""
"null","132094","HierDydpld6q3q","sub12","12","02","rl","test","null","img/b_d_check.png","8","76","shape,color,pattern","9","0",""
"null","133104","HierDydpld6q3q","sub12","12","02","feedback","test","null","","","na","","9","",""
"1402.5","134508","HierDydpld6q3q","sub12","12","02","rl","test","76","img/b_d_check.png","8","76","shape,color,pattern","10","1",""
"null","135523","HierDydpld6q3q","sub12","12","02","feedback","test","null","","","na","","10","",""
"null","138041","HierDydpld6q3q","sub12","12","02","rl","test","null","img/r_t_check.png","2","83","shape,color,pattern","11","0",""
"null","139054","HierDydpld6q3q","sub12","12","02","feedback","test","null","","","na","","11","",""
"1794.199999988079","140851","HierDydpld6q3q","sub12","12","02","rl","test","72","img/r_d_stripes.png","5","72","shape,color,pattern","12","1",""
"null","141867","HierDydpld6q3q","sub12","12","02","feedback","test","null","","","na","","12","",""
"1174.8999999761581","143043","HierDydpld6q3q","sub12","12","02","rl","test","75","img/b_d_stripes.png","7","75","shape,color,pattern","13","1",""
"null","144066","HierDydpld6q3q","sub12","12","02","feedback","test","null","","","na","","13","",""
"1986.2999999523163","146054","HierDydpld6q3q","sub12","12","02","rl","test","74","img/r_d_check.png","6","74","shape,color,pattern","14","1",""
"null","147067","HierDydpld6q3q","sub12","12","02","feedback","test","null","","","na","","14","",""
"1371.6000000238419","148440","HierDydpld6q3q","sub12","12","02","rl","test","65","img/r_t_stripes.png","1","65","shape,color,pattern","15","1",""
"null","149457","HierDydpld6q3q","sub12","12","02","feedback","test","null","","","na","","15","",""
"1043.3999999761581","150502","HierDydpld6q3q","sub12","12","02","rl","test","70","img/b_t_check.png","4","70","shape,color,pattern","16","1",""
"null","151517","HierDydpld6q3q","sub12","12","02","feedback","test","null","","","na","","16","",""
"1456.199999988079","152974","HierDydpld6q3q","sub12","12","02","rl","test","76","img/b_d_check.png","8","76","shape,color,pattern","17","1",""
"null","153983","HierDydpld6q3q","sub12","12","02","feedback","test","null","","","na","","17","",""
"1924.3999999761581","155910","HierDydpld6q3q","sub12","12","02","rl","test","70","img/b_t_check.png","4","70","shape,color,pattern","18","1",""
"null","156922","HierDydpld6q3q","sub12","12","02","feedback","test","null","","","na","","18","",""
"980.1999999880791","157904","HierDydpld6q3q","sub12","12","02","rl","test","83","img/r_t_check.png","2","83","shape,color,pattern","19","1",""
"null","158916","HierDydpld6q3q","sub12","12","02","feedback","test","null","","","na","","19","",""
"746.9000000357628","159665","HierDydpld6q3q","sub12","12","02","rl","test","65","img/r_t_stripes.png","1","65","shape,color,pattern","20","1",""
"null","160682","HierDydpld6q3q","sub12","12","02","feedback","test","null","","","na","","20","",""
"1160.5","161844","HierDydpld6q3q","sub12","12","02","rl","test","68","img/b_t_stripes.png","3","68","shape,color,pattern","21","1",""
"null","162859","HierDydpld6q3q","sub12","12","02","feedback","test","null","","","na","","21","",""
"715.5","163576","HierDydpld6q3q","sub12","12","02","rl","test","65","img/r_t_stripes.png","1","65","shape,color,pattern","22","1",""
"null","164595","HierDydpld6q3q","sub12","12","02","feedback","test","null","","","na","","22","",""
"1638.9000000357628","166236","HierDydpld6q3q","sub12","12","02","rl","test","72","img/r_d_stripes.png","5","72","shape,color,pattern","23","1",""
"null","167250","HierDydpld6q3q","sub12","12","02","feedback","test","null","","","na","","23","",""
"1136.199999988079","168389","HierDydpld6q3q","sub12","12","02","rl","test","68","img/b_t_stripes.png","3","68","shape,color,pattern","24","1",""
"null","169409","HierDydpld6q3q","sub12","12","02","feedback","test","null","","","na","","24","",""
"2227.2999999523163","171638","HierDydpld6q3q","sub12","12","02","rl","test","74","img/b_d_stripes.png","7","75","shape,color,pattern","25","0",""
"null","172654","HierDydpld6q3q","sub12","12","02","feedback","test","null","","","na","","25","",""
"1855.0999999642372","174511","HierDydpld6q3q","sub12","12","02","rl","test","75","img/b_d_stripes.png","7","75","shape,color,pattern","26","1",""
"null","175516","HierDydpld6q3q","sub12","12","02","feedback","test","null","","","na","","26","",""
"825.6999999880791","176345","HierDydpld6q3q","sub12","12","02","rl","test","72","img/r_d_stripes.png","5","72","shape,color,pattern","27","1",""
"null","177362","HierDydpld6q3q","sub12","12","02","feedback","test","null","","","na","","27","",""
"880","178244","HierDydpld6q3q","sub12","12","02","rl","test","74","img/r_d_check.png","6","74","shape,color,pattern","28","1",""
"null","179253","HierDydpld6q3q","sub12","12","02","feedback","test","null","","","na","","28","",""
"611.3000000119209","179867","HierDydpld6q3q","sub12","12","02","rl","test","74","img/r_d_check.png","6","74","shape,color,pattern","29","1",""
"null","180881","HierDydpld6q3q","sub12","12","02","feedback","test","null","","","na","","29","",""
"1515.300000011921","182399","HierDydpld6q3q","sub12","12","02","rl","test","70","img/b_t_check.png","4","70","shape,color,pattern","30","1",""
"null","183403","HierDydpld6q3q","sub12","12","02","feedback","test","null","","","na","","30","",""
"1433.1000000238419","184838","HierDydpld6q3q","sub12","12","02","rl","test","76","img/b_d_check.png","8","76","shape,color,pattern","31","1",""
"null","185849","HierDydpld6q3q","sub12","12","02","feedback","test","null","","","na","","31","",""
"1520.800000011921","187372","HierDydpld6q3q","sub12","12","02","rl","test","70","img/b_t_check.png","4","70","shape,color,pattern","32","1",""
"null","188388","HierDydpld6q3q","sub12","12","02","feedback","test","null","","","na","","32","",""
"899.3000000119209","189289","HierDydpld6q3q","sub12","12","02","rl","test","83","img/r_t_check.png","2","83","shape,color,pattern","33","1",""
"null","190311","HierDydpld6q3q","sub12","12","02","feedback","test","null","","","na","","33","",""
"1677.199999988079","191991","HierDydpld6q3q","sub12","12","02","rl","test","74","img/r_d_check.png","6","74","shape,color,pattern","34","1",""
"null","193008","HierDydpld6q3q","sub12","12","02","feedback","test","null","","","na","","34","",""
"952.8000000119209","193963","HierDydpld6q3q","sub12","12","02","rl","test","75","img/b_d_stripes.png","7","75","shape,color,pattern","35","1",""
"null","194978","HierDydpld6q3q","sub12","12","02","feedback","test","null","","","na","","35","",""
"1766.699999988079","196747","HierDydpld6q3q","sub12","12","02","rl","test","83","img/r_t_check.png","2","83","shape,color,pattern","36","1",""
"null","197764","HierDydpld6q3q","sub12","12","02","feedback","test","null","","","na","","36","",""
"685","198451","HierDydpld6q3q","sub12","12","02","rl","test","65","img/r_t_stripes.png","1","65","shape,color,pattern","37","1",""
"null","199458","HierDydpld6q3q","sub12","12","02","feedback","test","null","","","na","","37","",""
"1234.1000000238419","200695","HierDydpld6q3q","sub12","12","02","rl","test","72","img/r_d_stripes.png","5","72","shape,color,pattern","38","1",""
"null","201709","HierDydpld6q3q","sub12","12","02","feedback","test","null","","","na","","38","",""
"886.6000000238419","202597","HierDydpld6q3q","sub12","12","02","rl","test","68","img/b_t_stripes.png","3","68","shape,color,pattern","39","1",""
"null","203608","HierDydpld6q3q","sub12","12","02","feedback","test","null","","","na","","39","",""
"582.5999999642372","204193","HierDydpld6q3q","sub12","12","02","rl","test","70","img/b_t_check.png","4","70","shape,color,pattern","40","1",""
"null","205212","HierDydpld6q3q","sub12","12","02","feedback","test","null","","","na","","40","",""
"1181.6000000238419","206396","HierDydpld6q3q","sub12","12","02","rl","test","76","img/b_d_check.png","8","76","shape,color,pattern","41","1",""
"null","207405","HierDydpld6q3q","sub12","12","02","feedback","test","null","","","na","","41","",""
"405.5999999642372","207814","HierDydpld6q3q","sub12","12","02","rl","test","75","img/b_d_stripes.png","7","75","shape,color,pattern","42","1",""
"null","208821","HierDydpld6q3q","sub12","12","02","feedback","test","null","","","na","","42","",""
"742.5999999642372","209565","HierDydpld6q3q","sub12","12","02","rl","test","65","img/r_t_stripes.png","1","65","shape,color,pattern","43","1",""
"null","210580","HierDydpld6q3q","sub12","12","02","feedback","test","null","","","na","","43","",""
"804.8999999761581","211387","HierDydpld6q3q","sub12","12","02","rl","test","70","img/b_t_check.png","4","70","shape,color,pattern","44","1",""
"null","212398","HierDydpld6q3q","sub12","12","02","feedback","test","null","","","na","","44","",""
"1440.5","213841","HierDydpld6q3q","sub12","12","02","rl","test","83","img/r_t_check.png","2","83","shape,color,pattern","45","1",""
"null","214857","HierDydpld6q3q","sub12","12","02","feedback","test","null","","","na","","45","",""
"2092.5","216950","HierDydpld6q3q","sub12","12","02","rl","test","68","img/b_t_stripes.png","3","68","shape,color,pattern","46","1",""
"null","217961","HierDydpld6q3q","sub12","12","02","feedback","test","null","","","na","","46","",""
"1755.1000000238419","219719","HierDydpld6q3q","sub12","12","02","rl","test","74","img/b_d_check.png","8","76","shape,color,pattern","47","0",""
"null","220734","HierDydpld6q3q","sub12","12","02","feedback","test","null","","","na","","47","",""
"1115.800000011921","221852","HierDydpld6q3q","sub12","12","02","rl","test","72","img/r_d_stripes.png","5","72","shape,color,pattern","48","1",""
"null","222864","HierDydpld6q3q","sub12","12","02","feedback","test","null","","","na","","48","",""
"1245.300000011921","224112","HierDydpld6q3q","sub12","12","02","rl","test","74","img/r_d_check.png","6","74","shape,color,pattern","49","1",""
"null","225128","HierDydpld6q3q","sub12","12","02","feedback","test","null","","","na","","49","",""
"716.4000000357628","225847","HierDydpld6q3q","sub12","12","02","rl","test","76","img/b_d_check.png","8","76","shape,color,pattern","50","1",""
"null","226865","HierDydpld6q3q","sub12","12","02","feedback","test","null","","","na","","50","",""
"1086.5","227953","HierDydpld6q3q","sub12","12","02","rl","test","65","img/r_t_stripes.png","1","65","shape,color,pattern","51","1",""
"null","228975","HierDydpld6q3q","sub12","12","02","feedback","test","null","","","na","","51","",""
"1274.3999999761581","230252","HierDydpld6q3q","sub12","12","02","rl","test","72","img/r_d_stripes.png","5","72","shape,color,pattern","52","1",""
"null","231263","HierDydpld6q3q","sub12","12","02","feedback","test","null","","","na","","52","",""
"1161.8999999761581","232427","HierDydpld6q3q","sub12","12","02","rl","test","75","img/b_d_stripes.png","7","75","shape,color,pattern","53","1",""
"null","233430","HierDydpld6q3q","sub12","12","02","feedback","test","null","","","na","","53","",""
"null","235944","HierDydpld6q3q","sub12","12","02","rl","test","null","img/r_d_check.png","6","74","shape,color,pattern","54","0",""
"null","236955","HierDydpld6q3q","sub12","12","02","feedback","test","null","","","na","","54","",""
"1558.5","238515","HierDydpld6q3q","sub12","12","02","rl","test","75","img/b_d_stripes.png","7","75","shape,color,pattern","55","1",""
"null","239533","HierDydpld6q3q","sub12","12","02","feedback","test","null","","","na","","55","",""
"1088.2999999523163","240623","HierDydpld6q3q","sub12","12","02","rl","test","72","img/r_d_stripes.png","5","72","shape,color,pattern","56","1",""
"null","241642","HierDydpld6q3q","sub12","12","02","feedback","test","null","","","na","","56","",""
"2019.5","243663","HierDydpld6q3q","sub12","12","02","rl","test","68","img/r_t_check.png","2","83","shape,color,pattern","57","0",""
"null","244667","HierDydpld6q3q","sub12","12","02","feedback","test","null","","","na","","57","",""
"665.4000000357628","245335","HierDydpld6q3q","sub12","12","02","rl","test","70","img/r_t_check.png","2","83","shape,color,pattern","58","0",""
"null","246350","HierDydpld6q3q","sub12","12","02","feedback","test","null","","","na","","58","",""
"1018.8999999761581","247370","HierDydpld6q3q","sub12","12","02","rl","test","70","img/b_t_check.png","4","70","shape,color,pattern","59","1",""
"null","248393","HierDydpld6q3q","sub12","12","02","feedback","test","null","","","na","","59","",""
"1559.300000011921","249954","HierDydpld6q3q","sub12","12","02","rl","test","65","img/b_t_stripes.png","3","68","shape,color,pattern","60","0",""
"null","250976","HierDydpld6q3q","sub12","12","02","feedback","test","null","","","na","","60","",""
"2289.099999964237","253267","HierDydpld6q3q","sub12","12","02","rl","test","76","img/b_d_check.png","8","76","shape,color,pattern","61","1",""
"null","254282","HierDydpld6q3q","sub12","12","02","feedback","test","null","","","na","","61","",""
"953.6000000238419","255237","HierDydpld6q3q","sub12","12","02","rl","test","74","img/r_d_check.png","6","74","shape,color,pattern","62","1",""
"null","256254","HierDydpld6q3q","sub12","12","02","feedback","test","null","","","na","","62","",""
"1169.800000011921","257426","HierDydpld6q3q","sub12","12","02","rl","test","68","img/b_t_stripes.png","3","68","shape,color,pattern","63","1",""
"null","258435","HierDydpld6q3q","sub12","12","02","feedback","test","null","","","na","","63","",""
"628.3000000119209","259065","HierDydpld6q3q","sub12","12","02","rl","test","65","img/r_t_stripes.png","1","65","shape,color,pattern","64","1",""
"null","260084","HierDydpld6q3q","sub12","12","02","feedback","test","null","","","na","","64","",""
"1392.3999999761581","261478","HierDydpld6q3q","sub12","12","02","rl","test","83","img/r_t_check.png","2","83","shape,color,pattern","65","1",""
"null","262496","HierDydpld6q3q","sub12","12","02","feedback","test","null","","","na","","65","",""
"1238.9000000357628","263737","HierDydpld6q3q","sub12","12","02","rl","test","72","img/r_d_stripes.png","5","72","shape,color,pattern","66","1",""
"null","264751","HierDydpld6q3q","sub12","12","02","feedback","test","null","","","na","","66","",""
"1095.5","265848","HierDydpld6q3q","sub12","12","02","rl","test","74","img/r_d_check.png","6","74","shape,color,pattern","67","1",""
"null","266866","HierDydpld6q3q","sub12","12","02","feedback","test","null","","","na","","67","",""
"1795.699999988079","268663","HierDydpld6q3q","sub12","12","02","rl","test","70","img/b_t_check.png","4","70","shape,color,pattern","68","1",""
"null","269669","HierDydpld6q3q","sub12","12","02","feedback","test","null","","","na","","68","",""
"1793.699999988079","271464","HierDydpld6q3q","sub12","12","02","rl","test","75","img/b_d_stripes.png","7","75","shape,color,pattern","69","1",""
"null","272479","HierDydpld6q3q","sub12","12","02","feedback","test","null","","","na","","69","",""
"809.1999999880791","273290","HierDydpld6q3q","sub12","12","02","rl","test","65","img/r_t_stripes.png","1","65","shape,color,pattern","70","1",""
"null","274301","HierDydpld6q3q","sub12","12","02","feedback","test","null","","","na","","70","",""
"1360.3999999761581","275664","HierDydpld6q3q","sub12","12","02","rl","test","75","img/b_d_stripes.png","7","75","shape,color,pattern","71","1",""
"null","276689","HierDydpld6q3q","sub12","12","02","feedback","test","null","","","na","","71","",""
"1527.5999999642372","278219","HierDydpld6q3q","sub12","12","02","rl","test","68","img/b_t_stripes.png","3","68","shape,color,pattern","72","1",""
"null","279238","HierDydpld6q3q","sub12","12","02","feedback","test","null","","","na","","72","",""
"1775.800000011921","281017","HierDydpld6q3q","sub12","12","02","rl","test","76","img/b_d_check.png","8","76","shape,color,pattern","73","1",""
"null","282021","HierDydpld6q3q","sub12","12","02","feedback","test","null","","","na","","73","",""
"944.3000000119209","282967","HierDydpld6q3q","sub12","12","02","rl","test","76","img/b_d_check.png","8","76","shape,color,pattern","74","1",""
"null","283980","HierDydpld6q3q","sub12","12","02","feedback","test","null","","","na","","74","",""
"2440.600000023842","286423","HierDydpld6q3q","sub12","12","02","rl","test","68","img/b_t_check.png","4","70","shape,color,pattern","75","0",""
"null","287429","HierDydpld6q3q","sub12","12","02","feedback","test","null","","","na","","75","",""
"1284","288715","HierDydpld6q3q","sub12","12","02","rl","test","72","img/r_d_stripes.png","5","72","shape,color,pattern","76","1",""
"null","289737","HierDydpld6q3q","sub12","12","02","feedback","test","null","","","na","","76","",""
"1582.5999999642372","291322","HierDydpld6q3q","sub12","12","02","rl","test","83","img/r_t_check.png","2","83","shape,color,pattern","77","1",""
"null","292333","HierDydpld6q3q","sub12","12","02","feedback","test","null","","","na","","77","",""
"2349.400000035763","294685","HierDydpld6q3q","sub12","12","02","rl","test","74","img/r_d_check.png","6","74","shape,color,pattern","78","1",""
"null","295704","HierDydpld6q3q","sub12","12","02","feedback","test","null","","","na","","78","",""
"1513.800000011921","297219","HierDydpld6q3q","sub12","12","02","rl","test","83","img/r_t_check.png","2","83","shape,color,pattern","79","1",""
"null","298233","HierDydpld6q3q","sub12","12","02","feedback","test","null","","","na","","79","",""
"1087.300000011921","299324","HierDydpld6q3q","sub12","12","02","rl","test","68","img/b_t_stripes.png","3","68","shape,color,pattern","80","1",""
"null","300341","HierDydpld6q3q","sub12","12","02","feedback","test","null","","","na","","80","",""
"1135.699999988079","301479","HierDydpld6q3q","sub12","12","02","rl","test","74","img/r_d_check.png","6","74","shape,color,pattern","81","1",""
"null","302486","HierDydpld6q3q","sub12","12","02","feedback","test","null","","","na","","81","",""
"1118.5","303606","HierDydpld6q3q","sub12","12","02","rl","test","65","img/r_t_stripes.png","1","65","shape,color,pattern","82","1",""
"null","304615","HierDydpld6q3q","sub12","12","02","feedback","test","null","","","na","","82","",""
"868.5999999642372","305486","HierDydpld6q3q","sub12","12","02","rl","test","65","img/r_t_stripes.png","1","65","shape,color,pattern","83","1",""
"null","306496","HierDydpld6q3q","sub12","12","02","feedback","test","null","","","na","","83","",""
"1981.3999999761581","308479","HierDydpld6q3q","sub12","12","02","rl","test","75","img/b_d_stripes.png","7","75","shape,color,pattern","84","1",""
"null","309488","HierDydpld6q3q","sub12","12","02","feedback","test","null","","","na","","84","",""
"1225.5","310715","HierDydpld6q3q","sub12","12","02","rl","test","68","img/b_t_stripes.png","3","68","shape,color,pattern","85","1",""
"null","311730","HierDydpld6q3q","sub12","12","02","feedback","test","null","","","na","","85","",""
"null","314244","HierDydpld6q3q","sub12","12","02","rl","test","null","img/r_t_stripes.png","1","65","shape,color,pattern","86","0",""
"null","315257","HierDydpld6q3q","sub12","12","02","feedback","test","null","","","na","","86","",""
"997.6000000238419","316257","HierDydpld6q3q","sub12","12","02","rl","test","76","img/b_d_check.png","8","76","shape,color,pattern","87","1",""
"null","317275","HierDydpld6q3q","sub12","12","02","feedback","test","null","","","na","","87","",""
"1537.1000000238419","318814","HierDydpld6q3q","sub12","12","02","rl","test","70","img/b_t_check.png","4","70","shape,color,pattern","88","1",""
"null","319824","HierDydpld6q3q","sub12","12","02","feedback","test","null","","","na","","88","",""
"729.1000000238419","320555","HierDydpld6q3q","sub12","12","02","rl","test","68","img/b_t_stripes.png","3","68","shape,color,pattern","89","1",""
"null","321570","HierDydpld6q3q","sub12","12","02","feedback","test","null","","","na","","89","",""
"929.1999999880791","322501","HierDydpld6q3q","sub12","12","02","rl","test","72","img/r_d_stripes.png","5","72","shape,color,pattern","90","1",""
"null","323509","HierDydpld6q3q","sub12","12","02","feedback","test","null","","","na","","90","",""
"912.8000000119209","324425","HierDydpld6q3q","sub12","12","02","rl","test","76","img/b_d_check.png","8","76","shape,color,pattern","91","1",""
"null","325432","HierDydpld6q3q","sub12","12","02","feedback","test","null","","","na","","91","",""
"1387.8999999761581","326822","HierDydpld6q3q","sub12","12","02","rl","test","75","img/b_d_stripes.png","7","75","shape,color,pattern","92","1",""
"null","327834","HierDydpld6q3q","sub12","12","02","feedback","test","null","","","na","","92","",""
"2256.900000035763","330093","HierDydpld6q3q","sub12","12","02","rl","test","70","img/r_t_check.png","2","83","shape,color,pattern","93","0",""
"null","331111","HierDydpld6q3q","sub12","12","02","feedback","test","null","","","na","","93","",""
"997.3999999761581","332111","HierDydpld6q3q","sub12","12","02","rl","test","70","img/b_t_check.png","4","70","shape,color,pattern","94","1",""
"null","333130","HierDydpld6q3q","sub12","12","02","feedback","test","null","","","na","","94","",""
"1909.0999999642372","335041","HierDydpld6q3q","sub12","12","02","rl","test","72","img/r_d_stripes.png","5","72","shape,color,pattern","95","1",""
"null","336064","HierDydpld6q3q","sub12","12","02","feedback","test","null","","","na","","95","",""
"1238.2000000476837","337304","HierDydpld6q3q","sub12","12","02","rl","test","74","img/r_d_check.png","6","74","shape,color,pattern","96","1",""
"null","338313","HierDydpld6q3q","sub12","12","02","feedback","test","null","","","na","","96","",""
"1839.5","340154","HierDydpld6q3q","sub12","12","02","rl","test","72","img/r_d_stripes.png","5","72","shape,color,pattern","97","1",""
"null","341163","HierDydpld6q3q","sub12","12","02","feedback","test","null","","","na","","97","",""
"1402.1000000238419","342567","HierDydpld6q3q","sub12","12","02","rl","test","75","img/b_d_stripes.png","7","75","shape,color,pattern","98","1",""
"null","343582","HierDydpld6q3q","sub12","12","02","feedback","test","null","","","na","","98","",""
"1357.2999999523163","344942","HierDydpld6q3q","sub12","12","02","rl","test","68","img/b_t_stripes.png","3","68","shape,color,pattern","99","1",""
"null","345956","HierDydpld6q3q","sub12","12","02","feedback","test","null","","","na","","99","",""
"2076.800000011921","348035","HierDydpld6q3q","sub12","12","02","rl","test","83","img/r_t_check.png","2","83","shape,color,pattern","100","1",""
"null","349044","HierDydpld6q3q","sub12","12","02","feedback","test","null","","","na","","100","",""
"608.7000000476837","349655","HierDydpld6q3q","sub12","12","02","rl","test","65","img/r_t_stripes.png","1","65","shape,color,pattern","101","1",""
"null","350662","HierDydpld6q3q","sub12","12","02","feedback","test","null","","","na","","101","",""
"1007.8000000119209","351672","HierDydpld6q3q","sub12","12","02","rl","test","76","img/b_d_check.png","8","76","shape,color,pattern","102","1",""
"null","352697","HierDydpld6q3q","sub12","12","02","feedback","test","null","","","na","","102","",""
"null","355212","HierDydpld6q3q","sub12","12","02","rl","test","null","img/b_t_check.png","4","70","shape,color,pattern","103","0",""
"null","356227","HierDydpld6q3q","sub12","12","02","feedback","test","null","","","na","","103","",""
"1341.5","357572","HierDydpld6q3q","sub12","12","02","rl","test","70","img/b_t_check.png","4","70","shape,color,pattern","104","1",""
"null","358592","HierDydpld6q3q","sub12","12","02","feedback","test","null","","","na","","104","",""
"1247.5","359842","HierDydpld6q3q","sub12","12","02","rl","test","74","img/r_d_check.png","6","74","shape,color,pattern","105","1",""
"null","360864","HierDydpld6q3q","sub12","12","02","feedback","test","null","","","na","","105","",""
"1218.300000011921","362085","HierDydpld6q3q","sub12","12","02","rl","test","83","img/r_t_check.png","2","83","shape,color,pattern","106","1",""
"null","363095","HierDydpld6q3q","sub12","12","02","feedback","test","null","","","na","","106","",""
"2099.600000023842","365197","HierDydpld6q3q","sub12","12","02","rl","test","76","img/b_d_check.png","8","76","shape,color,pattern","107","1",""
"null","366207","HierDydpld6q3q","sub12","12","02","feedback","test","null","","","na","","107","",""
"821.3000000119209","367030","HierDydpld6q3q","sub12","12","02","rl","test","65","img/r_t_stripes.png","1","65","shape,color,pattern","108","1",""
"null","368047","HierDydpld6q3q","sub12","12","02","feedback","test","null","","","na","","108","",""
"2076.899999976158","370125","HierDydpld6q3q","sub12","12","02","rl","test","75","img/b_d_stripes.png","7","75","shape,color,pattern","109","1",""
"null","371142","HierDydpld6q3q","sub12","12","02","feedback","test","null","","","na","","109","",""
"1605.5","372749","HierDydpld6q3q","sub12","12","02","rl","test","72","img/r_d_stripes.png","5","72","shape,color,pattern","110","1",""
"null","373755","HierDydpld6q3q","sub12","12","02","feedback","test","null","","","na","","110","",""
"null","376261","HierDydpld6q3q","sub12","12","02","rl","test","null","img/b_t_stripes.png","3","68","shape,color,pattern","111","0",""
"null","377268","HierDydpld6q3q","sub12","12","02","feedback","test","null","","","na","","111","",""
"1575.5","378846","HierDydpld6q3q","sub12","12","02","rl","test","74","img/r_d_check.png","6","74","shape,color,pattern","112","1",""
"null","379852","HierDydpld6q3q","sub12","12","02","feedback","test","null","","","na","","112","",""
"2421.2999999523163","382275","HierDydpld6q3q","sub12","12","02","rl","test","68","img/b_t_stripes.png","3","68","shape,color,pattern","113","1",""
"null","383284","HierDydpld6q3q","sub12","12","02","feedback","test","null","","","na","","113","",""
"1229.699999988079","384515","HierDydpld6q3q","sub12","12","02","rl","test","72","img/r_d_stripes.png","5","72","shape,color,pattern","114","1",""
"null","385525","HierDydpld6q3q","sub12","12","02","feedback","test","null","","","na","","114","",""
"663.3999999761581","386190","HierDydpld6q3q","sub12","12","02","rl","test","74","img/r_d_check.png","6","74","shape,color,pattern","115","1",""
"null","387199","HierDydpld6q3q","sub12","12","02","feedback","test","null","","","na","","115","",""
"1335.699999988079","388537","HierDydpld6q3q","sub12","12","02","rl","test","65","img/r_t_stripes.png","1","65","shape,color,pattern","116","1",""
"null","389546","HierDydpld6q3q","sub12","12","02","feedback","test","null","","","na","","116","",""
"1401.7999999523163","390950","HierDydpld6q3q","sub12","12","02","rl","test","76","img/b_d_check.png","8","76","shape,color,pattern","117","1",""
"null","391958","HierDydpld6q3q","sub12","12","02","feedback","test","null","","","na","","117","",""
"1458.4000000357628","393418","HierDydpld6q3q","sub12","12","02","rl","test","70","img/b_t_check.png","4","70","shape,color,pattern","118","1",""
"null","394432","HierDydpld6q3q","sub12","12","02","feedback","test","null","","","na","","118","",""
"531.6999999880791","394966","HierDydpld6q3q","sub12","12","02","rl","test","70","img/b_t_check.png","4","70","shape,color,pattern","119","1",""
"null","395984","HierDydpld6q3q","sub12","12","02","feedback","test","null","","","na","","119","",""
"1647.699999988079","397634","HierDydpld6q3q","sub12","12","02","rl","test","83","img/r_t_check.png","2","83","shape,color,pattern","120","1",""
"null","398643","HierDydpld6q3q","sub12","12","02","feedback","test","null","","","na","","120","",""
"1370.1000000238419","400016","HierDydpld6q3q","sub12","12","02","rl","test","75","img/b_d_stripes.png","7","75","shape,color,pattern","121","1",""
"null","401033","HierDydpld6q3q","sub12","12","02","feedback","test","null","","","na","","121","",""
"1072.2999999523163","402107","HierDydpld6q3q","sub12","12","02","rl","test","68","img/r_t_check.png","2","83","shape,color,pattern","122","0",""
"null","403122","HierDydpld6q3q","sub12","12","02","feedback","test","null","","","na","","122","",""
"1053","404178","HierDydpld6q3q","sub12","12","02","rl","test","76","img/b_d_check.png","8","76","shape,color,pattern","123","1",""
"null","405199","HierDydpld6q3q","sub12","12","02","feedback","test","null","","","na","","123","",""
"1758.0999999642372","406959","HierDydpld6q3q","sub12","12","02","rl","test","68","img/b_t_stripes.png","3","68","shape,color,pattern","124","1",""
"null","407973","HierDydpld6q3q","sub12","12","02","feedback","test","null","","","na","","124","",""
"972.1000000238419","408948","HierDydpld6q3q","sub12","12","02","rl","test","65","img/r_t_stripes.png","1","65","shape,color,pattern","125","1",""
"null","409957","HierDydpld6q3q","sub12","12","02","feedback","test","null","","","na","","125","",""
"1628.2999999523163","411587","HierDydpld6q3q","sub12","12","02","rl","test","75","img/b_d_stripes.png","7","75","shape,color,pattern","126","1",""
"null","412602","HierDydpld6q3q","sub12","12","02","feedback","test","null","","","na","","126","",""
"661.8999999761581","413265","HierDydpld6q3q","sub12","12","02","rl","test","72","img/r_d_stripes.png","5","72","shape,color,pattern","127","1",""
"null","414276","HierDydpld6q3q","sub12","12","02","feedback","test","null","","","na","","127","",""
"523.8999999761581","414802","HierDydpld6q3q","sub12","12","02","rl","test","72","img/r_d_stripes.png","5","72","shape,color,pattern","128","1",""
"null","415824","HierDydpld6q3q","sub12","12","02","feedback","test","null","","","na","","128","",""
"1717.699999988079","417544","HierDydpld6q3q","sub12","12","02","rl","test","70","img/b_t_check.png","4","70","shape,color,pattern","129","1",""
"null","418561","HierDydpld6q3q","sub12","12","02","feedback","test","null","","","na","","129","",""
"2455.199999988079","421018","HierDydpld6q3q","sub12","12","02","rl","test","74","img/r_d_check.png","6","74","shape,color,pattern","130","1",""
"null","422037","HierDydpld6q3q","sub12","12","02","feedback","test","null","","","na","","130","",""
"666.6000000238419","422705","HierDydpld6q3q","sub12","12","02","rl","test","76","img/b_d_check.png","8","76","shape,color,pattern","131","1",""
"null","423723","HierDydpld6q3q","sub12","12","02","feedback","test","null","","","na","","131","",""
"2236.199999988079","425961","HierDydpld6q3q","sub12","12","02","rl","test","70","img/r_t_check.png","2","83","shape,color,pattern","132","0",""
"null","426980","HierDydpld6q3q","sub12","12","02","feedback","test","null","","","na","","132","",""
"1984.1000000238419","428966","HierDydpld6q3q","sub12","12","02","rl","test","74","img/r_d_check.png","6","74","shape,color,pattern","133","1",""
"null","429977","HierDydpld6q3q","sub12","12","02","feedback","test","null","","","na","","133","",""
"822.8000000119209","430801","HierDydpld6q3q","sub12","12","02","rl","test","65","img/r_t_stripes.png","1","65","shape,color,pattern","134","1",""
"null","431821","HierDydpld6q3q","sub12","12","02","feedback","test","null","","","na","","134","",""
"1596.5","433419","HierDydpld6q3q","sub12","12","02","rl","test","76","img/b_d_check.png","8","76","shape,color,pattern","135","1",""
"null","434438","HierDydpld6q3q","sub12","12","02","feedback","test","null","","","na","","135","",""
"null","436955","HierDydpld6q3q","sub12","12","02","rl","test","null","img/b_t_stripes.png","3","68","shape,color,pattern","136","0",""
"null","437969","HierDydpld6q3q","sub12","12","02","feedback","test","null","","","na","","136","",""
"1996.9000000357628","439970","HierDydpld6q3q","sub12","12","02","rl","test","75","img/b_d_stripes.png","7","75","shape,color,pattern","137","1",""
"null","440982","HierDydpld6q3q","sub12","12","02","feedback","test","null","","","na","","137","",""
"1055.2000000476837","442039","HierDydpld6q3q","sub12","12","02","rl","test","65","img/r_t_stripes.png","1","65","shape,color,pattern","138","1",""
"null","443050","HierDydpld6q3q","sub12","12","02","feedback","test","null","","","na","","138","",""
"486.60000002384186","443539","HierDydpld6q3q","sub12","12","02","rl","test","68","img/b_t_stripes.png","3","68","shape,color,pattern","139","1",""
"null","444547","HierDydpld6q3q","sub12","12","02","feedback","test","null","","","na","","139","",""
"658.6999999880791","445208","HierDydpld6q3q","sub12","12","02","rl","test","70","img/r_t_check.png","2","83","shape,color,pattern","140","0",""
"null","446224","HierDydpld6q3q","sub12","12","02","feedback","test","null","","","na","","140","",""
"1886.2000000476837","448113","HierDydpld6q3q","sub12","12","02","rl","test","72","img/r_d_stripes.png","5","72","shape,color,pattern","141","1",""
"null","449124","HierDydpld6q3q","sub12","12","02","feedback","test","null","","","na","","141","",""
"2161.2999999523163","451287","HierDydpld6q3q","sub12","12","02","rl","test","75","img/b_d_stripes.png","7","75","shape,color,pattern","142","1",""
"null","452302","HierDydpld6q3q","sub12","12","02","feedback","test","null","","","na","","142","",""
"1685","453990","HierDydpld6q3q","sub12","12","02","rl","test","70","img/b_t_check.png","4","70","shape,color,pattern","143","1",""
"null","455002","HierDydpld6q3q","sub12","12","02","feedback","test","null","","","na","","143","",""
"1672.699999988079","456678","HierDydpld6q3q","sub12","12","02","rl","test","74","img/r_d_check.png","6","74","shape,color,pattern","144","1",""
"null","457684","HierDydpld6q3q","sub12","12","02","feedback","test","null","","","na","","144","",""
"1305.800000011921","458992","HierDydpld6q3q","sub12","12","02","rl","test","74","img/r_d_check.png","6","74","shape,color,pattern","145","1",""
"null","460018","HierDydpld6q3q","sub12","12","02","feedback","test","null","","","na","","145","",""
"null","462533","HierDydpld6q3q","sub12","12","02","rl","test","null","img/r_t_check.png","2","83","shape,color,pattern","146","0",""
"null","463543","HierDydpld6q3q","sub12","12","02","feedback","test","null","","","na","","146","",""
"1677.699999988079","465224","HierDydpld6q3q","sub12","12","02","rl","test","74","img/r_d_check.png","6","74","shape,color,pattern","147","1",""
"null","466225","HierDydpld6q3q","sub12","12","02","feedback","test","null","","","na","","147","",""
"779.3000000119209","467007","HierDydpld6q3q","sub12","12","02","rl","test","72","img/r_d_stripes.png","5","72","shape,color,pattern","148","1",""
"null","468014","HierDydpld6q3q","sub12","12","02","feedback","test","null","","","na","","148","",""
"2155.699999988079","470172","HierDydpld6q3q","sub12","12","02","rl","test","70","img/b_t_check.png","4","70","shape,color,pattern","149","1",""
"null","471185","HierDydpld6q3q","sub12","12","02","feedback","test","null","","","na","","149","",""
"1088.3999999761581","472275","HierDydpld6q3q","sub12","12","02","rl","test","76","img/b_d_check.png","8","76","shape,color,pattern","150","1",""
"null","473289","HierDydpld6q3q","sub12","12","02","feedback","test","null","","","na","","150","",""
"null","475801","HierDydpld6q3q","sub12","12","02","rl","test","null","img/b_d_stripes.png","7","75","shape,color,pattern","151","0",""
"null","476818","HierDydpld6q3q","sub12","12","02","feedback","test","null","","","na","","151","",""
"1918.6000000238419","478738","HierDydpld6q3q","sub12","12","02","rl","test","70","img/b_t_stripes.png","3","68","shape,color,pattern","152","0",""
"null","479756","HierDydpld6q3q","sub12","12","02","feedback","test","null","","","na","","152","",""
"1775.5999999642372","481533","HierDydpld6q3q","sub12","12","02","rl","test","65","img/r_t_stripes.png","1","65","shape,color,pattern","153","1",""
"null","482553","HierDydpld6q3q","sub12","12","02","feedback","test","null","","","na","","153","",""
"2203.699999988079","484759","HierDydpld6q3q","sub12","12","02","rl","test","68","img/b_t_check.png","4","70","shape,color,pattern","154","0",""
"null","485785","HierDydpld6q3q","sub12","12","02","feedback","test","null","","","na","","154","",""
"1123.300000011921","486910","HierDydpld6q3q","sub12","12","02","rl","test","75","img/b_d_stripes.png","7","75","shape,color,pattern","155","1",""
"null","487929","HierDydpld6q3q","sub12","12","02","feedback","test","null","","","na","","155","",""
"1079.8999999761581","489010","HierDydpld6q3q","sub12","12","02","rl","test","83","img/r_t_check.png","2","83","shape,color,pattern","156","1",""
"null","490028","HierDydpld6q3q","sub12","12","02","feedback","test","null","","","na","","156","",""
"1175.199999988079","491204","HierDydpld6q3q","sub12","12","02","rl","test","74","img/b_d_check.png","8","76","shape,color,pattern","157","0",""
"null","492213","HierDydpld6q3q","sub12","12","02","feedback","test","null","","","na","","157","",""
"1100.6000000238419","493316","HierDydpld6q3q","sub12","12","02","rl","test","65","img/r_t_check.png","2","83","shape,color,pattern","158","0",""
"null","494323","HierDydpld6q3q","sub12","12","02","feedback","test","null","","","na","","158","",""
"null","496834","HierDydpld6q3q","sub12","12","02","rl","test","null","img/r_d_check.png","6","74","shape,color,pattern","159","0",""
"null","497850","HierDydpld6q3q","sub12","12","02","feedback","test","null","","","na","","159","",""
"1189.300000011921","499042","HierDydpld6q3q","sub12","12","02","rl","test","68","img/b_t_stripes.png","3","68","shape,color,pattern","160","1",""
"null","500056","HierDydpld6q3q","sub12","12","02","feedback","test","null","","","na","","160","",""
"null","502563","HierDydpld6q3q","sub12","12","02","rl","test","null","img/r_d_stripes.png","5","72","shape,color,pattern","161","0",""
"null","503576","HierDydpld6q3q","sub12","12","02","feedback","test","null","","","na","","161","",""
"521.4000000357628","504099","HierDydpld6q3q","sub12","12","02","rl","test","72","img/r_d_stripes.png","5","72","shape,color,pattern","162","1",""
"null","505121","HierDydpld6q3q","sub12","12","02","feedback","test","null","","","na","","162","",""
"796.6999999880791","505920","HierDydpld6q3q","sub12","12","02","rl","test","65","img/r_t_stripes.png","1","65","shape,color,pattern","163","1",""
"null","506938","HierDydpld6q3q","sub12","12","02","feedback","test","null","","","na","","163","",""
"666","507606","HierDydpld6q3q","sub12","12","02","rl","test","65","img/r_t_stripes.png","1","65","shape,color,pattern","164","1",""
"null","508626","HierDydpld6q3q","sub12","12","02","feedback","test","null","","","na","","164","",""
"2011.199999988079","510639","HierDydpld6q3q","sub12","12","02","rl","test","70","img/b_t_check.png","4","70","shape,color,pattern","165","1",""
"null","511651","HierDydpld6q3q","sub12","12","02","feedback","test","null","","","na","","165","",""
"1387.5","513041","HierDydpld6q3q","sub12","12","02","rl","test","76","img/b_d_check.png","8","76","shape,color,pattern","166","1",""
"null","514054","HierDydpld6q3q","sub12","12","02","feedback","test","null","","","na","","166","",""
"691.3000000119209","514748","HierDydpld6q3q","sub12","12","02","rl","test","75","img/b_d_stripes.png","7","75","shape,color,pattern","167","1",""
"null","515761","HierDydpld6q3q","sub12","12","02","feedback","test","null","","","na","","167","",""
"2059.7999999523163","517823","HierDydpld6q3q","sub12","12","02","rl","test","68","img/b_t_stripes.png","3","68","shape,color,pattern","168","1",""
"null","518836","HierDydpld6q3q","sub12","12","02","feedback","test","null","","","na","","168","",""
"973.3999999761581","519811","HierDydpld6q3q","sub12","12","02","rl","test","74","img/b_d_check.png","8","76","shape,color,pattern","169","0",""
"null","520828","HierDydpld6q3q","sub12","12","02","feedback","test","null","","","na","","169","",""
"932.2000000476837","521763","HierDydpld6q3q","sub12","12","02","rl","test","68","img/b_t_stripes.png","3","68","shape,color,pattern","170","1",""
"null","522781","HierDydpld6q3q","sub12","12","02","feedback","test","null","","","na","","170","",""
"2066.699999988079","524850","HierDydpld6q3q","sub12","12","02","rl","test","75","img/b_d_stripes.png","7","75","shape,color,pattern","171","1",""
"null","525868","HierDydpld6q3q","sub12","12","02","feedback","test","null","","","na","","171","",""
"1311.5999999642372","527181","HierDydpld6q3q","sub12","12","02","rl","test","83","img/r_t_check.png","2","83","shape,color,pattern","172","1",""
"null","528197","HierDydpld6q3q","sub12","12","02","feedback","test","null","","","na","","172","",""
"2121.099999964237","530321","HierDydpld6q3q","sub12","12","02","rl","test","74","img/r_d_check.png","6","74","shape,color,pattern","173","1",""
"null","531330","HierDydpld6q3q","sub12","12","02","feedback","test","null","","","na","","173","",""
"1150.199999988079","532482","HierDydpld6q3q","sub12","12","02","rl","test","75","img/b_d_stripes.png","7","75","shape,color,pattern","174","1",""
"null","533492","HierDydpld6q3q","sub12","12","02","feedback","test","null","","","na","","174","",""
"609.3999999761581","534104","HierDydpld6q3q","sub12","12","02","rl","test","76","img/b_d_check.png","8","76","shape,color,pattern","175","1",""
"null","535130","HierDydpld6q3q","sub12","12","02","feedback","test","null","","","na","","175","",""
"1260.0999999642372","536393","HierDydpld6q3q","sub12","12","02","rl","test","70","img/b_t_check.png","4","70","shape,color,pattern","176","1",""
"null","537408","HierDydpld6q3q","sub12","12","02","feedback","test","null","","","na","","176","",""
"1019.1000000238419","538430","HierDydpld6q3q","sub12","12","02","rl","test","72","img/r_d_stripes.png","5","72","shape,color,pattern","177","1",""
"null","539440","HierDydpld6q3q","sub12","12","02","feedback","test","null","","","na","","177","",""
"747","540189","HierDydpld6q3q","sub12","12","02","rl","test","74","img/r_d_check.png","6","74","shape,color,pattern","178","1",""
"null","541198","HierDydpld6q3q","sub12","12","02","feedback","test","null","","","na","","178","",""
"1822.699999988079","543023","HierDydpld6q3q","sub12","12","02","rl","test","65","img/r_t_stripes.png","1","65","shape,color,pattern","179","1",""
"null","544036","HierDydpld6q3q","sub12","12","02","feedback","test","null","","","na","","179","",""
"659.8000000119209","544698","HierDydpld6q3q","sub12","12","02","rl","test","83","img/r_t_check.png","2","83","shape,color,pattern","180","1",""
"null","545714","HierDydpld6q3q","sub12","12","02","feedback","test","null","","","na","","180","",""
"719.5","546437","HierDydpld6q3q","sub12","12","02","rl","test","65","img/r_t_stripes.png","1","65","shape,color,pattern","181","1",""
"null","547443","HierDydpld6q3q","sub12","12","02","feedback","test","null","","","na","","181","",""
"935","548381","HierDydpld6q3q","sub12","12","02","rl","test","70","img/b_t_check.png","4","70","shape,color,pattern","182","1",""
"null","549392","HierDydpld6q3q","sub12","12","02","feedback","test","null","","","na","","182","",""
"708.9000000357628","550102","HierDydpld6q3q","sub12","12","02","rl","test","68","img/b_t_stripes.png","3","68","shape,color,pattern","183","1",""
"null","551108","HierDydpld6q3q","sub12","12","02","feedback","test","null","","","na","","183","",""
"786.8000000119209","551897","HierDydpld6q3q","sub12","12","02","rl","test","72","img/r_d_stripes.png","5","72","shape,color,pattern","184","1",""
"null","552911","HierDydpld6q3q","sub12","12","02","feedback","test","null","","","na","","184","",""
"1043.2999999523163","553956","HierDydpld6q3q","sub12","12","02","rl","test","70","img/b_t_check.png","4","70","shape,color,pattern","185","1",""
"null","554974","HierDydpld6q3q","sub12","12","02","feedback","test","null","","","na","","185","",""
"808.1999999880791","555785","HierDydpld6q3q","sub12","12","02","rl","test","65","img/r_t_stripes.png","1","65","shape,color,pattern","186","1",""
"null","556799","HierDydpld6q3q","sub12","12","02","feedback","test","null","","","na","","186","",""
"2418.2999999523163","559219","HierDydpld6q3q","sub12","12","02","rl","test","68","img/b_t_stripes.png","3","68","shape,color,pattern","187","1",""
"null","560239","HierDydpld6q3q","sub12","12","02","feedback","test","null","","","na","","187","",""
"1254.800000011921","561496","HierDydpld6q3q","sub12","12","02","rl","test","75","img/b_d_stripes.png","7","75","shape,color,pattern","188","1",""
"null","562512","HierDydpld6q3q","sub12","12","02","feedback","test","null","","","na","","188","",""
"894.5","563409","HierDydpld6q3q","sub12","12","02","rl","test","70","img/r_t_check.png","2","83","shape,color,pattern","189","0",""
"null","564427","HierDydpld6q3q","sub12","12","02","feedback","test","null","","","na","","189","",""
"1500.5","565930","HierDydpld6q3q","sub12","12","02","rl","test","76","img/b_d_check.png","8","76","shape,color,pattern","190","1",""
"null","566941","HierDydpld6q3q","sub12","12","02","feedback","test","null","","","na","","190","",""
"1442.5","568386","HierDydpld6q3q","sub12","12","02","rl","test","72","img/r_d_stripes.png","5","72","shape,color,pattern","191","1",""
"null","569410","HierDydpld6q3q","sub12","12","02","feedback","test","null","","","na","","191","",""
"712.3000000119209","570124","HierDydpld6q3q","sub12","12","02","rl","test","74","img/r_d_check.png","6","74","shape,color,pattern","192","1",""
"null","571143","HierDydpld6q3q","sub12","12","02","feedback","test","null","","","na","","192","",""
"590.1000000238419","571735","HierDydpld6q3q","sub12","12","02","rl","test","74","img/r_d_check.png","6","74","shape,color,pattern","193","1",""
"null","572749","HierDydpld6q3q","sub12","12","02","feedback","test","null","","","na","","193","",""
"596.9000000357628","573348","HierDydpld6q3q","sub12","12","02","rl","test","72","img/r_d_stripes.png","5","72","shape,color,pattern","194","1",""
"null","574362","HierDydpld6q3q","sub12","12","02","feedback","test","null","","","na","","194","",""
"1028.300000011921","575393","HierDydpld6q3q","sub12","12","02","rl","test","70","img/b_t_check.png","4","70","shape,color,pattern","195","1",""
"null","576418","HierDydpld6q3q","sub12","12","02","feedback","test","null","","","na","","195","",""
"1320.3999999761581","577740","HierDydpld6q3q","sub12","12","02","rl","test","76","img/b_d_check.png","8","76","shape,color,pattern","196","1",""
"null","578759","HierDydpld6q3q","sub12","12","02","feedback","test","null","","","na","","196","",""
"1454.5","580215","HierDydpld6q3q","sub12","12","02","rl","test","65","img/r_t_stripes.png","1","65","shape,color,pattern","197","1",""
"null","581230","HierDydpld6q3q","sub12","12","02","feedback","test","null","","","na","","197","",""
"1413.199999988079","582646","HierDydpld6q3q","sub12","12","02","rl","test","75","img/b_d_stripes.png","7","75","shape,color,pattern","198","1",""
"null","583662","HierDydpld6q3q","sub12","12","02","feedback","test","null","","","na","","198","",""
"875.5","584540","HierDydpld6q3q","sub12","12","02","rl","test","68","img/b_t_stripes.png","3","68","shape,color,pattern","199","1",""
"null","585552","HierDydpld6q3q","sub12","12","02","feedback","test","null","","","na","","199","",""
"1139.300000011921","586693","HierDydpld6q3q","sub12","12","02","rl","test","74","img/r_d_check.png","6","74","shape,color,pattern","200","1",""
"null","587707","HierDydpld6q3q","sub12","12","02","feedback","test","null","","","na","","200","",""
"1149.300000011921","588858","HierDydpld6q3q","sub12","12","02","rl","test","83","img/r_t_check.png","2","83","shape,color,pattern","201","1",""
"null","589878","HierDydpld6q3q","sub12","12","02","feedback","test","null","","","na","","201","",""
"848","590728","HierDydpld6q3q","sub12","12","02","rl","test","72","img/r_d_stripes.png","5","72","shape,color,pattern","202","1",""
"null","591734","HierDydpld6q3q","sub12","12","02","feedback","test","null","","","na","","202","",""
"1085.6000000238419","592822","HierDydpld6q3q","sub12","12","02","rl","test","68","img/b_t_stripes.png","3","68","shape,color,pattern","203","1",""
"null","593837","HierDydpld6q3q","sub12","12","02","feedback","test","null","","","na","","203","",""
"813.6000000238419","594653","HierDydpld6q3q","sub12","12","02","rl","test","70","img/b_t_check.png","4","70","shape,color,pattern","204","1",""
"null","595666","HierDydpld6q3q","sub12","12","02","feedback","test","null","","","na","","204","",""
"1163.5","596832","HierDydpld6q3q","sub12","12","02","rl","test","83","img/r_t_check.png","2","83","shape,color,pattern","205","1",""
"null","597844","HierDydpld6q3q","sub12","12","02","feedback","test","null","","","na","","205","",""
"1390.5","599236","HierDydpld6q3q","sub12","12","02","rl","test","76","img/b_d_check.png","8","76","shape,color,pattern","206","1",""
"null","600246","HierDydpld6q3q","sub12","12","02","feedback","test","null","","","na","","206","",""
"561.6999999880791","600810","HierDydpld6q3q","sub12","12","02","rl","test","76","img/b_d_check.png","8","76","shape,color,pattern","207","1",""
"null","601821","HierDydpld6q3q","sub12","12","02","feedback","test","null","","","na","","207","",""
"1281.6000000238419","603105","HierDydpld6q3q","sub12","12","02","rl","test","68","img/b_t_stripes.png","3","68","shape,color,pattern","208","1",""
"null","604117","HierDydpld6q3q","sub12","12","02","feedback","test","null","","","na","","208","",""
"864.8999999761581","604984","HierDydpld6q3q","sub12","12","02","rl","test","70","img/b_t_check.png","4","70","shape,color,pattern","209","1",""
"null","605998","HierDydpld6q3q","sub12","12","02","feedback","test","null","","","na","","209","",""
"805.6000000238419","606805","HierDydpld6q3q","sub12","12","02","rl","test","65","img/r_t_stripes.png","1","65","shape,color,pattern","210","1",""
"null","607820","HierDydpld6q3q","sub12","12","02","feedback","test","null","","","na","","210","",""
"1550.5","609373","HierDydpld6q3q","sub12","12","02","rl","test","75","img/b_d_stripes.png","7","75","shape,color,pattern","211","1",""
"null","610394","HierDydpld6q3q","sub12","12","02","feedback","test","null","","","na","","211","",""
"1836.3999999761581","612233","HierDydpld6q3q","sub12","12","02","rl","test","65","img/r_t_stripes.png","1","65","shape,color,pattern","212","1",""
"null","613244","HierDydpld6q3q","sub12","12","02","feedback","test","null","","","na","","212","",""
"1977","615224","HierDydpld6q3q","sub12","12","02","rl","test","75","img/b_d_stripes.png","7","75","shape,color,pattern","213","1",""
"null","616238","HierDydpld6q3q","sub12","12","02","feedback","test","null","","","na","","213","",""
"1129.300000011921","617369","HierDydpld6q3q","sub12","12","02","rl","test","74","img/r_d_check.png","6","74","shape,color,pattern","214","1",""
"null","618388","HierDydpld6q3q","sub12","12","02","feedback","test","null","","","na","","214","",""
"708.4000000357628","619098","HierDydpld6q3q","sub12","12","02","rl","test","72","img/r_d_stripes.png","5","72","shape,color,pattern","215","1",""
"null","620108","HierDydpld6q3q","sub12","12","02","feedback","test","null","","","na","","215","",""
"2177.800000011921","622288","HierDydpld6q3q","sub12","12","02","rl","test","83","img/r_t_check.png","2","83","shape,color,pattern","216","1",""
"null","623305","HierDydpld6q3q","sub12","12","02","feedback","test","null","","","na","","216","",""
"552.6999999880791","623859","HierDydpld6q3q","sub12","12","02","rl","test","83","img/r_t_check.png","2","83","shape,color,pattern","217","1",""
"null","624869","HierDydpld6q3q","sub12","12","02","feedback","test","null","","","na","","217","",""
"957.3000000119209","625828","HierDydpld6q3q","sub12","12","02","rl","test","70","img/b_t_check.png","4","70","shape,color,pattern","218","1",""
"null","626848","HierDydpld6q3q","sub12","12","02","feedback","test","null","","","na","","218","",""
"1634.1000000238419","628485","HierDydpld6q3q","sub12","12","02","rl","test","76","img/b_d_check.png","8","76","shape,color,pattern","219","1",""
"null","629495","HierDydpld6q3q","sub12","12","02","feedback","test","null","","","na","","219","",""
"1243.3999999761581","630741","HierDydpld6q3q","sub12","12","02","rl","test","75","img/b_d_stripes.png","7","75","shape,color,pattern","220","1",""
"null","631756","HierDydpld6q3q","sub12","12","02","feedback","test","null","","","na","","220","",""
"1153.7000000476837","632912","HierDydpld6q3q","sub12","12","02","rl","test","72","img/r_d_stripes.png","5","72","shape,color,pattern","221","1",""
"null","633930","HierDydpld6q3q","sub12","12","02","feedback","test","null","","","na","","221","",""
"532.0999999642372","634464","HierDydpld6q3q","sub12","12","02","rl","test","74","img/r_d_check.png","6","74","shape,color,pattern","222","1",""
"null","635477","HierDydpld6q3q","sub12","12","02","feedback","test","null","","","na","","222","",""
"1058.199999988079","636538","HierDydpld6q3q","sub12","12","02","rl","test","68","img/b_t_stripes.png","3","68","shape,color,pattern","223","1",""
"null","637556","HierDydpld6q3q","sub12","12","02","feedback","test","null","","","na","","223","",""
"1075.199999988079","638634","HierDydpld6q3q","sub12","12","02","rl","test","72","img/r_d_stripes.png","5","72","shape,color,pattern","224","1",""
"null","639641","HierDydpld6q3q","sub12","12","02","feedback","test","null","","","na","","224","",""
"798.8000000119209","640442","HierDydpld6q3q","sub12","12","02","rl","test","74","img/r_d_check.png","6","74","shape,color,pattern","225","1",""
"null","641463","HierDydpld6q3q","sub12","12","02","feedback","test","null","","","na","","225","",""
"1928.699999988079","643394","HierDydpld6q3q","sub12","12","02","rl","test","65","img/r_t_stripes.png","1","65","shape,color,pattern","226","1",""
"null","644407","HierDydpld6q3q","sub12","12","02","feedback","test","null","","","na","","226","",""
"555.5999999642372","644965","HierDydpld6q3q","sub12","12","02","rl","test","83","img/r_t_check.png","2","83","shape,color,pattern","227","1",""
"null","645984","HierDydpld6q3q","sub12","12","02","feedback","test","null","","","na","","227","",""
"1246.8999999761581","647233","HierDydpld6q3q","sub12","12","02","rl","test","68","img/b_t_stripes.png","3","68","shape,color,pattern","228","1",""
"null","648244","HierDydpld6q3q","sub12","12","02","feedback","test","null","","","na","","228","",""
"1731.0999999642372","649978","HierDydpld6q3q","sub12","12","02","rl","test","75","img/b_d_stripes.png","7","75","shape,color,pattern","229","1",""
"null","650990","HierDydpld6q3q","sub12","12","02","feedback","test","null","","","na","","229","",""
"1644.199999988079","652637","HierDydpld6q3q","sub12","12","02","rl","test","70","img/b_t_check.png","4","70","shape,color,pattern","230","1",""
"null","653650","HierDydpld6q3q","sub12","12","02","feedback","test","null","","","na","","230","",""
"990.6999999880791","654644","HierDydpld6q3q","sub12","12","02","rl","test","68","img/b_t_check.png","4","70","shape,color,pattern","231","0",""
"null","655663","HierDydpld6q3q","sub12","12","02","feedback","test","null","","","na","","231","",""
"798.0999999642372","656463","HierDydpld6q3q","sub12","12","02","rl","test","65","img/r_t_stripes.png","1","65","shape,color,pattern","232","1",""
"null","657468","HierDydpld6q3q","sub12","12","02","feedback","test","null","","","na","","232","",""
"1240.300000011921","658710","HierDydpld6q3q","sub12","12","02","rl","test","74","img/r_d_check.png","6","74","shape,color,pattern","233","1",""
"null","659725","HierDydpld6q3q","sub12","12","02","feedback","test","null","","","na","","233","",""
"726","660454","HierDydpld6q3q","sub12","12","02","rl","test","76","img/b_d_check.png","8","76","shape,color,pattern","234","1",""
"null","661472","HierDydpld6q3q","sub12","12","02","feedback","test","null","","","na","","234","",""
"1189.2000000476837","662664","HierDydpld6q3q","sub12","12","02","rl","test","68","img/b_t_stripes.png","3","68","shape,color,pattern","235","1",""
"null","663675","HierDydpld6q3q","sub12","12","02","feedback","test","null","","","na","","235","",""
"795.5","664474","HierDydpld6q3q","sub12","12","02","rl","test","65","img/r_t_stripes.png","1","65","shape,color,pattern","236","1",""
"null","665483","HierDydpld6q3q","sub12","12","02","feedback","test","null","","","na","","236","",""
"1448.1000000238419","666932","HierDydpld6q3q","sub12","12","02","rl","test","76","img/b_d_stripes.png","7","75","shape,color,pattern","237","0",""
"null","667941","HierDydpld6q3q","sub12","12","02","feedback","test","null","","","na","","237","",""
"1876.5","669820","HierDydpld6q3q","sub12","12","02","rl","test","83","img/r_t_check.png","2","83","shape,color,pattern","238","1",""
"null","670839","HierDydpld6q3q","sub12","12","02","feedback","test","null","","","na","","238","",""
"1296.9000000357628","672138","HierDydpld6q3q","sub12","12","02","rl","test","72","img/r_d_stripes.png","5","72","shape,color,pattern","239","1",""
"null","673162","HierDydpld6q3q","sub12","12","02","feedback","test","null","","","na","","239","",""
"876.6999999880791","674041","HierDydpld6q3q","sub12","12","02","rl","test","76","img/b_d_check.png","8","76","shape,color,pattern","240","1",""
"null","675053","HierDydpld6q3q","sub12","12","02","feedback","test","null","","","na","","240","",""
"1200","676256","HierDydpld6q3q","sub12","12","02","rl","test","72","img/r_d_stripes.png","5","72","shape,color,pattern","241","1",""
"null","677273","HierDydpld6q3q","sub12","12","02","feedback","test","null","","","na","","241","",""
"964.0999999642372","678240","HierDydpld6q3q","sub12","12","02","rl","test","75","img/b_d_stripes.png","7","75","shape,color,pattern","242","1",""
"null","679252","HierDydpld6q3q","sub12","12","02","feedback","test","null","","","na","","242","",""
"952.6999999880791","680206","HierDydpld6q3q","sub12","12","02","rl","test","74","img/r_d_check.png","6","74","shape,color,pattern","243","1",""
"null","681222","HierDydpld6q3q","sub12","12","02","feedback","test","null","","","na","","243","",""
"955.8000000119209","682180","HierDydpld6q3q","sub12","12","02","rl","test","76","img/b_d_check.png","8","76","shape,color,pattern","244","1",""
"null","683191","HierDydpld6q3q","sub12","12","02","feedback","test","null","","","na","","244","",""
"955.3000000119209","684148","HierDydpld6q3q","sub12","12","02","rl","test","83","img/r_t_check.png","2","83","shape,color,pattern","245","1",""
"null","685164","HierDydpld6q3q","sub12","12","02","feedback","test","null","","","na","","245","",""
"956.1000000238419","686122","HierDydpld6q3q","sub12","12","02","rl","test","70","img/b_t_check.png","4","70","shape,color,pattern","246","1",""
"null","687144","HierDydpld6q3q","sub12","12","02","feedback","test","null","","","na","","246","",""
"645.7000000476837","687793","HierDydpld6q3q","sub12","12","02","rl","test","68","img/b_t_stripes.png","3","68","shape,color,pattern","247","1",""
"null","688812","HierDydpld6q3q","sub12","12","02","feedback","test","null","","","na","","247","",""
"867.1000000238419","689681","HierDydpld6q3q","sub12","12","02","rl","test","70","img/b_t_check.png","4","70","shape,color,pattern","248","1",""
"null","690695","HierDydpld6q3q","sub12","12","02","feedback","test","null","","","na","","248","",""
"16741.599999964237","707445","HierDydpld6q3q","sub12","12","02","","","","","","","","","","{""Q0"":""4.5""}"
"89007.30000001192","796456","HierDydpld6q3q","sub12","12","02","","","","","","","","","","{""Q0"":""Triangles on left, diamonds on right, red shapes to the left of blue shapes, stripes to the left of diamonds, and shapes are grouped next to each other by color not by pattern.""}"
"4992","801451","HierDydpld6q3q","sub12","12","02","","","","","","","","","",""
