"rt","time_elapsed","subject","subID","group","day","trialType","phase","key_press","stim","stimNum","corrresp","hierarchy","trialNum","corr","responses"
"2155.7999999970198","2159","HierDyscpxpgyl","sub18","06","06","","","","","","","","","",""
"","4054","HierDyscpxpgyl","sub18","06","06","fullscreen","","","","","","","","",""
"1663.6999999955297","5719","HierDyscpxpgyl","sub18","06","06","","prac","","","","","","","",""
"1011.8999999985099","6733","HierDyscpxpgyl","sub18","06","06","","","32","","","","","","",""
"943.7000000029802","7678","HierDyscpxpgyl","sub18","06","06","","prac","","","","","","","",""
"1279.7000000029802","8959","HierDyscpxpgyl","sub18","06","06","rl","test","83","img/r_t_stripes.png","2","83","pattern,shape,color","1","1",""
"null","9963","HierDyscpxpgyl","sub18","06","06","feedback","test","null","","","na","","1","",""
"1003.1000000014901","10968","HierDyscpxpgyl","sub18","06","06","rl","test","74","img/r_t_check.png","6","74","pattern,shape,color","2","1",""
"null","11981","HierDyscpxpgyl","sub18","06","06","feedback","test","null","","","na","","2","",""
"638.6000000014901","12621","HierDyscpxpgyl","sub18","06","06","rl","test","72","img/o_t_check.png","5","72","pattern,shape,color","3","1",""
"null","13626","HierDyscpxpgyl","sub18","06","06","feedback","test","null","","","na","","3","",""
"777","14405","HierDyscpxpgyl","sub18","06","06","rl","test","75","img/o_s_check.png","7","75","pattern,shape,color","4","1",""
"null","15410","HierDyscpxpgyl","sub18","06","06","feedback","test","null","","","na","","4","",""
"813.3999999985099","16224","HierDyscpxpgyl","sub18","06","06","rl","test","70","img/r_s_stripes.png","4","70","pattern,shape,color","5","1",""
"null","17238","HierDyscpxpgyl","sub18","06","06","feedback","test","null","","","na","","5","",""
"435.69999999552965","17675","HierDyscpxpgyl","sub18","06","06","rl","test","68","img/o_s_stripes.png","3","68","pattern,shape,color","6","1",""
"null","18686","HierDyscpxpgyl","sub18","06","06","feedback","test","null","","","na","","6","",""
"853.6000000014901","19541","HierDyscpxpgyl","sub18","06","06","rl","test","65","img/o_t_stripes.png","1","65","pattern,shape,color","7","1",""
"null","20549","HierDyscpxpgyl","sub18","06","06","feedback","test","null","","","na","","7","",""
"955.2000000029802","21505","HierDyscpxpgyl","sub18","06","06","rl","test","76","img/r_s_check.png","8","76","pattern,shape,color","8","1",""
"null","22513","HierDyscpxpgyl","sub18","06","06","feedback","test","null","","","na","","8","",""
"962.6000000014901","23477","HierDyscpxpgyl","sub18","06","06","rl","test","68","img/o_s_stripes.png","3","68","pattern,shape,color","9","1",""
"null","24483","HierDyscpxpgyl","sub18","06","06","feedback","test","null","","","na","","9","",""
"890.5999999940395","25374","HierDyscpxpgyl","sub18","06","06","rl","test","74","img/r_s_check.png","8","76","pattern,shape,color","10","0",""
"null","26381","HierDyscpxpgyl","sub18","06","06","feedback","test","null","","","na","","10","",""
"1254.9000000059605","27637","HierDyscpxpgyl","sub18","06","06","rl","test","83","img/r_t_stripes.png","2","83","pattern,shape,color","11","1",""
"null","28641","HierDyscpxpgyl","sub18","06","06","feedback","test","null","","","na","","11","",""
"852","29494","HierDyscpxpgyl","sub18","06","06","rl","test","72","img/o_t_check.png","5","72","pattern,shape,color","12","1",""
"null","30502","HierDyscpxpgyl","sub18","06","06","feedback","test","null","","","na","","12","",""
"617.8999999985099","31121","HierDyscpxpgyl","sub18","06","06","rl","test","74","img/r_t_check.png","6","74","pattern,shape,color","13","1",""
"null","32132","HierDyscpxpgyl","sub18","06","06","feedback","test","null","","","na","","13","",""
"1000","33133","HierDyscpxpgyl","sub18","06","06","rl","test","75","img/o_s_check.png","7","75","pattern,shape,color","14","1",""
"null","34138","HierDyscpxpgyl","sub18","06","06","feedback","test","null","","","na","","14","",""
"763.3999999985099","34902","HierDyscpxpgyl","sub18","06","06","rl","test","83","img/o_t_stripes.png","1","65","pattern,shape,color","15","0",""
"null","35908","HierDyscpxpgyl","sub18","06","06","feedback","test","null","","","na","","15","",""
"793.7000000029802","36703","HierDyscpxpgyl","sub18","06","06","rl","test","65","img/o_t_stripes.png","1","65","pattern,shape,color","16","1",""
"null","37707","HierDyscpxpgyl","sub18","06","06","feedback","test","null","","","na","","16","",""
"614.7999999970198","38323","HierDyscpxpgyl","sub18","06","06","rl","test","70","img/r_s_stripes.png","4","70","pattern,shape,color","17","1",""
"null","39329","HierDyscpxpgyl","sub18","06","06","feedback","test","null","","","na","","17","",""
"992.2000000029802","40323","HierDyscpxpgyl","sub18","06","06","rl","test","75","img/o_s_check.png","7","75","pattern,shape,color","18","1",""
"null","41334","HierDyscpxpgyl","sub18","06","06","feedback","test","null","","","na","","18","",""
"1185.7999999970198","42521","HierDyscpxpgyl","sub18","06","06","rl","test","74","img/r_t_check.png","6","74","pattern,shape,color","19","1",""
"null","43531","HierDyscpxpgyl","sub18","06","06","feedback","test","null","","","na","","19","",""
"762","44295","HierDyscpxpgyl","sub18","06","06","rl","test","70","img/r_s_stripes.png","4","70","pattern,shape,color","20","1",""
"null","45300","HierDyscpxpgyl","sub18","06","06","feedback","test","null","","","na","","20","",""
"674.6999999955297","45976","HierDyscpxpgyl","sub18","06","06","rl","test","68","img/o_s_stripes.png","3","68","pattern,shape,color","21","1",""
"null","46979","HierDyscpxpgyl","sub18","06","06","feedback","test","null","","","na","","21","",""
"622.1000000014901","47602","HierDyscpxpgyl","sub18","06","06","rl","test","70","img/r_s_stripes.png","4","70","pattern,shape,color","22","1",""
"null","48610","HierDyscpxpgyl","sub18","06","06","feedback","test","null","","","na","","22","",""
"932.2999999970198","49544","HierDyscpxpgyl","sub18","06","06","rl","test","76","img/r_s_check.png","8","76","pattern,shape,color","23","1",""
"null","50557","HierDyscpxpgyl","sub18","06","06","feedback","test","null","","","na","","23","",""
"858.6000000014901","51417","HierDyscpxpgyl","sub18","06","06","rl","test","83","img/r_t_stripes.png","2","83","pattern,shape,color","24","1",""
"null","52430","HierDyscpxpgyl","sub18","06","06","feedback","test","null","","","na","","24","",""
"820.5","53252","HierDyscpxpgyl","sub18","06","06","rl","test","75","img/o_s_check.png","7","75","pattern,shape,color","25","1",""
"null","54259","HierDyscpxpgyl","sub18","06","06","feedback","test","null","","","na","","25","",""
"1817.1999999955297","56078","HierDyscpxpgyl","sub18","06","06","rl","test","72","img/o_t_check.png","5","72","pattern,shape,color","26","1",""
"null","57084","HierDyscpxpgyl","sub18","06","06","feedback","test","null","","","na","","26","",""
"801.1999999955297","57887","HierDyscpxpgyl","sub18","06","06","rl","test","72","img/o_t_check.png","5","72","pattern,shape,color","27","1",""
"null","58889","HierDyscpxpgyl","sub18","06","06","feedback","test","null","","","na","","27","",""
"1072.7999999970198","59963","HierDyscpxpgyl","sub18","06","06","rl","test","76","img/r_s_check.png","8","76","pattern,shape,color","28","1",""
"null","60970","HierDyscpxpgyl","sub18","06","06","feedback","test","null","","","na","","28","",""
"1328.7999999970198","62301","HierDyscpxpgyl","sub18","06","06","rl","test","68","img/o_s_stripes.png","3","68","pattern,shape,color","29","1",""
"null","63307","HierDyscpxpgyl","sub18","06","06","feedback","test","null","","","na","","29","",""
"936","64244","HierDyscpxpgyl","sub18","06","06","rl","test","65","img/r_t_stripes.png","2","83","pattern,shape,color","30","0",""
"null","65250","HierDyscpxpgyl","sub18","06","06","feedback","test","null","","","na","","30","",""
"1717","66968","HierDyscpxpgyl","sub18","06","06","rl","test","65","img/o_t_stripes.png","1","65","pattern,shape,color","31","1",""
"null","67983","HierDyscpxpgyl","sub18","06","06","feedback","test","null","","","na","","31","",""
"876.6999999955297","68860","HierDyscpxpgyl","sub18","06","06","rl","test","74","img/r_t_check.png","6","74","pattern,shape,color","32","1",""
"null","69868","HierDyscpxpgyl","sub18","06","06","feedback","test","null","","","na","","32","",""
"636.3999999985099","70505","HierDyscpxpgyl","sub18","06","06","rl","test","74","img/r_t_check.png","6","74","pattern,shape,color","33","1",""
"null","71519","HierDyscpxpgyl","sub18","06","06","feedback","test","null","","","na","","33","",""
"703.5","72223","HierDyscpxpgyl","sub18","06","06","rl","test","70","img/r_s_stripes.png","4","70","pattern,shape,color","34","1",""
"null","73226","HierDyscpxpgyl","sub18","06","06","feedback","test","null","","","na","","34","",""
"769.6000000014901","73997","HierDyscpxpgyl","sub18","06","06","rl","test","75","img/r_s_check.png","8","76","pattern,shape,color","35","0",""
"null","75004","HierDyscpxpgyl","sub18","06","06","feedback","test","null","","","na","","35","",""
"1008.3000000044703","76014","HierDyscpxpgyl","sub18","06","06","rl","test","72","img/o_t_check.png","5","72","pattern,shape,color","36","1",""
"null","77022","HierDyscpxpgyl","sub18","06","06","feedback","test","null","","","na","","36","",""
"1044.7000000029802","78068","HierDyscpxpgyl","sub18","06","06","rl","test","75","img/o_s_check.png","7","75","pattern,shape,color","37","1",""
"null","79074","HierDyscpxpgyl","sub18","06","06","feedback","test","null","","","na","","37","",""
"645.2000000029802","79720","HierDyscpxpgyl","sub18","06","06","rl","test","72","img/o_t_check.png","5","72","pattern,shape,color","38","1",""
"null","80731","HierDyscpxpgyl","sub18","06","06","feedback","test","null","","","na","","38","",""
"1049.2999999970198","81781","HierDyscpxpgyl","sub18","06","06","rl","test","68","img/o_s_stripes.png","3","68","pattern,shape,color","39","1",""
"null","82787","HierDyscpxpgyl","sub18","06","06","feedback","test","null","","","na","","39","",""
"1365.3999999985099","84153","HierDyscpxpgyl","sub18","06","06","rl","test","76","img/r_s_check.png","8","76","pattern,shape,color","40","1",""
"null","85164","HierDyscpxpgyl","sub18","06","06","feedback","test","null","","","na","","40","",""
"769.8000000044703","85934","HierDyscpxpgyl","sub18","06","06","rl","test","83","img/r_t_stripes.png","2","83","pattern,shape,color","41","1",""
"null","86940","HierDyscpxpgyl","sub18","06","06","feedback","test","null","","","na","","41","",""
"1024.5","87966","HierDyscpxpgyl","sub18","06","06","rl","test","68","img/o_s_stripes.png","3","68","pattern,shape,color","42","1",""
"null","88973","HierDyscpxpgyl","sub18","06","06","feedback","test","null","","","na","","42","",""
"614.2999999970198","89589","HierDyscpxpgyl","sub18","06","06","rl","test","70","img/r_s_stripes.png","4","70","pattern,shape,color","43","1",""
"null","90597","HierDyscpxpgyl","sub18","06","06","feedback","test","null","","","na","","43","",""
"831.5999999940395","91430","HierDyscpxpgyl","sub18","06","06","rl","test","65","img/o_t_stripes.png","1","65","pattern,shape,color","44","1",""
"null","92434","HierDyscpxpgyl","sub18","06","06","feedback","test","null","","","na","","44","",""
"889.7000000029802","93325","HierDyscpxpgyl","sub18","06","06","rl","test","83","img/r_t_stripes.png","2","83","pattern,shape,color","45","1",""
"null","94331","HierDyscpxpgyl","sub18","06","06","feedback","test","null","","","na","","45","",""
"866.1000000014901","95198","HierDyscpxpgyl","sub18","06","06","rl","test","74","img/o_t_check.png","5","72","pattern,shape,color","46","0",""
"null","96203","HierDyscpxpgyl","sub18","06","06","feedback","test","null","","","na","","46","",""
"825.1999999955297","97029","HierDyscpxpgyl","sub18","06","06","rl","test","75","img/r_t_check.png","6","74","pattern,shape,color","47","0",""
"null","98036","HierDyscpxpgyl","sub18","06","06","feedback","test","null","","","na","","47","",""
"1643.7999999970198","99681","HierDyscpxpgyl","sub18","06","06","rl","test","65","img/o_t_stripes.png","1","65","pattern,shape,color","48","1",""
"null","100695","HierDyscpxpgyl","sub18","06","06","feedback","test","null","","","na","","48","",""
"1042","101739","HierDyscpxpgyl","sub18","06","06","rl","test","74","img/r_t_check.png","6","74","pattern,shape,color","49","1",""
"null","102747","HierDyscpxpgyl","sub18","06","06","feedback","test","null","","","na","","49","",""
"742.7000000029802","103491","HierDyscpxpgyl","sub18","06","06","rl","test","76","img/r_s_check.png","8","76","pattern,shape,color","50","1",""
"null","104499","HierDyscpxpgyl","sub18","06","06","feedback","test","null","","","na","","50","",""
"529.2999999970198","105029","HierDyscpxpgyl","sub18","06","06","rl","test","75","img/o_s_check.png","7","75","pattern,shape,color","51","1",""
"null","106034","HierDyscpxpgyl","sub18","06","06","feedback","test","null","","","na","","51","",""
"835.7999999970198","106871","HierDyscpxpgyl","sub18","06","06","rl","test","83","img/r_t_stripes.png","2","83","pattern,shape,color","52","1",""
"null","107874","HierDyscpxpgyl","sub18","06","06","feedback","test","null","","","na","","52","",""
"674.8999999985099","108550","HierDyscpxpgyl","sub18","06","06","rl","test","68","img/o_s_stripes.png","3","68","pattern,shape,color","53","1",""
"null","109559","HierDyscpxpgyl","sub18","06","06","feedback","test","null","","","na","","53","",""
"1176.7999999970198","110737","HierDyscpxpgyl","sub18","06","06","rl","test","75","img/o_s_check.png","7","75","pattern,shape,color","54","1",""
"null","111751","HierDyscpxpgyl","sub18","06","06","feedback","test","null","","","na","","54","",""
"795.7000000029802","112548","HierDyscpxpgyl","sub18","06","06","rl","test","74","img/r_t_check.png","6","74","pattern,shape,color","55","1",""
"null","113559","HierDyscpxpgyl","sub18","06","06","feedback","test","null","","","na","","55","",""
"773.6000000014901","114334","HierDyscpxpgyl","sub18","06","06","rl","test","70","img/r_s_stripes.png","4","70","pattern,shape,color","56","1",""
"null","115342","HierDyscpxpgyl","sub18","06","06","feedback","test","null","","","na","","56","",""
"870.5","116214","HierDyscpxpgyl","sub18","06","06","rl","test","70","img/r_s_stripes.png","4","70","pattern,shape,color","57","1",""
"null","117223","HierDyscpxpgyl","sub18","06","06","feedback","test","null","","","na","","57","",""
"745","117969","HierDyscpxpgyl","sub18","06","06","rl","test","65","img/o_t_stripes.png","1","65","pattern,shape,color","58","1",""
"null","118981","HierDyscpxpgyl","sub18","06","06","feedback","test","null","","","na","","58","",""
"1010.2999999970198","119992","HierDyscpxpgyl","sub18","06","06","rl","test","76","img/o_s_check.png","7","75","pattern,shape,color","59","0",""
"null","120999","HierDyscpxpgyl","sub18","06","06","feedback","test","null","","","na","","59","",""
"814.9000000059605","121815","HierDyscpxpgyl","sub18","06","06","rl","test","83","img/o_t_stripes.png","1","65","pattern,shape,color","60","0",""
"null","122821","HierDyscpxpgyl","sub18","06","06","feedback","test","null","","","na","","60","",""
"913.8999999985099","123736","HierDyscpxpgyl","sub18","06","06","rl","test","75","img/o_t_check.png","5","72","pattern,shape,color","61","0",""
"null","124742","HierDyscpxpgyl","sub18","06","06","feedback","test","null","","","na","","61","",""
"901.2000000029802","125644","HierDyscpxpgyl","sub18","06","06","rl","test","68","img/o_s_stripes.png","3","68","pattern,shape,color","62","1",""
"null","126651","HierDyscpxpgyl","sub18","06","06","feedback","test","null","","","na","","62","",""
"993.6000000014901","127646","HierDyscpxpgyl","sub18","06","06","rl","test","83","img/r_t_stripes.png","2","83","pattern,shape,color","63","1",""
"null","128655","HierDyscpxpgyl","sub18","06","06","feedback","test","null","","","na","","63","",""
"837.2000000029802","129494","HierDyscpxpgyl","sub18","06","06","rl","test","75","img/r_s_check.png","8","76","pattern,shape,color","64","0",""
"null","130499","HierDyscpxpgyl","sub18","06","06","feedback","test","null","","","na","","64","",""
"806.7000000029802","131307","HierDyscpxpgyl","sub18","06","06","rl","test","76","img/r_s_check.png","8","76","pattern,shape,color","65","1",""
"null","132315","HierDyscpxpgyl","sub18","06","06","feedback","test","null","","","na","","65","",""
"1149.2000000029802","133466","HierDyscpxpgyl","sub18","06","06","rl","test","74","img/o_t_check.png","5","72","pattern,shape,color","66","0",""
"null","134475","HierDyscpxpgyl","sub18","06","06","feedback","test","null","","","na","","66","",""
"818","135294","HierDyscpxpgyl","sub18","06","06","rl","test","74","img/r_t_check.png","6","74","pattern,shape,color","67","1",""
"null","136300","HierDyscpxpgyl","sub18","06","06","feedback","test","null","","","na","","67","",""
"964.8999999985099","137267","HierDyscpxpgyl","sub18","06","06","rl","test","68","img/o_s_stripes.png","3","68","pattern,shape,color","68","1",""
"null","138275","HierDyscpxpgyl","sub18","06","06","feedback","test","null","","","na","","68","",""
"1250.0999999940395","139526","HierDyscpxpgyl","sub18","06","06","rl","test","75","img/o_s_check.png","7","75","pattern,shape,color","69","1",""
"null","140533","HierDyscpxpgyl","sub18","06","06","feedback","test","null","","","na","","69","",""
"1054.6000000014901","141588","HierDyscpxpgyl","sub18","06","06","rl","test","83","img/r_t_stripes.png","2","83","pattern,shape,color","70","1",""
"null","142599","HierDyscpxpgyl","sub18","06","06","feedback","test","null","","","na","","70","",""
"1281.7000000029802","143882","HierDyscpxpgyl","sub18","06","06","rl","test","75","img/o_s_stripes.png","3","68","pattern,shape,color","71","0",""
"null","144891","HierDyscpxpgyl","sub18","06","06","feedback","test","null","","","na","","71","",""
"734.4000000059605","145626","HierDyscpxpgyl","sub18","06","06","rl","test","70","img/r_s_stripes.png","4","70","pattern,shape,color","72","1",""
"null","146636","HierDyscpxpgyl","sub18","06","06","feedback","test","null","","","na","","72","",""
"1175.7000000029802","147813","HierDyscpxpgyl","sub18","06","06","rl","test","75","img/o_s_check.png","7","75","pattern,shape,color","73","1",""
"null","148819","HierDyscpxpgyl","sub18","06","06","feedback","test","null","","","na","","73","",""
"1025","149845","HierDyscpxpgyl","sub18","06","06","rl","test","83","img/o_t_stripes.png","1","65","pattern,shape,color","74","0",""
"null","150847","HierDyscpxpgyl","sub18","06","06","feedback","test","null","","","na","","74","",""
"1492.7000000029802","152341","HierDyscpxpgyl","sub18","06","06","rl","test","75","img/r_t_check.png","6","74","pattern,shape,color","75","0",""
"null","153344","HierDyscpxpgyl","sub18","06","06","feedback","test","null","","","na","","75","",""
"1234.0999999940395","154579","HierDyscpxpgyl","sub18","06","06","rl","test","83","img/r_t_stripes.png","2","83","pattern,shape,color","76","1",""
"null","155592","HierDyscpxpgyl","sub18","06","06","feedback","test","null","","","na","","76","",""
"885.2999999970198","156478","HierDyscpxpgyl","sub18","06","06","rl","test","70","img/r_s_stripes.png","4","70","pattern,shape,color","77","1",""
"null","157484","HierDyscpxpgyl","sub18","06","06","feedback","test","null","","","na","","77","",""
"1853.5","159339","HierDyscpxpgyl","sub18","06","06","rl","test","74","img/o_t_check.png","5","72","pattern,shape,color","78","0",""
"null","160348","HierDyscpxpgyl","sub18","06","06","feedback","test","null","","","na","","78","",""
"893.5","161242","HierDyscpxpgyl","sub18","06","06","rl","test","75","img/r_s_check.png","8","76","pattern,shape,color","79","0",""
"null","162252","HierDyscpxpgyl","sub18","06","06","feedback","test","null","","","na","","79","",""
"1403.7999999970198","163657","HierDyscpxpgyl","sub18","06","06","rl","test","83","img/r_t_stripes.png","2","83","pattern,shape,color","80","1",""
"null","164660","HierDyscpxpgyl","sub18","06","06","feedback","test","null","","","na","","80","",""
"719.1999999955297","165380","HierDyscpxpgyl","sub18","06","06","rl","test","65","img/o_t_stripes.png","1","65","pattern,shape,color","81","1",""
"null","166392","HierDyscpxpgyl","sub18","06","06","feedback","test","null","","","na","","81","",""
"1386.2999999970198","167779","HierDyscpxpgyl","sub18","06","06","rl","test","75","img/o_s_check.png","7","75","pattern,shape,color","82","1",""
"null","168789","HierDyscpxpgyl","sub18","06","06","feedback","test","null","","","na","","82","",""
"1196.3999999985099","169986","HierDyscpxpgyl","sub18","06","06","rl","test","65","img/o_t_stripes.png","1","65","pattern,shape,color","83","1",""
"null","170998","HierDyscpxpgyl","sub18","06","06","feedback","test","null","","","na","","83","",""
"741.8999999985099","171741","HierDyscpxpgyl","sub18","06","06","rl","test","68","img/o_s_stripes.png","3","68","pattern,shape,color","84","1",""
"null","172747","HierDyscpxpgyl","sub18","06","06","feedback","test","null","","","na","","84","",""
"532.4000000059605","173281","HierDyscpxpgyl","sub18","06","06","rl","test","70","img/r_s_stripes.png","4","70","pattern,shape,color","85","1",""
"null","174284","HierDyscpxpgyl","sub18","06","06","feedback","test","null","","","na","","85","",""
"1177.5999999940395","175463","HierDyscpxpgyl","sub18","06","06","rl","test","74","img/r_t_check.png","6","74","pattern,shape,color","86","1",""
"null","176467","HierDyscpxpgyl","sub18","06","06","feedback","test","null","","","na","","86","",""
"864.8999999985099","177333","HierDyscpxpgyl","sub18","06","06","rl","test","83","img/o_s_stripes.png","3","68","pattern,shape,color","87","0",""
"null","178343","HierDyscpxpgyl","sub18","06","06","feedback","test","null","","","na","","87","",""
"1237.0999999940395","179582","HierDyscpxpgyl","sub18","06","06","rl","test","72","img/o_t_check.png","5","72","pattern,shape,color","88","1",""
"null","180589","HierDyscpxpgyl","sub18","06","06","feedback","test","null","","","na","","88","",""
"579.8999999985099","181170","HierDyscpxpgyl","sub18","06","06","rl","test","72","img/o_t_check.png","5","72","pattern,shape,color","89","1",""
"null","182181","HierDyscpxpgyl","sub18","06","06","feedback","test","null","","","na","","89","",""
"1271.6000000014901","183454","HierDyscpxpgyl","sub18","06","06","rl","test","76","img/r_s_check.png","8","76","pattern,shape,color","90","1",""
"null","184463","HierDyscpxpgyl","sub18","06","06","feedback","test","null","","","na","","90","",""
"743.6000000014901","185208","HierDyscpxpgyl","sub18","06","06","rl","test","74","img/r_t_check.png","6","74","pattern,shape,color","91","1",""
"null","186213","HierDyscpxpgyl","sub18","06","06","feedback","test","null","","","na","","91","",""
"987.5999999940395","187202","HierDyscpxpgyl","sub18","06","06","rl","test","76","img/r_s_check.png","8","76","pattern,shape,color","92","1",""
"null","188212","HierDyscpxpgyl","sub18","06","06","feedback","test","null","","","na","","92","",""
"1160.2000000029802","189373","HierDyscpxpgyl","sub18","06","06","rl","test","83","img/r_t_stripes.png","2","83","pattern,shape,color","93","1",""
"null","190384","HierDyscpxpgyl","sub18","06","06","feedback","test","null","","","na","","93","",""
"1023.1000000014901","191408","HierDyscpxpgyl","sub18","06","06","rl","test","75","img/o_s_check.png","7","75","pattern,shape,color","94","1",""
"null","192415","HierDyscpxpgyl","sub18","06","06","feedback","test","null","","","na","","94","",""
"823.8999999985099","193240","HierDyscpxpgyl","sub18","06","06","rl","test","75","img/o_t_check.png","5","72","pattern,shape,color","95","0",""
"null","194244","HierDyscpxpgyl","sub18","06","06","feedback","test","null","","","na","","95","",""
"1125.5","195371","HierDyscpxpgyl","sub18","06","06","rl","test","76","img/r_s_check.png","8","76","pattern,shape,color","96","1",""
"null","196384","HierDyscpxpgyl","sub18","06","06","feedback","test","null","","","na","","96","",""
"825.7999999970198","197211","HierDyscpxpgyl","sub18","06","06","rl","test","70","img/r_s_stripes.png","4","70","pattern,shape,color","97","1",""
"null","198224","HierDyscpxpgyl","sub18","06","06","feedback","test","null","","","na","","97","",""
"976.5","199202","HierDyscpxpgyl","sub18","06","06","rl","test","65","img/o_t_stripes.png","1","65","pattern,shape,color","98","1",""
"null","200214","HierDyscpxpgyl","sub18","06","06","feedback","test","null","","","na","","98","",""
"648.2000000029802","200863","HierDyscpxpgyl","sub18","06","06","rl","test","65","img/o_t_stripes.png","1","65","pattern,shape,color","99","1",""
"null","201869","HierDyscpxpgyl","sub18","06","06","feedback","test","null","","","na","","99","",""
"961.7999999970198","202832","HierDyscpxpgyl","sub18","06","06","rl","test","70","img/r_s_stripes.png","4","70","pattern,shape,color","100","1",""
"null","203839","HierDyscpxpgyl","sub18","06","06","feedback","test","null","","","na","","100","",""
"1245.5","205086","HierDyscpxpgyl","sub18","06","06","rl","test","83","img/r_t_stripes.png","2","83","pattern,shape,color","101","1",""
"null","206093","HierDyscpxpgyl","sub18","06","06","feedback","test","null","","","na","","101","",""
"1087.1000000014901","207181","HierDyscpxpgyl","sub18","06","06","rl","test","75","img/o_s_stripes.png","3","68","pattern,shape,color","102","0",""
"null","208191","HierDyscpxpgyl","sub18","06","06","feedback","test","null","","","na","","102","",""
"1116.7000000029802","209310","HierDyscpxpgyl","sub18","06","06","rl","test","75","img/o_s_check.png","7","75","pattern,shape,color","103","1",""
"null","210315","HierDyscpxpgyl","sub18","06","06","feedback","test","null","","","na","","103","",""
"1212.9000000059605","211529","HierDyscpxpgyl","sub18","06","06","rl","test","68","img/r_t_check.png","6","74","pattern,shape,color","104","0",""
"null","212532","HierDyscpxpgyl","sub18","06","06","feedback","test","null","","","na","","104","",""
"1539.1000000014901","214073","HierDyscpxpgyl","sub18","06","06","rl","test","83","img/r_t_stripes.png","2","83","pattern,shape,color","105","1",""
"null","215079","HierDyscpxpgyl","sub18","06","06","feedback","test","null","","","na","","105","",""
"718.7999999970198","215799","HierDyscpxpgyl","sub18","06","06","rl","test","65","img/o_t_stripes.png","1","65","pattern,shape,color","106","1",""
"null","216804","HierDyscpxpgyl","sub18","06","06","feedback","test","null","","","na","","106","",""
"1278","218083","HierDyscpxpgyl","sub18","06","06","rl","test","74","img/r_t_check.png","6","74","pattern,shape,color","107","1",""
"null","219092","HierDyscpxpgyl","sub18","06","06","feedback","test","null","","","na","","107","",""
"1075.7999999970198","220169","HierDyscpxpgyl","sub18","06","06","rl","test","75","img/o_s_check.png","7","75","pattern,shape,color","108","1",""
"null","221175","HierDyscpxpgyl","sub18","06","06","feedback","test","null","","","na","","108","",""
"910.8999999985099","222087","HierDyscpxpgyl","sub18","06","06","rl","test","72","img/o_t_check.png","5","72","pattern,shape,color","109","1",""
"null","223096","HierDyscpxpgyl","sub18","06","06","feedback","test","null","","","na","","109","",""
"1237.1000000014901","224335","HierDyscpxpgyl","sub18","06","06","rl","test","68","img/o_s_stripes.png","3","68","pattern,shape,color","110","1",""
"null","225340","HierDyscpxpgyl","sub18","06","06","feedback","test","null","","","na","","110","",""
"1153.8999999985099","226496","HierDyscpxpgyl","sub18","06","06","rl","test","76","img/r_s_check.png","8","76","pattern,shape,color","111","1",""
"null","227500","HierDyscpxpgyl","sub18","06","06","feedback","test","null","","","na","","111","",""
"1046.8999999985099","228548","HierDyscpxpgyl","sub18","06","06","rl","test","83","img/r_t_stripes.png","2","83","pattern,shape,color","112","1",""
"null","229561","HierDyscpxpgyl","sub18","06","06","feedback","test","null","","","na","","112","",""
"1084.6999999955297","230646","HierDyscpxpgyl","sub18","06","06","rl","test","76","img/r_s_check.png","8","76","pattern,shape,color","113","1",""
"null","231652","HierDyscpxpgyl","sub18","06","06","feedback","test","null","","","na","","113","",""
"943.7000000029802","232597","HierDyscpxpgyl","sub18","06","06","rl","test","70","img/r_s_stripes.png","4","70","pattern,shape,color","114","1",""
"null","233605","HierDyscpxpgyl","sub18","06","06","feedback","test","null","","","na","","114","",""
"584.5","234190","HierDyscpxpgyl","sub18","06","06","rl","test","70","img/r_s_stripes.png","4","70","pattern,shape,color","115","1",""
"null","235200","HierDyscpxpgyl","sub18","06","06","feedback","test","null","","","na","","115","",""
"1344.5","236546","HierDyscpxpgyl","sub18","06","06","rl","test","65","img/o_t_stripes.png","1","65","pattern,shape,color","116","1",""
"null","237552","HierDyscpxpgyl","sub18","06","06","feedback","test","null","","","na","","116","",""
"1033.2999999970198","238587","HierDyscpxpgyl","sub18","06","06","rl","test","75","img/o_s_check.png","7","75","pattern,shape,color","117","1",""
"null","239597","HierDyscpxpgyl","sub18","06","06","feedback","test","null","","","na","","117","",""
"796.1000000014901","240395","HierDyscpxpgyl","sub18","06","06","rl","test","74","img/r_t_check.png","6","74","pattern,shape,color","118","1",""
"null","241405","HierDyscpxpgyl","sub18","06","06","feedback","test","null","","","na","","118","",""
"1029.8999999985099","242436","HierDyscpxpgyl","sub18","06","06","rl","test","75","img/r_s_check.png","8","76","pattern,shape,color","119","0",""
"null","243449","HierDyscpxpgyl","sub18","06","06","feedback","test","null","","","na","","119","",""
"893.3999999985099","244343","HierDyscpxpgyl","sub18","06","06","rl","test","72","img/o_t_check.png","5","72","pattern,shape,color","120","1",""
"null","245350","HierDyscpxpgyl","sub18","06","06","feedback","test","null","","","na","","120","",""
"1116.7999999970198","246468","HierDyscpxpgyl","sub18","06","06","rl","test","75","img/o_s_check.png","7","75","pattern,shape,color","121","1",""
"null","247476","HierDyscpxpgyl","sub18","06","06","feedback","test","null","","","na","","121","",""
"1226.0999999940395","248704","HierDyscpxpgyl","sub18","06","06","rl","test","68","img/o_s_stripes.png","3","68","pattern,shape,color","122","1",""
"null","249710","HierDyscpxpgyl","sub18","06","06","feedback","test","null","","","na","","122","",""
"517.1999999955297","250228","HierDyscpxpgyl","sub18","06","06","rl","test","68","img/o_s_stripes.png","3","68","pattern,shape,color","123","1",""
"null","251237","HierDyscpxpgyl","sub18","06","06","feedback","test","null","","","na","","123","",""
"876.5","252114","HierDyscpxpgyl","sub18","06","06","rl","test","65","img/o_t_stripes.png","1","65","pattern,shape,color","124","1",""
"null","253129","HierDyscpxpgyl","sub18","06","06","feedback","test","null","","","na","","124","",""
"652.6999999955297","253783","HierDyscpxpgyl","sub18","06","06","rl","test","70","img/r_s_stripes.png","4","70","pattern,shape,color","125","1",""
"null","254789","HierDyscpxpgyl","sub18","06","06","feedback","test","null","","","na","","125","",""
"1021.2000000029802","255811","HierDyscpxpgyl","sub18","06","06","rl","test","74","img/r_t_check.png","6","74","pattern,shape,color","126","1",""
"null","256825","HierDyscpxpgyl","sub18","06","06","feedback","test","null","","","na","","126","",""
"1331.3999999985099","258157","HierDyscpxpgyl","sub18","06","06","rl","test","83","img/r_t_stripes.png","2","83","pattern,shape,color","127","1",""
"null","259165","HierDyscpxpgyl","sub18","06","06","feedback","test","null","","","na","","127","",""
"977","260143","HierDyscpxpgyl","sub18","06","06","rl","test","74","img/r_t_check.png","6","74","pattern,shape,color","128","1",""
"null","261150","HierDyscpxpgyl","sub18","06","06","feedback","test","null","","","na","","128","",""
"824.1999999955297","261975","HierDyscpxpgyl","sub18","06","06","rl","test","72","img/o_t_check.png","5","72","pattern,shape,color","129","1",""
"null","262980","HierDyscpxpgyl","sub18","06","06","feedback","test","null","","","na","","129","",""
"1907.5","264889","HierDyscpxpgyl","sub18","06","06","rl","test","70","img/r_s_stripes.png","4","70","pattern,shape,color","130","1",""
"null","265893","HierDyscpxpgyl","sub18","06","06","feedback","test","null","","","na","","130","",""
"908.2000000029802","266802","HierDyscpxpgyl","sub18","06","06","rl","test","65","img/o_t_stripes.png","1","65","pattern,shape,color","131","1",""
"null","267805","HierDyscpxpgyl","sub18","06","06","feedback","test","null","","","na","","131","",""
"1570.1000000014901","269377","HierDyscpxpgyl","sub18","06","06","rl","test","75","img/r_s_check.png","8","76","pattern,shape,color","132","0",""
"null","270384","HierDyscpxpgyl","sub18","06","06","feedback","test","null","","","na","","132","",""
"861.2999999970198","271246","HierDyscpxpgyl","sub18","06","06","rl","test","83","img/r_t_stripes.png","2","83","pattern,shape,color","133","1",""
"null","272256","HierDyscpxpgyl","sub18","06","06","feedback","test","null","","","na","","133","",""
"1325.5","273583","HierDyscpxpgyl","sub18","06","06","rl","test","72","img/o_t_check.png","5","72","pattern,shape,color","134","1",""
"null","274588","HierDyscpxpgyl","sub18","06","06","feedback","test","null","","","na","","134","",""
"1134.2000000029802","275724","HierDyscpxpgyl","sub18","06","06","rl","test","76","img/r_s_check.png","8","76","pattern,shape,color","135","1",""
"null","276735","HierDyscpxpgyl","sub18","06","06","feedback","test","null","","","na","","135","",""
"1020.2000000029802","277756","HierDyscpxpgyl","sub18","06","06","rl","test","75","img/o_s_check.png","7","75","pattern,shape,color","136","1",""
"null","278767","HierDyscpxpgyl","sub18","06","06","feedback","test","null","","","na","","136","",""
"1292.3999999985099","280060","HierDyscpxpgyl","sub18","06","06","rl","test","68","img/o_s_stripes.png","3","68","pattern,shape,color","137","1",""
"null","281070","HierDyscpxpgyl","sub18","06","06","feedback","test","null","","","na","","137","",""
"584.8999999985099","281656","HierDyscpxpgyl","sub18","06","06","rl","test","68","img/o_t_stripes.png","1","65","pattern,shape,color","138","0",""
"null","282657","HierDyscpxpgyl","sub18","06","06","feedback","test","null","","","na","","138","",""
"749.5","283408","HierDyscpxpgyl","sub18","06","06","rl","test","70","img/r_s_stripes.png","4","70","pattern,shape,color","139","1",""
"null","284412","HierDyscpxpgyl","sub18","06","06","feedback","test","null","","","na","","139","",""
"1781.7999999970198","286195","HierDyscpxpgyl","sub18","06","06","rl","test","75","img/r_t_check.png","6","74","pattern,shape,color","140","0",""
"null","287207","HierDyscpxpgyl","sub18","06","06","feedback","test","null","","","na","","140","",""
"925.7000000029802","288133","HierDyscpxpgyl","sub18","06","06","rl","test","68","img/o_s_stripes.png","3","68","pattern,shape,color","141","1",""
"null","289141","HierDyscpxpgyl","sub18","06","06","feedback","test","null","","","na","","141","",""
"2406","291548","HierDyscpxpgyl","sub18","06","06","rl","test","76","img/o_s_check.png","7","75","pattern,shape,color","142","0",""
"null","292557","HierDyscpxpgyl","sub18","06","06","feedback","test","null","","","na","","142","",""
"1658.1000000014901","294216","HierDyscpxpgyl","sub18","06","06","rl","test","83","img/r_t_stripes.png","2","83","pattern,shape,color","143","1",""
"null","295225","HierDyscpxpgyl","sub18","06","06","feedback","test","null","","","na","","143","",""
"1190.2000000029802","296416","HierDyscpxpgyl","sub18","06","06","rl","test","75","img/o_s_check.png","7","75","pattern,shape,color","144","1",""
"null","297421","HierDyscpxpgyl","sub18","06","06","feedback","test","null","","","na","","144","",""
"1179.2999999970198","298602","HierDyscpxpgyl","sub18","06","06","rl","test","72","img/o_t_check.png","5","72","pattern,shape,color","145","1",""
"null","299607","HierDyscpxpgyl","sub18","06","06","feedback","test","null","","","na","","145","",""
"679.7999999970198","300288","HierDyscpxpgyl","sub18","06","06","rl","test","72","img/o_t_check.png","5","72","pattern,shape,color","146","1",""
"null","301294","HierDyscpxpgyl","sub18","06","06","feedback","test","null","","","na","","146","",""
"1124.7999999970198","302420","HierDyscpxpgyl","sub18","06","06","rl","test","65","img/o_t_stripes.png","1","65","pattern,shape,color","147","1",""
"null","303432","HierDyscpxpgyl","sub18","06","06","feedback","test","null","","","na","","147","",""
"1565.8999999985099","304999","HierDyscpxpgyl","sub18","06","06","rl","test","76","img/r_s_check.png","8","76","pattern,shape,color","148","1",""
"null","306005","HierDyscpxpgyl","sub18","06","06","feedback","test","null","","","na","","148","",""
"1362.3999999985099","307369","HierDyscpxpgyl","sub18","06","06","rl","test","68","img/o_s_stripes.png","3","68","pattern,shape,color","149","1",""
"null","308375","HierDyscpxpgyl","sub18","06","06","feedback","test","null","","","na","","149","",""
"912.3000000044703","309288","HierDyscpxpgyl","sub18","06","06","rl","test","83","img/r_t_stripes.png","2","83","pattern,shape,color","150","1",""
"null","310296","HierDyscpxpgyl","sub18","06","06","feedback","test","null","","","na","","150","",""
"1219.8000000044703","311517","HierDyscpxpgyl","sub18","06","06","rl","test","75","img/r_s_check.png","8","76","pattern,shape,color","151","0",""
"null","312525","HierDyscpxpgyl","sub18","06","06","feedback","test","null","","","na","","151","",""
"1172.5","313699","HierDyscpxpgyl","sub18","06","06","rl","test","70","img/r_s_stripes.png","4","70","pattern,shape,color","152","1",""
"null","314703","HierDyscpxpgyl","sub18","06","06","feedback","test","null","","","na","","152","",""
"565.1000000014901","315269","HierDyscpxpgyl","sub18","06","06","rl","test","70","img/r_s_stripes.png","4","70","pattern,shape,color","153","1",""
"null","316277","HierDyscpxpgyl","sub18","06","06","feedback","test","null","","","na","","153","",""
"1140.5","317419","HierDyscpxpgyl","sub18","06","06","rl","test","74","img/r_t_check.png","6","74","pattern,shape,color","154","1",""
"null","318421","HierDyscpxpgyl","sub18","06","06","feedback","test","null","","","na","","154","",""
"922.5","319345","HierDyscpxpgyl","sub18","06","06","rl","test","75","img/o_s_check.png","7","75","pattern,shape,color","155","1",""
"null","320350","HierDyscpxpgyl","sub18","06","06","feedback","test","null","","","na","","155","",""
"1388.5","321739","HierDyscpxpgyl","sub18","06","06","rl","test","70","img/r_t_stripes.png","2","83","pattern,shape,color","156","0",""
"null","322746","HierDyscpxpgyl","sub18","06","06","feedback","test","null","","","na","","156","",""
"1131.5","323878","HierDyscpxpgyl","sub18","06","06","rl","test","65","img/o_t_stripes.png","1","65","pattern,shape,color","157","1",""
"null","324890","HierDyscpxpgyl","sub18","06","06","feedback","test","null","","","na","","157","",""
"1200","326091","HierDyscpxpgyl","sub18","06","06","rl","test","74","img/r_t_check.png","6","74","pattern,shape,color","158","1",""
"null","327105","HierDyscpxpgyl","sub18","06","06","feedback","test","null","","","na","","158","",""
"899.1000000014901","328006","HierDyscpxpgyl","sub18","06","06","rl","test","65","img/o_t_stripes.png","1","65","pattern,shape,color","159","1",""
"null","329016","HierDyscpxpgyl","sub18","06","06","feedback","test","null","","","na","","159","",""
"1435.8999999985099","330453","HierDyscpxpgyl","sub18","06","06","rl","test","68","img/o_s_stripes.png","3","68","pattern,shape,color","160","1",""
"null","331463","HierDyscpxpgyl","sub18","06","06","feedback","test","null","","","na","","160","",""
"2354.89999999851","333819","HierDyscpxpgyl","sub18","06","06","rl","test","72","img/o_t_check.png","5","72","pattern,shape,color","161","1",""
"null","334825","HierDyscpxpgyl","sub18","06","06","feedback","test","null","","","na","","161","",""
"1450.3999999985099","336276","HierDyscpxpgyl","sub18","06","06","rl","test","83","img/r_t_stripes.png","2","83","pattern,shape,color","162","1",""
"null","337286","HierDyscpxpgyl","sub18","06","06","feedback","test","null","","","na","","162","",""
"1031.1000000014901","338319","HierDyscpxpgyl","sub18","06","06","rl","test","68","img/o_s_stripes.png","3","68","pattern,shape,color","163","1",""
"null","339325","HierDyscpxpgyl","sub18","06","06","feedback","test","null","","","na","","163","",""
"1016.1000000014901","340342","HierDyscpxpgyl","sub18","06","06","rl","test","72","img/o_t_check.png","5","72","pattern,shape,color","164","1",""
"null","341352","HierDyscpxpgyl","sub18","06","06","feedback","test","null","","","na","","164","",""
"790","342143","HierDyscpxpgyl","sub18","06","06","rl","test","70","img/r_s_stripes.png","4","70","pattern,shape,color","165","1",""
"null","343149","HierDyscpxpgyl","sub18","06","06","feedback","test","null","","","na","","165","",""
"794","343944","HierDyscpxpgyl","sub18","06","06","rl","test","70","img/r_s_check.png","8","76","pattern,shape,color","166","0",""
"null","344952","HierDyscpxpgyl","sub18","06","06","feedback","test","null","","","na","","166","",""
"1135.6000000014901","346089","HierDyscpxpgyl","sub18","06","06","rl","test","75","img/o_s_check.png","7","75","pattern,shape,color","167","1",""
"null","347096","HierDyscpxpgyl","sub18","06","06","feedback","test","null","","","na","","167","",""
"1008.6000000014901","348106","HierDyscpxpgyl","sub18","06","06","rl","test","74","img/r_t_check.png","6","74","pattern,shape,color","168","1",""
"null","349110","HierDyscpxpgyl","sub18","06","06","feedback","test","null","","","na","","168","",""
"663.7000000029802","349775","HierDyscpxpgyl","sub18","06","06","rl","test","72","img/o_t_check.png","5","72","pattern,shape,color","169","1",""
"null","350785","HierDyscpxpgyl","sub18","06","06","feedback","test","null","","","na","","169","",""
"null","353294","HierDyscpxpgyl","sub18","06","06","rl","test","null","img/r_s_stripes.png","4","70","pattern,shape,color","170","0",""
"null","354301","HierDyscpxpgyl","sub18","06","06","feedback","test","null","","","na","","170","",""
"1050.6999999955297","355354","HierDyscpxpgyl","sub18","06","06","rl","test","75","img/o_s_check.png","7","75","pattern,shape,color","171","1",""
"null","356359","HierDyscpxpgyl","sub18","06","06","feedback","test","null","","","na","","171","",""
"949.2000000029802","357310","HierDyscpxpgyl","sub18","06","06","rl","test","68","img/o_s_stripes.png","3","68","pattern,shape,color","172","1",""
"null","358319","HierDyscpxpgyl","sub18","06","06","feedback","test","null","","","na","","172","",""
"848.1999999955297","359169","HierDyscpxpgyl","sub18","06","06","rl","test","75","img/o_s_check.png","7","75","pattern,shape,color","173","1",""
"null","360174","HierDyscpxpgyl","sub18","06","06","feedback","test","null","","","na","","173","",""
"1524.5","361700","HierDyscpxpgyl","sub18","06","06","rl","test","65","img/o_t_stripes.png","1","65","pattern,shape,color","174","1",""
"null","362714","HierDyscpxpgyl","sub18","06","06","feedback","test","null","","","na","","174","",""
"464.6000000014901","363180","HierDyscpxpgyl","sub18","06","06","rl","test","83","img/r_t_stripes.png","2","83","pattern,shape,color","175","1",""
"null","364192","HierDyscpxpgyl","sub18","06","06","feedback","test","null","","","na","","175","",""
"1055.8000000044703","365249","HierDyscpxpgyl","sub18","06","06","rl","test","72","img/r_t_check.png","6","74","pattern,shape,color","176","0",""
"null","366258","HierDyscpxpgyl","sub18","06","06","feedback","test","null","","","na","","176","",""
"861.5","367120","HierDyscpxpgyl","sub18","06","06","rl","test","70","img/r_s_stripes.png","4","70","pattern,shape,color","177","1",""
"null","368126","HierDyscpxpgyl","sub18","06","06","feedback","test","null","","","na","","177","",""
"1302.7999999970198","369430","HierDyscpxpgyl","sub18","06","06","rl","test","74","img/r_s_check.png","8","76","pattern,shape,color","178","0",""
"null","370441","HierDyscpxpgyl","sub18","06","06","feedback","test","null","","","na","","178","",""
"910.5","371352","HierDyscpxpgyl","sub18","06","06","rl","test","72","img/r_s_check.png","8","76","pattern,shape,color","179","0",""
"null","372358","HierDyscpxpgyl","sub18","06","06","feedback","test","null","","","na","","179","",""
"2151.9000000059605","374511","HierDyscpxpgyl","sub18","06","06","rl","test","72","img/o_t_check.png","5","72","pattern,shape,color","180","1",""
"null","375518","HierDyscpxpgyl","sub18","06","06","feedback","test","null","","","na","","180","",""
"902","376422","HierDyscpxpgyl","sub18","06","06","rl","test","68","img/o_s_stripes.png","3","68","pattern,shape,color","181","1",""
"null","377434","HierDyscpxpgyl","sub18","06","06","feedback","test","null","","","na","","181","",""
"1045","378481","HierDyscpxpgyl","sub18","06","06","rl","test","65","img/o_t_stripes.png","1","65","pattern,shape,color","182","1",""
"null","379490","HierDyscpxpgyl","sub18","06","06","feedback","test","null","","","na","","182","",""
"1067","380559","HierDyscpxpgyl","sub18","06","06","rl","test","74","img/r_t_check.png","6","74","pattern,shape,color","183","1",""
"null","381569","HierDyscpxpgyl","sub18","06","06","feedback","test","null","","","na","","183","",""
"769.7000000029802","382340","HierDyscpxpgyl","sub18","06","06","rl","test","72","img/r_t_stripes.png","2","83","pattern,shape,color","184","0",""
"null","383350","HierDyscpxpgyl","sub18","06","06","feedback","test","null","","","na","","184","",""
"1174.1000000014901","384526","HierDyscpxpgyl","sub18","06","06","rl","test","74","img/r_t_check.png","6","74","pattern,shape,color","185","1",""
"null","385534","HierDyscpxpgyl","sub18","06","06","feedback","test","null","","","na","","185","",""
"889.3999999985099","386425","HierDyscpxpgyl","sub18","06","06","rl","test","70","img/o_s_stripes.png","3","68","pattern,shape,color","186","0",""
"null","387430","HierDyscpxpgyl","sub18","06","06","feedback","test","null","","","na","","186","",""
"1250.7000000029802","388682","HierDyscpxpgyl","sub18","06","06","rl","test","75","img/o_s_check.png","7","75","pattern,shape,color","187","1",""
"null","389689","HierDyscpxpgyl","sub18","06","06","feedback","test","null","","","na","","187","",""
"1149.8000000044703","390840","HierDyscpxpgyl","sub18","06","06","rl","test","83","img/r_t_stripes.png","2","83","pattern,shape,color","188","1",""
"null","391845","HierDyscpxpgyl","sub18","06","06","feedback","test","null","","","na","","188","",""
"1701.1999999955297","393547","HierDyscpxpgyl","sub18","06","06","rl","test","75","img/r_s_check.png","8","76","pattern,shape,color","189","0",""
"null","394551","HierDyscpxpgyl","sub18","06","06","feedback","test","null","","","na","","189","",""
"876.1000000014901","395428","HierDyscpxpgyl","sub18","06","06","rl","test","70","img/r_s_stripes.png","4","70","pattern,shape,color","190","1",""
"null","396434","HierDyscpxpgyl","sub18","06","06","feedback","test","null","","","na","","190","",""
"1917.1999999955297","398352","HierDyscpxpgyl","sub18","06","06","rl","test","72","img/o_t_check.png","5","72","pattern,shape,color","191","1",""
"null","399361","HierDyscpxpgyl","sub18","06","06","feedback","test","null","","","na","","191","",""
"739.4000000059605","400102","HierDyscpxpgyl","sub18","06","06","rl","test","72","img/o_t_check.png","5","72","pattern,shape,color","192","1",""
"null","401110","HierDyscpxpgyl","sub18","06","06","feedback","test","null","","","na","","192","",""
"866.2000000029802","401978","HierDyscpxpgyl","sub18","06","06","rl","test","70","img/r_s_stripes.png","4","70","pattern,shape,color","193","1",""
"null","402986","HierDyscpxpgyl","sub18","06","06","feedback","test","null","","","na","","193","",""
"1094.7999999970198","404082","HierDyscpxpgyl","sub18","06","06","rl","test","75","img/o_t_stripes.png","1","65","pattern,shape,color","194","0",""
"null","405086","HierDyscpxpgyl","sub18","06","06","feedback","test","null","","","na","","194","",""
"1276.1000000014901","406364","HierDyscpxpgyl","sub18","06","06","rl","test","76","img/r_s_check.png","8","76","pattern,shape,color","195","1",""
"null","407369","HierDyscpxpgyl","sub18","06","06","feedback","test","null","","","na","","195","",""
"null","409878","HierDyscpxpgyl","sub18","06","06","rl","test","null","img/o_s_stripes.png","3","68","pattern,shape,color","196","0",""
"null","410889","HierDyscpxpgyl","sub18","06","06","feedback","test","null","","","na","","196","",""
"1259.2999999970198","412149","HierDyscpxpgyl","sub18","06","06","rl","test","65","img/o_t_stripes.png","1","65","pattern,shape,color","197","1",""
"null","413162","HierDyscpxpgyl","sub18","06","06","feedback","test","null","","","na","","197","",""
"1367","414530","HierDyscpxpgyl","sub18","06","06","rl","test","72","img/r_t_check.png","6","74","pattern,shape,color","198","0",""
"null","415536","HierDyscpxpgyl","sub18","06","06","feedback","test","null","","","na","","198","",""
"797.5","416335","HierDyscpxpgyl","sub18","06","06","rl","test","83","img/r_t_stripes.png","2","83","pattern,shape,color","199","1",""
"null","417344","HierDyscpxpgyl","sub18","06","06","feedback","test","null","","","na","","199","",""
"610.6000000014901","417957","HierDyscpxpgyl","sub18","06","06","rl","test","83","img/r_t_stripes.png","2","83","pattern,shape,color","200","1",""
"null","418969","HierDyscpxpgyl","sub18","06","06","feedback","test","null","","","na","","200","",""
"899.0999999940395","419869","HierDyscpxpgyl","sub18","06","06","rl","test","75","img/o_s_check.png","7","75","pattern,shape,color","201","1",""
"null","420879","HierDyscpxpgyl","sub18","06","06","feedback","test","null","","","na","","201","",""
"973.1000000014901","421853","HierDyscpxpgyl","sub18","06","06","rl","test","74","img/r_s_check.png","8","76","pattern,shape,color","202","0",""
"null","422866","HierDyscpxpgyl","sub18","06","06","feedback","test","null","","","na","","202","",""
"559.3999999985099","423427","HierDyscpxpgyl","sub18","06","06","rl","test","75","img/o_s_check.png","7","75","pattern,shape,color","203","1",""
"null","424431","HierDyscpxpgyl","sub18","06","06","feedback","test","null","","","na","","203","",""
"1025.6000000014901","425458","HierDyscpxpgyl","sub18","06","06","rl","test","68","img/o_s_stripes.png","3","68","pattern,shape,color","204","1",""
"null","426464","HierDyscpxpgyl","sub18","06","06","feedback","test","null","","","na","","204","",""
"1228","427693","HierDyscpxpgyl","sub18","06","06","rl","test","74","img/r_t_check.png","6","74","pattern,shape,color","205","1",""
"null","428705","HierDyscpxpgyl","sub18","06","06","feedback","test","null","","","na","","205","",""
"1323.7999999970198","430030","HierDyscpxpgyl","sub18","06","06","rl","test","72","img/o_t_check.png","5","72","pattern,shape,color","206","1",""
"null","431043","HierDyscpxpgyl","sub18","06","06","feedback","test","null","","","na","","206","",""
"739.5","431784","HierDyscpxpgyl","sub18","06","06","rl","test","72","img/o_s_check.png","7","75","pattern,shape,color","207","0",""
"null","432792","HierDyscpxpgyl","sub18","06","06","feedback","test","null","","","na","","207","",""
"1180.1999999955297","433974","HierDyscpxpgyl","sub18","06","06","rl","test","70","img/r_s_stripes.png","4","70","pattern,shape,color","208","1",""
"null","434987","HierDyscpxpgyl","sub18","06","06","feedback","test","null","","","na","","208","",""
"497.79999999701977","435486","HierDyscpxpgyl","sub18","06","06","rl","test","70","img/r_s_stripes.png","4","70","pattern,shape,color","209","1",""
"null","436495","HierDyscpxpgyl","sub18","06","06","feedback","test","null","","","na","","209","",""
"972.1000000014901","437468","HierDyscpxpgyl","sub18","06","06","rl","test","83","img/o_t_stripes.png","1","65","pattern,shape,color","210","0",""
"null","438471","HierDyscpxpgyl","sub18","06","06","feedback","test","null","","","na","","210","",""
"931.6999999955297","439404","HierDyscpxpgyl","sub18","06","06","rl","test","74","img/o_t_check.png","5","72","pattern,shape,color","211","0",""
"null","440409","HierDyscpxpgyl","sub18","06","06","feedback","test","null","","","na","","211","",""
"1697.6000000014901","442109","HierDyscpxpgyl","sub18","06","06","rl","test","83","img/r_t_stripes.png","2","83","pattern,shape,color","212","1",""
"null","443112","HierDyscpxpgyl","sub18","06","06","feedback","test","null","","","na","","212","",""
"1194.3999999985099","444308","HierDyscpxpgyl","sub18","06","06","rl","test","74","img/r_t_check.png","6","74","pattern,shape,color","213","1",""
"null","445311","HierDyscpxpgyl","sub18","06","06","feedback","test","null","","","na","","213","",""
"1511.8000000044703","446825","HierDyscpxpgyl","sub18","06","06","rl","test","72","img/o_t_stripes.png","1","65","pattern,shape,color","214","0",""
"null","447831","HierDyscpxpgyl","sub18","06","06","feedback","test","null","","","na","","214","",""
"868.5","448701","HierDyscpxpgyl","sub18","06","06","rl","test","70","img/r_s_stripes.png","4","70","pattern,shape,color","215","1",""
"null","449703","HierDyscpxpgyl","sub18","06","06","feedback","test","null","","","na","","215","",""
"1277.6000000014901","450982","HierDyscpxpgyl","sub18","06","06","rl","test","76","img/r_s_check.png","8","76","pattern,shape,color","216","1",""
"null","451991","HierDyscpxpgyl","sub18","06","06","feedback","test","null","","","na","","216","",""
"1082","453074","HierDyscpxpgyl","sub18","06","06","rl","test","68","img/o_s_stripes.png","3","68","pattern,shape,color","217","1",""
"null","454078","HierDyscpxpgyl","sub18","06","06","feedback","test","null","","","na","","217","",""
"1370.3999999985099","455450","HierDyscpxpgyl","sub18","06","06","rl","test","76","img/r_s_check.png","8","76","pattern,shape,color","218","1",""
"null","456456","HierDyscpxpgyl","sub18","06","06","feedback","test","null","","","na","","218","",""
"961.7999999970198","457419","HierDyscpxpgyl","sub18","06","06","rl","test","83","img/o_t_stripes.png","1","65","pattern,shape,color","219","0",""
"null","458427","HierDyscpxpgyl","sub18","06","06","feedback","test","null","","","na","","219","",""
"1015.5999999940395","459443","HierDyscpxpgyl","sub18","06","06","rl","test","75","img/o_t_check.png","5","72","pattern,shape,color","220","0",""
"null","460450","HierDyscpxpgyl","sub18","06","06","feedback","test","null","","","na","","220","",""
"1431.6000000014901","461882","HierDyscpxpgyl","sub18","06","06","rl","test","68","img/o_s_stripes.png","3","68","pattern,shape,color","221","1",""
"null","462888","HierDyscpxpgyl","sub18","06","06","feedback","test","null","","","na","","221","",""
"1418","464307","HierDyscpxpgyl","sub18","06","06","rl","test","75","img/o_s_check.png","7","75","pattern,shape,color","222","1",""
"null","465311","HierDyscpxpgyl","sub18","06","06","feedback","test","null","","","na","","222","",""
"1024.6999999955297","466336","HierDyscpxpgyl","sub18","06","06","rl","test","72","img/r_t_check.png","6","74","pattern,shape,color","223","0",""
"null","467344","HierDyscpxpgyl","sub18","06","06","feedback","test","null","","","na","","223","",""
"1654.6000000014901","469000","HierDyscpxpgyl","sub18","06","06","rl","test","68","img/o_s_stripes.png","3","68","pattern,shape,color","224","1",""
"null","470007","HierDyscpxpgyl","sub18","06","06","feedback","test","null","","","na","","224","",""
"884.7000000029802","470893","HierDyscpxpgyl","sub18","06","06","rl","test","65","img/o_t_stripes.png","1","65","pattern,shape,color","225","1",""
"null","471903","HierDyscpxpgyl","sub18","06","06","feedback","test","null","","","na","","225","",""
"null","474408","HierDyscpxpgyl","sub18","06","06","rl","test","null","img/r_t_stripes.png","2","83","pattern,shape,color","226","0",""
"null","475419","HierDyscpxpgyl","sub18","06","06","feedback","test","null","","","na","","226","",""
"1020.5","476441","HierDyscpxpgyl","sub18","06","06","rl","test","75","img/r_s_stripes.png","4","70","pattern,shape,color","227","0",""
"null","477448","HierDyscpxpgyl","sub18","06","06","feedback","test","null","","","na","","227","",""
"1557.7000000029802","479007","HierDyscpxpgyl","sub18","06","06","rl","test","72","img/o_t_check.png","5","72","pattern,shape,color","228","1",""
"null","480019","HierDyscpxpgyl","sub18","06","06","feedback","test","null","","","na","","228","",""
"1174.2000000029802","481194","HierDyscpxpgyl","sub18","06","06","rl","test","75","img/o_s_check.png","7","75","pattern,shape,color","229","1",""
"null","482204","HierDyscpxpgyl","sub18","06","06","feedback","test","null","","","na","","229","",""
"798","483003","HierDyscpxpgyl","sub18","06","06","rl","test","72","img/o_t_check.png","5","72","pattern,shape,color","230","1",""
"null","484012","HierDyscpxpgyl","sub18","06","06","feedback","test","null","","","na","","230","",""
"1762.1999999955297","485775","HierDyscpxpgyl","sub18","06","06","rl","test","83","img/r_t_stripes.png","2","83","pattern,shape,color","231","1",""
"null","486785","HierDyscpxpgyl","sub18","06","06","feedback","test","null","","","na","","231","",""
"1107.2000000029802","487893","HierDyscpxpgyl","sub18","06","06","rl","test","76","img/r_t_check.png","6","74","pattern,shape,color","232","0",""
"null","488898","HierDyscpxpgyl","sub18","06","06","feedback","test","null","","","na","","232","",""
"669","489568","HierDyscpxpgyl","sub18","06","06","rl","test","76","img/r_s_check.png","8","76","pattern,shape,color","233","1",""
"null","490577","HierDyscpxpgyl","sub18","06","06","feedback","test","null","","","na","","233","",""
"654","491232","HierDyscpxpgyl","sub18","06","06","rl","test","76","img/r_s_check.png","8","76","pattern,shape,color","234","1",""
"null","492240","HierDyscpxpgyl","sub18","06","06","feedback","test","null","","","na","","234","",""
"1622.1000000014901","493864","HierDyscpxpgyl","sub18","06","06","rl","test","74","img/o_s_check.png","7","75","pattern,shape,color","235","0",""
"null","494872","HierDyscpxpgyl","sub18","06","06","feedback","test","null","","","na","","235","",""
"997.3000000044703","495870","HierDyscpxpgyl","sub18","06","06","rl","test","83","img/o_t_stripes.png","1","65","pattern,shape,color","236","0",""
"null","496879","HierDyscpxpgyl","sub18","06","06","feedback","test","null","","","na","","236","",""
"768","497648","HierDyscpxpgyl","sub18","06","06","rl","test","70","img/r_s_stripes.png","4","70","pattern,shape,color","237","1",""
"null","498660","HierDyscpxpgyl","sub18","06","06","feedback","test","null","","","na","","237","",""
"1543.7999999970198","500205","HierDyscpxpgyl","sub18","06","06","rl","test","75","img/o_s_check.png","7","75","pattern,shape,color","238","1",""
"null","501212","HierDyscpxpgyl","sub18","06","06","feedback","test","null","","","na","","238","",""
"2116.39999999851","503329","HierDyscpxpgyl","sub18","06","06","rl","test","83","img/o_s_stripes.png","3","68","pattern,shape,color","239","0",""
"null","504338","HierDyscpxpgyl","sub18","06","06","feedback","test","null","","","na","","239","",""
"1434.1000000014901","505774","HierDyscpxpgyl","sub18","06","06","rl","test","74","img/r_t_check.png","6","74","pattern,shape,color","240","1",""
"null","506788","HierDyscpxpgyl","sub18","06","06","feedback","test","null","","","na","","240","",""
"1726.3999999985099","508516","HierDyscpxpgyl","sub18","06","06","rl","test","65","img/r_t_stripes.png","2","83","pattern,shape,color","241","0",""
"null","509523","HierDyscpxpgyl","sub18","06","06","feedback","test","null","","","na","","241","",""
"1364.2999999970198","510889","HierDyscpxpgyl","sub18","06","06","rl","test","68","img/o_s_stripes.png","3","68","pattern,shape,color","242","1",""
"null","511896","HierDyscpxpgyl","sub18","06","06","feedback","test","null","","","na","","242","",""
"1020","512917","HierDyscpxpgyl","sub18","06","06","rl","test","65","img/o_t_stripes.png","1","65","pattern,shape,color","243","1",""
"null","513920","HierDyscpxpgyl","sub18","06","06","feedback","test","null","","","na","","243","",""
"null","516428","HierDyscpxpgyl","sub18","06","06","rl","test","null","img/r_t_check.png","6","74","pattern,shape,color","244","0",""
"null","517436","HierDyscpxpgyl","sub18","06","06","feedback","test","null","","","na","","244","",""
"1496.7000000029802","518933","HierDyscpxpgyl","sub18","06","06","rl","test","72","img/o_t_check.png","5","72","pattern,shape,color","245","1",""
"null","519939","HierDyscpxpgyl","sub18","06","06","feedback","test","null","","","na","","245","",""
"1131.5","521072","HierDyscpxpgyl","sub18","06","06","rl","test","83","img/r_t_stripes.png","2","83","pattern,shape,color","246","1",""
"null","522082","HierDyscpxpgyl","sub18","06","06","feedback","test","null","","","na","","246","",""
"1020.7999999970198","523104","HierDyscpxpgyl","sub18","06","06","rl","test","76","img/r_s_check.png","8","76","pattern,shape,color","247","1",""
"null","524112","HierDyscpxpgyl","sub18","06","06","feedback","test","null","","","na","","247","",""
"826.2000000029802","524939","HierDyscpxpgyl","sub18","06","06","rl","test","70","img/r_s_stripes.png","4","70","pattern,shape,color","248","1",""
"null","525947","HierDyscpxpgyl","sub18","06","06","feedback","test","null","","","na","","248","",""
"4805","530757","HierDyscpxpgyl","sub18","06","06","","","","","","","","","","{""Q0"":""8""}"
"60434.89999999851","591196","HierDyscpxpgyl","sub18","06","06","","","","","","","","","","{""Q0"":""i have them pretty memorized ""}"
"980.2000000029802","592178","HierDyscpxpgyl","sub18","06","06","","","","","","","","","",""
