"rt","time_elapsed","subject","subID","group","day","trialType","phase","key_press","stim","stimNum","corrresp","hierarchy","trialNum","corr","responses"
"3555.6999999997206","3558","HierDyyxoztw8k","sub08","08","5","","","","","","","","","",""
"","7523","HierDyyxoztw8k","sub08","08","5","fullscreen","","","","","","","","",""
"2543.899999999907","10068","HierDyyxoztw8k","sub08","08","5","","prac","","","","","","","",""
"5817.799999999814","15887","HierDyyxoztw8k","sub08","08","5","","","32","","","","","","",""
"1769.5","17658","HierDyyxoztw8k","sub08","08","5","","prac","","","","","","","",""
"1752.8999999999069","19414","HierDyyxoztw8k","sub08","08","5","rl","test","70","img/r_t_check.png","4","70","pattern,color,shape","1","1",""
"null","20417","HierDyyxoztw8k","sub08","08","5","feedback","test","null","","","na","","1","",""
"1123.7000000001863","21542","HierDyyxoztw8k","sub08","08","5","rl","test","75","img/p_t_diag.png","6","74","pattern,color,shape","2","0",""
"null","22543","HierDyyxoztw8k","sub08","08","5","feedback","test","null","","","na","","2","",""
"678.3999999999069","23223","HierDyyxoztw8k","sub08","08","5","rl","test","74","img/p_d_diag.png","5","72","pattern,color,shape","3","0",""
"null","24225","HierDyyxoztw8k","sub08","08","5","feedback","test","null","","","na","","3","",""
"1487.2999999998137","25714","HierDyyxoztw8k","sub08","08","5","rl","test","83","img/p_t_check.png","2","83","pattern,color,shape","4","1",""
"null","26716","HierDyyxoztw8k","sub08","08","5","feedback","test","null","","","na","","4","",""
"885.2999999998137","27602","HierDyyxoztw8k","sub08","08","5","rl","test","65","img/p_d_check.png","1","65","pattern,color,shape","5","1",""
"null","28604","HierDyyxoztw8k","sub08","08","5","feedback","test","null","","","na","","5","",""
"1232.2000000001863","29837","HierDyyxoztw8k","sub08","08","5","rl","test","75","img/r_d_diag.png","7","75","pattern,color,shape","6","1",""
"null","30839","HierDyyxoztw8k","sub08","08","5","feedback","test","null","","","na","","6","",""
"1202.5","32043","HierDyyxoztw8k","sub08","08","5","rl","test","83","img/p_t_check.png","2","83","pattern,color,shape","7","1",""
"null","33045","HierDyyxoztw8k","sub08","08","5","feedback","test","null","","","na","","7","",""
"721.2999999998137","33767","HierDyyxoztw8k","sub08","08","5","rl","test","68","img/r_d_check.png","3","68","pattern,color,shape","8","1",""
"null","34769","HierDyyxoztw8k","sub08","08","5","feedback","test","null","","","na","","8","",""
"767.5","35538","HierDyyxoztw8k","sub08","08","5","rl","test","76","img/r_t_diag.png","8","76","pattern,color,shape","9","1",""
"null","36540","HierDyyxoztw8k","sub08","08","5","feedback","test","null","","","na","","9","",""
"796.8999999999069","37338","HierDyyxoztw8k","sub08","08","5","rl","test","76","img/r_t_diag.png","8","76","pattern,color,shape","10","1",""
"null","38340","HierDyyxoztw8k","sub08","08","5","feedback","test","null","","","na","","10","",""
"1066.7999999998137","39408","HierDyyxoztw8k","sub08","08","5","rl","test","72","img/p_d_diag.png","5","72","pattern,color,shape","11","1",""
"null","40409","HierDyyxoztw8k","sub08","08","5","feedback","test","null","","","na","","11","",""
"1052.1000000000931","41463","HierDyyxoztw8k","sub08","08","5","rl","test","70","img/r_t_check.png","4","70","pattern,color,shape","12","1",""
"null","42464","HierDyyxoztw8k","sub08","08","5","feedback","test","null","","","na","","12","",""
"681.1999999997206","43147","HierDyyxoztw8k","sub08","08","5","rl","test","68","img/r_d_check.png","3","68","pattern,color,shape","13","1",""
"null","44149","HierDyyxoztw8k","sub08","08","5","feedback","test","null","","","na","","13","",""
"1047.3999999999069","45197","HierDyyxoztw8k","sub08","08","5","rl","test","75","img/r_d_diag.png","7","75","pattern,color,shape","14","1",""
"null","46199","HierDyyxoztw8k","sub08","08","5","feedback","test","null","","","na","","14","",""
"1066.8999999999069","47267","HierDyyxoztw8k","sub08","08","5","rl","test","74","img/p_t_diag.png","6","74","pattern,color,shape","15","1",""
"null","48269","HierDyyxoztw8k","sub08","08","5","feedback","test","null","","","na","","15","",""
"783.3000000002794","49053","HierDyyxoztw8k","sub08","08","5","rl","test","65","img/p_d_check.png","1","65","pattern,color,shape","16","1",""
"null","50055","HierDyyxoztw8k","sub08","08","5","feedback","test","null","","","na","","16","",""
"1111.5","51168","HierDyyxoztw8k","sub08","08","5","rl","test","74","img/p_t_diag.png","6","74","pattern,color,shape","17","1",""
"null","52170","HierDyyxoztw8k","sub08","08","5","feedback","test","null","","","na","","17","",""
"975.8999999999069","53147","HierDyyxoztw8k","sub08","08","5","rl","test","70","img/r_t_check.png","4","70","pattern,color,shape","18","1",""
"null","54148","HierDyyxoztw8k","sub08","08","5","feedback","test","null","","","na","","18","",""
"859.2999999998137","55008","HierDyyxoztw8k","sub08","08","5","rl","test","83","img/p_t_check.png","2","83","pattern,color,shape","19","1",""
"null","56010","HierDyyxoztw8k","sub08","08","5","feedback","test","null","","","na","","19","",""
"633.7999999998137","56645","HierDyyxoztw8k","sub08","08","5","rl","test","65","img/p_d_check.png","1","65","pattern,color,shape","20","1",""
"null","57647","HierDyyxoztw8k","sub08","08","5","feedback","test","null","","","na","","20","",""
"974.5","58623","HierDyyxoztw8k","sub08","08","5","rl","test","72","img/p_d_diag.png","5","72","pattern,color,shape","21","1",""
"null","59625","HierDyyxoztw8k","sub08","08","5","feedback","test","null","","","na","","21","",""
"796.2999999998137","60422","HierDyyxoztw8k","sub08","08","5","rl","test","68","img/r_d_check.png","3","68","pattern,color,shape","22","1",""
"null","61423","HierDyyxoztw8k","sub08","08","5","feedback","test","null","","","na","","22","",""
"1356.8000000002794","62781","HierDyyxoztw8k","sub08","08","5","rl","test","75","img/r_d_diag.png","7","75","pattern,color,shape","23","1",""
"null","63782","HierDyyxoztw8k","sub08","08","5","feedback","test","null","","","na","","23","",""
"434.20000000018626","64218","HierDyyxoztw8k","sub08","08","5","rl","test","76","img/r_t_diag.png","8","76","pattern,color,shape","24","1",""
"null","65220","HierDyyxoztw8k","sub08","08","5","feedback","test","null","","","na","","24","",""
"677.2999999998137","65898","HierDyyxoztw8k","sub08","08","5","rl","test","76","img/r_t_diag.png","8","76","pattern,color,shape","25","1",""
"null","66900","HierDyyxoztw8k","sub08","08","5","feedback","test","null","","","na","","25","",""
"1202.0999999996275","68103","HierDyyxoztw8k","sub08","08","5","rl","test","83","img/p_t_check.png","2","83","pattern,color,shape","26","1",""
"null","69105","HierDyyxoztw8k","sub08","08","5","feedback","test","null","","","na","","26","",""
"946","70053","HierDyyxoztw8k","sub08","08","5","rl","test","76","img/r_t_diag.png","8","76","pattern,color,shape","27","1",""
"null","71055","HierDyyxoztw8k","sub08","08","5","feedback","test","null","","","na","","27","",""
"841.6999999997206","71898","HierDyyxoztw8k","sub08","08","5","rl","test","68","img/r_d_check.png","3","68","pattern,color,shape","28","1",""
"null","72900","HierDyyxoztw8k","sub08","08","5","feedback","test","null","","","na","","28","",""
"526.8000000002794","73429","HierDyyxoztw8k","sub08","08","5","rl","test","70","img/r_t_check.png","4","70","pattern,color,shape","29","1",""
"null","74431","HierDyyxoztw8k","sub08","08","5","feedback","test","null","","","na","","29","",""
"1130","75562","HierDyyxoztw8k","sub08","08","5","rl","test","75","img/r_d_diag.png","7","75","pattern,color,shape","30","1",""
"null","76563","HierDyyxoztw8k","sub08","08","5","feedback","test","null","","","na","","30","",""
"1139","77704","HierDyyxoztw8k","sub08","08","5","rl","test","74","img/p_t_diag.png","6","74","pattern,color,shape","31","1",""
"null","78706","HierDyyxoztw8k","sub08","08","5","feedback","test","null","","","na","","31","",""
"796.5","79504","HierDyyxoztw8k","sub08","08","5","rl","test","65","img/p_d_check.png","1","65","pattern,color,shape","32","1",""
"null","80505","HierDyyxoztw8k","sub08","08","5","feedback","test","null","","","na","","32","",""
"1729.2000000001863","82236","HierDyyxoztw8k","sub08","08","5","rl","test","75","img/r_d_diag.png","7","75","pattern,color,shape","33","1",""
"null","83237","HierDyyxoztw8k","sub08","08","5","feedback","test","null","","","na","","33","",""
"780.7000000001863","84019","HierDyyxoztw8k","sub08","08","5","rl","test","72","img/p_d_diag.png","5","72","pattern,color,shape","34","1",""
"null","85020","HierDyyxoztw8k","sub08","08","5","feedback","test","null","","","na","","34","",""
"963.1999999997206","85984","HierDyyxoztw8k","sub08","08","5","rl","test","65","img/p_d_check.png","1","65","pattern,color,shape","35","1",""
"null","86986","HierDyyxoztw8k","sub08","08","5","feedback","test","null","","","na","","35","",""
"1036.6000000000931","88024","HierDyyxoztw8k","sub08","08","5","rl","test","74","img/p_t_diag.png","6","74","pattern,color,shape","36","1",""
"null","89025","HierDyyxoztw8k","sub08","08","5","feedback","test","null","","","na","","36","",""
"962.3000000002794","89989","HierDyyxoztw8k","sub08","08","5","rl","test","70","img/r_t_check.png","4","70","pattern,color,shape","37","1",""
"null","90991","HierDyyxoztw8k","sub08","08","5","feedback","test","null","","","na","","37","",""
"1246.7000000001863","92239","HierDyyxoztw8k","sub08","08","5","rl","test","72","img/p_d_diag.png","5","72","pattern,color,shape","38","1",""
"null","93240","HierDyyxoztw8k","sub08","08","5","feedback","test","null","","","na","","38","",""
"886.9000000003725","94128","HierDyyxoztw8k","sub08","08","5","rl","test","70","img/r_t_check.png","4","70","pattern,color,shape","39","1",""
"null","95130","HierDyyxoztw8k","sub08","08","5","feedback","test","null","","","na","","39","",""
"1187.0999999996275","96319","HierDyyxoztw8k","sub08","08","5","rl","test","83","img/p_t_check.png","2","83","pattern,color,shape","40","1",""
"null","97321","HierDyyxoztw8k","sub08","08","5","feedback","test","null","","","na","","40","",""
"588.7999999998137","97911","HierDyyxoztw8k","sub08","08","5","rl","test","68","img/r_d_check.png","3","68","pattern,color,shape","41","1",""
"null","98913","HierDyyxoztw8k","sub08","08","5","feedback","test","null","","","na","","41","",""
"1666.8000000002794","100581","HierDyyxoztw8k","sub08","08","5","rl","test","75","img/r_t_diag.png","8","76","pattern,color,shape","42","0",""
"null","101583","HierDyyxoztw8k","sub08","08","5","feedback","test","null","","","na","","42","",""
"899.5","102484","HierDyyxoztw8k","sub08","08","5","rl","test","75","img/r_d_diag.png","7","75","pattern,color,shape","43","1",""
"null","103486","HierDyyxoztw8k","sub08","08","5","feedback","test","null","","","na","","43","",""
"676.4000000003725","104164","HierDyyxoztw8k","sub08","08","5","rl","test","76","img/p_t_diag.png","6","74","pattern,color,shape","44","0",""
"null","105165","HierDyyxoztw8k","sub08","08","5","feedback","test","null","","","na","","44","",""
"766","105932","HierDyyxoztw8k","sub08","08","5","rl","test","65","img/p_d_check.png","1","65","pattern,color,shape","45","1",""
"null","106933","HierDyyxoztw8k","sub08","08","5","feedback","test","null","","","na","","45","",""
"634.8999999999069","107568","HierDyyxoztw8k","sub08","08","5","rl","test","65","img/p_d_check.png","1","65","pattern,color,shape","46","1",""
"null","108570","HierDyyxoztw8k","sub08","08","5","feedback","test","null","","","na","","46","",""
"1055.7000000001863","109627","HierDyyxoztw8k","sub08","08","5","rl","test","72","img/p_d_diag.png","5","72","pattern,color,shape","47","1",""
"null","110629","HierDyyxoztw8k","sub08","08","5","feedback","test","null","","","na","","47","",""
"947.1000000000931","111577","HierDyyxoztw8k","sub08","08","5","rl","test","68","img/r_d_check.png","3","68","pattern,color,shape","48","1",""
"null","112579","HierDyyxoztw8k","sub08","08","5","feedback","test","null","","","na","","48","",""
"629.6999999997206","113210","HierDyyxoztw8k","sub08","08","5","rl","test","83","img/p_t_check.png","2","83","pattern,color,shape","49","1",""
"null","114212","HierDyyxoztw8k","sub08","08","5","feedback","test","null","","","na","","49","",""
"1171.1000000000931","115384","HierDyyxoztw8k","sub08","08","5","rl","test","68","img/r_d_check.png","3","68","pattern,color,shape","50","1",""
"null","116387","HierDyyxoztw8k","sub08","08","5","feedback","test","null","","","na","","50","",""
"588","116977","HierDyyxoztw8k","sub08","08","5","rl","test","72","img/p_d_diag.png","5","72","pattern,color,shape","51","1",""
"null","117979","HierDyyxoztw8k","sub08","08","5","feedback","test","null","","","na","","51","",""
"1123.3999999999069","119103","HierDyyxoztw8k","sub08","08","5","rl","test","83","img/p_t_check.png","2","83","pattern,color,shape","52","1",""
"null","120104","HierDyyxoztw8k","sub08","08","5","feedback","test","null","","","na","","52","",""
"649.1999999997206","120754","HierDyyxoztw8k","sub08","08","5","rl","test","70","img/r_t_check.png","4","70","pattern,color,shape","53","1",""
"null","121756","HierDyyxoztw8k","sub08","08","5","feedback","test","null","","","na","","53","",""
"571.8999999999069","122329","HierDyyxoztw8k","sub08","08","5","rl","test","76","img/r_t_diag.png","8","76","pattern,color,shape","54","1",""
"null","123331","HierDyyxoztw8k","sub08","08","5","feedback","test","null","","","na","","54","",""
"860","124191","HierDyyxoztw8k","sub08","08","5","rl","test","74","img/p_t_diag.png","6","74","pattern,color,shape","55","1",""
"null","125192","HierDyyxoztw8k","sub08","08","5","feedback","test","null","","","na","","55","",""
"974.5","126168","HierDyyxoztw8k","sub08","08","5","rl","test","74","img/p_t_diag.png","6","74","pattern,color,shape","56","1",""
"null","127169","HierDyyxoztw8k","sub08","08","5","feedback","test","null","","","na","","56","",""
"889.7000000001863","128059","HierDyyxoztw8k","sub08","08","5","rl","test","83","img/p_t_check.png","2","83","pattern,color,shape","57","1",""
"null","129061","HierDyyxoztw8k","sub08","08","5","feedback","test","null","","","na","","57","",""
"1097","130159","HierDyyxoztw8k","sub08","08","5","rl","test","75","img/r_d_diag.png","7","75","pattern,color,shape","58","1",""
"null","131161","HierDyyxoztw8k","sub08","08","5","feedback","test","null","","","na","","58","",""
"872","132035","HierDyyxoztw8k","sub08","08","5","rl","test","70","img/r_t_check.png","4","70","pattern,color,shape","59","1",""
"null","133037","HierDyyxoztw8k","sub08","08","5","feedback","test","null","","","na","","59","",""
"931.8999999999069","133970","HierDyyxoztw8k","sub08","08","5","rl","test","68","img/r_d_check.png","3","68","pattern,color,shape","60","1",""
"null","134971","HierDyyxoztw8k","sub08","08","5","feedback","test","null","","","na","","60","",""
"646.7999999998137","135619","HierDyyxoztw8k","sub08","08","5","rl","test","65","img/p_d_check.png","1","65","pattern,color,shape","61","1",""
"null","136621","HierDyyxoztw8k","sub08","08","5","feedback","test","null","","","na","","61","",""
"962.1000000000931","137584","HierDyyxoztw8k","sub08","08","5","rl","test","76","img/r_t_diag.png","8","76","pattern,color,shape","62","1",""
"null","138586","HierDyyxoztw8k","sub08","08","5","feedback","test","null","","","na","","62","",""
"736.7999999998137","139324","HierDyyxoztw8k","sub08","08","5","rl","test","65","img/p_d_check.png","1","65","pattern,color,shape","63","1",""
"null","140325","HierDyyxoztw8k","sub08","08","5","feedback","test","null","","","na","","63","",""
"543.7999999998137","140869","HierDyyxoztw8k","sub08","08","5","rl","test","72","img/p_d_diag.png","5","72","pattern,color,shape","64","1",""
"null","141871","HierDyyxoztw8k","sub08","08","5","feedback","test","null","","","na","","64","",""
"811.8999999999069","142684","HierDyyxoztw8k","sub08","08","5","rl","test","75","img/r_d_diag.png","7","75","pattern,color,shape","65","1",""
"null","143686","HierDyyxoztw8k","sub08","08","5","feedback","test","null","","","na","","65","",""
"706.1000000000931","144393","HierDyyxoztw8k","sub08","08","5","rl","test","68","img/r_d_check.png","3","68","pattern,color,shape","66","1",""
"null","145394","HierDyyxoztw8k","sub08","08","5","feedback","test","null","","","na","","66","",""
"963","146358","HierDyyxoztw8k","sub08","08","5","rl","test","72","img/p_d_diag.png","5","72","pattern,color,shape","67","1",""
"null","147359","HierDyyxoztw8k","sub08","08","5","feedback","test","null","","","na","","67","",""
"1147.4000000003725","148507","HierDyyxoztw8k","sub08","08","5","rl","test","83","img/p_t_check.png","2","83","pattern,color,shape","68","1",""
"null","149509","HierDyyxoztw8k","sub08","08","5","feedback","test","null","","","na","","68","",""
"799.2999999998137","150309","HierDyyxoztw8k","sub08","08","5","rl","test","75","img/r_d_diag.png","7","75","pattern,color,shape","69","1",""
"null","151311","HierDyyxoztw8k","sub08","08","5","feedback","test","null","","","na","","69","",""
"1002.9000000003725","152315","HierDyyxoztw8k","sub08","08","5","rl","test","74","img/p_t_diag.png","6","74","pattern,color,shape","70","1",""
"null","153317","HierDyyxoztw8k","sub08","08","5","feedback","test","null","","","na","","70","",""
"1007.5","154326","HierDyyxoztw8k","sub08","08","5","rl","test","70","img/r_t_check.png","4","70","pattern,color,shape","71","1",""
"null","155328","HierDyyxoztw8k","sub08","08","5","feedback","test","null","","","na","","71","",""
"1036.3000000002794","156365","HierDyyxoztw8k","sub08","08","5","rl","test","72","img/p_d_diag.png","5","72","pattern,color,shape","72","1",""
"null","157367","HierDyyxoztw8k","sub08","08","5","feedback","test","null","","","na","","72","",""
"856.8999999999069","158225","HierDyyxoztw8k","sub08","08","5","rl","test","76","img/r_t_diag.png","8","76","pattern,color,shape","73","1",""
"null","159227","HierDyyxoztw8k","sub08","08","5","feedback","test","null","","","na","","73","",""
"751.5","159980","HierDyyxoztw8k","sub08","08","5","rl","test","76","img/r_t_diag.png","8","76","pattern,color,shape","74","1",""
"null","160982","HierDyyxoztw8k","sub08","08","5","feedback","test","null","","","na","","74","",""
"1953.6000000000931","162937","HierDyyxoztw8k","sub08","08","5","rl","test","70","img/r_t_check.png","4","70","pattern,color,shape","75","1",""
"null","163939","HierDyyxoztw8k","sub08","08","5","feedback","test","null","","","na","","75","",""
"1289.2999999998137","165230","HierDyyxoztw8k","sub08","08","5","rl","test","74","img/p_t_diag.png","6","74","pattern,color,shape","76","1",""
"null","166232","HierDyyxoztw8k","sub08","08","5","feedback","test","null","","","na","","76","",""
"782.6000000000931","167015","HierDyyxoztw8k","sub08","08","5","rl","test","75","img/r_d_diag.png","7","75","pattern,color,shape","77","1",""
"null","168018","HierDyyxoztw8k","sub08","08","5","feedback","test","null","","","na","","77","",""
"841.1000000000931","168860","HierDyyxoztw8k","sub08","08","5","rl","test","65","img/p_d_check.png","1","65","pattern,color,shape","78","1",""
"null","169862","HierDyyxoztw8k","sub08","08","5","feedback","test","null","","","na","","78","",""
"796.6000000000931","170660","HierDyyxoztw8k","sub08","08","5","rl","test","68","img/r_d_check.png","3","68","pattern,color,shape","79","1",""
"null","171662","HierDyyxoztw8k","sub08","08","5","feedback","test","null","","","na","","79","",""
"736.6999999997206","172400","HierDyyxoztw8k","sub08","08","5","rl","test","83","img/p_t_check.png","2","83","pattern,color,shape","80","1",""
"null","173402","HierDyyxoztw8k","sub08","08","5","feedback","test","null","","","na","","80","",""
"856.7000000001863","174260","HierDyyxoztw8k","sub08","08","5","rl","test","76","img/r_t_diag.png","8","76","pattern,color,shape","81","1",""
"null","175262","HierDyyxoztw8k","sub08","08","5","feedback","test","null","","","na","","81","",""
"721.7999999998137","175985","HierDyyxoztw8k","sub08","08","5","rl","test","72","img/p_d_diag.png","5","72","pattern,color,shape","82","1",""
"null","176987","HierDyyxoztw8k","sub08","08","5","feedback","test","null","","","na","","82","",""
"1245.1000000000931","178236","HierDyyxoztw8k","sub08","08","5","rl","test","65","img/p_d_check.png","1","65","pattern,color,shape","83","1",""
"null","179237","HierDyyxoztw8k","sub08","08","5","feedback","test","null","","","na","","83","",""
"1202.3999999999069","180441","HierDyyxoztw8k","sub08","08","5","rl","test","70","img/r_t_check.png","4","70","pattern,color,shape","84","1",""
"null","181443","HierDyyxoztw8k","sub08","08","5","feedback","test","null","","","na","","84","",""
"691.1000000000931","182136","HierDyyxoztw8k","sub08","08","5","rl","test","83","img/p_t_check.png","2","83","pattern,color,shape","85","1",""
"null","183137","HierDyyxoztw8k","sub08","08","5","feedback","test","null","","","na","","85","",""
"1306.8999999999069","184445","HierDyyxoztw8k","sub08","08","5","rl","test","76","img/p_t_diag.png","6","74","pattern,color,shape","86","0",""
"null","185448","HierDyyxoztw8k","sub08","08","5","feedback","test","null","","","na","","86","",""
"1081.5","186530","HierDyyxoztw8k","sub08","08","5","rl","test","68","img/r_d_check.png","3","68","pattern,color,shape","87","1",""
"null","187532","HierDyyxoztw8k","sub08","08","5","feedback","test","null","","","na","","87","",""
"767.1999999997206","188301","HierDyyxoztw8k","sub08","08","5","rl","test","76","img/p_t_diag.png","6","74","pattern,color,shape","88","0",""
"null","189302","HierDyyxoztw8k","sub08","08","5","feedback","test","null","","","na","","88","",""
"856.2000000001863","190160","HierDyyxoztw8k","sub08","08","5","rl","test","75","img/r_d_diag.png","7","75","pattern,color,shape","89","1",""
"null","191162","HierDyyxoztw8k","sub08","08","5","feedback","test","null","","","na","","89","",""
"1112.1000000000931","192275","HierDyyxoztw8k","sub08","08","5","rl","test","68","img/r_d_check.png","3","68","pattern,color,shape","90","1",""
"null","193278","HierDyyxoztw8k","sub08","08","5","feedback","test","null","","","na","","90","",""
"916.6000000000931","194196","HierDyyxoztw8k","sub08","08","5","rl","test","83","img/p_t_check.png","2","83","pattern,color,shape","91","1",""
"null","195198","HierDyyxoztw8k","sub08","08","5","feedback","test","null","","","na","","91","",""
"1746.3999999999069","196945","HierDyyxoztw8k","sub08","08","5","rl","test","76","img/r_t_diag.png","8","76","pattern,color,shape","92","1",""
"null","197947","HierDyyxoztw8k","sub08","08","5","feedback","test","null","","","na","","92","",""
"717.6000000000931","198666","HierDyyxoztw8k","sub08","08","5","rl","test","75","img/r_d_diag.png","7","75","pattern,color,shape","93","1",""
"null","199668","HierDyyxoztw8k","sub08","08","5","feedback","test","null","","","na","","93","",""
"781.6000000000931","200451","HierDyyxoztw8k","sub08","08","5","rl","test","75","img/r_d_diag.png","7","75","pattern,color,shape","94","1",""
"null","201453","HierDyyxoztw8k","sub08","08","5","feedback","test","null","","","na","","94","",""
"752.1000000000931","202206","HierDyyxoztw8k","sub08","08","5","rl","test","72","img/p_d_diag.png","5","72","pattern,color,shape","95","1",""
"null","203207","HierDyyxoztw8k","sub08","08","5","feedback","test","null","","","na","","95","",""
"1037.7999999998137","204246","HierDyyxoztw8k","sub08","08","5","rl","test","70","img/r_t_check.png","4","70","pattern,color,shape","96","1",""
"null","205248","HierDyyxoztw8k","sub08","08","5","feedback","test","null","","","na","","96","",""
"751.5","206001","HierDyyxoztw8k","sub08","08","5","rl","test","65","img/p_d_check.png","1","65","pattern,color,shape","97","1",""
"null","207003","HierDyyxoztw8k","sub08","08","5","feedback","test","null","","","na","","97","",""
"721.7999999998137","207726","HierDyyxoztw8k","sub08","08","5","rl","test","72","img/p_d_diag.png","5","72","pattern,color,shape","98","1",""
"null","208728","HierDyyxoztw8k","sub08","08","5","feedback","test","null","","","na","","98","",""
"947.1000000000931","209676","HierDyyxoztw8k","sub08","08","5","rl","test","68","img/r_d_check.png","3","68","pattern,color,shape","99","1",""
"null","210678","HierDyyxoztw8k","sub08","08","5","feedback","test","null","","","na","","99","",""
"860.3999999999069","211540","HierDyyxoztw8k","sub08","08","5","rl","test","65","img/p_d_check.png","1","65","pattern,color,shape","100","1",""
"null","212541","HierDyyxoztw8k","sub08","08","5","feedback","test","null","","","na","","100","",""
"645.5","213188","HierDyyxoztw8k","sub08","08","5","rl","test","68","img/r_d_check.png","3","68","pattern,color,shape","101","1",""
"null","214189","HierDyyxoztw8k","sub08","08","5","feedback","test","null","","","na","","101","",""
"1066.6999999997206","215256","HierDyyxoztw8k","sub08","08","5","rl","test","74","img/p_t_diag.png","6","74","pattern,color,shape","102","1",""
"null","216257","HierDyyxoztw8k","sub08","08","5","feedback","test","null","","","na","","102","",""
"991.7000000001863","217250","HierDyyxoztw8k","sub08","08","5","rl","test","70","img/r_t_check.png","4","70","pattern,color,shape","103","1",""
"null","218251","HierDyyxoztw8k","sub08","08","5","feedback","test","null","","","na","","103","",""
"622.7999999998137","218874","HierDyyxoztw8k","sub08","08","5","rl","test","70","img/r_t_check.png","4","70","pattern,color,shape","104","1",""
"null","219876","HierDyyxoztw8k","sub08","08","5","feedback","test","null","","","na","","104","",""
"703.3999999999069","220581","HierDyyxoztw8k","sub08","08","5","rl","test","83","img/p_t_check.png","2","83","pattern,color,shape","105","1",""
"null","221583","HierDyyxoztw8k","sub08","08","5","feedback","test","null","","","na","","105","",""
"856","222440","HierDyyxoztw8k","sub08","08","5","rl","test","65","img/p_d_check.png","1","65","pattern,color,shape","106","1",""
"null","223441","HierDyyxoztw8k","sub08","08","5","feedback","test","null","","","na","","106","",""
"1008.6000000000931","224451","HierDyyxoztw8k","sub08","08","5","rl","test","76","img/r_t_diag.png","8","76","pattern,color,shape","107","1",""
"null","225453","HierDyyxoztw8k","sub08","08","5","feedback","test","null","","","na","","107","",""
"662.6000000000931","226116","HierDyyxoztw8k","sub08","08","5","rl","test","76","img/r_t_diag.png","8","76","pattern,color,shape","108","1",""
"null","227118","HierDyyxoztw8k","sub08","08","5","feedback","test","null","","","na","","108","",""
"812","227931","HierDyyxoztw8k","sub08","08","5","rl","test","75","img/r_d_diag.png","7","75","pattern,color,shape","109","1",""
"null","228933","HierDyyxoztw8k","sub08","08","5","feedback","test","null","","","na","","109","",""
"1671.3000000002794","230606","HierDyyxoztw8k","sub08","08","5","rl","test","83","img/p_t_check.png","2","83","pattern,color,shape","110","1",""
"null","231607","HierDyyxoztw8k","sub08","08","5","feedback","test","null","","","na","","110","",""
"1669","233278","HierDyyxoztw8k","sub08","08","5","rl","test","76","img/p_t_diag.png","6","74","pattern,color,shape","111","0",""
"null","234279","HierDyyxoztw8k","sub08","08","5","feedback","test","null","","","na","","111","",""
"836.8000000002794","235117","HierDyyxoztw8k","sub08","08","5","rl","test","70","img/r_t_check.png","4","70","pattern,color,shape","112","1",""
"null","236118","HierDyyxoztw8k","sub08","08","5","feedback","test","null","","","na","","112","",""
"1172.2000000001863","237292","HierDyyxoztw8k","sub08","08","5","rl","test","72","img/p_d_diag.png","5","72","pattern,color,shape","113","1",""
"null","238293","HierDyyxoztw8k","sub08","08","5","feedback","test","null","","","na","","113","",""
"1096.8000000002794","239392","HierDyyxoztw8k","sub08","08","5","rl","test","68","img/r_d_check.png","3","68","pattern,color,shape","114","1",""
"null","240393","HierDyyxoztw8k","sub08","08","5","feedback","test","null","","","na","","114","",""
"993.8999999999069","241389","HierDyyxoztw8k","sub08","08","5","rl","test","74","img/p_t_diag.png","6","74","pattern,color,shape","115","1",""
"null","242390","HierDyyxoztw8k","sub08","08","5","feedback","test","null","","","na","","115","",""
"659.1999999997206","243051","HierDyyxoztw8k","sub08","08","5","rl","test","75","img/r_d_diag.png","7","75","pattern,color,shape","116","1",""
"null","244053","HierDyyxoztw8k","sub08","08","5","feedback","test","null","","","na","","116","",""
"872.6999999997206","244927","HierDyyxoztw8k","sub08","08","5","rl","test","65","img/p_d_check.png","1","65","pattern,color,shape","117","1",""
"null","245929","HierDyyxoztw8k","sub08","08","5","feedback","test","null","","","na","","117","",""
"766.7999999998137","246697","HierDyyxoztw8k","sub08","08","5","rl","test","76","img/r_t_diag.png","8","76","pattern,color,shape","118","1",""
"null","247699","HierDyyxoztw8k","sub08","08","5","feedback","test","null","","","na","","118","",""
"991.4000000003725","248692","HierDyyxoztw8k","sub08","08","5","rl","test","83","img/p_t_check.png","2","83","pattern,color,shape","119","1",""
"null","249693","HierDyyxoztw8k","sub08","08","5","feedback","test","null","","","na","","119","",""
"1510.2999999998137","251205","HierDyyxoztw8k","sub08","08","5","rl","test","74","img/r_t_diag.png","8","76","pattern,color,shape","120","0",""
"null","252206","HierDyyxoztw8k","sub08","08","5","feedback","test","null","","","na","","120","",""
"730.7999999998137","252938","HierDyyxoztw8k","sub08","08","5","rl","test","72","img/p_d_diag.png","5","72","pattern,color,shape","121","1",""
"null","253940","HierDyyxoztw8k","sub08","08","5","feedback","test","null","","","na","","121","",""
"1515.3000000002794","255457","HierDyyxoztw8k","sub08","08","5","rl","test","83","img/p_t_check.png","2","83","pattern,color,shape","122","1",""
"null","256458","HierDyyxoztw8k","sub08","08","5","feedback","test","null","","","na","","122","",""
"1248.8999999999069","257708","HierDyyxoztw8k","sub08","08","5","rl","test","75","img/r_d_diag.png","7","75","pattern,color,shape","123","1",""
"null","258709","HierDyyxoztw8k","sub08","08","5","feedback","test","null","","","na","","123","",""
"979.2999999998137","259690","HierDyyxoztw8k","sub08","08","5","rl","test","68","img/r_d_check.png","3","68","pattern,color,shape","124","1",""
"null","260691","HierDyyxoztw8k","sub08","08","5","feedback","test","null","","","na","","124","",""
"1033.8999999999069","261727","HierDyyxoztw8k","sub08","08","5","rl","test","72","img/p_d_diag.png","5","72","pattern,color,shape","125","1",""
"null","262729","HierDyyxoztw8k","sub08","08","5","feedback","test","null","","","na","","125","",""
"1127.3999999999069","263857","HierDyyxoztw8k","sub08","08","5","rl","test","68","img/r_t_check.png","4","70","pattern,color,shape","126","0",""
"null","264859","HierDyyxoztw8k","sub08","08","5","feedback","test","null","","","na","","126","",""
"1967.8000000002794","266828","HierDyyxoztw8k","sub08","08","5","rl","test","74","img/p_t_diag.png","6","74","pattern,color,shape","127","1",""
"null","267829","HierDyyxoztw8k","sub08","08","5","feedback","test","null","","","na","","127","",""
"1311.7999999998137","269142","HierDyyxoztw8k","sub08","08","5","rl","test","65","img/p_d_check.png","1","65","pattern,color,shape","128","1",""
"null","270144","HierDyyxoztw8k","sub08","08","5","feedback","test","null","","","na","","128","",""
"882.8000000002794","271028","HierDyyxoztw8k","sub08","08","5","rl","test","75","img/r_d_diag.png","7","75","pattern,color,shape","129","1",""
"null","272030","HierDyyxoztw8k","sub08","08","5","feedback","test","null","","","na","","129","",""
"1231.2000000001863","273262","HierDyyxoztw8k","sub08","08","5","rl","test","65","img/p_d_check.png","1","65","pattern,color,shape","130","1",""
"null","274264","HierDyyxoztw8k","sub08","08","5","feedback","test","null","","","na","","130","",""
"825.7000000001863","275091","HierDyyxoztw8k","sub08","08","5","rl","test","70","img/r_t_check.png","4","70","pattern,color,shape","131","1",""
"null","276092","HierDyyxoztw8k","sub08","08","5","feedback","test","null","","","na","","131","",""
"1114.3999999999069","277208","HierDyyxoztw8k","sub08","08","5","rl","test","74","img/p_t_diag.png","6","74","pattern,color,shape","132","1",""
"null","278209","HierDyyxoztw8k","sub08","08","5","feedback","test","null","","","na","","132","",""
"1518.1000000000931","279729","HierDyyxoztw8k","sub08","08","5","rl","test","68","img/r_d_check.png","3","68","pattern,color,shape","133","1",""
"null","280731","HierDyyxoztw8k","sub08","08","5","feedback","test","null","","","na","","133","",""
"1772","282504","HierDyyxoztw8k","sub08","08","5","rl","test","76","img/r_t_diag.png","8","76","pattern,color,shape","134","1",""
"null","283506","HierDyyxoztw8k","sub08","08","5","feedback","test","null","","","na","","134","",""
"946.2999999998137","284454","HierDyyxoztw8k","sub08","08","5","rl","test","83","img/p_t_check.png","2","83","pattern,color,shape","135","1",""
"null","285456","HierDyyxoztw8k","sub08","08","5","feedback","test","null","","","na","","135","",""
"856.1000000000931","286313","HierDyyxoztw8k","sub08","08","5","rl","test","72","img/p_d_diag.png","5","72","pattern,color,shape","136","1",""
"null","287316","HierDyyxoztw8k","sub08","08","5","feedback","test","null","","","na","","136","",""
"630.8999999999069","287948","HierDyyxoztw8k","sub08","08","5","rl","test","72","img/p_d_diag.png","5","72","pattern,color,shape","137","1",""
"null","288949","HierDyyxoztw8k","sub08","08","5","feedback","test","null","","","na","","137","",""
"1097.1000000000931","290048","HierDyyxoztw8k","sub08","08","5","rl","test","83","img/p_t_check.png","2","83","pattern,color,shape","138","1",""
"null","291049","HierDyyxoztw8k","sub08","08","5","feedback","test","null","","","na","","138","",""
"991.8999999999069","292043","HierDyyxoztw8k","sub08","08","5","rl","test","74","img/p_t_diag.png","6","74","pattern,color,shape","139","1",""
"null","293044","HierDyyxoztw8k","sub08","08","5","feedback","test","null","","","na","","139","",""
"1250.5999999996275","294296","HierDyyxoztw8k","sub08","08","5","rl","test","65","img/p_d_check.png","1","65","pattern,color,shape","140","1",""
"null","295298","HierDyyxoztw8k","sub08","08","5","feedback","test","null","","","na","","140","",""
"1123.7000000001863","296423","HierDyyxoztw8k","sub08","08","5","rl","test","68","img/r_d_check.png","3","68","pattern,color,shape","141","1",""
"null","297425","HierDyyxoztw8k","sub08","08","5","feedback","test","null","","","na","","141","",""
"1230.8999999999069","298657","HierDyyxoztw8k","sub08","08","5","rl","test","75","img/r_d_diag.png","7","75","pattern,color,shape","142","1",""
"null","299659","HierDyyxoztw8k","sub08","08","5","feedback","test","null","","","na","","142","",""
"1277.3999999999069","300938","HierDyyxoztw8k","sub08","08","5","rl","test","83","img/r_t_check.png","4","70","pattern,color,shape","143","0",""
"null","301940","HierDyyxoztw8k","sub08","08","5","feedback","test","null","","","na","","143","",""
"857.2999999998137","302799","HierDyyxoztw8k","sub08","08","5","rl","test","83","img/p_t_check.png","2","83","pattern,color,shape","144","1",""
"null","303800","HierDyyxoztw8k","sub08","08","5","feedback","test","null","","","na","","144","",""
"662","304463","HierDyyxoztw8k","sub08","08","5","rl","test","70","img/r_t_check.png","4","70","pattern,color,shape","145","1",""
"null","305465","HierDyyxoztw8k","sub08","08","5","feedback","test","null","","","na","","145","",""
"962.1999999997206","306428","HierDyyxoztw8k","sub08","08","5","rl","test","75","img/r_d_diag.png","7","75","pattern,color,shape","146","1",""
"null","307430","HierDyyxoztw8k","sub08","08","5","feedback","test","null","","","na","","146","",""
"661.8999999999069","308093","HierDyyxoztw8k","sub08","08","5","rl","test","76","img/r_t_diag.png","8","76","pattern,color,shape","147","1",""
"null","309095","HierDyyxoztw8k","sub08","08","5","feedback","test","null","","","na","","147","",""
"646.0999999996275","309743","HierDyyxoztw8k","sub08","08","5","rl","test","76","img/r_t_diag.png","8","76","pattern,color,shape","148","1",""
"null","310745","HierDyyxoztw8k","sub08","08","5","feedback","test","null","","","na","","148","",""
"827.3999999999069","311573","HierDyyxoztw8k","sub08","08","5","rl","test","72","img/p_d_diag.png","5","72","pattern,color,shape","149","1",""
"null","312575","HierDyyxoztw8k","sub08","08","5","feedback","test","null","","","na","","149","",""
"631.6000000000931","313208","HierDyyxoztw8k","sub08","08","5","rl","test","65","img/p_d_check.png","1","65","pattern,color,shape","150","1",""
"null","314210","HierDyyxoztw8k","sub08","08","5","feedback","test","null","","","na","","150","",""
"691.7999999998137","314903","HierDyyxoztw8k","sub08","08","5","rl","test","68","img/r_d_check.png","3","68","pattern,color,shape","151","1",""
"null","315905","HierDyyxoztw8k","sub08","08","5","feedback","test","null","","","na","","151","",""
"830","316736","HierDyyxoztw8k","sub08","08","5","rl","test","75","img/r_d_diag.png","7","75","pattern,color,shape","152","1",""
"null","317738","HierDyyxoztw8k","sub08","08","5","feedback","test","null","","","na","","152","",""
"629.7999999998137","318369","HierDyyxoztw8k","sub08","08","5","rl","test","74","img/p_t_diag.png","6","74","pattern,color,shape","153","1",""
"null","319371","HierDyyxoztw8k","sub08","08","5","feedback","test","null","","","na","","153","",""
"1079.2000000001863","320452","HierDyyxoztw8k","sub08","08","5","rl","test","68","img/r_d_check.png","3","68","pattern,color,shape","154","1",""
"null","321453","HierDyyxoztw8k","sub08","08","5","feedback","test","null","","","na","","154","",""
"676.2000000001863","322129","HierDyyxoztw8k","sub08","08","5","rl","test","83","img/p_t_check.png","2","83","pattern,color,shape","155","1",""
"null","323131","HierDyyxoztw8k","sub08","08","5","feedback","test","null","","","na","","155","",""
"1360.6000000000931","324492","HierDyyxoztw8k","sub08","08","5","rl","test","72","img/p_d_diag.png","5","72","pattern,color,shape","156","1",""
"null","325494","HierDyyxoztw8k","sub08","08","5","feedback","test","null","","","na","","156","",""
"493.8000000002794","325988","HierDyyxoztw8k","sub08","08","5","rl","test","74","img/p_t_diag.png","6","74","pattern,color,shape","157","1",""
"null","326990","HierDyyxoztw8k","sub08","08","5","feedback","test","null","","","na","","157","",""
"737.6000000000931","327729","HierDyyxoztw8k","sub08","08","5","rl","test","65","img/p_d_check.png","1","65","pattern,color,shape","158","1",""
"null","328731","HierDyyxoztw8k","sub08","08","5","feedback","test","null","","","na","","158","",""
"587","329319","HierDyyxoztw8k","sub08","08","5","rl","test","68","img/r_d_check.png","3","68","pattern,color,shape","159","1",""
"null","330321","HierDyyxoztw8k","sub08","08","5","feedback","test","null","","","na","","159","",""
"826.2000000001863","331149","HierDyyxoztw8k","sub08","08","5","rl","test","70","img/r_t_check.png","4","70","pattern,color,shape","160","1",""
"null","332150","HierDyyxoztw8k","sub08","08","5","feedback","test","null","","","na","","160","",""
"692.3999999999069","332844","HierDyyxoztw8k","sub08","08","5","rl","test","70","img/r_t_check.png","4","70","pattern,color,shape","161","1",""
"null","333846","HierDyyxoztw8k","sub08","08","5","feedback","test","null","","","na","","161","",""
"1714.1000000000931","335561","HierDyyxoztw8k","sub08","08","5","rl","test","76","img/r_t_diag.png","8","76","pattern,color,shape","162","1",""
"null","336563","HierDyyxoztw8k","sub08","08","5","feedback","test","null","","","na","","162","",""
"824.6999999997206","337389","HierDyyxoztw8k","sub08","08","5","rl","test","65","img/p_d_check.png","1","65","pattern,color,shape","163","1",""
"null","338391","HierDyyxoztw8k","sub08","08","5","feedback","test","null","","","na","","163","",""
"676.8999999999069","339069","HierDyyxoztw8k","sub08","08","5","rl","test","83","img/p_t_check.png","2","83","pattern,color,shape","164","1",""
"null","340071","HierDyyxoztw8k","sub08","08","5","feedback","test","null","","","na","","164","",""
"872.4000000003725","340944","HierDyyxoztw8k","sub08","08","5","rl","test","76","img/r_t_diag.png","8","76","pattern,color,shape","165","1",""
"null","341946","HierDyyxoztw8k","sub08","08","5","feedback","test","null","","","na","","165","",""
"917.1999999997206","342864","HierDyyxoztw8k","sub08","08","5","rl","test","74","img/p_t_diag.png","6","74","pattern,color,shape","166","1",""
"null","343866","HierDyyxoztw8k","sub08","08","5","feedback","test","null","","","na","","166","",""
"706.6999999997206","344574","HierDyyxoztw8k","sub08","08","5","rl","test","75","img/r_d_diag.png","7","75","pattern,color,shape","167","1",""
"null","345576","HierDyyxoztw8k","sub08","08","5","feedback","test","null","","","na","","167","",""
"691.3999999999069","346269","HierDyyxoztw8k","sub08","08","5","rl","test","72","img/p_d_diag.png","5","72","pattern,color,shape","168","1",""
"null","347270","HierDyyxoztw8k","sub08","08","5","feedback","test","null","","","na","","168","",""
"902.5","348174","HierDyyxoztw8k","sub08","08","5","rl","test","75","img/r_d_diag.png","7","75","pattern,color,shape","169","1",""
"null","349176","HierDyyxoztw8k","sub08","08","5","feedback","test","null","","","na","","169","",""
"752.3000000002794","349930","HierDyyxoztw8k","sub08","08","5","rl","test","65","img/p_d_check.png","1","65","pattern,color,shape","170","1",""
"null","350931","HierDyyxoztw8k","sub08","08","5","feedback","test","null","","","na","","170","",""
"707.1000000000931","351640","HierDyyxoztw8k","sub08","08","5","rl","test","76","img/r_t_diag.png","8","76","pattern,color,shape","171","1",""
"null","352641","HierDyyxoztw8k","sub08","08","5","feedback","test","null","","","na","","171","",""
"1309.0999999996275","353952","HierDyyxoztw8k","sub08","08","5","rl","test","70","img/r_t_check.png","4","70","pattern,color,shape","172","1",""
"null","354953","HierDyyxoztw8k","sub08","08","5","feedback","test","null","","","na","","172","",""
"719.2999999998137","355674","HierDyyxoztw8k","sub08","08","5","rl","test","83","img/p_t_check.png","2","83","pattern,color,shape","173","1",""
"null","356676","HierDyyxoztw8k","sub08","08","5","feedback","test","null","","","na","","173","",""
"812.7000000001863","357490","HierDyyxoztw8k","sub08","08","5","rl","test","68","img/r_d_check.png","3","68","pattern,color,shape","174","1",""
"null","358492","HierDyyxoztw8k","sub08","08","5","feedback","test","null","","","na","","174","",""
"1231.5","359724","HierDyyxoztw8k","sub08","08","5","rl","test","72","img/p_d_diag.png","5","72","pattern,color,shape","175","1",""
"null","360726","HierDyyxoztw8k","sub08","08","5","feedback","test","null","","","na","","175","",""
"1113","361840","HierDyyxoztw8k","sub08","08","5","rl","test","68","img/r_d_check.png","3","68","pattern,color,shape","176","1",""
"null","362841","HierDyyxoztw8k","sub08","08","5","feedback","test","null","","","na","","176","",""
"1325.1000000000931","364168","HierDyyxoztw8k","sub08","08","5","rl","test","83","img/p_t_check.png","2","83","pattern,color,shape","177","1",""
"null","365170","HierDyyxoztw8k","sub08","08","5","feedback","test","null","","","na","","177","",""
"658.4000000003725","365830","HierDyyxoztw8k","sub08","08","5","rl","test","65","img/p_d_check.png","1","65","pattern,color,shape","178","1",""
"null","366831","HierDyyxoztw8k","sub08","08","5","feedback","test","null","","","na","","178","",""
"1505.2000000001863","368338","HierDyyxoztw8k","sub08","08","5","rl","test","74","img/p_t_diag.png","6","74","pattern,color,shape","179","1",""
"null","369340","HierDyyxoztw8k","sub08","08","5","feedback","test","null","","","na","","179","",""
"538.7999999998137","369880","HierDyyxoztw8k","sub08","08","5","rl","test","74","img/p_t_diag.png","6","74","pattern,color,shape","180","1",""
"null","370881","HierDyyxoztw8k","sub08","08","5","feedback","test","null","","","na","","180","",""
"571.8999999999069","371455","HierDyyxoztw8k","sub08","08","5","rl","test","76","img/r_t_diag.png","8","76","pattern,color,shape","181","1",""
"null","372456","HierDyyxoztw8k","sub08","08","5","feedback","test","null","","","na","","181","",""
"601.4000000003725","373059","HierDyyxoztw8k","sub08","08","5","rl","test","75","img/r_d_diag.png","7","75","pattern,color,shape","182","1",""
"null","374060","HierDyyxoztw8k","sub08","08","5","feedback","test","null","","","na","","182","",""
"949.1000000000931","375010","HierDyyxoztw8k","sub08","08","5","rl","test","72","img/p_d_diag.png","5","72","pattern,color,shape","183","1",""
"null","376012","HierDyyxoztw8k","sub08","08","5","feedback","test","null","","","na","","183","",""
"903.8999999999069","376918","HierDyyxoztw8k","sub08","08","5","rl","test","70","img/r_t_check.png","4","70","pattern,color,shape","184","1",""
"null","377919","HierDyyxoztw8k","sub08","08","5","feedback","test","null","","","na","","184","",""
"1531.8999999999069","379453","HierDyyxoztw8k","sub08","08","5","rl","test","76","img/r_t_diag.png","8","76","pattern,color,shape","185","1",""
"null","380455","HierDyyxoztw8k","sub08","08","5","feedback","test","null","","","na","","185","",""
"1003.7000000001863","381460","HierDyyxoztw8k","sub08","08","5","rl","test","70","img/r_t_check.png","4","70","pattern,color,shape","186","1",""
"null","382461","HierDyyxoztw8k","sub08","08","5","feedback","test","null","","","na","","186","",""
"588.1000000000931","383051","HierDyyxoztw8k","sub08","08","5","rl","test","68","img/r_d_check.png","3","68","pattern,color,shape","187","1",""
"null","384053","HierDyyxoztw8k","sub08","08","5","feedback","test","null","","","na","","187","",""
"766.5","384821","HierDyyxoztw8k","sub08","08","5","rl","test","72","img/p_d_diag.png","5","72","pattern,color,shape","188","1",""
"null","385823","HierDyyxoztw8k","sub08","08","5","feedback","test","null","","","na","","188","",""
"1364.8999999999069","387188","HierDyyxoztw8k","sub08","08","5","rl","test","70","img/r_t_check.png","4","70","pattern,color,shape","189","1",""
"null","388190","HierDyyxoztw8k","sub08","08","5","feedback","test","null","","","na","","189","",""
"1538.0999999996275","389729","HierDyyxoztw8k","sub08","08","5","rl","test","74","img/p_t_diag.png","6","74","pattern,color,shape","190","1",""
"null","390731","HierDyyxoztw8k","sub08","08","5","feedback","test","null","","","na","","190","",""
"793.6000000000931","391526","HierDyyxoztw8k","sub08","08","5","rl","test","83","img/p_t_check.png","2","83","pattern,color,shape","191","1",""
"null","392528","HierDyyxoztw8k","sub08","08","5","feedback","test","null","","","na","","191","",""
"646.3999999999069","393176","HierDyyxoztw8k","sub08","08","5","rl","test","83","img/p_t_check.png","2","83","pattern,color,shape","192","1",""
"null","394178","HierDyyxoztw8k","sub08","08","5","feedback","test","null","","","na","","192","",""
"631.6000000000931","394811","HierDyyxoztw8k","sub08","08","5","rl","test","68","img/p_d_check.png","1","65","pattern,color,shape","193","0",""
"null","395812","HierDyyxoztw8k","sub08","08","5","feedback","test","null","","","na","","193","",""
"797.2999999998137","396611","HierDyyxoztw8k","sub08","08","5","rl","test","72","img/p_d_diag.png","5","72","pattern,color,shape","194","1",""
"null","397613","HierDyyxoztw8k","sub08","08","5","feedback","test","null","","","na","","194","",""
"781.2000000001863","398395","HierDyyxoztw8k","sub08","08","5","rl","test","75","img/r_d_diag.png","7","75","pattern,color,shape","195","1",""
"null","399396","HierDyyxoztw8k","sub08","08","5","feedback","test","null","","","na","","195","",""
"753.7999999998137","400150","HierDyyxoztw8k","sub08","08","5","rl","test","76","img/r_t_diag.png","8","76","pattern,color,shape","196","1",""
"null","401152","HierDyyxoztw8k","sub08","08","5","feedback","test","null","","","na","","196","",""
"736.7999999998137","401890","HierDyyxoztw8k","sub08","08","5","rl","test","65","img/p_d_check.png","1","65","pattern,color,shape","197","1",""
"null","402892","HierDyyxoztw8k","sub08","08","5","feedback","test","null","","","na","","197","",""
"1202.0999999996275","404096","HierDyyxoztw8k","sub08","08","5","rl","test","72","img/p_t_diag.png","6","74","pattern,color,shape","198","0",""
"null","405097","HierDyyxoztw8k","sub08","08","5","feedback","test","null","","","na","","198","",""
"962.0999999996275","406061","HierDyyxoztw8k","sub08","08","5","rl","test","68","img/r_d_check.png","3","68","pattern,color,shape","199","1",""
"null","407062","HierDyyxoztw8k","sub08","08","5","feedback","test","null","","","na","","199","",""
"1022.1999999997206","408086","HierDyyxoztw8k","sub08","08","5","rl","test","75","img/r_d_diag.png","7","75","pattern,color,shape","200","1",""
"null","409088","HierDyyxoztw8k","sub08","08","5","feedback","test","null","","","na","","200","",""
"586.6000000000931","409676","HierDyyxoztw8k","sub08","08","5","rl","test","75","img/r_d_diag.png","7","75","pattern,color,shape","201","1",""
"null","410678","HierDyyxoztw8k","sub08","08","5","feedback","test","null","","","na","","201","",""
"841","411520","HierDyyxoztw8k","sub08","08","5","rl","test","68","img/r_d_check.png","3","68","pattern,color,shape","202","1",""
"null","412521","HierDyyxoztw8k","sub08","08","5","feedback","test","null","","","na","","202","",""
"739.4000000003725","413261","HierDyyxoztw8k","sub08","08","5","rl","test","70","img/r_t_check.png","4","70","pattern,color,shape","203","1",""
"null","414263","HierDyyxoztw8k","sub08","08","5","feedback","test","null","","","na","","203","",""
"706.5","414971","HierDyyxoztw8k","sub08","08","5","rl","test","65","img/p_d_check.png","1","65","pattern,color,shape","204","1",""
"null","415972","HierDyyxoztw8k","sub08","08","5","feedback","test","null","","","na","","204","",""
"1641.8000000002794","417615","HierDyyxoztw8k","sub08","08","5","rl","test","76","img/r_t_diag.png","8","76","pattern,color,shape","205","1",""
"null","418617","HierDyyxoztw8k","sub08","08","5","feedback","test","null","","","na","","205","",""
"703.4000000003725","419321","HierDyyxoztw8k","sub08","08","5","rl","test","75","img/p_t_diag.png","6","74","pattern,color,shape","206","0",""
"null","420323","HierDyyxoztw8k","sub08","08","5","feedback","test","null","","","na","","206","",""
"1925","422250","HierDyyxoztw8k","sub08","08","5","rl","test","83","img/p_t_check.png","2","83","pattern,color,shape","207","1",""
"null","423252","HierDyyxoztw8k","sub08","08","5","feedback","test","null","","","na","","207","",""
"852.7999999998137","424106","HierDyyxoztw8k","sub08","08","5","rl","test","72","img/p_d_diag.png","5","72","pattern,color,shape","208","1",""
"null","425108","HierDyyxoztw8k","sub08","08","5","feedback","test","null","","","na","","208","",""
"1127.0999999996275","426236","HierDyyxoztw8k","sub08","08","5","rl","test","70","img/r_t_check.png","4","70","pattern,color,shape","209","1",""
"null","427238","HierDyyxoztw8k","sub08","08","5","feedback","test","null","","","na","","209","",""
"872.1000000000931","428112","HierDyyxoztw8k","sub08","08","5","rl","test","72","img/p_d_diag.png","5","72","pattern,color,shape","210","1",""
"null","429113","HierDyyxoztw8k","sub08","08","5","feedback","test","null","","","na","","210","",""
"1591.0999999996275","430705","HierDyyxoztw8k","sub08","08","5","rl","test","83","img/p_d_check.png","1","65","pattern,color,shape","211","0",""
"null","431707","HierDyyxoztw8k","sub08","08","5","feedback","test","null","","","na","","211","",""
"1264.2000000001863","432972","HierDyyxoztw8k","sub08","08","5","rl","test","74","img/p_t_diag.png","6","74","pattern,color,shape","212","1",""
"null","433974","HierDyyxoztw8k","sub08","08","5","feedback","test","null","","","na","","212","",""
"826","434801","HierDyyxoztw8k","sub08","08","5","rl","test","68","img/r_d_check.png","3","68","pattern,color,shape","213","1",""
"null","435802","HierDyyxoztw8k","sub08","08","5","feedback","test","null","","","na","","213","",""
"1865.5","437669","HierDyyxoztw8k","sub08","08","5","rl","test","72","img/r_d_diag.png","7","75","pattern,color,shape","214","0",""
"null","438671","HierDyyxoztw8k","sub08","08","5","feedback","test","null","","","na","","214","",""
"1159.2999999998137","439831","HierDyyxoztw8k","sub08","08","5","rl","test","76","img/r_t_diag.png","8","76","pattern,color,shape","215","1",""
"null","440832","HierDyyxoztw8k","sub08","08","5","feedback","test","null","","","na","","215","",""
"1109","441942","HierDyyxoztw8k","sub08","08","5","rl","test","83","img/p_t_check.png","2","83","pattern,color,shape","216","1",""
"null","442944","HierDyyxoztw8k","sub08","08","5","feedback","test","null","","","na","","216","",""
"825.8999999999069","443771","HierDyyxoztw8k","sub08","08","5","rl","test","68","img/r_d_check.png","3","68","pattern,color,shape","217","1",""
"null","444773","HierDyyxoztw8k","sub08","08","5","feedback","test","null","","","na","","217","",""
"916.6000000000931","445692","HierDyyxoztw8k","sub08","08","5","rl","test","83","img/p_t_check.png","2","83","pattern,color,shape","218","1",""
"null","446694","HierDyyxoztw8k","sub08","08","5","feedback","test","null","","","na","","218","",""
"1554","448249","HierDyyxoztw8k","sub08","08","5","rl","test","75","img/r_d_diag.png","7","75","pattern,color,shape","219","1",""
"null","449251","HierDyyxoztw8k","sub08","08","5","feedback","test","null","","","na","","219","",""
"504.5","449757","HierDyyxoztw8k","sub08","08","5","rl","test","75","img/r_d_diag.png","7","75","pattern,color,shape","220","1",""
"null","450759","HierDyyxoztw8k","sub08","08","5","feedback","test","null","","","na","","220","",""
"962.2999999998137","451722","HierDyyxoztw8k","sub08","08","5","rl","test","70","img/r_t_check.png","4","70","pattern,color,shape","221","1",""
"null","452724","HierDyyxoztw8k","sub08","08","5","feedback","test","null","","","na","","221","",""
"1396.8000000002794","454123","HierDyyxoztw8k","sub08","08","5","rl","test","76","img/r_t_diag.png","8","76","pattern,color,shape","222","1",""
"null","455125","HierDyyxoztw8k","sub08","08","5","feedback","test","null","","","na","","222","",""
"1065.7000000001863","456192","HierDyyxoztw8k","sub08","08","5","rl","test","72","img/p_d_diag.png","5","72","pattern,color,shape","223","1",""
"null","457194","HierDyyxoztw8k","sub08","08","5","feedback","test","null","","","na","","223","",""
"1247.0999999996275","458442","HierDyyxoztw8k","sub08","08","5","rl","test","70","img/r_t_check.png","4","70","pattern,color,shape","224","1",""
"null","459444","HierDyyxoztw8k","sub08","08","5","feedback","test","null","","","na","","224","",""
"811.6000000000931","460257","HierDyyxoztw8k","sub08","08","5","rl","test","65","img/p_d_check.png","1","65","pattern,color,shape","225","1",""
"null","461259","HierDyyxoztw8k","sub08","08","5","feedback","test","null","","","na","","225","",""
"811.3999999999069","462071","HierDyyxoztw8k","sub08","08","5","rl","test","76","img/r_t_diag.png","8","76","pattern,color,shape","226","1",""
"null","463073","HierDyyxoztw8k","sub08","08","5","feedback","test","null","","","na","","226","",""
"993.5","464067","HierDyyxoztw8k","sub08","08","5","rl","test","74","img/p_t_diag.png","6","74","pattern,color,shape","227","1",""
"null","465068","HierDyyxoztw8k","sub08","08","5","feedback","test","null","","","na","","227","",""
"889.1000000000931","465958","HierDyyxoztw8k","sub08","08","5","rl","test","65","img/p_d_check.png","1","65","pattern,color,shape","228","1",""
"null","466959","HierDyyxoztw8k","sub08","08","5","feedback","test","null","","","na","","228","",""
"977.7000000001863","467938","HierDyyxoztw8k","sub08","08","5","rl","test","68","img/r_d_check.png","3","68","pattern,color,shape","229","1",""
"null","468940","HierDyyxoztw8k","sub08","08","5","feedback","test","null","","","na","","229","",""
"811.5999999996275","469753","HierDyyxoztw8k","sub08","08","5","rl","test","68","img/r_d_check.png","3","68","pattern,color,shape","230","1",""
"null","470755","HierDyyxoztw8k","sub08","08","5","feedback","test","null","","","na","","230","",""
"796.6000000000931","471553","HierDyyxoztw8k","sub08","08","5","rl","test","72","img/p_d_diag.png","5","72","pattern,color,shape","231","1",""
"null","472554","HierDyyxoztw8k","sub08","08","5","feedback","test","null","","","na","","231","",""
"587.1000000000931","473143","HierDyyxoztw8k","sub08","08","5","rl","test","74","img/p_t_diag.png","6","74","pattern,color,shape","232","1",""
"null","474145","HierDyyxoztw8k","sub08","08","5","feedback","test","null","","","na","","232","",""
"1156.8999999999069","475303","HierDyyxoztw8k","sub08","08","5","rl","test","83","img/p_t_check.png","2","83","pattern,color,shape","233","1",""
"null","476305","HierDyyxoztw8k","sub08","08","5","feedback","test","null","","","na","","233","",""
"1111.8999999999069","477418","HierDyyxoztw8k","sub08","08","5","rl","test","70","img/r_t_check.png","4","70","pattern,color,shape","234","1",""
"null","478420","HierDyyxoztw8k","sub08","08","5","feedback","test","null","","","na","","234","",""
"1471.2999999998137","479893","HierDyyxoztw8k","sub08","08","5","rl","test","75","img/r_d_diag.png","7","75","pattern,color,shape","235","1",""
"null","480895","HierDyyxoztw8k","sub08","08","5","feedback","test","null","","","na","","235","",""
"1307","482203","HierDyyxoztw8k","sub08","08","5","rl","test","74","img/p_t_diag.png","6","74","pattern,color,shape","236","1",""
"null","483205","HierDyyxoztw8k","sub08","08","5","feedback","test","null","","","na","","236","",""
"631.6000000000931","483838","HierDyyxoztw8k","sub08","08","5","rl","test","72","img/p_d_diag.png","5","72","pattern,color,shape","237","1",""
"null","484840","HierDyyxoztw8k","sub08","08","5","feedback","test","null","","","na","","237","",""
"811.2000000001863","485653","HierDyyxoztw8k","sub08","08","5","rl","test","74","img/p_t_diag.png","6","74","pattern,color,shape","238","1",""
"null","486655","HierDyyxoztw8k","sub08","08","5","feedback","test","null","","","na","","238","",""
"1232.2000000001863","487889","HierDyyxoztw8k","sub08","08","5","rl","test","65","img/p_d_check.png","1","65","pattern,color,shape","239","1",""
"null","488891","HierDyyxoztw8k","sub08","08","5","feedback","test","null","","","na","","239","",""
"1096","489988","HierDyyxoztw8k","sub08","08","5","rl","test","76","img/r_t_diag.png","8","76","pattern,color,shape","240","1",""
"null","490990","HierDyyxoztw8k","sub08","08","5","feedback","test","null","","","na","","240","",""
"1006.4000000003725","491998","HierDyyxoztw8k","sub08","08","5","rl","test","83","img/p_t_check.png","2","83","pattern,color,shape","241","1",""
"null","493000","HierDyyxoztw8k","sub08","08","5","feedback","test","null","","","na","","241","",""
"572.2000000001863","493573","HierDyyxoztw8k","sub08","08","5","rl","test","83","img/p_t_check.png","2","83","pattern,color,shape","242","1",""
"null","494575","HierDyyxoztw8k","sub08","08","5","feedback","test","null","","","na","","242","",""
"1126.8999999999069","495703","HierDyyxoztw8k","sub08","08","5","rl","test","76","img/r_t_diag.png","8","76","pattern,color,shape","243","1",""
"null","496705","HierDyyxoztw8k","sub08","08","5","feedback","test","null","","","na","","243","",""
"616.8000000002794","497324","HierDyyxoztw8k","sub08","08","5","rl","test","75","img/r_d_diag.png","7","75","pattern,color,shape","244","1",""
"null","498326","HierDyyxoztw8k","sub08","08","5","feedback","test","null","","","na","","244","",""
"1396.8999999999069","499724","HierDyyxoztw8k","sub08","08","5","rl","test","68","img/r_d_check.png","3","68","pattern,color,shape","245","1",""
"null","500726","HierDyyxoztw8k","sub08","08","5","feedback","test","null","","","na","","245","",""
"856.2999999998137","501584","HierDyyxoztw8k","sub08","08","5","rl","test","65","img/p_d_check.png","1","65","pattern,color,shape","246","1",""
"null","502586","HierDyyxoztw8k","sub08","08","5","feedback","test","null","","","na","","246","",""
"860.1999999997206","503447","HierDyyxoztw8k","sub08","08","5","rl","test","70","img/r_t_check.png","4","70","pattern,color,shape","247","1",""
"null","504449","HierDyyxoztw8k","sub08","08","5","feedback","test","null","","","na","","247","",""
"717.7000000001863","505168","HierDyyxoztw8k","sub08","08","5","rl","test","72","img/p_d_diag.png","5","72","pattern,color,shape","248","1",""
"null","506169","HierDyyxoztw8k","sub08","08","5","feedback","test","null","","","na","","248","",""
"6988.899999999907","513163","HierDyyxoztw8k","sub08","08","5","","","","","","","","","","{""Q0"":""6""}"
"121411.1000000001","634578","HierDyyxoztw8k","sub08","08","5","","","","","","","","","","{""Q0"":""It was a lot more associative for me this time -- not thinking seems to help more than thinking because while thinking, I tend to think serially from left to right or in some specific direction which is strange.""}"
"2805.7999999998137","637385","HierDyyxoztw8k","sub08","08","5","","","","","","","","","",""
