"rt","time_elapsed","subject","subID","group","day","trialType","key_press","stim","corrresp","phase","stimNum","trialNum","corr","repeatTrial","motorSwitch","hierarchy","responses"
"20815","20830","HierDyhrqc39p8","sub13","01","8","","","","","","","","","","","",""
"","22875","HierDyhrqc39p8","sub13","01","8","fullscreen","","","","","","","","","","",""
"72075","94961","HierDyhrqc39p8","sub13","01","8","","","","","","","","","","","",""
"656","95626","HierDyhrqc39p8","sub13","01","8","motor","83","img/motor_2.png","83","motor","2","1","1","0","0","",""
"null","95734","HierDyhrqc39p8","sub13","01","8","iti","null","img/motor_2.png","83","motor","","","","","","",""
"557","96299","HierDyhrqc39p8","sub13","01","8","motor","74","img/motor_6.png","74","motor","6","2","1","0","0","",""
"null","96407","HierDyhrqc39p8","sub13","01","8","iti","null","img/motor_6.png","74","motor","","","","","","",""
"513","96927","HierDyhrqc39p8","sub13","01","8","motor","70","img/motor_4.png","70","motor","4","3","1","0","0","",""
"null","97035","HierDyhrqc39p8","sub13","01","8","iti","null","img/motor_4.png","70","motor","","","","","","",""
"416","97459","HierDyhrqc39p8","sub13","01","8","motor","70","img/motor_4.png","70","motor","4","4","1","0","0","",""
"null","97566","HierDyhrqc39p8","sub13","01","8","iti","null","img/motor_4.png","70","motor","","","","","","",""
"469","98040","HierDyhrqc39p8","sub13","01","8","motor","72","img/motor_5.png","72","motor","5","5","1","0","0","",""
"null","98147","HierDyhrqc39p8","sub13","01","8","iti","null","img/motor_5.png","72","motor","","","","","","",""
"478","98631","HierDyhrqc39p8","sub13","01","8","motor","83","img/motor_2.png","83","motor","2","6","1","0","0","",""
"null","98736","HierDyhrqc39p8","sub13","01","8","iti","null","img/motor_2.png","83","motor","","","","","","",""
"406","99148","HierDyhrqc39p8","sub13","01","8","motor","65","img/motor_1.png","65","motor","1","7","1","0","0","",""
"null","99253","HierDyhrqc39p8","sub13","01","8","iti","null","img/motor_1.png","65","motor","","","","","","",""
"527","99786","HierDyhrqc39p8","sub13","01","8","motor","68","img/motor_3.png","68","motor","3","8","1","0","0","",""
"null","99892","HierDyhrqc39p8","sub13","01","8","iti","null","img/motor_3.png","68","motor","","","","","","",""
"439","100338","HierDyhrqc39p8","sub13","01","8","motor","70","img/motor_4.png","70","motor","4","9","1","0","0","",""
"null","100445","HierDyhrqc39p8","sub13","01","8","iti","null","img/motor_4.png","70","motor","","","","","","",""
"370","100822","HierDyhrqc39p8","sub13","01","8","motor","65","img/motor_1.png","65","motor","1","10","1","0","0","",""
"null","100930","HierDyhrqc39p8","sub13","01","8","iti","null","img/motor_1.png","65","motor","","","","","","",""
"391","101326","HierDyhrqc39p8","sub13","01","8","motor","68","img/motor_3.png","68","motor","3","11","1","0","0","",""
"null","101432","HierDyhrqc39p8","sub13","01","8","iti","null","img/motor_3.png","68","motor","","","","","","",""
"500","101938","HierDyhrqc39p8","sub13","01","8","motor","74","img/motor_6.png","74","motor","6","12","1","0","0","",""
"null","102046","HierDyhrqc39p8","sub13","01","8","iti","null","img/motor_6.png","74","motor","","","","","","",""
"456","102507","HierDyhrqc39p8","sub13","01","8","motor","68","img/motor_3.png","68","motor","3","13","1","0","0","",""
"null","102612","HierDyhrqc39p8","sub13","01","8","iti","null","img/motor_3.png","68","motor","","","","","","",""
"416","103035","HierDyhrqc39p8","sub13","01","8","motor","76","img/motor_8.png","76","motor","8","14","1","0","0","",""
"null","103143","HierDyhrqc39p8","sub13","01","8","iti","null","img/motor_8.png","76","motor","","","","","","",""
"711","103861","HierDyhrqc39p8","sub13","01","8","motor","83","img/motor_2.png","83","motor","2","15","1","0","0","",""
"null","103967","HierDyhrqc39p8","sub13","01","8","iti","null","img/motor_2.png","83","motor","","","","","","",""
"427","104401","HierDyhrqc39p8","sub13","01","8","motor","76","img/motor_8.png","76","motor","8","16","1","0","0","",""
"null","104509","HierDyhrqc39p8","sub13","01","8","iti","null","img/motor_8.png","76","motor","","","","","","",""
"381","104898","HierDyhrqc39p8","sub13","01","8","motor","72","img/motor_5.png","72","motor","5","17","1","0","0","",""
"null","105003","HierDyhrqc39p8","sub13","01","8","iti","null","img/motor_5.png","72","motor","","","","","","",""
"422","105431","HierDyhrqc39p8","sub13","01","8","motor","76","img/motor_8.png","76","motor","8","18","1","0","0","",""
"null","105539","HierDyhrqc39p8","sub13","01","8","iti","null","img/motor_8.png","76","motor","","","","","","",""
"677","106222","HierDyhrqc39p8","sub13","01","8","motor","83","img/motor_2.png","83","motor","2","19","1","0","0","",""
"null","106330","HierDyhrqc39p8","sub13","01","8","iti","null","img/motor_2.png","83","motor","","","","","","",""
"408","106745","HierDyhrqc39p8","sub13","01","8","motor","72","img/motor_5.png","72","motor","5","20","1","0","0","",""
"null","106853","HierDyhrqc39p8","sub13","01","8","iti","null","img/motor_5.png","72","motor","","","","","","",""
"451","107311","HierDyhrqc39p8","sub13","01","8","motor","76","img/motor_8.png","76","motor","8","21","1","0","0","",""
"null","107420","HierDyhrqc39p8","sub13","01","8","iti","null","img/motor_8.png","76","motor","","","","","","",""
"416","107842","HierDyhrqc39p8","sub13","01","8","motor","72","img/motor_5.png","72","motor","5","22","1","0","0","",""
"null","107948","HierDyhrqc39p8","sub13","01","8","iti","null","img/motor_5.png","72","motor","","","","","","",""
"504","108458","HierDyhrqc39p8","sub13","01","8","motor","83","img/motor_2.png","83","motor","2","23","1","0","0","",""
"null","108563","HierDyhrqc39p8","sub13","01","8","iti","null","img/motor_2.png","83","motor","","","","","","",""
"444","109016","HierDyhrqc39p8","sub13","01","8","motor","76","img/motor_8.png","76","motor","8","24","1","0","0","",""
"null","109122","HierDyhrqc39p8","sub13","01","8","iti","null","img/motor_8.png","76","motor","","","","","","",""
"441","109570","HierDyhrqc39p8","sub13","01","8","motor","70","img/motor_4.png","70","motor","4","25","1","0","0","",""
"null","109677","HierDyhrqc39p8","sub13","01","8","iti","null","img/motor_4.png","70","motor","","","","","","",""
"628","110312","HierDyhrqc39p8","sub13","01","8","motor","75","img/motor_7.png","75","motor","7","26","1","0","0","",""
"null","110421","HierDyhrqc39p8","sub13","01","8","iti","null","img/motor_7.png","75","motor","","","","","","",""
"537","110965","HierDyhrqc39p8","sub13","01","8","motor","83","img/motor_2.png","83","motor","2","27","1","0","0","",""
"null","111073","HierDyhrqc39p8","sub13","01","8","iti","null","img/motor_2.png","83","motor","","","","","","",""
"491","111571","HierDyhrqc39p8","sub13","01","8","motor","74","img/motor_6.png","74","motor","6","28","1","0","0","",""
"null","111679","HierDyhrqc39p8","sub13","01","8","iti","null","img/motor_6.png","74","motor","","","","","","",""
"475","112161","HierDyhrqc39p8","sub13","01","8","motor","83","img/motor_2.png","83","motor","2","29","1","0","0","",""
"null","112268","HierDyhrqc39p8","sub13","01","8","iti","null","img/motor_2.png","83","motor","","","","","","",""
"416","112690","HierDyhrqc39p8","sub13","01","8","motor","76","img/motor_8.png","76","motor","8","30","1","0","0","",""
"null","112797","HierDyhrqc39p8","sub13","01","8","iti","null","img/motor_8.png","76","motor","","","","","","",""
"606","113408","HierDyhrqc39p8","sub13","01","8","motor","76","img/motor_8.png","76","motor","8","31","1","0","0","",""
"null","113514","HierDyhrqc39p8","sub13","01","8","iti","null","img/motor_8.png","76","motor","","","","","","",""
"430","113952","HierDyhrqc39p8","sub13","01","8","motor","65","img/motor_1.png","65","motor","1","32","1","0","0","",""
"null","114060","HierDyhrqc39p8","sub13","01","8","iti","null","img/motor_1.png","65","motor","","","","","","",""
"481","114547","HierDyhrqc39p8","sub13","01","8","motor","72","img/motor_5.png","72","motor","5","33","1","0","0","",""
"null","114655","HierDyhrqc39p8","sub13","01","8","iti","null","img/motor_5.png","72","motor","","","","","","",""
"469","115130","HierDyhrqc39p8","sub13","01","8","motor","70","img/motor_4.png","70","motor","4","34","1","0","0","",""
"null","115236","HierDyhrqc39p8","sub13","01","8","iti","null","img/motor_4.png","70","motor","","","","","","",""
"514","115755","HierDyhrqc39p8","sub13","01","8","motor","74","img/motor_6.png","74","motor","6","35","1","0","0","",""
"null","115860","HierDyhrqc39p8","sub13","01","8","iti","null","img/motor_6.png","74","motor","","","","","","",""
"702","116570","HierDyhrqc39p8","sub13","01","8","motor","68","img/motor_3.png","68","motor","3","36","1","0","0","",""
"null","116679","HierDyhrqc39p8","sub13","01","8","iti","null","img/motor_3.png","68","motor","","","","","","",""
"404","117090","HierDyhrqc39p8","sub13","01","8","motor","65","img/motor_1.png","65","motor","1","37","1","0","0","",""
"null","117197","HierDyhrqc39p8","sub13","01","8","iti","null","img/motor_1.png","65","motor","","","","","","",""
"429","117632","HierDyhrqc39p8","sub13","01","8","motor","72","img/motor_5.png","72","motor","5","38","1","0","0","",""
"null","117738","HierDyhrqc39p8","sub13","01","8","iti","null","img/motor_5.png","72","motor","","","","","","",""
"467","118210","HierDyhrqc39p8","sub13","01","8","motor","70","img/motor_4.png","70","motor","4","39","1","0","0","",""
"null","118315","HierDyhrqc39p8","sub13","01","8","iti","null","img/motor_4.png","70","motor","","","","","","",""
"572","118897","HierDyhrqc39p8","sub13","01","8","motor","74","img/motor_7.png","75","motor","7","40","0","1","0","",""
"700","119602","HierDyhrqc39p8","sub13","01","8","motorRepeat","75","img/motor_7.png","75","motor","7","40","1","0","0","",""
"null","119709","HierDyhrqc39p8","sub13","01","8","iti","null","img/motor_7.png","75","motor","","","","","","",""
"494","120210","HierDyhrqc39p8","sub13","01","8","motor","72","img/motor_5.png","72","motor","5","41","1","0","0","",""
"null","120317","HierDyhrqc39p8","sub13","01","8","iti","null","img/motor_5.png","72","motor","","","","","","",""
"397","120721","HierDyhrqc39p8","sub13","01","8","motor","65","img/motor_1.png","65","motor","1","42","1","0","0","",""
"null","120828","HierDyhrqc39p8","sub13","01","8","iti","null","img/motor_1.png","65","motor","","","","","","",""
"679","121516","HierDyhrqc39p8","sub13","01","8","motor","68","img/motor_3.png","68","motor","3","43","1","0","0","",""
"null","121624","HierDyhrqc39p8","sub13","01","8","iti","null","img/motor_3.png","68","motor","","","","","","",""
"536","122171","HierDyhrqc39p8","sub13","01","8","motor","83","img/motor_2.png","83","motor","2","44","1","0","0","",""
"null","122282","HierDyhrqc39p8","sub13","01","8","iti","null","img/motor_2.png","83","motor","","","","","","",""
"543","122834","HierDyhrqc39p8","sub13","01","8","motor","68","img/motor_3.png","68","motor","3","45","1","0","0","",""
"null","122947","HierDyhrqc39p8","sub13","01","8","iti","null","img/motor_3.png","68","motor","","","","","","",""
"551","123506","HierDyhrqc39p8","sub13","01","8","motor","74","img/motor_6.png","74","motor","6","46","1","0","0","",""
"null","123617","HierDyhrqc39p8","sub13","01","8","iti","null","img/motor_6.png","74","motor","","","","","","",""
"129","123756","HierDyhrqc39p8","sub13","01","8","motor","74","img/motor_5.png","72","motor","5","47","0","1","0","",""
"308","124072","HierDyhrqc39p8","sub13","01","8","motorRepeat","72","img/motor_5.png","72","motor","5","47","1","0","0","",""
"null","124182","HierDyhrqc39p8","sub13","01","8","iti","null","img/motor_5.png","72","motor","","","","","","",""
"458","124650","HierDyhrqc39p8","sub13","01","8","motor","76","img/motor_8.png","76","motor","8","48","1","0","0","",""
"null","124759","HierDyhrqc39p8","sub13","01","8","iti","null","img/motor_8.png","76","motor","","","","","","",""
"412","125182","HierDyhrqc39p8","sub13","01","8","motor","72","img/motor_5.png","72","motor","5","49","1","0","0","",""
"null","125292","HierDyhrqc39p8","sub13","01","8","iti","null","img/motor_5.png","72","motor","","","","","","",""
"366","125665","HierDyhrqc39p8","sub13","01","8","motor","76","img/motor_8.png","76","motor","8","50","1","0","0","",""
"null","125776","HierDyhrqc39p8","sub13","01","8","iti","null","img/motor_8.png","76","motor","","","","","","",""
"409","126195","HierDyhrqc39p8","sub13","01","8","motor","65","img/motor_1.png","65","motor","1","51","1","0","0","",""
"null","126304","HierDyhrqc39p8","sub13","01","8","iti","null","img/motor_1.png","65","motor","","","","","","",""
"425","126739","HierDyhrqc39p8","sub13","01","8","motor","76","img/motor_8.png","76","motor","8","52","1","0","0","",""
"null","126850","HierDyhrqc39p8","sub13","01","8","iti","null","img/motor_8.png","76","motor","","","","","","",""
"690","127550","HierDyhrqc39p8","sub13","01","8","motor","74","img/motor_6.png","74","motor","6","53","1","0","0","",""
"null","127661","HierDyhrqc39p8","sub13","01","8","iti","null","img/motor_6.png","74","motor","","","","","","",""
"411","128082","HierDyhrqc39p8","sub13","01","8","motor","72","img/motor_4.png","70","motor","4","54","0","1","0","",""
"337","128430","HierDyhrqc39p8","sub13","01","8","motorRepeat","70","img/motor_4.png","70","motor","4","54","1","0","0","",""
"null","128540","HierDyhrqc39p8","sub13","01","8","iti","null","img/motor_4.png","70","motor","","","","","","",""
"636","129187","HierDyhrqc39p8","sub13","01","8","motor","72","img/motor_5.png","72","motor","5","55","1","0","0","",""
"null","129299","HierDyhrqc39p8","sub13","01","8","iti","null","img/motor_5.png","72","motor","","","","","","",""
"382","129689","HierDyhrqc39p8","sub13","01","8","motor","76","img/motor_8.png","76","motor","8","56","1","0","0","",""
"null","129800","HierDyhrqc39p8","sub13","01","8","iti","null","img/motor_8.png","76","motor","","","","","","",""
"447","130256","HierDyhrqc39p8","sub13","01","8","motor","72","img/motor_5.png","72","motor","5","57","1","0","0","",""
"null","130366","HierDyhrqc39p8","sub13","01","8","iti","null","img/motor_5.png","72","motor","","","","","","",""
"493","130870","HierDyhrqc39p8","sub13","01","8","motor","68","img/motor_3.png","68","motor","3","58","1","0","0","",""
"null","130981","HierDyhrqc39p8","sub13","01","8","iti","null","img/motor_3.png","68","motor","","","","","","",""
"440","131431","HierDyhrqc39p8","sub13","01","8","motor","70","img/motor_4.png","70","motor","4","59","1","0","0","",""
"null","131542","HierDyhrqc39p8","sub13","01","8","iti","null","img/motor_4.png","70","motor","","","","","","",""
"732","132285","HierDyhrqc39p8","sub13","01","8","motor","83","img/motor_2.png","83","motor","2","60","1","0","0","",""
"null","132395","HierDyhrqc39p8","sub13","01","8","iti","null","img/motor_2.png","83","motor","","","","","","",""
"422","132827","HierDyhrqc39p8","sub13","01","8","motor","76","img/motor_8.png","76","motor","8","61","1","0","0","",""
"null","132938","HierDyhrqc39p8","sub13","01","8","iti","null","img/motor_8.png","76","motor","","","","","","",""
"486","133434","HierDyhrqc39p8","sub13","01","8","motor","83","img/motor_2.png","83","motor","2","62","1","0","0","",""
"null","133545","HierDyhrqc39p8","sub13","01","8","iti","null","img/motor_2.png","83","motor","","","","","","",""
"567","134119","HierDyhrqc39p8","sub13","01","8","motor","74","img/motor_6.png","74","motor","6","63","1","0","0","",""
"null","134231","HierDyhrqc39p8","sub13","01","8","iti","null","img/motor_6.png","74","motor","","","","","","",""
"428","134668","HierDyhrqc39p8","sub13","01","8","motor","65","img/motor_1.png","65","motor","1","64","1","0","0","",""
"null","134779","HierDyhrqc39p8","sub13","01","8","iti","null","img/motor_1.png","65","motor","","","","","","",""
"436","135225","HierDyhrqc39p8","sub13","01","8","motor","72","img/motor_5.png","72","motor","5","65","1","0","0","",""
"null","135335","HierDyhrqc39p8","sub13","01","8","iti","null","img/motor_5.png","72","motor","","","","","","",""
"527","135874","HierDyhrqc39p8","sub13","01","8","motor","83","img/motor_2.png","83","motor","2","66","1","0","0","",""
"null","135985","HierDyhrqc39p8","sub13","01","8","iti","null","img/motor_2.png","83","motor","","","","","","",""
"550","136545","HierDyhrqc39p8","sub13","01","8","motor","68","img/motor_3.png","68","motor","3","67","1","0","0","",""
"null","136655","HierDyhrqc39p8","sub13","01","8","iti","null","img/motor_3.png","68","motor","","","","","","",""
"578","137243","HierDyhrqc39p8","sub13","01","8","motor","72","img/motor_5.png","72","motor","5","68","1","0","0","",""
"null","137355","HierDyhrqc39p8","sub13","01","8","iti","null","img/motor_5.png","72","motor","","","","","","",""
"807","138173","HierDyhrqc39p8","sub13","01","8","motor","75","img/motor_7.png","75","motor","7","69","1","0","0","",""
"null","138283","HierDyhrqc39p8","sub13","01","8","iti","null","img/motor_7.png","75","motor","","","","","","",""
"637","138927","HierDyhrqc39p8","sub13","01","8","motor","83","img/motor_3.png","68","motor","3","70","0","1","0","",""
"404","139341","HierDyhrqc39p8","sub13","01","8","motorRepeat","68","img/motor_3.png","68","motor","3","70","1","0","0","",""
"null","139452","HierDyhrqc39p8","sub13","01","8","iti","null","img/motor_3.png","68","motor","","","","","","",""
"438","139899","HierDyhrqc39p8","sub13","01","8","motor","76","img/motor_8.png","76","motor","8","71","1","0","0","",""
"null","140012","HierDyhrqc39p8","sub13","01","8","iti","null","img/motor_8.png","76","motor","","","","","","",""
"676","140698","HierDyhrqc39p8","sub13","01","8","motor","75","img/motor_7.png","75","motor","7","72","1","0","0","",""
"null","140807","HierDyhrqc39p8","sub13","01","8","iti","null","img/motor_7.png","75","motor","","","","","","",""
"598","141414","HierDyhrqc39p8","sub13","01","8","motor","68","img/motor_3.png","68","motor","3","73","1","0","0","",""
"null","141523","HierDyhrqc39p8","sub13","01","8","iti","null","img/motor_3.png","68","motor","","","","","","",""
"415","141948","HierDyhrqc39p8","sub13","01","8","motor","72","img/motor_5.png","72","motor","5","74","1","0","0","",""
"null","142057","HierDyhrqc39p8","sub13","01","8","iti","null","img/motor_5.png","72","motor","","","","","","",""
"531","142599","HierDyhrqc39p8","sub13","01","8","motor","68","img/motor_3.png","68","motor","3","75","1","0","0","",""
"null","142709","HierDyhrqc39p8","sub13","01","8","iti","null","img/motor_3.png","68","motor","","","","","","",""
"438","143156","HierDyhrqc39p8","sub13","01","8","motor","72","img/motor_5.png","72","motor","5","76","1","0","0","",""
"null","143266","HierDyhrqc39p8","sub13","01","8","iti","null","img/motor_5.png","72","motor","","","","","","",""
"458","143731","HierDyhrqc39p8","sub13","01","8","motor","68","img/motor_3.png","68","motor","3","77","1","0","0","",""
"null","143842","HierDyhrqc39p8","sub13","01","8","iti","null","img/motor_3.png","68","motor","","","","","","",""
"352","144204","HierDyhrqc39p8","sub13","01","8","motor","68","img/motor_3.png","68","motor","3","78","1","0","0","",""
"null","144314","HierDyhrqc39p8","sub13","01","8","iti","null","img/motor_3.png","68","motor","","","","","","",""
"478","144801","HierDyhrqc39p8","sub13","01","8","motor","70","img/motor_4.png","70","motor","4","79","1","0","0","",""
"null","144912","HierDyhrqc39p8","sub13","01","8","iti","null","img/motor_4.png","70","motor","","","","","","",""
"559","145480","HierDyhrqc39p8","sub13","01","8","motor","74","img/motor_6.png","74","motor","6","80","1","0","0","",""
"null","145589","HierDyhrqc39p8","sub13","01","8","iti","null","img/motor_6.png","74","motor","","","","","","",""
"389","145987","HierDyhrqc39p8","sub13","01","8","motor","70","img/motor_4.png","70","motor","4","81","1","0","0","",""
"null","146098","HierDyhrqc39p8","sub13","01","8","iti","null","img/motor_4.png","70","motor","","","","","","",""
"428","146534","HierDyhrqc39p8","sub13","01","8","motor","65","img/motor_1.png","65","motor","1","82","1","0","0","",""
"null","146645","HierDyhrqc39p8","sub13","01","8","iti","null","img/motor_1.png","65","motor","","","","","","",""
"587","147242","HierDyhrqc39p8","sub13","01","8","motor","74","img/motor_7.png","75","motor","7","83","0","1","0","",""
"356","147608","HierDyhrqc39p8","sub13","01","8","motorRepeat","75","img/motor_7.png","75","motor","7","83","1","0","0","",""
"null","147718","HierDyhrqc39p8","sub13","01","8","iti","null","img/motor_7.png","75","motor","","","","","","",""
"428","148156","HierDyhrqc39p8","sub13","01","8","motor","65","img/motor_1.png","65","motor","1","84","1","0","0","",""
"null","148266","HierDyhrqc39p8","sub13","01","8","iti","null","img/motor_1.png","65","motor","","","","","","",""
"339","148615","HierDyhrqc39p8","sub13","01","8","motor","65","img/motor_1.png","65","motor","1","85","1","0","0","",""
"null","148724","HierDyhrqc39p8","sub13","01","8","iti","null","img/motor_1.png","65","motor","","","","","","",""
"495","149230","HierDyhrqc39p8","sub13","01","8","motor","68","img/motor_3.png","68","motor","3","86","1","0","0","",""
"null","149338","HierDyhrqc39p8","sub13","01","8","iti","null","img/motor_3.png","68","motor","","","","","","",""
"469","149817","HierDyhrqc39p8","sub13","01","8","motor","75","img/motor_7.png","75","motor","7","87","1","0","0","",""
"null","149926","HierDyhrqc39p8","sub13","01","8","iti","null","img/motor_7.png","75","motor","","","","","","",""
"537","150473","HierDyhrqc39p8","sub13","01","8","motor","70","img/motor_4.png","70","motor","4","88","1","0","0","",""
"null","150584","HierDyhrqc39p8","sub13","01","8","iti","null","img/motor_4.png","70","motor","","","","","","",""
"449","151043","HierDyhrqc39p8","sub13","01","8","motor","72","img/motor_5.png","72","motor","5","89","1","0","0","",""
"null","151155","HierDyhrqc39p8","sub13","01","8","iti","null","img/motor_5.png","72","motor","","","","","","",""
"389","151554","HierDyhrqc39p8","sub13","01","8","motor","65","img/motor_1.png","65","motor","1","90","1","0","0","",""
"null","151664","HierDyhrqc39p8","sub13","01","8","iti","null","img/motor_1.png","65","motor","","","","","","",""
"491","152165","HierDyhrqc39p8","sub13","01","8","motor","76","img/motor_8.png","76","motor","8","91","1","0","0","",""
"null","152276","HierDyhrqc39p8","sub13","01","8","iti","null","img/motor_8.png","76","motor","","","","","","",""
"537","152822","HierDyhrqc39p8","sub13","01","8","motor","68","img/motor_3.png","68","motor","3","92","1","0","0","",""
"null","152934","HierDyhrqc39p8","sub13","01","8","iti","null","img/motor_3.png","68","motor","","","","","","",""
"562","153506","HierDyhrqc39p8","sub13","01","8","motor","75","img/motor_7.png","75","motor","7","93","1","0","0","",""
"null","153617","HierDyhrqc39p8","sub13","01","8","iti","null","img/motor_7.png","75","motor","","","","","","",""
"606","154235","HierDyhrqc39p8","sub13","01","8","motor","70","img/motor_4.png","70","motor","4","94","1","0","0","",""
"null","154345","HierDyhrqc39p8","sub13","01","8","iti","null","img/motor_4.png","70","motor","","","","","","",""
"476","154830","HierDyhrqc39p8","sub13","01","8","motor","83","img/motor_2.png","83","motor","2","95","1","0","0","",""
"null","154939","HierDyhrqc39p8","sub13","01","8","iti","null","img/motor_2.png","83","motor","","","","","","",""
"534","155483","HierDyhrqc39p8","sub13","01","8","motor","68","img/motor_3.png","68","motor","3","96","1","0","0","",""
"null","155594","HierDyhrqc39p8","sub13","01","8","iti","null","img/motor_3.png","68","motor","","","","","","",""
"556","156161","HierDyhrqc39p8","sub13","01","8","motor","75","img/motor_7.png","75","motor","7","97","1","0","0","",""
"null","156272","HierDyhrqc39p8","sub13","01","8","iti","null","img/motor_7.png","75","motor","","","","","","",""
"481","156763","HierDyhrqc39p8","sub13","01","8","motor","76","img/motor_8.png","76","motor","8","98","1","0","0","",""
"null","156873","HierDyhrqc39p8","sub13","01","8","iti","null","img/motor_8.png","76","motor","","","","","","",""
"435","157317","HierDyhrqc39p8","sub13","01","8","motor","76","img/motor_8.png","76","motor","8","99","1","0","0","",""
"null","157428","HierDyhrqc39p8","sub13","01","8","iti","null","img/motor_8.png","76","motor","","","","","","",""
"480","157918","HierDyhrqc39p8","sub13","01","8","motor","74","img/motor_7.png","75","motor","7","100","0","1","0","",""
"361","158289","HierDyhrqc39p8","sub13","01","8","motorRepeat","75","img/motor_7.png","75","motor","7","100","1","0","0","",""
"null","158399","HierDyhrqc39p8","sub13","01","8","iti","null","img/motor_7.png","75","motor","","","","","","",""
"413","158820","HierDyhrqc39p8","sub13","01","8","motor","70","img/motor_4.png","70","motor","4","101","1","0","0","",""
"null","158931","HierDyhrqc39p8","sub13","01","8","iti","null","img/motor_4.png","70","motor","","","","","","",""
"611","159552","HierDyhrqc39p8","sub13","01","8","motor","76","img/motor_8.png","76","motor","8","102","1","0","0","",""
"null","159663","HierDyhrqc39p8","sub13","01","8","iti","null","img/motor_8.png","76","motor","","","","","","",""
"448","160121","HierDyhrqc39p8","sub13","01","8","motor","72","img/motor_5.png","72","motor","5","103","1","0","0","",""
"null","160233","HierDyhrqc39p8","sub13","01","8","iti","null","img/motor_5.png","72","motor","","","","","","",""
"508","160750","HierDyhrqc39p8","sub13","01","8","motor","70","img/motor_4.png","70","motor","4","104","1","0","0","",""
"null","160862","HierDyhrqc39p8","sub13","01","8","iti","null","img/motor_4.png","70","motor","","","","","","",""
"369","161240","HierDyhrqc39p8","sub13","01","8","motor","70","img/motor_4.png","70","motor","4","105","1","0","0","",""
"null","161351","HierDyhrqc39p8","sub13","01","8","iti","null","img/motor_4.png","70","motor","","","","","","",""
"644","162004","HierDyhrqc39p8","sub13","01","8","motor","74","img/motor_6.png","74","motor","6","106","1","0","0","",""
"null","162113","HierDyhrqc39p8","sub13","01","8","iti","null","img/motor_6.png","74","motor","","","","","","",""
"407","162530","HierDyhrqc39p8","sub13","01","8","motor","65","img/motor_1.png","65","motor","1","107","1","0","0","",""
"null","162641","HierDyhrqc39p8","sub13","01","8","iti","null","img/motor_1.png","65","motor","","","","","","",""
"556","163207","HierDyhrqc39p8","sub13","01","8","motor","68","img/motor_3.png","68","motor","3","108","1","0","0","",""
"null","163317","HierDyhrqc39p8","sub13","01","8","iti","null","img/motor_3.png","68","motor","","","","","","",""
"425","163749","HierDyhrqc39p8","sub13","01","8","motor","65","img/motor_1.png","65","motor","1","109","1","0","0","",""
"null","163860","HierDyhrqc39p8","sub13","01","8","iti","null","img/motor_1.png","65","motor","","","","","","",""
"497","164367","HierDyhrqc39p8","sub13","01","8","motor","76","img/motor_8.png","76","motor","8","110","1","0","0","",""
"null","164479","HierDyhrqc39p8","sub13","01","8","iti","null","img/motor_8.png","76","motor","","","","","","",""
"757","165247","HierDyhrqc39p8","sub13","01","8","motor","75","img/motor_7.png","75","motor","7","111","1","0","0","",""
"null","165358","HierDyhrqc39p8","sub13","01","8","iti","null","img/motor_7.png","75","motor","","","","","","",""
"594","165962","HierDyhrqc39p8","sub13","01","8","motor","68","img/motor_3.png","68","motor","3","112","1","0","0","",""
"null","166072","HierDyhrqc39p8","sub13","01","8","iti","null","img/motor_3.png","68","motor","","","","","","",""
"458","166542","HierDyhrqc39p8","sub13","01","8","motor","68","img/motor_4.png","70","motor","4","113","0","1","0","",""
"333","166883","HierDyhrqc39p8","sub13","01","8","motorRepeat","70","img/motor_4.png","70","motor","4","113","1","0","0","",""
"null","166995","HierDyhrqc39p8","sub13","01","8","iti","null","img/motor_4.png","70","motor","","","","","","",""
"433","167436","HierDyhrqc39p8","sub13","01","8","motor","83","img/motor_2.png","83","motor","2","114","1","0","0","",""
"null","167547","HierDyhrqc39p8","sub13","01","8","iti","null","img/motor_2.png","83","motor","","","","","","",""
"493","168051","HierDyhrqc39p8","sub13","01","8","motor","75","img/motor_7.png","75","motor","7","115","1","0","0","",""
"null","168160","HierDyhrqc39p8","sub13","01","8","iti","null","img/motor_7.png","75","motor","","","","","","",""
"394","168562","HierDyhrqc39p8","sub13","01","8","motor","75","img/motor_7.png","75","motor","7","116","1","0","0","",""
"null","168672","HierDyhrqc39p8","sub13","01","8","iti","null","img/motor_7.png","75","motor","","","","","","",""
"504","169186","HierDyhrqc39p8","sub13","01","8","motor","83","img/motor_2.png","83","motor","2","117","1","0","0","",""
"null","169295","HierDyhrqc39p8","sub13","01","8","iti","null","img/motor_2.png","83","motor","","","","","","",""
"473","169778","HierDyhrqc39p8","sub13","01","8","motor","72","img/motor_5.png","72","motor","5","118","1","0","0","",""
"null","169888","HierDyhrqc39p8","sub13","01","8","iti","null","img/motor_5.png","72","motor","","","","","","",""
"484","170381","HierDyhrqc39p8","sub13","01","8","motor","83","img/motor_2.png","83","motor","2","119","1","0","0","",""
"null","170492","HierDyhrqc39p8","sub13","01","8","iti","null","img/motor_2.png","83","motor","","","","","","",""
"440","170941","HierDyhrqc39p8","sub13","01","8","motor","70","img/motor_4.png","70","motor","4","120","1","0","0","",""
"null","171053","HierDyhrqc39p8","sub13","01","8","iti","null","img/motor_4.png","70","motor","","","","","","",""
"704","171765","HierDyhrqc39p8","sub13","01","8","motor","74","img/motor_6.png","74","motor","6","121","1","0","0","",""
"null","171877","HierDyhrqc39p8","sub13","01","8","iti","null","img/motor_6.png","74","motor","","","","","","",""
"534","172419","HierDyhrqc39p8","sub13","01","8","motor","83","img/motor_2.png","83","motor","2","122","1","0","0","",""
"null","172530","HierDyhrqc39p8","sub13","01","8","iti","null","img/motor_2.png","83","motor","","","","","","",""
"626","173166","HierDyhrqc39p8","sub13","01","8","motor","75","img/motor_7.png","75","motor","7","123","1","0","0","",""
"null","173279","HierDyhrqc39p8","sub13","01","8","iti","null","img/motor_7.png","75","motor","","","","","","",""
"471","173761","HierDyhrqc39p8","sub13","01","8","motor","70","img/motor_4.png","70","motor","4","124","1","0","0","",""
"null","173874","HierDyhrqc39p8","sub13","01","8","iti","null","img/motor_4.png","70","motor","","","","","","",""
"450","174334","HierDyhrqc39p8","sub13","01","8","motor","83","img/motor_2.png","83","motor","2","125","1","0","0","",""
"null","174447","HierDyhrqc39p8","sub13","01","8","iti","null","img/motor_2.png","83","motor","","","","","","",""
"509","174967","HierDyhrqc39p8","sub13","01","8","motor","72","img/motor_5.png","72","motor","5","126","1","0","0","",""
"null","175077","HierDyhrqc39p8","sub13","01","8","iti","null","img/motor_5.png","72","motor","","","","","","",""
"497","175584","HierDyhrqc39p8","sub13","01","8","motor","75","img/motor_7.png","75","motor","7","127","1","0","0","",""
"null","175696","HierDyhrqc39p8","sub13","01","8","iti","null","img/motor_7.png","75","motor","","","","","","",""
"440","176148","HierDyhrqc39p8","sub13","01","8","motor","76","img/motor_8.png","76","motor","8","128","1","0","0","",""
"null","176260","HierDyhrqc39p8","sub13","01","8","iti","null","img/motor_8.png","76","motor","","","","","","",""
"565","176833","HierDyhrqc39p8","sub13","01","8","motor","72","img/motor_6.png","74","motor","6","129","0","1","0","",""
"433","177279","HierDyhrqc39p8","sub13","01","8","motorRepeat","74","img/motor_6.png","74","motor","6","129","1","0","0","",""
"null","177392","HierDyhrqc39p8","sub13","01","8","iti","null","img/motor_6.png","74","motor","","","","","","",""
"419","177821","HierDyhrqc39p8","sub13","01","8","motor","74","img/motor_6.png","74","motor","6","130","1","0","0","",""
"null","177931","HierDyhrqc39p8","sub13","01","8","iti","null","img/motor_6.png","74","motor","","","","","","",""
"538","178480","HierDyhrqc39p8","sub13","01","8","motor","75","img/motor_7.png","75","motor","7","131","1","0","0","",""
"null","178592","HierDyhrqc39p8","sub13","01","8","iti","null","img/motor_7.png","75","motor","","","","","","",""
"531","179133","HierDyhrqc39p8","sub13","01","8","motor","83","img/motor_2.png","83","motor","2","132","1","0","0","",""
"null","179244","HierDyhrqc39p8","sub13","01","8","iti","null","img/motor_2.png","83","motor","","","","","","",""
"373","179627","HierDyhrqc39p8","sub13","01","8","motor","83","img/motor_2.png","83","motor","2","133","1","0","0","",""
"null","179739","HierDyhrqc39p8","sub13","01","8","iti","null","img/motor_2.png","83","motor","","","","","","",""
"528","180277","HierDyhrqc39p8","sub13","01","8","motor","70","img/motor_4.png","70","motor","4","134","1","0","0","",""
"null","180388","HierDyhrqc39p8","sub13","01","8","iti","null","img/motor_4.png","70","motor","","","","","","",""
"492","180889","HierDyhrqc39p8","sub13","01","8","motor","76","img/motor_8.png","76","motor","8","135","1","0","0","",""
"null","180997","HierDyhrqc39p8","sub13","01","8","iti","null","img/motor_8.png","76","motor","","","","","","",""
"503","181512","HierDyhrqc39p8","sub13","01","8","motor","83","img/motor_2.png","83","motor","2","136","1","0","0","",""
"null","181622","HierDyhrqc39p8","sub13","01","8","iti","null","img/motor_2.png","83","motor","","","","","","",""
"549","182179","HierDyhrqc39p8","sub13","01","8","motor","70","img/motor_4.png","70","motor","4","137","1","0","0","",""
"null","182290","HierDyhrqc39p8","sub13","01","8","iti","null","img/motor_4.png","70","motor","","","","","","",""
"587","182886","HierDyhrqc39p8","sub13","01","8","motor","75","img/motor_7.png","75","motor","7","138","1","0","0","",""
"null","182998","HierDyhrqc39p8","sub13","01","8","iti","null","img/motor_7.png","75","motor","","","","","","",""
"562","183568","HierDyhrqc39p8","sub13","01","8","motor","74","img/motor_6.png","74","motor","6","139","1","0","0","",""
"null","183680","HierDyhrqc39p8","sub13","01","8","iti","null","img/motor_6.png","74","motor","","","","","","",""
"659","184348","HierDyhrqc39p8","sub13","01","8","motor","83","img/motor_2.png","83","motor","2","140","1","0","0","",""
"null","184459","HierDyhrqc39p8","sub13","01","8","iti","null","img/motor_2.png","83","motor","","","","","","",""
"415","184884","HierDyhrqc39p8","sub13","01","8","motor","65","img/motor_1.png","65","motor","1","141","1","0","0","",""
"null","184995","HierDyhrqc39p8","sub13","01","8","iti","null","img/motor_1.png","65","motor","","","","","","",""
"592","185596","HierDyhrqc39p8","sub13","01","8","motor","83","img/motor_2.png","83","motor","2","142","1","0","0","",""
"null","185707","HierDyhrqc39p8","sub13","01","8","iti","null","img/motor_2.png","83","motor","","","","","","",""
"428","186145","HierDyhrqc39p8","sub13","01","8","motor","70","img/motor_4.png","70","motor","4","143","1","0","0","",""
"null","186255","HierDyhrqc39p8","sub13","01","8","iti","null","img/motor_4.png","70","motor","","","","","","",""
"471","186736","HierDyhrqc39p8","sub13","01","8","motor","65","img/motor_1.png","65","motor","1","144","1","0","0","",""
"null","186848","HierDyhrqc39p8","sub13","01","8","iti","null","img/motor_1.png","65","motor","","","","","","",""
"632","187490","HierDyhrqc39p8","sub13","01","8","motor","74","img/motor_6.png","74","motor","6","145","1","0","0","",""
"null","187600","HierDyhrqc39p8","sub13","01","8","iti","null","img/motor_6.png","74","motor","","","","","","",""
"386","187996","HierDyhrqc39p8","sub13","01","8","motor","74","img/motor_6.png","74","motor","6","146","1","0","0","",""
"null","188109","HierDyhrqc39p8","sub13","01","8","iti","null","img/motor_6.png","74","motor","","","","","","",""
"507","188627","HierDyhrqc39p8","sub13","01","8","motor","65","img/motor_1.png","65","motor","1","147","1","0","0","",""
"null","188737","HierDyhrqc39p8","sub13","01","8","iti","null","img/motor_1.png","65","motor","","","","","","",""
"338","189084","HierDyhrqc39p8","sub13","01","8","motor","70","img/motor_4.png","70","motor","4","148","1","0","0","",""
"null","189196","HierDyhrqc39p8","sub13","01","8","iti","null","img/motor_4.png","70","motor","","","","","","",""
"424","189628","HierDyhrqc39p8","sub13","01","8","motor","76","img/motor_8.png","76","motor","8","149","1","0","0","",""
"null","189739","HierDyhrqc39p8","sub13","01","8","iti","null","img/motor_8.png","76","motor","","","","","","",""
"435","190185","HierDyhrqc39p8","sub13","01","8","motor","70","img/motor_4.png","70","motor","4","150","1","0","0","",""
"null","190297","HierDyhrqc39p8","sub13","01","8","iti","null","img/motor_4.png","70","motor","","","","","","",""
"771","191077","HierDyhrqc39p8","sub13","01","8","motor","68","img/motor_3.png","68","motor","3","151","1","0","0","",""
"null","191189","HierDyhrqc39p8","sub13","01","8","iti","null","img/motor_3.png","68","motor","","","","","","",""
"460","191660","HierDyhrqc39p8","sub13","01","8","motor","65","img/motor_1.png","65","motor","1","152","1","0","0","",""
"null","191769","HierDyhrqc39p8","sub13","01","8","iti","null","img/motor_1.png","65","motor","","","","","","",""
"542","192320","HierDyhrqc39p8","sub13","01","8","motor","74","img/motor_6.png","74","motor","6","153","1","0","0","",""
"null","192431","HierDyhrqc39p8","sub13","01","8","iti","null","img/motor_6.png","74","motor","","","","","","",""
"559","193002","HierDyhrqc39p8","sub13","01","8","motor","68","img/motor_3.png","68","motor","3","154","1","0","0","",""
"null","193112","HierDyhrqc39p8","sub13","01","8","iti","null","img/motor_3.png","68","motor","","","","","","",""
"399","193520","HierDyhrqc39p8","sub13","01","8","motor","65","img/motor_1.png","65","motor","1","155","1","0","0","",""
"null","193630","HierDyhrqc39p8","sub13","01","8","iti","null","img/motor_1.png","65","motor","","","","","","",""
"464","194105","HierDyhrqc39p8","sub13","01","8","motor","74","img/motor_6.png","74","motor","6","156","1","0","0","",""
"null","194214","HierDyhrqc39p8","sub13","01","8","iti","null","img/motor_6.png","74","motor","","","","","","",""
"493","194717","HierDyhrqc39p8","sub13","01","8","motor","68","img/motor_3.png","68","motor","3","157","1","0","0","",""
"null","194826","HierDyhrqc39p8","sub13","01","8","iti","null","img/motor_3.png","68","motor","","","","","","",""
"412","195248","HierDyhrqc39p8","sub13","01","8","motor","76","img/motor_8.png","76","motor","8","158","1","0","0","",""
"null","195359","HierDyhrqc39p8","sub13","01","8","iti","null","img/motor_8.png","76","motor","","","","","","",""
"577","195945","HierDyhrqc39p8","sub13","01","8","motor","72","img/motor_5.png","72","motor","5","159","1","0","0","",""
"null","196056","HierDyhrqc39p8","sub13","01","8","iti","null","img/motor_5.png","72","motor","","","","","","",""
"546","196612","HierDyhrqc39p8","sub13","01","8","motor","68","img/motor_3.png","68","motor","3","160","1","0","0","",""
"null","196722","HierDyhrqc39p8","sub13","01","8","iti","null","img/motor_3.png","68","motor","","","","","","",""
"338","197068","HierDyhrqc39p8","sub13","01","8","motor","74","img/motor_5.png","72","motor","5","161","0","1","0","",""
"354","197431","HierDyhrqc39p8","sub13","01","8","motorRepeat","72","img/motor_5.png","72","motor","5","161","1","0","0","",""
"null","197543","HierDyhrqc39p8","sub13","01","8","iti","null","img/motor_5.png","72","motor","","","","","","",""
"460","198013","HierDyhrqc39p8","sub13","01","8","motor","72","img/motor_5.png","72","motor","5","162","1","0","0","",""
"null","198125","HierDyhrqc39p8","sub13","01","8","iti","null","img/motor_5.png","72","motor","","","","","","",""
"374","198510","HierDyhrqc39p8","sub13","01","8","motor","74","img/motor_6.png","74","motor","6","163","1","0","0","",""
"null","198622","HierDyhrqc39p8","sub13","01","8","iti","null","img/motor_6.png","74","motor","","","","","","",""
"445","199075","HierDyhrqc39p8","sub13","01","8","motor","65","img/motor_1.png","65","motor","1","164","1","0","0","",""
"null","199188","HierDyhrqc39p8","sub13","01","8","iti","null","img/motor_1.png","65","motor","","","","","","",""
"618","199814","HierDyhrqc39p8","sub13","01","8","motor","83","img/motor_2.png","83","motor","2","165","1","0","0","",""
"null","199924","HierDyhrqc39p8","sub13","01","8","iti","null","img/motor_2.png","83","motor","","","","","","",""
"397","200331","HierDyhrqc39p8","sub13","01","8","motor","74","img/motor_5.png","72","motor","5","166","0","1","0","",""
"312","200654","HierDyhrqc39p8","sub13","01","8","motorRepeat","72","img/motor_5.png","72","motor","5","166","1","0","0","",""
"null","200766","HierDyhrqc39p8","sub13","01","8","iti","null","img/motor_5.png","72","motor","","","","","","",""
"409","201186","HierDyhrqc39p8","sub13","01","8","motor","65","img/motor_1.png","65","motor","1","167","1","0","0","",""
"null","201297","HierDyhrqc39p8","sub13","01","8","iti","null","img/motor_1.png","65","motor","","","","","","",""
"390","201696","HierDyhrqc39p8","sub13","01","8","motor","65","img/motor_1.png","65","motor","1","168","1","0","0","",""
"null","201806","HierDyhrqc39p8","sub13","01","8","iti","null","img/motor_1.png","65","motor","","","","","","",""
"444","202262","HierDyhrqc39p8","sub13","01","8","motor","70","img/motor_4.png","70","motor","4","169","1","0","0","",""
"null","202373","HierDyhrqc39p8","sub13","01","8","iti","null","img/motor_4.png","70","motor","","","","","","",""
"661","203043","HierDyhrqc39p8","sub13","01","8","motor","75","img/motor_7.png","75","motor","7","170","1","0","0","",""
"null","203155","HierDyhrqc39p8","sub13","01","8","iti","null","img/motor_7.png","75","motor","","","","","","",""
"555","203719","HierDyhrqc39p8","sub13","01","8","motor","74","img/motor_6.png","74","motor","6","171","1","0","0","",""
"null","203828","HierDyhrqc39p8","sub13","01","8","iti","null","img/motor_6.png","74","motor","","","","","","",""
"474","204311","HierDyhrqc39p8","sub13","01","8","motor","74","img/motor_5.png","72","motor","5","172","0","1","0","",""
"312","204633","HierDyhrqc39p8","sub13","01","8","motorRepeat","72","img/motor_5.png","72","motor","5","172","1","0","0","",""
"null","204745","HierDyhrqc39p8","sub13","01","8","iti","null","img/motor_5.png","72","motor","","","","","","",""
"507","205261","HierDyhrqc39p8","sub13","01","8","motor","83","img/motor_2.png","83","motor","2","173","1","0","0","",""
"null","205372","HierDyhrqc39p8","sub13","01","8","iti","null","img/motor_2.png","83","motor","","","","","","",""
"677","206058","HierDyhrqc39p8","sub13","01","8","motor","74","img/motor_6.png","74","motor","6","174","1","0","0","",""
"null","206168","HierDyhrqc39p8","sub13","01","8","iti","null","img/motor_6.png","74","motor","","","","","","",""
"734","206911","HierDyhrqc39p8","sub13","01","8","motor","75","img/motor_7.png","75","motor","7","175","1","0","0","",""
"null","207024","HierDyhrqc39p8","sub13","01","8","iti","null","img/motor_7.png","75","motor","","","","","","",""
"485","207519","HierDyhrqc39p8","sub13","01","8","motor","76","img/motor_8.png","76","motor","8","176","1","0","0","",""
"null","207630","HierDyhrqc39p8","sub13","01","8","iti","null","img/motor_8.png","76","motor","","","","","","",""
"522","208162","HierDyhrqc39p8","sub13","01","8","motor","74","img/motor_7.png","75","motor","7","177","0","1","0","",""
"325","208495","HierDyhrqc39p8","sub13","01","8","motorRepeat","75","img/motor_7.png","75","motor","7","177","1","0","0","",""
"null","208606","HierDyhrqc39p8","sub13","01","8","iti","null","img/motor_7.png","75","motor","","","","","","",""
"458","209072","HierDyhrqc39p8","sub13","01","8","motor","70","img/motor_4.png","70","motor","4","178","1","0","0","",""
"null","209184","HierDyhrqc39p8","sub13","01","8","iti","null","img/motor_4.png","70","motor","","","","","","",""
"1361","210554","HierDyhrqc39p8","sub13","01","8","motor","72","img/motor_5.png","72","motor","5","179","1","0","0","",""
"null","210663","HierDyhrqc39p8","sub13","01","8","iti","null","img/motor_5.png","72","motor","","","","","","",""
"900","211573","HierDyhrqc39p8","sub13","01","8","motor","65","img/motor_1.png","65","motor","1","180","1","0","0","",""
"null","211685","HierDyhrqc39p8","sub13","01","8","iti","null","img/motor_1.png","65","motor","","","","","","",""
"596","212290","HierDyhrqc39p8","sub13","01","8","motor","75","img/motor_7.png","75","motor","7","181","1","0","0","",""
"null","212401","HierDyhrqc39p8","sub13","01","8","iti","null","img/motor_7.png","75","motor","","","","","","",""
"394","212800","HierDyhrqc39p8","sub13","01","8","motor","74","img/motor_6.png","74","motor","6","182","1","0","0","",""
"null","212908","HierDyhrqc39p8","sub13","01","8","iti","null","img/motor_6.png","74","motor","","","","","","",""
"512","213431","HierDyhrqc39p8","sub13","01","8","motor","75","img/motor_7.png","75","motor","7","183","1","0","0","",""
"null","213539","HierDyhrqc39p8","sub13","01","8","iti","null","img/motor_7.png","75","motor","","","","","","",""
"416","213964","HierDyhrqc39p8","sub13","01","8","motor","72","img/motor_5.png","72","motor","5","184","1","0","0","",""
"null","214073","HierDyhrqc39p8","sub13","01","8","iti","null","img/motor_5.png","72","motor","","","","","","",""
"450","214528","HierDyhrqc39p8","sub13","01","8","motor","76","img/motor_8.png","76","motor","8","185","1","0","0","",""
"null","214638","HierDyhrqc39p8","sub13","01","8","iti","null","img/motor_8.png","76","motor","","","","","","",""
"602","215249","HierDyhrqc39p8","sub13","01","8","motor","76","img/motor_8.png","76","motor","8","186","1","0","0","",""
"null","215361","HierDyhrqc39p8","sub13","01","8","iti","null","img/motor_8.png","76","motor","","","","","","",""
"467","215837","HierDyhrqc39p8","sub13","01","8","motor","65","img/motor_2.png","83","motor","2","187","0","1","0","",""
"326","216174","HierDyhrqc39p8","sub13","01","8","motorRepeat","83","img/motor_2.png","83","motor","2","187","1","0","0","",""
"null","216286","HierDyhrqc39p8","sub13","01","8","iti","null","img/motor_2.png","83","motor","","","","","","",""
"743","217039","HierDyhrqc39p8","sub13","01","8","motor","70","img/motor_7.png","75","motor","7","188","0","1","0","",""
"887","217934","HierDyhrqc39p8","sub13","01","8","motorRepeat","75","img/motor_7.png","75","motor","7","188","1","0","0","",""
"null","218047","HierDyhrqc39p8","sub13","01","8","iti","null","img/motor_7.png","75","motor","","","","","","",""
"822","218879","HierDyhrqc39p8","sub13","01","8","motor","83","img/motor_2.png","83","motor","2","189","1","0","0","",""
"null","218991","HierDyhrqc39p8","sub13","01","8","iti","null","img/motor_2.png","83","motor","","","","","","",""
"380","219381","HierDyhrqc39p8","sub13","01","8","motor","70","img/motor_4.png","70","motor","4","190","1","0","0","",""
"null","219492","HierDyhrqc39p8","sub13","01","8","iti","null","img/motor_4.png","70","motor","","","","","","",""
"324","219826","HierDyhrqc39p8","sub13","01","8","motor","65","img/motor_1.png","65","motor","1","191","1","0","0","",""
"null","219936","HierDyhrqc39p8","sub13","01","8","iti","null","img/motor_1.png","65","motor","","","","","","",""
"584","220531","HierDyhrqc39p8","sub13","01","8","motor","74","img/motor_6.png","74","motor","6","192","1","0","0","",""
"null","220642","HierDyhrqc39p8","sub13","01","8","iti","null","img/motor_6.png","74","motor","","","","","","",""
"450","221102","HierDyhrqc39p8","sub13","01","8","motor","76","img/motor_8.png","76","motor","8","193","1","0","0","",""
"null","221212","HierDyhrqc39p8","sub13","01","8","iti","null","img/motor_8.png","76","motor","","","","","","",""
"618","221839","HierDyhrqc39p8","sub13","01","8","motor","68","img/motor_3.png","68","motor","3","194","1","0","0","",""
"null","221949","HierDyhrqc39p8","sub13","01","8","iti","null","img/motor_3.png","68","motor","","","","","","",""
"449","222408","HierDyhrqc39p8","sub13","01","8","motor","74","img/motor_6.png","74","motor","6","195","1","0","0","",""
"null","222519","HierDyhrqc39p8","sub13","01","8","iti","null","img/motor_6.png","74","motor","","","","","","",""
"509","223038","HierDyhrqc39p8","sub13","01","8","motor","72","img/motor_5.png","72","motor","5","196","1","0","0","",""
"null","223150","HierDyhrqc39p8","sub13","01","8","iti","null","img/motor_5.png","72","motor","","","","","","",""
"400","223558","HierDyhrqc39p8","sub13","01","8","motor","74","img/motor_6.png","74","motor","6","197","1","0","0","",""
"null","223668","HierDyhrqc39p8","sub13","01","8","iti","null","img/motor_6.png","74","motor","","","","","","",""
"525","224205","HierDyhrqc39p8","sub13","01","8","motor","76","img/motor_8.png","76","motor","8","198","1","0","0","",""
"null","224316","HierDyhrqc39p8","sub13","01","8","iti","null","img/motor_8.png","76","motor","","","","","","",""
"465","224791","HierDyhrqc39p8","sub13","01","8","motor","65","img/motor_1.png","65","motor","1","199","1","0","0","",""
"null","224904","HierDyhrqc39p8","sub13","01","8","iti","null","img/motor_1.png","65","motor","","","","","","",""
"606","225519","HierDyhrqc39p8","sub13","01","8","motor","75","img/motor_7.png","75","motor","7","200","1","0","0","",""
"null","225630","HierDyhrqc39p8","sub13","01","8","iti","null","img/motor_7.png","75","motor","","","","","","",""
"541","226181","HierDyhrqc39p8","sub13","01","8","motor","76","img/motor_8.png","76","motor","8","201","1","0","0","",""
"null","226291","HierDyhrqc39p8","sub13","01","8","iti","null","img/motor_8.png","76","motor","","","","","","",""
"708","227009","HierDyhrqc39p8","sub13","01","8","motor","75","img/motor_7.png","75","motor","7","202","1","0","0","",""
"null","227120","HierDyhrqc39p8","sub13","01","8","iti","null","img/motor_7.png","75","motor","","","","","","",""
"528","227657","HierDyhrqc39p8","sub13","01","8","motor","75","img/motor_7.png","75","motor","7","203","1","0","0","",""
"null","227770","HierDyhrqc39p8","sub13","01","8","iti","null","img/motor_7.png","75","motor","","","","","","",""
"439","228218","HierDyhrqc39p8","sub13","01","8","motor","65","img/motor_1.png","65","motor","1","204","1","0","0","",""
"null","228327","HierDyhrqc39p8","sub13","01","8","iti","null","img/motor_1.png","65","motor","","","","","","",""
"488","228826","HierDyhrqc39p8","sub13","01","8","motor","65","img/motor_1.png","65","motor","1","205","1","0","0","",""
"null","228938","HierDyhrqc39p8","sub13","01","8","iti","null","img/motor_1.png","65","motor","","","","","","",""
"658","229606","HierDyhrqc39p8","sub13","01","8","motor","74","img/motor_6.png","74","motor","6","206","1","0","0","",""
"null","229716","HierDyhrqc39p8","sub13","01","8","iti","null","img/motor_6.png","74","motor","","","","","","",""
"463","230190","HierDyhrqc39p8","sub13","01","8","motor","76","img/motor_8.png","76","motor","8","207","1","0","0","",""
"null","230301","HierDyhrqc39p8","sub13","01","8","iti","null","img/motor_8.png","76","motor","","","","","","",""
"570","230883","HierDyhrqc39p8","sub13","01","8","motor","74","img/motor_6.png","74","motor","6","208","1","0","0","",""
"null","230992","HierDyhrqc39p8","sub13","01","8","iti","null","img/motor_6.png","74","motor","","","","","","",""
"668","231671","HierDyhrqc39p8","sub13","01","8","motor","75","img/motor_7.png","75","motor","7","209","1","0","0","",""
"null","231780","HierDyhrqc39p8","sub13","01","8","iti","null","img/motor_7.png","75","motor","","","","","","",""
"471","232262","HierDyhrqc39p8","sub13","01","8","motor","65","img/motor_1.png","65","motor","1","210","1","0","0","",""
"null","232373","HierDyhrqc39p8","sub13","01","8","iti","null","img/motor_1.png","65","motor","","","","","","",""
"527","232910","HierDyhrqc39p8","sub13","01","8","motor","74","img/motor_6.png","74","motor","6","211","1","0","0","",""
"null","233018","HierDyhrqc39p8","sub13","01","8","iti","null","img/motor_6.png","74","motor","","","","","","",""
"669","233698","HierDyhrqc39p8","sub13","01","8","motor","70","img/motor_4.png","70","motor","4","212","1","0","0","",""
"null","233807","HierDyhrqc39p8","sub13","01","8","iti","null","img/motor_4.png","70","motor","","","","","","",""
"407","234224","HierDyhrqc39p8","sub13","01","8","motor","72","img/motor_5.png","72","motor","5","213","1","0","0","",""
"null","234335","HierDyhrqc39p8","sub13","01","8","iti","null","img/motor_5.png","72","motor","","","","","","",""
"405","234751","HierDyhrqc39p8","sub13","01","8","motor","72","img/motor_5.png","72","motor","5","214","1","0","0","",""
"null","234863","HierDyhrqc39p8","sub13","01","8","iti","null","img/motor_5.png","72","motor","","","","","","",""
"502","235374","HierDyhrqc39p8","sub13","01","8","motor","70","img/motor_4.png","70","motor","4","215","1","0","0","",""
"null","235485","HierDyhrqc39p8","sub13","01","8","iti","null","img/motor_4.png","70","motor","","","","","","",""
"376","235872","HierDyhrqc39p8","sub13","01","8","motor","70","img/motor_4.png","70","motor","4","216","1","0","0","",""
"null","235982","HierDyhrqc39p8","sub13","01","8","iti","null","img/motor_4.png","70","motor","","","","","","",""
"574","236566","HierDyhrqc39p8","sub13","01","8","motor","75","img/motor_7.png","75","motor","7","217","1","0","0","",""
"null","236678","HierDyhrqc39p8","sub13","01","8","iti","null","img/motor_7.png","75","motor","","","","","","",""
"433","237121","HierDyhrqc39p8","sub13","01","8","motor","70","img/motor_4.png","70","motor","4","218","1","0","0","",""
"null","237232","HierDyhrqc39p8","sub13","01","8","iti","null","img/motor_4.png","70","motor","","","","","","",""
"662","237907","HierDyhrqc39p8","sub13","01","8","motor","75","img/motor_7.png","75","motor","7","219","1","0","0","",""
"null","238020","HierDyhrqc39p8","sub13","01","8","iti","null","img/motor_7.png","75","motor","","","","","","",""
"373","238406","HierDyhrqc39p8","sub13","01","8","motor","75","img/motor_7.png","75","motor","7","220","1","0","0","",""
"null","238517","HierDyhrqc39p8","sub13","01","8","iti","null","img/motor_7.png","75","motor","","","","","","",""
"569","239097","HierDyhrqc39p8","sub13","01","8","motor","83","img/motor_2.png","83","motor","2","221","1","0","0","",""
"null","239210","HierDyhrqc39p8","sub13","01","8","iti","null","img/motor_2.png","83","motor","","","","","","",""
"463","239683","HierDyhrqc39p8","sub13","01","8","motor","70","img/motor_4.png","70","motor","4","222","1","0","0","",""
"null","239795","HierDyhrqc39p8","sub13","01","8","iti","null","img/motor_4.png","70","motor","","","","","","",""
"541","240346","HierDyhrqc39p8","sub13","01","8","motor","68","img/motor_3.png","68","motor","3","223","1","0","0","",""
"8","240457","HierDyhrqc39p8","sub13","01","8","iti","70","img/motor_3.png","68","motor","","","","","","",""
"164","240632","HierDyhrqc39p8","sub13","01","8","motor","68","img/motor_7.png","75","motor","7","224","0","1","0","",""
"596","241239","HierDyhrqc39p8","sub13","01","8","motorRepeat","74","img/motor_7.png","75","motor","7","224","0","1","0","",""
"382","241632","HierDyhrqc39p8","sub13","01","8","motorRepeat","75","img/motor_7.png","75","motor","7","224","1","0","0","",""
"null","241746","HierDyhrqc39p8","sub13","01","8","iti","null","img/motor_7.png","75","motor","","","","","","",""
"414","242172","HierDyhrqc39p8","sub13","01","8","motor","76","img/motor_8.png","76","motor","8","225","1","0","0","",""
"null","242283","HierDyhrqc39p8","sub13","01","8","iti","null","img/motor_8.png","76","motor","","","","","","",""
"563","242857","HierDyhrqc39p8","sub13","01","8","motor","75","img/motor_7.png","75","motor","7","226","1","0","0","",""
"null","242970","HierDyhrqc39p8","sub13","01","8","iti","null","img/motor_7.png","75","motor","","","","","","",""
"386","243365","HierDyhrqc39p8","sub13","01","8","motor","75","img/motor_7.png","75","motor","7","227","1","0","0","",""
"null","243476","HierDyhrqc39p8","sub13","01","8","iti","null","img/motor_7.png","75","motor","","","","","","",""
"567","244055","HierDyhrqc39p8","sub13","01","8","motor","74","img/motor_6.png","74","motor","6","228","1","0","0","",""
"null","244164","HierDyhrqc39p8","sub13","01","8","iti","null","img/motor_6.png","74","motor","","","","","","",""
"582","244757","HierDyhrqc39p8","sub13","01","8","motor","74","img/motor_6.png","74","motor","6","229","1","0","0","",""
"null","244867","HierDyhrqc39p8","sub13","01","8","iti","null","img/motor_6.png","74","motor","","","","","","",""
"393","245269","HierDyhrqc39p8","sub13","01","8","motor","65","img/motor_1.png","65","motor","1","230","1","0","0","",""
"null","245379","HierDyhrqc39p8","sub13","01","8","iti","null","img/motor_1.png","65","motor","","","","","","",""
"628","246018","HierDyhrqc39p8","sub13","01","8","motor","74","img/motor_6.png","74","motor","6","231","1","0","0","",""
"null","246128","HierDyhrqc39p8","sub13","01","8","iti","null","img/motor_6.png","74","motor","","","","","","",""
"511","246650","HierDyhrqc39p8","sub13","01","8","motor","68","img/motor_3.png","68","motor","3","232","1","0","0","",""
"null","246761","HierDyhrqc39p8","sub13","01","8","iti","null","img/motor_3.png","68","motor","","","","","","",""
"459","247230","HierDyhrqc39p8","sub13","01","8","motor","72","img/motor_5.png","72","motor","5","233","1","0","0","",""
"null","247341","HierDyhrqc39p8","sub13","01","8","iti","null","img/motor_5.png","72","motor","","","","","","",""
"470","247821","HierDyhrqc39p8","sub13","01","8","motor","70","img/motor_4.png","70","motor","4","234","1","0","0","",""
"null","247932","HierDyhrqc39p8","sub13","01","8","iti","null","img/motor_4.png","70","motor","","","","","","",""
"493","248434","HierDyhrqc39p8","sub13","01","8","motor","76","img/motor_8.png","76","motor","8","235","1","0","0","",""
"null","248545","HierDyhrqc39p8","sub13","01","8","iti","null","img/motor_8.png","76","motor","","","","","","",""
"649","249205","HierDyhrqc39p8","sub13","01","8","motor","68","img/motor_3.png","68","motor","3","236","1","0","0","",""
"null","249315","HierDyhrqc39p8","sub13","01","8","iti","null","img/motor_3.png","68","motor","","","","","","",""
"645","249971","HierDyhrqc39p8","sub13","01","8","motor","72","img/motor_5.png","72","motor","5","237","1","0","0","",""
"null","250082","HierDyhrqc39p8","sub13","01","8","iti","null","img/motor_5.png","72","motor","","","","","","",""
"530","250624","HierDyhrqc39p8","sub13","01","8","motor","74","img/motor_6.png","74","motor","6","238","1","0","0","",""
"null","250735","HierDyhrqc39p8","sub13","01","8","iti","null","img/motor_6.png","74","motor","","","","","","",""
"739","251484","HierDyhrqc39p8","sub13","01","8","motor","68","img/motor_3.png","68","motor","3","239","1","0","0","",""
"null","251595","HierDyhrqc39p8","sub13","01","8","iti","null","img/motor_3.png","68","motor","","","","","","",""
"714","252317","HierDyhrqc39p8","sub13","01","8","motor","74","img/motor_6.png","74","motor","6","240","1","0","0","",""
"null","252429","HierDyhrqc39p8","sub13","01","8","iti","null","img/motor_6.png","74","motor","","","","","","",""
"457","252896","HierDyhrqc39p8","sub13","01","8","motor","68","img/motor_2.png","83","motor","2","241","0","1","0","",""
"346","253252","HierDyhrqc39p8","sub13","01","8","motorRepeat","83","img/motor_2.png","83","motor","2","241","1","0","0","",""
"null","253364","HierDyhrqc39p8","sub13","01","8","iti","null","img/motor_2.png","83","motor","","","","","","",""
"530","253906","HierDyhrqc39p8","sub13","01","8","motor","70","img/motor_4.png","70","motor","4","242","1","0","0","",""
"null","254018","HierDyhrqc39p8","sub13","01","8","iti","null","img/motor_4.png","70","motor","","","","","","",""
"383","254411","HierDyhrqc39p8","sub13","01","8","motor","70","img/motor_4.png","70","motor","4","243","1","0","0","",""
"null","254523","HierDyhrqc39p8","sub13","01","8","iti","null","img/motor_4.png","70","motor","","","","","","",""
"535","255067","HierDyhrqc39p8","sub13","01","8","motor","68","img/motor_3.png","68","motor","3","244","1","0","0","",""
"null","255178","HierDyhrqc39p8","sub13","01","8","iti","null","img/motor_3.png","68","motor","","","","","","",""
"428","255616","HierDyhrqc39p8","sub13","01","8","motor","70","img/motor_4.png","70","motor","4","245","1","0","0","",""
"null","255727","HierDyhrqc39p8","sub13","01","8","iti","null","img/motor_4.png","70","motor","","","","","","",""
"508","256245","HierDyhrqc39p8","sub13","01","8","motor","74","img/motor_6.png","74","motor","6","246","1","0","0","",""
"null","256355","HierDyhrqc39p8","sub13","01","8","iti","null","img/motor_6.png","74","motor","","","","","","",""
"430","256795","HierDyhrqc39p8","sub13","01","8","motor","65","img/motor_1.png","65","motor","1","247","1","0","0","",""
"null","256906","HierDyhrqc39p8","sub13","01","8","iti","null","img/motor_1.png","65","motor","","","","","","",""
"468","257386","HierDyhrqc39p8","sub13","01","8","motor","76","img/motor_8.png","76","motor","8","248","1","0","0","",""
"null","257495","HierDyhrqc39p8","sub13","01","8","iti","null","img/motor_8.png","76","motor","","","","","","",""
"559","258063","HierDyhrqc39p8","sub13","01","8","motor","68","img/motor_3.png","68","motor","3","249","1","0","0","",""
"null","258175","HierDyhrqc39p8","sub13","01","8","iti","null","img/motor_3.png","68","motor","","","","","","",""
"596","258780","HierDyhrqc39p8","sub13","01","8","motor","75","img/motor_7.png","75","motor","7","250","1","0","0","",""
"null","258892","HierDyhrqc39p8","sub13","01","8","iti","null","img/motor_7.png","75","motor","","","","","","",""
"491","259392","HierDyhrqc39p8","sub13","01","8","motor","68","img/motor_3.png","68","motor","3","251","1","0","0","",""
"null","259501","HierDyhrqc39p8","sub13","01","8","iti","null","img/motor_3.png","68","motor","","","","","","",""
"452","259962","HierDyhrqc39p8","sub13","01","8","motor","83","img/motor_2.png","83","motor","2","252","1","0","0","",""
"null","260073","HierDyhrqc39p8","sub13","01","8","iti","null","img/motor_2.png","83","motor","","","","","","",""
"570","260654","HierDyhrqc39p8","sub13","01","8","motor","75","img/motor_7.png","75","motor","7","253","1","0","0","",""
"null","260765","HierDyhrqc39p8","sub13","01","8","iti","null","img/motor_7.png","75","motor","","","","","","",""
"491","261267","HierDyhrqc39p8","sub13","01","8","motor","83","img/motor_2.png","83","motor","2","254","1","0","0","",""
"null","261379","HierDyhrqc39p8","sub13","01","8","iti","null","img/motor_2.png","83","motor","","","","","","",""
"585","261975","HierDyhrqc39p8","sub13","01","8","motor","75","img/motor_7.png","75","motor","7","255","1","0","0","",""
"null","262087","HierDyhrqc39p8","sub13","01","8","iti","null","img/motor_7.png","75","motor","","","","","","",""
"439","262535","HierDyhrqc39p8","sub13","01","8","motor","76","img/motor_8.png","76","motor","8","256","1","0","0","",""
"null","262646","HierDyhrqc39p8","sub13","01","8","iti","null","img/motor_8.png","76","motor","","","","","","",""
"418","263073","HierDyhrqc39p8","sub13","01","8","motor","65","img/motor_1.png","65","motor","1","257","1","0","0","",""
"null","263185","HierDyhrqc39p8","sub13","01","8","iti","null","img/motor_1.png","65","motor","","","","","","",""
"445","263640","HierDyhrqc39p8","sub13","01","8","motor","76","img/motor_8.png","76","motor","8","258","1","0","0","",""
"null","263748","HierDyhrqc39p8","sub13","01","8","iti","null","img/motor_8.png","76","motor","","","","","","",""
"468","264227","HierDyhrqc39p8","sub13","01","8","motor","70","img/motor_4.png","70","motor","4","259","1","0","0","",""
"null","264337","HierDyhrqc39p8","sub13","01","8","iti","null","img/motor_4.png","70","motor","","","","","","",""
"594","264940","HierDyhrqc39p8","sub13","01","8","motor","83","img/motor_2.png","83","motor","2","260","1","0","0","",""
"null","265052","HierDyhrqc39p8","sub13","01","8","iti","null","img/motor_2.png","83","motor","","","","","","",""
"542","265605","HierDyhrqc39p8","sub13","01","8","motor","74","img/motor_6.png","74","motor","6","261","1","0","0","",""
"null","265716","HierDyhrqc39p8","sub13","01","8","iti","null","img/motor_6.png","74","motor","","","","","","",""
"438","266164","HierDyhrqc39p8","sub13","01","8","motor","65","img/motor_1.png","65","motor","1","262","1","0","0","",""
"null","266275","HierDyhrqc39p8","sub13","01","8","iti","null","img/motor_1.png","65","motor","","","","","","",""
"622","266906","HierDyhrqc39p8","sub13","01","8","motor","75","img/motor_7.png","75","motor","7","263","1","0","0","",""
"null","267017","HierDyhrqc39p8","sub13","01","8","iti","null","img/motor_7.png","75","motor","","","","","","",""
"487","267515","HierDyhrqc39p8","sub13","01","8","motor","76","img/motor_8.png","76","motor","8","264","1","0","0","",""
"null","267625","HierDyhrqc39p8","sub13","01","8","iti","null","img/motor_8.png","76","motor","","","","","","",""
"530","268162","HierDyhrqc39p8","sub13","01","8","motor","76","img/motor_8.png","76","motor","8","265","1","0","0","",""
"null","268270","HierDyhrqc39p8","sub13","01","8","iti","null","img/motor_8.png","76","motor","","","","","","",""
"477","268758","HierDyhrqc39p8","sub13","01","8","motor","70","img/motor_4.png","70","motor","4","266","1","0","0","",""
"null","268867","HierDyhrqc39p8","sub13","01","8","iti","null","img/motor_4.png","70","motor","","","","","","",""
"683","269559","HierDyhrqc39p8","sub13","01","8","motor","75","img/motor_7.png","75","motor","7","267","1","0","0","",""
"null","269669","HierDyhrqc39p8","sub13","01","8","iti","null","img/motor_7.png","75","motor","","","","","","",""
"433","270113","HierDyhrqc39p8","sub13","01","8","motor","65","img/motor_1.png","65","motor","1","268","1","0","0","",""
"null","270223","HierDyhrqc39p8","sub13","01","8","iti","null","img/motor_1.png","65","motor","","","","","","",""
"562","270797","HierDyhrqc39p8","sub13","01","8","motor","72","img/motor_5.png","72","motor","5","269","1","0","0","",""
"null","270909","HierDyhrqc39p8","sub13","01","8","iti","null","img/motor_5.png","72","motor","","","","","","",""
"624","271543","HierDyhrqc39p8","sub13","01","8","motor","75","img/motor_7.png","75","motor","7","270","1","0","0","",""
"null","271655","HierDyhrqc39p8","sub13","01","8","iti","null","img/motor_7.png","75","motor","","","","","","",""
"480","272146","HierDyhrqc39p8","sub13","01","8","motor","72","img/motor_5.png","72","motor","5","271","1","0","0","",""
"null","272257","HierDyhrqc39p8","sub13","01","8","iti","null","img/motor_5.png","72","motor","","","","","","",""
"593","272860","HierDyhrqc39p8","sub13","01","8","motor","68","img/motor_3.png","68","motor","3","272","1","0","0","",""
"null","272972","HierDyhrqc39p8","sub13","01","8","iti","null","img/motor_3.png","68","motor","","","","","","",""
"363","273345","HierDyhrqc39p8","sub13","01","8","motor","68","img/motor_3.png","68","motor","3","273","1","0","0","",""
"null","273457","HierDyhrqc39p8","sub13","01","8","iti","null","img/motor_3.png","68","motor","","","","","","",""
"438","273906","HierDyhrqc39p8","sub13","01","8","motor","76","img/motor_8.png","76","motor","8","274","1","0","0","",""
"null","274018","HierDyhrqc39p8","sub13","01","8","iti","null","img/motor_8.png","76","motor","","","","","","",""
"515","274544","HierDyhrqc39p8","sub13","01","8","motor","74","img/motor_6.png","74","motor","6","275","1","0","0","",""
"null","274655","HierDyhrqc39p8","sub13","01","8","iti","null","img/motor_6.png","74","motor","","","","","","",""
"622","275287","HierDyhrqc39p8","sub13","01","8","motor","75","img/motor_7.png","75","motor","7","276","1","0","0","",""
"null","275399","HierDyhrqc39p8","sub13","01","8","iti","null","img/motor_7.png","75","motor","","","","","","",""
"470","275879","HierDyhrqc39p8","sub13","01","8","motor","65","img/motor_1.png","65","motor","1","277","1","0","0","",""
"null","275990","HierDyhrqc39p8","sub13","01","8","iti","null","img/motor_1.png","65","motor","","","","","","",""
"426","276427","HierDyhrqc39p8","sub13","01","8","motor","70","img/motor_4.png","70","motor","4","278","1","0","0","",""
"null","276538","HierDyhrqc39p8","sub13","01","8","iti","null","img/motor_4.png","70","motor","","","","","","",""
"548","277098","HierDyhrqc39p8","sub13","01","8","motor","68","img/motor_3.png","68","motor","3","279","1","0","0","",""
"null","277207","HierDyhrqc39p8","sub13","01","8","iti","null","img/motor_3.png","68","motor","","","","","","",""
"629","277847","HierDyhrqc39p8","sub13","01","8","motor","70","img/motor_4.png","70","motor","4","280","1","0","0","",""
"null","277958","HierDyhrqc39p8","sub13","01","8","iti","null","img/motor_4.png","70","motor","","","","","","",""
"415","278384","HierDyhrqc39p8","sub13","01","8","motor","65","img/motor_1.png","65","motor","1","281","1","0","0","",""
"null","278495","HierDyhrqc39p8","sub13","01","8","iti","null","img/motor_1.png","65","motor","","","","","","",""
"383","278889","HierDyhrqc39p8","sub13","01","8","motor","68","img/motor_3.png","68","motor","3","282","1","0","0","",""
"null","279000","HierDyhrqc39p8","sub13","01","8","iti","null","img/motor_3.png","68","motor","","","","","","",""
"406","279416","HierDyhrqc39p8","sub13","01","8","motor","74","img/motor_6.png","74","motor","6","283","1","0","0","",""
"null","279527","HierDyhrqc39p8","sub13","01","8","iti","null","img/motor_6.png","74","motor","","","","","","",""
"608","280144","HierDyhrqc39p8","sub13","01","8","motor","75","img/motor_7.png","75","motor","7","284","1","0","0","",""
"null","280256","HierDyhrqc39p8","sub13","01","8","iti","null","img/motor_7.png","75","motor","","","","","","",""
"544","280809","HierDyhrqc39p8","sub13","01","8","motor","70","img/motor_4.png","70","motor","4","285","1","0","0","",""
"null","280922","HierDyhrqc39p8","sub13","01","8","iti","null","img/motor_4.png","70","motor","","","","","","",""
"772","281704","HierDyhrqc39p8","sub13","01","8","motor","75","img/motor_7.png","75","motor","7","286","1","0","0","",""
"null","281815","HierDyhrqc39p8","sub13","01","8","iti","null","img/motor_7.png","75","motor","","","","","","",""
"421","282246","HierDyhrqc39p8","sub13","01","8","motor","65","img/motor_1.png","65","motor","1","287","1","0","0","",""
"null","282356","HierDyhrqc39p8","sub13","01","8","iti","null","img/motor_1.png","65","motor","","","","","","",""
"608","282974","HierDyhrqc39p8","sub13","01","8","motor","83","img/motor_2.png","83","motor","2","288","1","0","0","",""
"null","283086","HierDyhrqc39p8","sub13","01","8","iti","null","img/motor_2.png","83","motor","","","","","","",""
"350","283449","HierDyhrqc39p8","sub13","01","8","motor","83","img/motor_2.png","83","motor","2","289","1","0","0","",""
"null","283560","HierDyhrqc39p8","sub13","01","8","iti","null","img/motor_2.png","83","motor","","","","","","",""
"468","284039","HierDyhrqc39p8","sub13","01","8","motor","70","img/motor_5.png","72","motor","5","290","0","1","0","",""
"313","284363","HierDyhrqc39p8","sub13","01","8","motorRepeat","72","img/motor_5.png","72","motor","5","290","1","0","0","",""
"null","284475","HierDyhrqc39p8","sub13","01","8","iti","null","img/motor_5.png","72","motor","","","","","","",""
"450","284936","HierDyhrqc39p8","sub13","01","8","motor","83","img/motor_2.png","83","motor","2","291","1","0","0","",""
"null","285049","HierDyhrqc39p8","sub13","01","8","iti","null","img/motor_2.png","83","motor","","","","","","",""
"358","285417","HierDyhrqc39p8","sub13","01","8","motor","65","img/motor_1.png","65","motor","1","292","1","0","0","",""
"null","285530","HierDyhrqc39p8","sub13","01","8","iti","null","img/motor_1.png","65","motor","","","","","","",""
"498","286039","HierDyhrqc39p8","sub13","01","8","motor","68","img/motor_3.png","68","motor","3","293","1","0","0","",""
"null","286151","HierDyhrqc39p8","sub13","01","8","iti","null","img/motor_3.png","68","motor","","","","","","",""
"445","286607","HierDyhrqc39p8","sub13","01","8","motor","76","img/motor_8.png","76","motor","8","294","1","0","0","",""
"null","286716","HierDyhrqc39p8","sub13","01","8","iti","null","img/motor_8.png","76","motor","","","","","","",""
"407","287134","HierDyhrqc39p8","sub13","01","8","motor","65","img/motor_1.png","65","motor","1","295","1","0","0","",""
"null","287246","HierDyhrqc39p8","sub13","01","8","iti","null","img/motor_1.png","65","motor","","","","","","",""
"499","287754","HierDyhrqc39p8","sub13","01","8","motor","83","img/motor_2.png","83","motor","2","296","1","0","0","",""
"null","287866","HierDyhrqc39p8","sub13","01","8","iti","null","img/motor_2.png","83","motor","","","","","","",""
"521","288398","HierDyhrqc39p8","sub13","01","8","motor","65","img/motor_1.png","65","motor","1","297","1","0","0","",""
"null","288510","HierDyhrqc39p8","sub13","01","8","iti","null","img/motor_1.png","65","motor","","","","","","",""
"641","289161","HierDyhrqc39p8","sub13","01","8","motor","72","img/motor_5.png","72","motor","5","298","1","0","0","",""
"null","289273","HierDyhrqc39p8","sub13","01","8","iti","null","img/motor_5.png","72","motor","","","","","","",""
"428","289712","HierDyhrqc39p8","sub13","01","8","motor","65","img/motor_1.png","65","motor","1","299","1","0","0","",""
"null","289822","HierDyhrqc39p8","sub13","01","8","iti","null","img/motor_1.png","65","motor","","","","","","",""
"408","290240","HierDyhrqc39p8","sub13","01","8","motor","76","img/motor_8.png","76","motor","8","300","1","0","0","",""
"null","290351","HierDyhrqc39p8","sub13","01","8","iti","null","img/motor_8.png","76","motor","","","","","","",""
"370","290733","HierDyhrqc39p8","sub13","01","8","motor","65","img/motor_1.png","65","motor","1","301","1","0","0","",""
"null","290843","HierDyhrqc39p8","sub13","01","8","iti","null","img/motor_1.png","65","motor","","","","","","",""
"525","291378","HierDyhrqc39p8","sub13","01","8","motor","83","img/motor_2.png","83","motor","2","302","1","0","0","",""
"null","291489","HierDyhrqc39p8","sub13","01","8","iti","null","img/motor_2.png","83","motor","","","","","","",""
"432","291932","HierDyhrqc39p8","sub13","01","8","motor","70","img/motor_4.png","70","motor","4","303","1","0","0","",""
"null","292045","HierDyhrqc39p8","sub13","01","8","iti","null","img/motor_4.png","70","motor","","","","","","",""
"552","292607","HierDyhrqc39p8","sub13","01","8","motor","68","img/motor_3.png","68","motor","3","304","1","0","0","",""
"null","292717","HierDyhrqc39p8","sub13","01","8","iti","null","img/motor_3.png","68","motor","","","","","","",""
"413","293140","HierDyhrqc39p8","sub13","01","8","motor","68","img/motor_3.png","68","motor","3","305","1","0","0","",""
"null","293251","HierDyhrqc39p8","sub13","01","8","iti","null","img/motor_3.png","68","motor","","","","","","",""
"455","293716","HierDyhrqc39p8","sub13","01","8","motor","83","img/motor_2.png","83","motor","2","306","1","0","0","",""
"null","293827","HierDyhrqc39p8","sub13","01","8","iti","null","img/motor_2.png","83","motor","","","","","","",""
"732","294567","HierDyhrqc39p8","sub13","01","8","motor","75","img/motor_7.png","75","motor","7","307","1","0","0","",""
"null","294676","HierDyhrqc39p8","sub13","01","8","iti","null","img/motor_7.png","75","motor","","","","","","",""
"417","295102","HierDyhrqc39p8","sub13","01","8","motor","76","img/motor_8.png","76","motor","8","308","1","0","0","",""
"null","295213","HierDyhrqc39p8","sub13","01","8","iti","null","img/motor_8.png","76","motor","","","","","","",""
"595","295817","HierDyhrqc39p8","sub13","01","8","motor","70","img/motor_4.png","70","motor","4","309","1","0","0","",""
"null","295930","HierDyhrqc39p8","sub13","01","8","iti","null","img/motor_4.png","70","motor","","","","","","",""
"391","296328","HierDyhrqc39p8","sub13","01","8","motor","68","img/motor_3.png","68","motor","3","310","1","0","0","",""
"null","296440","HierDyhrqc39p8","sub13","01","8","iti","null","img/motor_3.png","68","motor","","","","","","",""
"699","297149","HierDyhrqc39p8","sub13","01","8","motor","74","img/motor_6.png","74","motor","6","311","1","0","0","",""
"null","297262","HierDyhrqc39p8","sub13","01","8","iti","null","img/motor_6.png","74","motor","","","","","","",""
"470","297743","HierDyhrqc39p8","sub13","01","8","motor","76","img/motor_8.png","76","motor","8","312","1","0","0","",""
"null","297854","HierDyhrqc39p8","sub13","01","8","iti","null","img/motor_8.png","76","motor","","","","","","",""
"593","298459","HierDyhrqc39p8","sub13","01","8","motor","83","img/motor_2.png","83","motor","2","313","1","0","0","",""
"null","298568","HierDyhrqc39p8","sub13","01","8","iti","null","img/motor_2.png","83","motor","","","","","","",""
"408","298987","HierDyhrqc39p8","sub13","01","8","motor","65","img/motor_1.png","65","motor","1","314","1","0","0","",""
"null","299098","HierDyhrqc39p8","sub13","01","8","iti","null","img/motor_1.png","65","motor","","","","","","",""
"481","299589","HierDyhrqc39p8","sub13","01","8","motor","68","img/motor_3.png","68","motor","3","315","1","0","0","",""
"null","299701","HierDyhrqc39p8","sub13","01","8","iti","null","img/motor_3.png","68","motor","","","","","","",""
"473","300185","HierDyhrqc39p8","sub13","01","8","motor","76","img/motor_8.png","76","motor","8","316","1","0","0","",""
"null","300297","HierDyhrqc39p8","sub13","01","8","iti","null","img/motor_8.png","76","motor","","","","","","",""
"680","300987","HierDyhrqc39p8","sub13","01","8","motor","70","img/motor_4.png","70","motor","4","317","1","0","0","",""
"null","301100","HierDyhrqc39p8","sub13","01","8","iti","null","img/motor_4.png","70","motor","","","","","","",""
"565","301675","HierDyhrqc39p8","sub13","01","8","motor","74","img/motor_6.png","74","motor","6","318","1","0","0","",""
"null","301790","HierDyhrqc39p8","sub13","01","8","iti","null","img/motor_6.png","74","motor","","","","","","",""
"467","302270","HierDyhrqc39p8","sub13","01","8","motor","76","img/motor_8.png","76","motor","8","319","1","0","0","",""
"null","302383","HierDyhrqc39p8","sub13","01","8","iti","null","img/motor_8.png","76","motor","","","","","","",""
"543","302939","HierDyhrqc39p8","sub13","01","8","motor","75","img/motor_7.png","75","motor","7","320","1","0","0","",""
"null","303052","HierDyhrqc39p8","sub13","01","8","iti","null","img/motor_7.png","75","motor","","","","","","",""
"529","303592","HierDyhrqc39p8","sub13","01","8","motor","72","img/motor_5.png","72","motor","5","321","1","0","0","",""
"null","303705","HierDyhrqc39p8","sub13","01","8","iti","null","img/motor_5.png","72","motor","","","","","","",""
"640","304356","HierDyhrqc39p8","sub13","01","8","motor","75","img/motor_7.png","75","motor","7","322","1","0","0","",""
"null","304469","HierDyhrqc39p8","sub13","01","8","iti","null","img/motor_7.png","75","motor","","","","","","",""
"401","304881","HierDyhrqc39p8","sub13","01","8","motor","65","img/motor_1.png","65","motor","1","323","1","0","0","",""
"null","304992","HierDyhrqc39p8","sub13","01","8","iti","null","img/motor_1.png","65","motor","","","","","","",""
"427","305431","HierDyhrqc39p8","sub13","01","8","motor","70","img/motor_4.png","70","motor","4","324","1","0","0","",""
"null","305543","HierDyhrqc39p8","sub13","01","8","iti","null","img/motor_4.png","70","motor","","","","","","",""
"477","306029","HierDyhrqc39p8","sub13","01","8","motor","65","img/motor_1.png","65","motor","1","325","1","0","0","",""
"null","306143","HierDyhrqc39p8","sub13","01","8","iti","null","img/motor_1.png","65","motor","","","","","","",""
"908","307066","HierDyhrqc39p8","sub13","01","8","motor","70","img/motor_4.png","70","motor","4","326","1","0","0","",""
"null","307178","HierDyhrqc39p8","sub13","01","8","iti","null","img/motor_4.png","70","motor","","","","","","",""
"467","307658","HierDyhrqc39p8","sub13","01","8","motor","76","img/motor_8.png","76","motor","8","327","1","0","0","",""
"null","307770","HierDyhrqc39p8","sub13","01","8","iti","null","img/motor_8.png","76","motor","","","","","","",""
"474","308255","HierDyhrqc39p8","sub13","01","8","motor","65","img/motor_1.png","65","motor","1","328","1","0","0","",""
"null","308367","HierDyhrqc39p8","sub13","01","8","iti","null","img/motor_1.png","65","motor","","","","","","",""
"544","308923","HierDyhrqc39p8","sub13","01","8","motor","83","img/motor_2.png","83","motor","2","329","1","0","0","",""
"null","309036","HierDyhrqc39p8","sub13","01","8","iti","null","img/motor_2.png","83","motor","","","","","","",""
"428","309475","HierDyhrqc39p8","sub13","01","8","motor","76","img/motor_8.png","76","motor","8","330","1","0","0","",""
"null","309587","HierDyhrqc39p8","sub13","01","8","iti","null","img/motor_8.png","76","motor","","","","","","",""
"568","310166","HierDyhrqc39p8","sub13","01","8","motor","76","img/motor_8.png","76","motor","8","331","1","0","0","",""
"null","310278","HierDyhrqc39p8","sub13","01","8","iti","null","img/motor_8.png","76","motor","","","","","","",""
"413","310703","HierDyhrqc39p8","sub13","01","8","motor","74","img/motor_6.png","74","motor","6","332","1","0","0","",""
"null","310815","HierDyhrqc39p8","sub13","01","8","iti","null","img/motor_6.png","74","motor","","","","","","",""
"608","311435","HierDyhrqc39p8","sub13","01","8","motor","75","img/motor_7.png","75","motor","7","333","1","0","0","",""
"null","311547","HierDyhrqc39p8","sub13","01","8","iti","null","img/motor_7.png","75","motor","","","","","","",""
"554","312112","HierDyhrqc39p8","sub13","01","8","motor","72","img/motor_5.png","72","motor","5","334","1","0","0","",""
"null","312224","HierDyhrqc39p8","sub13","01","8","iti","null","img/motor_5.png","72","motor","","","","","","",""
"536","312770","HierDyhrqc39p8","sub13","01","8","motor","74","img/motor_6.png","74","motor","6","335","1","0","0","",""
"null","312883","HierDyhrqc39p8","sub13","01","8","iti","null","img/motor_6.png","74","motor","","","","","","",""
"534","313428","HierDyhrqc39p8","sub13","01","8","motor","70","img/motor_4.png","70","motor","4","336","1","0","0","",""
"null","313539","HierDyhrqc39p8","sub13","01","8","iti","null","img/motor_4.png","70","motor","","","","","","",""
"498","314049","HierDyhrqc39p8","sub13","01","8","motor","76","img/motor_8.png","76","motor","8","337","1","0","0","",""
"null","314161","HierDyhrqc39p8","sub13","01","8","iti","null","img/motor_8.png","76","motor","","","","","","",""
"602","314774","HierDyhrqc39p8","sub13","01","8","motor","68","img/motor_3.png","68","motor","3","338","1","0","0","",""
"null","314885","HierDyhrqc39p8","sub13","01","8","iti","null","img/motor_3.png","68","motor","","","","","","",""
"478","315374","HierDyhrqc39p8","sub13","01","8","motor","83","img/motor_2.png","83","motor","2","339","1","0","0","",""
"null","315485","HierDyhrqc39p8","sub13","01","8","iti","null","img/motor_2.png","83","motor","","","","","","",""
"512","316009","HierDyhrqc39p8","sub13","01","8","motor","74","img/motor_6.png","74","motor","6","340","1","0","0","",""
"null","316121","HierDyhrqc39p8","sub13","01","8","iti","null","img/motor_6.png","74","motor","","","","","","",""
"502","316634","HierDyhrqc39p8","sub13","01","8","motor","75","img/motor_7.png","75","motor","7","341","1","0","0","",""
"null","316747","HierDyhrqc39p8","sub13","01","8","iti","null","img/motor_7.png","75","motor","","","","","","",""
"549","317307","HierDyhrqc39p8","sub13","01","8","motor","83","img/motor_2.png","83","motor","2","342","1","0","0","",""
"null","317417","HierDyhrqc39p8","sub13","01","8","iti","null","img/motor_2.png","83","motor","","","","","","",""
"536","317965","HierDyhrqc39p8","sub13","01","8","motor","75","img/motor_7.png","75","motor","7","343","1","0","0","",""
"null","318075","HierDyhrqc39p8","sub13","01","8","iti","null","img/motor_7.png","75","motor","","","","","","",""
"646","318731","HierDyhrqc39p8","sub13","01","8","motor","75","img/motor_7.png","75","motor","7","344","1","0","0","",""
"null","318842","HierDyhrqc39p8","sub13","01","8","iti","null","img/motor_7.png","75","motor","","","","","","",""
"481","319333","HierDyhrqc39p8","sub13","01","8","motor","72","img/motor_5.png","72","motor","5","345","1","0","0","",""
"null","319445","HierDyhrqc39p8","sub13","01","8","iti","null","img/motor_5.png","72","motor","","","","","","",""
"380","319833","HierDyhrqc39p8","sub13","01","8","motor","74","img/motor_7.png","75","motor","7","346","0","1","0","",""
"387","320231","HierDyhrqc39p8","sub13","01","8","motorRepeat","75","img/motor_7.png","75","motor","7","346","1","0","0","",""
"null","320343","HierDyhrqc39p8","sub13","01","8","iti","null","img/motor_7.png","75","motor","","","","","","",""
"764","321118","HierDyhrqc39p8","sub13","01","8","motor","70","img/motor_5.png","72","motor","5","347","0","1","0","",""
"317","321446","HierDyhrqc39p8","sub13","01","8","motorRepeat","72","img/motor_5.png","72","motor","5","347","1","0","0","",""
"null","321557","HierDyhrqc39p8","sub13","01","8","iti","null","img/motor_5.png","72","motor","","","","","","",""
"555","322122","HierDyhrqc39p8","sub13","01","8","motor","72","img/motor_5.png","72","motor","5","348","1","0","0","",""
"null","322234","HierDyhrqc39p8","sub13","01","8","iti","null","img/motor_5.png","72","motor","","","","","","",""
"400","322645","HierDyhrqc39p8","sub13","01","8","motor","76","img/motor_8.png","76","motor","8","349","1","0","0","",""
"null","322756","HierDyhrqc39p8","sub13","01","8","iti","null","img/motor_8.png","76","motor","","","","","","",""
"489","323256","HierDyhrqc39p8","sub13","01","8","motor","74","img/motor_6.png","74","motor","6","350","1","0","0","",""
"null","323367","HierDyhrqc39p8","sub13","01","8","iti","null","img/motor_6.png","74","motor","","","","","","",""
"545","323923","HierDyhrqc39p8","sub13","01","8","motor","83","img/motor_2.png","83","motor","2","351","1","0","0","",""
"null","324034","HierDyhrqc39p8","sub13","01","8","iti","null","img/motor_2.png","83","motor","","","","","","",""
"517","324562","HierDyhrqc39p8","sub13","01","8","motor","72","img/motor_5.png","72","motor","5","352","1","0","0","",""
"9","324673","HierDyhrqc39p8","sub13","01","8","iti","76","img/motor_5.png","72","motor","","","","","","",""
"815","325498","HierDyhrqc39p8","sub13","01","8","motor","70","img/motor_4.png","70","motor","4","353","1","0","0","",""
"null","325611","HierDyhrqc39p8","sub13","01","8","iti","null","img/motor_4.png","70","motor","","","","","","",""
"591","326214","HierDyhrqc39p8","sub13","01","8","motor","72","img/motor_5.png","72","motor","5","354","1","0","0","",""
"null","326325","HierDyhrqc39p8","sub13","01","8","iti","null","img/motor_5.png","72","motor","","","","","","",""
"526","326862","HierDyhrqc39p8","sub13","01","8","motor","74","img/motor_6.png","74","motor","6","355","1","0","0","",""
"null","326974","HierDyhrqc39p8","sub13","01","8","iti","null","img/motor_6.png","74","motor","","","","","","",""
"561","327547","HierDyhrqc39p8","sub13","01","8","motor","76","img/motor_8.png","76","motor","8","356","1","0","0","",""
"null","327659","HierDyhrqc39p8","sub13","01","8","iti","null","img/motor_8.png","76","motor","","","","","","",""
"471","328141","HierDyhrqc39p8","sub13","01","8","motor","75","img/motor_7.png","75","motor","7","357","1","0","0","",""
"null","328254","HierDyhrqc39p8","sub13","01","8","iti","null","img/motor_7.png","75","motor","","","","","","",""
"527","328792","HierDyhrqc39p8","sub13","01","8","motor","74","img/motor_6.png","74","motor","6","358","1","0","0","",""
"null","328904","HierDyhrqc39p8","sub13","01","8","iti","null","img/motor_6.png","74","motor","","","","","","",""
"628","329543","HierDyhrqc39p8","sub13","01","8","motor","83","img/motor_2.png","83","motor","2","359","1","0","0","",""
"null","329655","HierDyhrqc39p8","sub13","01","8","iti","null","img/motor_2.png","83","motor","","","","","","",""
"580","330246","HierDyhrqc39p8","sub13","01","8","motor","75","img/motor_7.png","75","motor","7","360","1","0","0","",""
"null","330359","HierDyhrqc39p8","sub13","01","8","iti","null","img/motor_7.png","75","motor","","","","","","",""
"568","330940","HierDyhrqc39p8","sub13","01","8","motor","68","img/motor_3.png","68","motor","3","361","1","0","0","",""
"null","331053","HierDyhrqc39p8","sub13","01","8","iti","null","img/motor_3.png","68","motor","","","","","","",""
"538","331602","HierDyhrqc39p8","sub13","01","8","motor","74","img/motor_6.png","74","motor","6","362","1","0","0","",""
"null","331710","HierDyhrqc39p8","sub13","01","8","iti","null","img/motor_6.png","74","motor","","","","","","",""
"443","332166","HierDyhrqc39p8","sub13","01","8","motor","72","img/motor_5.png","72","motor","5","363","1","0","0","",""
"null","332276","HierDyhrqc39p8","sub13","01","8","iti","null","img/motor_5.png","72","motor","","","","","","",""
"528","332814","HierDyhrqc39p8","sub13","01","8","motor","68","img/motor_3.png","68","motor","3","364","1","0","0","",""
"null","332926","HierDyhrqc39p8","sub13","01","8","iti","null","img/motor_3.png","68","motor","","","","","","",""
"469","333407","HierDyhrqc39p8","sub13","01","8","motor","76","img/motor_8.png","76","motor","8","365","1","0","0","",""
"null","333518","HierDyhrqc39p8","sub13","01","8","iti","null","img/motor_8.png","76","motor","","","","","","",""
"666","334195","HierDyhrqc39p8","sub13","01","8","motor","68","img/motor_3.png","68","motor","3","366","1","0","0","",""
"null","334308","HierDyhrqc39p8","sub13","01","8","iti","null","img/motor_3.png","68","motor","","","","","","",""
"520","334837","HierDyhrqc39p8","sub13","01","8","motor","72","img/motor_5.png","72","motor","5","367","1","0","0","",""
"null","334948","HierDyhrqc39p8","sub13","01","8","iti","null","img/motor_5.png","72","motor","","","","","","",""
"466","335424","HierDyhrqc39p8","sub13","01","8","motor","74","img/motor_6.png","74","motor","6","368","1","0","0","",""
"null","335537","HierDyhrqc39p8","sub13","01","8","iti","null","img/motor_6.png","74","motor","","","","","","",""
"524","336071","HierDyhrqc39p8","sub13","01","8","motor","68","img/motor_4.png","70","motor","4","369","0","1","0","",""
"332","336414","HierDyhrqc39p8","sub13","01","8","motorRepeat","70","img/motor_4.png","70","motor","4","369","1","0","0","",""
"null","336526","HierDyhrqc39p8","sub13","01","8","iti","null","img/motor_4.png","70","motor","","","","","","",""
"640","337175","HierDyhrqc39p8","sub13","01","8","motor","74","img/motor_6.png","74","motor","6","370","1","0","0","",""
"null","337287","HierDyhrqc39p8","sub13","01","8","iti","null","img/motor_6.png","74","motor","","","","","","",""
"366","337664","HierDyhrqc39p8","sub13","01","8","motor","72","img/motor_5.png","72","motor","5","371","1","0","0","",""
"null","337775","HierDyhrqc39p8","sub13","01","8","iti","null","img/motor_5.png","72","motor","","","","","","",""
"725","338511","HierDyhrqc39p8","sub13","01","8","motor","83","img/motor_2.png","83","motor","2","372","1","0","0","",""
"null","338624","HierDyhrqc39p8","sub13","01","8","iti","null","img/motor_2.png","83","motor","","","","","","",""
"404","339038","HierDyhrqc39p8","sub13","01","8","motor","83","img/motor_2.png","83","motor","2","373","1","0","0","",""
"null","339151","HierDyhrqc39p8","sub13","01","8","iti","null","img/motor_2.png","83","motor","","","","","","",""
"539","339701","HierDyhrqc39p8","sub13","01","8","motor","68","img/motor_3.png","68","motor","3","374","1","0","0","",""
"null","339810","HierDyhrqc39p8","sub13","01","8","iti","null","img/motor_3.png","68","motor","","","","","","",""
"412","340234","HierDyhrqc39p8","sub13","01","8","motor","65","img/motor_1.png","65","motor","1","375","1","0","0","",""
"null","340347","HierDyhrqc39p8","sub13","01","8","iti","null","img/motor_1.png","65","motor","","","","","","",""
"848","341206","HierDyhrqc39p8","sub13","01","8","motor","75","img/motor_7.png","75","motor","7","376","1","0","0","",""
"null","341318","HierDyhrqc39p8","sub13","01","8","iti","null","img/motor_7.png","75","motor","","","","","","",""
"534","341863","HierDyhrqc39p8","sub13","01","8","motor","72","img/motor_5.png","72","motor","5","377","1","0","0","",""
"null","341974","HierDyhrqc39p8","sub13","01","8","iti","null","img/motor_5.png","72","motor","","","","","","",""
"456","342440","HierDyhrqc39p8","sub13","01","8","motor","68","img/motor_3.png","68","motor","3","378","1","0","0","",""
"null","342552","HierDyhrqc39p8","sub13","01","8","iti","null","img/motor_3.png","68","motor","","","","","","",""
"103","342662","HierDyhrqc39p8","sub13","01","8","motor","68","img/motor_2.png","83","motor","2","379","0","1","0","",""
"274","342947","HierDyhrqc39p8","sub13","01","8","motorRepeat","83","img/motor_2.png","83","motor","2","379","1","0","0","",""
"null","343057","HierDyhrqc39p8","sub13","01","8","iti","null","img/motor_2.png","83","motor","","","","","","",""
"412","343480","HierDyhrqc39p8","sub13","01","8","motor","83","img/motor_2.png","83","motor","2","380","1","0","0","",""
"null","343590","HierDyhrqc39p8","sub13","01","8","iti","null","img/motor_2.png","83","motor","","","","","","",""
"605","344205","HierDyhrqc39p8","sub13","01","8","motor","65","img/motor_1.png","65","motor","1","381","1","0","0","",""
"null","344315","HierDyhrqc39p8","sub13","01","8","iti","null","img/motor_1.png","65","motor","","","","","","",""
"532","344857","HierDyhrqc39p8","sub13","01","8","motor","75","img/motor_7.png","75","motor","7","382","1","0","0","",""
"null","344968","HierDyhrqc39p8","sub13","01","8","iti","null","img/motor_7.png","75","motor","","","","","","",""
"490","345468","HierDyhrqc39p8","sub13","01","8","motor","68","img/motor_3.png","68","motor","3","383","1","0","0","",""
"null","345580","HierDyhrqc39p8","sub13","01","8","iti","null","img/motor_3.png","68","motor","","","","","","",""
"471","346062","HierDyhrqc39p8","sub13","01","8","motor","70","img/motor_4.png","70","motor","4","384","1","0","0","",""
"null","346174","HierDyhrqc39p8","sub13","01","8","iti","null","img/motor_4.png","70","motor","","","","","","",""
"414","346600","HierDyhrqc39p8","sub13","01","8","motor","76","img/motor_8.png","76","motor","8","385","1","0","0","",""
"null","346711","HierDyhrqc39p8","sub13","01","8","iti","null","img/motor_8.png","76","motor","","","","","","",""
"455","347178","HierDyhrqc39p8","sub13","01","8","motor","74","img/motor_6.png","74","motor","6","386","1","0","0","",""
"null","347288","HierDyhrqc39p8","sub13","01","8","iti","null","img/motor_6.png","74","motor","","","","","","",""
"569","347868","HierDyhrqc39p8","sub13","01","8","motor","74","img/motor_6.png","74","motor","6","387","1","0","0","",""
"null","347981","HierDyhrqc39p8","sub13","01","8","iti","null","img/motor_6.png","74","motor","","","","","","",""
"500","348493","HierDyhrqc39p8","sub13","01","8","motor","72","img/motor_5.png","72","motor","5","388","1","0","0","",""
"null","348605","HierDyhrqc39p8","sub13","01","8","iti","null","img/motor_5.png","72","motor","","","","","","",""
"457","349072","HierDyhrqc39p8","sub13","01","8","motor","72","img/motor_5.png","72","motor","5","389","1","0","0","",""
"null","349183","HierDyhrqc39p8","sub13","01","8","iti","null","img/motor_5.png","72","motor","","","","","","",""
"467","349661","HierDyhrqc39p8","sub13","01","8","motor","70","img/motor_4.png","70","motor","4","390","1","0","0","",""
"null","349773","HierDyhrqc39p8","sub13","01","8","iti","null","img/motor_4.png","70","motor","","","","","","",""
"357","350142","HierDyhrqc39p8","sub13","01","8","motor","65","img/motor_1.png","65","motor","1","391","1","0","0","",""
"null","350254","HierDyhrqc39p8","sub13","01","8","iti","null","img/motor_1.png","65","motor","","","","","","",""
"490","350755","HierDyhrqc39p8","sub13","01","8","motor","72","img/motor_5.png","72","motor","5","392","1","0","0","",""
"null","350867","HierDyhrqc39p8","sub13","01","8","iti","null","img/motor_5.png","72","motor","","","","","","",""
"437","351315","HierDyhrqc39p8","sub13","01","8","motor","76","img/motor_8.png","76","motor","8","393","1","0","0","",""
"null","351428","HierDyhrqc39p8","sub13","01","8","iti","null","img/motor_8.png","76","motor","","","","","","",""
"463","351902","HierDyhrqc39p8","sub13","01","8","motor","72","img/motor_5.png","72","motor","5","394","1","0","0","",""
"null","352014","HierDyhrqc39p8","sub13","01","8","iti","null","img/motor_5.png","72","motor","","","","","","",""
"638","352662","HierDyhrqc39p8","sub13","01","8","motor","75","img/motor_7.png","75","motor","7","395","1","0","0","",""
"null","352774","HierDyhrqc39p8","sub13","01","8","iti","null","img/motor_7.png","75","motor","","","","","","",""
"452","353237","HierDyhrqc39p8","sub13","01","8","motor","74","img/motor_6.png","74","motor","6","396","1","0","0","",""
"null","353349","HierDyhrqc39p8","sub13","01","8","iti","null","img/motor_6.png","74","motor","","","","","","",""
"370","353728","HierDyhrqc39p8","sub13","01","8","motor","72","img/motor_4.png","70","motor","4","397","0","1","0","",""
"568","354307","HierDyhrqc39p8","sub13","01","8","motorRepeat","70","img/motor_4.png","70","motor","4","397","1","0","0","",""
"null","354419","HierDyhrqc39p8","sub13","01","8","iti","null","img/motor_4.png","70","motor","","","","","","",""
"530","354959","HierDyhrqc39p8","sub13","01","8","motor","83","img/motor_2.png","83","motor","2","398","1","0","0","",""
"null","355070","HierDyhrqc39p8","sub13","01","8","iti","null","img/motor_2.png","83","motor","","","","","","",""
"363","355445","HierDyhrqc39p8","sub13","01","8","motor","83","img/motor_2.png","83","motor","2","399","1","0","0","",""
"null","355555","HierDyhrqc39p8","sub13","01","8","iti","null","img/motor_2.png","83","motor","","","","","","",""
"518","356083","HierDyhrqc39p8","sub13","01","8","motor","74","img/motor_6.png","74","motor","6","400","1","0","0","",""
"null","356195","HierDyhrqc39p8","sub13","01","8","iti","null","img/motor_6.png","74","motor","","","","","","",""
"670","356876","HierDyhrqc39p8","sub13","01","8","motor","72","img/motor_5.png","72","motor","5","401","1","0","0","",""
"null","356989","HierDyhrqc39p8","sub13","01","8","iti","null","img/motor_5.png","72","motor","","","","","","",""
"429","357427","HierDyhrqc39p8","sub13","01","8","motor","65","img/motor_1.png","65","motor","1","402","1","0","0","",""
"null","357538","HierDyhrqc39p8","sub13","01","8","iti","null","img/motor_1.png","65","motor","","","","","","",""
"486","358034","HierDyhrqc39p8","sub13","01","8","motor","70","img/motor_4.png","70","motor","4","403","1","0","0","",""
"null","358146","HierDyhrqc39p8","sub13","01","8","iti","null","img/motor_4.png","70","motor","","","","","","",""
"519","358675","HierDyhrqc39p8","sub13","01","8","motor","72","img/motor_5.png","72","motor","5","404","1","0","0","",""
"null","358787","HierDyhrqc39p8","sub13","01","8","iti","null","img/motor_5.png","72","motor","","","","","","",""
"541","359340","HierDyhrqc39p8","sub13","01","8","motor","70","img/motor_4.png","70","motor","4","405","1","0","0","",""
"null","359452","HierDyhrqc39p8","sub13","01","8","iti","null","img/motor_4.png","70","motor","","","","","","",""
"534","359997","HierDyhrqc39p8","sub13","01","8","motor","83","img/motor_2.png","83","motor","2","406","1","0","0","",""
"null","360107","HierDyhrqc39p8","sub13","01","8","iti","null","img/motor_2.png","83","motor","","","","","","",""
