"rt","time_elapsed","subject","subID","group","day","trialType","key_press","stim","corrresp","phase","stimNum","trialNum","corr","repeatTrial","motorSwitch","pracCounter","hierarchy","responses"
"2335","2363","HierDypod34ufk","sub06","06","1","","","","","","","","","","","","",""
"","4081","HierDypod34ufk","sub06","06","1","fullscreen","","","","","","","","","","","",""
"115937","120029","HierDypod34ufk","sub06","06","1","","","","","","","","","","","","",""
"794","120838","HierDypod34ufk","sub06","06","1","motor","76","img/motor_8.png","76","motor","8","1","1","0","0","","",""
"null","120951","HierDypod34ufk","sub06","06","1","iti","null","img/motor_8.png","76","motor","","","","","","","",""
"542","121504","HierDypod34ufk","sub06","06","1","motor","72","img/motor_5.png","72","motor","5","2","1","0","0","","",""
"null","121617","HierDypod34ufk","sub06","06","1","iti","null","img/motor_5.png","72","motor","","","","","","","",""
"693","122323","HierDypod34ufk","sub06","06","1","motor","70","img/motor_4.png","70","motor","4","3","1","0","0","","",""
"null","122437","HierDypod34ufk","sub06","06","1","iti","null","img/motor_4.png","70","motor","","","","","","","",""
"460","122910","HierDypod34ufk","sub06","06","1","motor","65","img/motor_1.png","65","motor","1","4","1","0","0","","",""
"null","123021","HierDypod34ufk","sub06","06","1","iti","null","img/motor_1.png","65","motor","","","","","","","",""
"513","123547","HierDypod34ufk","sub06","06","1","motor","65","img/motor_1.png","65","motor","1","5","1","0","0","","",""
"null","123659","HierDypod34ufk","sub06","06","1","iti","null","img/motor_1.png","65","motor","","","","","","","",""
"433","124100","HierDypod34ufk","sub06","06","1","motor","76","img/motor_8.png","76","motor","8","6","1","0","0","","",""
"null","124212","HierDypod34ufk","sub06","06","1","iti","null","img/motor_8.png","76","motor","","","","","","","",""
"754","124976","HierDypod34ufk","sub06","06","1","motor","68","img/motor_3.png","68","motor","3","7","1","0","0","","",""
"null","125087","HierDypod34ufk","sub06","06","1","iti","null","img/motor_3.png","68","motor","","","","","","","",""
"683","125780","HierDypod34ufk","sub06","06","1","motor","72","img/motor_5.png","72","motor","5","8","1","0","0","","",""
"null","125890","HierDypod34ufk","sub06","06","1","iti","null","img/motor_5.png","72","motor","","","","","","","",""
"544","126448","HierDypod34ufk","sub06","06","1","motor","74","img/motor_6.png","74","motor","6","9","1","0","0","","",""
"null","126562","HierDypod34ufk","sub06","06","1","iti","null","img/motor_6.png","74","motor","","","","","","","",""
"754","127327","HierDypod34ufk","sub06","06","1","motor","83","img/motor_2.png","83","motor","2","10","1","0","0","","",""
"null","127438","HierDypod34ufk","sub06","06","1","iti","null","img/motor_2.png","83","motor","","","","","","","",""
"473","127921","HierDypod34ufk","sub06","06","1","motor","76","img/motor_8.png","76","motor","8","11","1","0","0","","",""
"null","128033","HierDypod34ufk","sub06","06","1","iti","null","img/motor_8.png","76","motor","","","","","","","",""
"538","128581","HierDypod34ufk","sub06","06","1","motor","65","img/motor_1.png","65","motor","1","12","1","0","0","","",""
"null","128692","HierDypod34ufk","sub06","06","1","iti","null","img/motor_1.png","65","motor","","","","","","","",""
"495","129197","HierDypod34ufk","sub06","06","1","motor","83","img/motor_2.png","83","motor","2","13","1","0","0","","",""
"null","129309","HierDypod34ufk","sub06","06","1","iti","null","img/motor_2.png","83","motor","","","","","","","",""
"564","129882","HierDypod34ufk","sub06","06","1","motor","83","img/motor_2.png","83","motor","2","14","1","0","0","","",""
"null","129994","HierDypod34ufk","sub06","06","1","iti","null","img/motor_2.png","83","motor","","","","","","","",""
"475","130479","HierDypod34ufk","sub06","06","1","motor","68","img/motor_3.png","68","motor","3","15","1","0","0","","",""
"null","130590","HierDypod34ufk","sub06","06","1","iti","null","img/motor_3.png","68","motor","","","","","","","",""
"408","131009","HierDypod34ufk","sub06","06","1","motor","76","img/motor_8.png","76","motor","8","16","1","0","0","","",""
"null","131118","HierDypod34ufk","sub06","06","1","iti","null","img/motor_8.png","76","motor","","","","","","","",""
"567","131695","HierDypod34ufk","sub06","06","1","motor","72","img/motor_5.png","72","motor","5","17","1","0","0","","",""
"null","131807","HierDypod34ufk","sub06","06","1","iti","null","img/motor_5.png","72","motor","","","","","","","",""
"598","132416","HierDypod34ufk","sub06","06","1","motor","70","img/motor_4.png","70","motor","4","18","1","0","0","","",""
"null","132527","HierDypod34ufk","sub06","06","1","iti","null","img/motor_4.png","70","motor","","","","","","","",""
"593","133128","HierDypod34ufk","sub06","06","1","motor","72","img/motor_5.png","72","motor","5","19","1","0","0","","",""
"null","133240","HierDypod34ufk","sub06","06","1","iti","null","img/motor_5.png","72","motor","","","","","","","",""
"643","133893","HierDypod34ufk","sub06","06","1","motor","75","img/motor_7.png","75","motor","7","20","1","0","0","","",""
"null","134003","HierDypod34ufk","sub06","06","1","iti","null","img/motor_7.png","75","motor","","","","","","","",""
"638","134650","HierDypod34ufk","sub06","06","1","motor","70","img/motor_3.png","68","motor","3","21","0","1","0","","",""
"231","134892","HierDypod34ufk","sub06","06","1","motorRepeat","68","img/motor_3.png","68","motor","3","21","1","0","0","","",""
"null","135003","HierDypod34ufk","sub06","06","1","iti","null","img/motor_3.png","68","motor","","","","","","","",""
"637","135648","HierDypod34ufk","sub06","06","1","motor","65","img/motor_1.png","65","motor","1","22","1","0","0","","",""
"null","135760","HierDypod34ufk","sub06","06","1","iti","null","img/motor_1.png","65","motor","","","","","","","",""
"502","136272","HierDypod34ufk","sub06","06","1","motor","68","img/motor_3.png","68","motor","3","23","1","0","0","","",""
"null","136383","HierDypod34ufk","sub06","06","1","iti","null","img/motor_3.png","68","motor","","","","","","","",""
"437","136830","HierDypod34ufk","sub06","06","1","motor","76","img/motor_8.png","76","motor","8","24","1","0","0","","",""
"null","136942","HierDypod34ufk","sub06","06","1","iti","null","img/motor_8.png","76","motor","","","","","","","",""
"558","137511","HierDypod34ufk","sub06","06","1","motor","74","img/motor_7.png","75","motor","7","25","0","1","0","","",""
"227","137747","HierDypod34ufk","sub06","06","1","motorRepeat","75","img/motor_7.png","75","motor","7","25","1","0","0","","",""
"null","137858","HierDypod34ufk","sub06","06","1","iti","null","img/motor_7.png","75","motor","","","","","","","",""
"1225","139092","HierDypod34ufk","sub06","06","1","motor","70","img/motor_4.png","70","motor","4","26","1","0","0","","",""
"null","139203","HierDypod34ufk","sub06","06","1","iti","null","img/motor_4.png","70","motor","","","","","","","",""
"669","139880","HierDypod34ufk","sub06","06","1","motor","83","img/motor_2.png","83","motor","2","27","1","0","0","","",""
"null","139991","HierDypod34ufk","sub06","06","1","iti","null","img/motor_2.png","83","motor","","","","","","","",""
"671","140671","HierDypod34ufk","sub06","06","1","motor","72","img/motor_6.png","74","motor","6","28","0","1","0","","",""
"373","141054","HierDypod34ufk","sub06","06","1","motorRepeat","74","img/motor_6.png","74","motor","6","28","1","0","0","","",""
"null","141162","HierDypod34ufk","sub06","06","1","iti","null","img/motor_6.png","74","motor","","","","","","","",""
"580","141751","HierDypod34ufk","sub06","06","1","motor","65","img/motor_1.png","65","motor","1","29","1","0","0","","",""
"null","141861","HierDypod34ufk","sub06","06","1","iti","null","img/motor_1.png","65","motor","","","","","","","",""
"651","142520","HierDypod34ufk","sub06","06","1","motor","83","img/motor_2.png","83","motor","2","30","1","0","0","","",""
"null","142631","HierDypod34ufk","sub06","06","1","iti","null","img/motor_2.png","83","motor","","","","","","","",""
"552","143193","HierDypod34ufk","sub06","06","1","motor","65","img/motor_1.png","65","motor","1","31","1","0","0","","",""
"null","143302","HierDypod34ufk","sub06","06","1","iti","null","img/motor_1.png","65","motor","","","","","","","",""
"746","144059","HierDypod34ufk","sub06","06","1","motor","74","img/motor_6.png","74","motor","6","32","1","0","0","","",""
"null","144169","HierDypod34ufk","sub06","06","1","iti","null","img/motor_6.png","74","motor","","","","","","","",""
"547","144726","HierDypod34ufk","sub06","06","1","motor","74","img/motor_6.png","74","motor","6","33","1","0","0","","",""
"null","144834","HierDypod34ufk","sub06","06","1","iti","null","img/motor_6.png","74","motor","","","","","","","",""
"579","145422","HierDypod34ufk","sub06","06","1","motor","75","img/motor_7.png","75","motor","7","34","1","0","0","","",""
"null","145534","HierDypod34ufk","sub06","06","1","iti","null","img/motor_7.png","75","motor","","","","","","","",""
"954","146497","HierDypod34ufk","sub06","06","1","motor","68","img/motor_3.png","68","motor","3","35","1","0","0","","",""
"null","146606","HierDypod34ufk","sub06","06","1","iti","null","img/motor_3.png","68","motor","","","","","","","",""
"563","147179","HierDypod34ufk","sub06","06","1","motor","70","img/motor_4.png","70","motor","4","36","1","0","0","","",""
"null","147289","HierDypod34ufk","sub06","06","1","iti","null","img/motor_4.png","70","motor","","","","","","","",""
"526","147823","HierDypod34ufk","sub06","06","1","motor","76","img/motor_8.png","76","motor","8","37","1","0","0","","",""
"null","147934","HierDypod34ufk","sub06","06","1","iti","null","img/motor_8.png","76","motor","","","","","","","",""
"560","148504","HierDypod34ufk","sub06","06","1","motor","70","img/motor_4.png","70","motor","4","38","1","0","0","","",""
"null","148615","HierDypod34ufk","sub06","06","1","iti","null","img/motor_4.png","70","motor","","","","","","","",""
"493","149117","HierDypod34ufk","sub06","06","1","motor","72","img/motor_5.png","72","motor","5","39","1","0","0","","",""
"null","149227","HierDypod34ufk","sub06","06","1","iti","null","img/motor_5.png","72","motor","","","","","","","",""
"637","149873","HierDypod34ufk","sub06","06","1","motor","75","img/motor_7.png","75","motor","7","40","1","0","0","","",""
"null","149985","HierDypod34ufk","sub06","06","1","iti","null","img/motor_7.png","75","motor","","","","","","","",""
"558","150552","HierDypod34ufk","sub06","06","1","motor","72","img/motor_5.png","72","motor","5","41","1","0","0","","",""
"null","150663","HierDypod34ufk","sub06","06","1","iti","null","img/motor_5.png","72","motor","","","","","","","",""
"471","151145","HierDypod34ufk","sub06","06","1","motor","75","img/motor_7.png","75","motor","7","42","1","0","0","","",""
"null","151256","HierDypod34ufk","sub06","06","1","iti","null","img/motor_7.png","75","motor","","","","","","","",""
"663","151928","HierDypod34ufk","sub06","06","1","motor","83","img/motor_2.png","83","motor","2","43","1","0","0","","",""
"null","152039","HierDypod34ufk","sub06","06","1","iti","null","img/motor_2.png","83","motor","","","","","","","",""
"474","152523","HierDypod34ufk","sub06","06","1","motor","76","img/motor_8.png","76","motor","8","44","1","0","0","","",""
"null","152633","HierDypod34ufk","sub06","06","1","iti","null","img/motor_8.png","76","motor","","","","","","","",""
"580","153222","HierDypod34ufk","sub06","06","1","motor","70","img/motor_4.png","70","motor","4","45","1","0","0","","",""
"null","153330","HierDypod34ufk","sub06","06","1","iti","null","img/motor_4.png","70","motor","","","","","","","",""
"597","153936","HierDypod34ufk","sub06","06","1","motor","68","img/motor_3.png","68","motor","3","46","1","0","0","","",""
"null","154047","HierDypod34ufk","sub06","06","1","iti","null","img/motor_3.png","68","motor","","","","","","","",""
"511","154569","HierDypod34ufk","sub06","06","1","motor","74","img/motor_6.png","74","motor","6","47","1","0","0","","",""
"null","154678","HierDypod34ufk","sub06","06","1","iti","null","img/motor_6.png","74","motor","","","","","","","",""
"605","155292","HierDypod34ufk","sub06","06","1","motor","72","img/motor_5.png","72","motor","5","48","1","0","0","","",""
"null","155403","HierDypod34ufk","sub06","06","1","iti","null","img/motor_5.png","72","motor","","","","","","","",""
"632","156045","HierDypod34ufk","sub06","06","1","motor","68","img/motor_3.png","68","motor","3","49","1","0","0","","",""
"null","156154","HierDypod34ufk","sub06","06","1","iti","null","img/motor_3.png","68","motor","","","","","","","",""
"518","156681","HierDypod34ufk","sub06","06","1","motor","76","img/motor_8.png","76","motor","8","50","1","0","0","","",""
"null","156792","HierDypod34ufk","sub06","06","1","iti","null","img/motor_8.png","76","motor","","","","","","","",""
"579","157382","HierDypod34ufk","sub06","06","1","motor","83","img/motor_2.png","83","motor","2","51","1","0","0","","",""
"null","157494","HierDypod34ufk","sub06","06","1","iti","null","img/motor_2.png","83","motor","","","","","","","",""
"620","158122","HierDypod34ufk","sub06","06","1","motor","75","img/motor_7.png","75","motor","7","52","1","0","0","","",""
"null","158232","HierDypod34ufk","sub06","06","1","iti","null","img/motor_7.png","75","motor","","","","","","","",""
"710","158952","HierDypod34ufk","sub06","06","1","motor","68","img/motor_3.png","68","motor","3","53","1","0","0","","",""
"null","159062","HierDypod34ufk","sub06","06","1","iti","null","img/motor_3.png","68","motor","","","","","","","",""
"486","159559","HierDypod34ufk","sub06","06","1","motor","68","img/motor_3.png","68","motor","3","54","1","0","0","","",""
"null","159668","HierDypod34ufk","sub06","06","1","iti","null","img/motor_3.png","68","motor","","","","","","","",""
"551","160228","HierDypod34ufk","sub06","06","1","motor","83","img/motor_2.png","83","motor","2","55","1","0","0","","",""
"null","160341","HierDypod34ufk","sub06","06","1","iti","null","img/motor_2.png","83","motor","","","","","","","",""
"508","160856","HierDypod34ufk","sub06","06","1","motor","76","img/motor_8.png","76","motor","8","56","1","0","0","","",""
"null","160968","HierDypod34ufk","sub06","06","1","iti","null","img/motor_8.png","76","motor","","","","","","","",""
"656","161634","HierDypod34ufk","sub06","06","1","motor","83","img/motor_2.png","83","motor","2","57","1","0","0","","",""
"null","161746","HierDypod34ufk","sub06","06","1","iti","null","img/motor_2.png","83","motor","","","","","","","",""
"394","162148","HierDypod34ufk","sub06","06","1","motor","68","img/motor_3.png","68","motor","3","58","1","0","0","","",""
"null","162258","HierDypod34ufk","sub06","06","1","iti","null","img/motor_3.png","68","motor","","","","","","","",""
"423","162692","HierDypod34ufk","sub06","06","1","motor","65","img/motor_1.png","65","motor","1","59","1","0","0","","",""
"null","162802","HierDypod34ufk","sub06","06","1","iti","null","img/motor_1.png","65","motor","","","","","","","",""
"550","163363","HierDypod34ufk","sub06","06","1","motor","70","img/motor_4.png","70","motor","4","60","1","0","0","","",""
"null","163474","HierDypod34ufk","sub06","06","1","iti","null","img/motor_4.png","70","motor","","","","","","","",""
"543","164027","HierDypod34ufk","sub06","06","1","motor","83","img/motor_2.png","83","motor","2","61","1","0","0","","",""
"null","164136","HierDypod34ufk","sub06","06","1","iti","null","img/motor_2.png","83","motor","","","","","","","",""
"458","164603","HierDypod34ufk","sub06","06","1","motor","74","img/motor_7.png","75","motor","7","62","0","1","0","","",""
"287","164899","HierDypod34ufk","sub06","06","1","motorRepeat","75","img/motor_7.png","75","motor","7","62","1","0","0","","",""
"null","165011","HierDypod34ufk","sub06","06","1","iti","null","img/motor_7.png","75","motor","","","","","","","",""
"512","165532","HierDypod34ufk","sub06","06","1","motor","70","img/motor_4.png","70","motor","4","63","1","0","0","","",""
"null","165642","HierDypod34ufk","sub06","06","1","iti","null","img/motor_4.png","70","motor","","","","","","","",""
"525","166176","HierDypod34ufk","sub06","06","1","motor","68","img/motor_3.png","68","motor","3","64","1","0","0","","",""
"null","166288","HierDypod34ufk","sub06","06","1","iti","null","img/motor_3.png","68","motor","","","","","","","",""
"570","166867","HierDypod34ufk","sub06","06","1","motor","75","img/motor_7.png","75","motor","7","65","1","0","0","","",""
"null","166978","HierDypod34ufk","sub06","06","1","iti","null","img/motor_7.png","75","motor","","","","","","","",""
"388","167375","HierDypod34ufk","sub06","06","1","motor","68","img/motor_3.png","68","motor","3","66","1","0","0","","",""
"null","167486","HierDypod34ufk","sub06","06","1","iti","null","img/motor_3.png","68","motor","","","","","","","",""
"663","168159","HierDypod34ufk","sub06","06","1","motor","72","img/motor_5.png","72","motor","5","67","1","0","0","","",""
"null","168270","HierDypod34ufk","sub06","06","1","iti","null","img/motor_5.png","72","motor","","","","","","","",""
"552","168833","HierDypod34ufk","sub06","06","1","motor","68","img/motor_3.png","68","motor","3","68","1","0","0","","",""
"null","168941","HierDypod34ufk","sub06","06","1","iti","null","img/motor_3.png","68","motor","","","","","","","",""
"430","169379","HierDypod34ufk","sub06","06","1","motor","68","img/motor_3.png","68","motor","3","69","1","0","0","","",""
"null","169489","HierDypod34ufk","sub06","06","1","iti","null","img/motor_3.png","68","motor","","","","","","","",""
"513","170012","HierDypod34ufk","sub06","06","1","motor","83","img/motor_2.png","83","motor","2","70","1","0","0","","",""
"null","170124","HierDypod34ufk","sub06","06","1","iti","null","img/motor_2.png","83","motor","","","","","","","",""
"505","170638","HierDypod34ufk","sub06","06","1","motor","72","img/motor_5.png","72","motor","5","71","1","0","0","","",""
"null","170749","HierDypod34ufk","sub06","06","1","iti","null","img/motor_5.png","72","motor","","","","","","","",""
"527","171286","HierDypod34ufk","sub06","06","1","motor","65","img/motor_1.png","65","motor","1","72","1","0","0","","",""
"null","171398","HierDypod34ufk","sub06","06","1","iti","null","img/motor_1.png","65","motor","","","","","","","",""
"446","171852","HierDypod34ufk","sub06","06","1","motor","76","img/motor_8.png","76","motor","8","73","1","0","0","","",""
"null","171963","HierDypod34ufk","sub06","06","1","iti","null","img/motor_8.png","76","motor","","","","","","","",""
"443","172416","HierDypod34ufk","sub06","06","1","motor","65","img/motor_1.png","65","motor","1","74","1","0","0","","",""
"null","172527","HierDypod34ufk","sub06","06","1","iti","null","img/motor_1.png","65","motor","","","","","","","",""
"376","172912","HierDypod34ufk","sub06","06","1","motor","76","img/motor_8.png","76","motor","8","75","1","0","0","","",""
"null","173023","HierDypod34ufk","sub06","06","1","iti","null","img/motor_8.png","76","motor","","","","","","","",""
"582","173614","HierDypod34ufk","sub06","06","1","motor","83","img/motor_2.png","83","motor","2","76","1","0","0","","",""
"null","173725","HierDypod34ufk","sub06","06","1","iti","null","img/motor_2.png","83","motor","","","","","","","",""
"394","174130","HierDypod34ufk","sub06","06","1","motor","83","img/motor_1.png","65","motor","1","77","0","1","0","","",""
"248","174388","HierDypod34ufk","sub06","06","1","motorRepeat","65","img/motor_1.png","65","motor","1","77","1","0","0","","",""
"null","174499","HierDypod34ufk","sub06","06","1","iti","null","img/motor_1.png","65","motor","","","","","","","",""
"451","174959","HierDypod34ufk","sub06","06","1","motor","83","img/motor_2.png","83","motor","2","78","1","0","0","","",""
"null","175070","HierDypod34ufk","sub06","06","1","iti","null","img/motor_2.png","83","motor","","","","","","","",""
"398","175477","HierDypod34ufk","sub06","06","1","motor","65","img/motor_1.png","65","motor","1","79","1","0","0","","",""
"null","175587","HierDypod34ufk","sub06","06","1","iti","null","img/motor_1.png","65","motor","","","","","","","",""
"498","176091","HierDypod34ufk","sub06","06","1","motor","75","img/motor_7.png","75","motor","7","80","1","0","0","","",""
"null","176199","HierDypod34ufk","sub06","06","1","iti","null","img/motor_7.png","75","motor","","","","","","","",""
"428","176638","HierDypod34ufk","sub06","06","1","motor","74","img/motor_6.png","74","motor","6","81","1","0","0","","",""
"null","176748","HierDypod34ufk","sub06","06","1","iti","null","img/motor_6.png","74","motor","","","","","","","",""
"858","177615","HierDypod34ufk","sub06","06","1","motor","83","img/motor_2.png","83","motor","2","82","1","0","0","","",""
"null","177725","HierDypod34ufk","sub06","06","1","iti","null","img/motor_2.png","83","motor","","","","","","","",""
"528","178263","HierDypod34ufk","sub06","06","1","motor","70","img/motor_4.png","70","motor","4","83","1","0","0","","",""
"null","178372","HierDypod34ufk","sub06","06","1","iti","null","img/motor_4.png","70","motor","","","","","","","",""
"386","178765","HierDypod34ufk","sub06","06","1","motor","76","img/motor_8.png","76","motor","8","84","1","0","0","","",""
"null","178873","HierDypod34ufk","sub06","06","1","iti","null","img/motor_8.png","76","motor","","","","","","","",""
"948","179833","HierDypod34ufk","sub06","06","1","motor","83","img/motor_2.png","83","motor","2","85","1","0","0","","",""
"null","179943","HierDypod34ufk","sub06","06","1","iti","null","img/motor_2.png","83","motor","","","","","","","",""
"614","180567","HierDypod34ufk","sub06","06","1","motor","70","img/motor_4.png","70","motor","4","86","1","0","0","","",""
"null","180675","HierDypod34ufk","sub06","06","1","iti","null","img/motor_4.png","70","motor","","","","","","","",""
"621","181305","HierDypod34ufk","sub06","06","1","motor","75","img/motor_7.png","75","motor","7","87","1","0","0","","",""
"null","181417","HierDypod34ufk","sub06","06","1","iti","null","img/motor_7.png","75","motor","","","","","","","",""
"447","181872","HierDypod34ufk","sub06","06","1","motor","75","img/motor_8.png","76","motor","8","88","0","1","0","","",""
"167","182049","HierDypod34ufk","sub06","06","1","motorRepeat","76","img/motor_8.png","76","motor","8","88","1","0","0","","",""
"null","182160","HierDypod34ufk","sub06","06","1","iti","null","img/motor_8.png","76","motor","","","","","","","",""
"537","182705","HierDypod34ufk","sub06","06","1","motor","72","img/motor_5.png","72","motor","5","89","1","0","0","","",""
"null","182816","HierDypod34ufk","sub06","06","1","iti","null","img/motor_5.png","72","motor","","","","","","","",""
"555","183381","HierDypod34ufk","sub06","06","1","motor","83","img/motor_2.png","83","motor","2","90","1","0","0","","",""
"null","183492","HierDypod34ufk","sub06","06","1","iti","null","img/motor_2.png","83","motor","","","","","","","",""
"555","184056","HierDypod34ufk","sub06","06","1","motor","72","img/motor_5.png","72","motor","5","91","1","0","0","","",""
"null","184166","HierDypod34ufk","sub06","06","1","iti","null","img/motor_5.png","72","motor","","","","","","","",""
"504","184679","HierDypod34ufk","sub06","06","1","motor","65","img/motor_1.png","65","motor","1","92","1","0","0","","",""
"null","184789","HierDypod34ufk","sub06","06","1","iti","null","img/motor_1.png","65","motor","","","","","","","",""
"497","185297","HierDypod34ufk","sub06","06","1","motor","83","img/motor_2.png","83","motor","2","93","1","0","0","","",""
"null","185409","HierDypod34ufk","sub06","06","1","iti","null","img/motor_2.png","83","motor","","","","","","","",""
"592","186011","HierDypod34ufk","sub06","06","1","motor","74","img/motor_6.png","74","motor","6","94","1","0","0","","",""
"null","186120","HierDypod34ufk","sub06","06","1","iti","null","img/motor_6.png","74","motor","","","","","","","",""
"534","186665","HierDypod34ufk","sub06","06","1","motor","75","img/motor_7.png","75","motor","7","95","1","0","0","","",""
"null","186776","HierDypod34ufk","sub06","06","1","iti","null","img/motor_7.png","75","motor","","","","","","","",""
"482","187271","HierDypod34ufk","sub06","06","1","motor","74","img/motor_6.png","74","motor","6","96","1","0","0","","",""
"null","187382","HierDypod34ufk","sub06","06","1","iti","null","img/motor_6.png","74","motor","","","","","","","",""
"495","187885","HierDypod34ufk","sub06","06","1","motor","76","img/motor_8.png","76","motor","8","97","1","0","0","","",""
"null","187998","HierDypod34ufk","sub06","06","1","iti","null","img/motor_8.png","76","motor","","","","","","","",""
"582","188590","HierDypod34ufk","sub06","06","1","motor","75","img/motor_7.png","75","motor","7","98","1","0","0","","",""
"null","188701","HierDypod34ufk","sub06","06","1","iti","null","img/motor_7.png","75","motor","","","","","","","",""
"928","189638","HierDypod34ufk","sub06","06","1","motor","83","img/motor_2.png","83","motor","2","99","1","0","0","","",""
"null","189749","HierDypod34ufk","sub06","06","1","iti","null","img/motor_2.png","83","motor","","","","","","","",""
"413","190172","HierDypod34ufk","sub06","06","1","motor","70","img/motor_4.png","70","motor","4","100","1","0","0","","",""
"null","190282","HierDypod34ufk","sub06","06","1","iti","null","img/motor_4.png","70","motor","","","","","","","",""
"573","190867","HierDypod34ufk","sub06","06","1","motor","75","img/motor_7.png","75","motor","7","101","1","0","0","","",""
"null","190980","HierDypod34ufk","sub06","06","1","iti","null","img/motor_7.png","75","motor","","","","","","","",""
"717","191707","HierDypod34ufk","sub06","06","1","motor","83","img/motor_2.png","83","motor","2","102","1","0","0","","",""
"null","191818","HierDypod34ufk","sub06","06","1","iti","null","img/motor_2.png","83","motor","","","","","","","",""
"590","192415","HierDypod34ufk","sub06","06","1","motor","72","img/motor_5.png","72","motor","5","103","1","0","0","","",""
"null","192525","HierDypod34ufk","sub06","06","1","iti","null","img/motor_5.png","72","motor","","","","","","","",""
"377","192910","HierDypod34ufk","sub06","06","1","motor","72","img/motor_5.png","72","motor","5","104","1","0","0","","",""
"null","193017","HierDypod34ufk","sub06","06","1","iti","null","img/motor_5.png","72","motor","","","","","","","",""
"523","193550","HierDypod34ufk","sub06","06","1","motor","74","img/motor_6.png","74","motor","6","105","1","0","0","","",""
"null","193660","HierDypod34ufk","sub06","06","1","iti","null","img/motor_6.png","74","motor","","","","","","","",""
"477","194147","HierDypod34ufk","sub06","06","1","motor","70","img/motor_4.png","70","motor","4","106","1","0","0","","",""
"null","194255","HierDypod34ufk","sub06","06","1","iti","null","img/motor_4.png","70","motor","","","","","","","",""
"423","194685","HierDypod34ufk","sub06","06","1","motor","72","img/motor_5.png","72","motor","5","107","1","0","0","","",""
"null","194792","HierDypod34ufk","sub06","06","1","iti","null","img/motor_5.png","72","motor","","","","","","","",""
"537","195339","HierDypod34ufk","sub06","06","1","motor","83","img/motor_2.png","83","motor","2","108","1","0","0","","",""
"null","195447","HierDypod34ufk","sub06","06","1","iti","null","img/motor_2.png","83","motor","","","","","","","",""
"427","195881","HierDypod34ufk","sub06","06","1","motor","65","img/motor_1.png","65","motor","1","109","1","0","0","","",""
"null","195989","HierDypod34ufk","sub06","06","1","iti","null","img/motor_1.png","65","motor","","","","","","","",""
"553","196549","HierDypod34ufk","sub06","06","1","motor","74","img/motor_6.png","74","motor","6","110","1","0","0","","",""
"null","196657","HierDypod34ufk","sub06","06","1","iti","null","img/motor_6.png","74","motor","","","","","","","",""
"442","197108","HierDypod34ufk","sub06","06","1","motor","75","img/motor_7.png","75","motor","7","111","1","0","0","","",""
"null","197218","HierDypod34ufk","sub06","06","1","iti","null","img/motor_7.png","75","motor","","","","","","","",""
"590","197817","HierDypod34ufk","sub06","06","1","motor","65","img/motor_1.png","65","motor","1","112","1","0","0","","",""
"null","197926","HierDypod34ufk","sub06","06","1","iti","null","img/motor_1.png","65","motor","","","","","","","",""
"398","198332","HierDypod34ufk","sub06","06","1","motor","76","img/motor_8.png","76","motor","8","113","1","0","0","","",""
"null","198444","HierDypod34ufk","sub06","06","1","iti","null","img/motor_8.png","76","motor","","","","","","","",""
"559","199013","HierDypod34ufk","sub06","06","1","motor","68","img/motor_3.png","68","motor","3","114","1","0","0","","",""
"null","199121","HierDypod34ufk","sub06","06","1","iti","null","img/motor_3.png","68","motor","","","","","","","",""
"414","199545","HierDypod34ufk","sub06","06","1","motor","75","img/motor_7.png","75","motor","7","115","1","0","0","","",""
"null","199656","HierDypod34ufk","sub06","06","1","iti","null","img/motor_7.png","75","motor","","","","","","","",""
"512","200176","HierDypod34ufk","sub06","06","1","motor","74","img/motor_6.png","74","motor","6","116","1","0","0","","",""
"null","200284","HierDypod34ufk","sub06","06","1","iti","null","img/motor_6.png","74","motor","","","","","","","",""
"400","200692","HierDypod34ufk","sub06","06","1","motor","72","img/motor_5.png","72","motor","5","117","1","0","0","","",""
"null","200802","HierDypod34ufk","sub06","06","1","iti","null","img/motor_5.png","72","motor","","","","","","","",""
"500","201311","HierDypod34ufk","sub06","06","1","motor","76","img/motor_8.png","76","motor","8","118","1","0","0","","",""
"null","201422","HierDypod34ufk","sub06","06","1","iti","null","img/motor_8.png","76","motor","","","","","","","",""
"514","201944","HierDypod34ufk","sub06","06","1","motor","70","img/motor_4.png","70","motor","4","119","1","0","0","","",""
"null","202054","HierDypod34ufk","sub06","06","1","iti","null","img/motor_4.png","70","motor","","","","","","","",""
"459","202523","HierDypod34ufk","sub06","06","1","motor","74","img/motor_6.png","74","motor","6","120","1","0","0","","",""
"null","202635","HierDypod34ufk","sub06","06","1","iti","null","img/motor_6.png","74","motor","","","","","","","",""
"505","203149","HierDypod34ufk","sub06","06","1","motor","72","img/motor_5.png","72","motor","5","121","1","0","0","","",""
"null","203260","HierDypod34ufk","sub06","06","1","iti","null","img/motor_5.png","72","motor","","","","","","","",""
"593","203862","HierDypod34ufk","sub06","06","1","motor","68","img/motor_3.png","68","motor","3","122","1","0","0","","",""
"null","203972","HierDypod34ufk","sub06","06","1","iti","null","img/motor_3.png","68","motor","","","","","","","",""
"508","204489","HierDypod34ufk","sub06","06","1","motor","74","img/motor_6.png","74","motor","6","123","1","0","0","","",""
"null","204599","HierDypod34ufk","sub06","06","1","iti","null","img/motor_6.png","74","motor","","","","","","","",""
"536","205142","HierDypod34ufk","sub06","06","1","motor","65","img/motor_1.png","65","motor","1","124","1","0","0","","",""
"null","205250","HierDypod34ufk","sub06","06","1","iti","null","img/motor_1.png","65","motor","","","","","","","",""
"654","205913","HierDypod34ufk","sub06","06","1","motor","72","img/motor_5.png","72","motor","5","125","1","0","0","","",""
"null","206021","HierDypod34ufk","sub06","06","1","iti","null","img/motor_5.png","72","motor","","","","","","","",""
"472","206500","HierDypod34ufk","sub06","06","1","motor","74","img/motor_6.png","74","motor","6","126","1","0","0","","",""
"null","206610","HierDypod34ufk","sub06","06","1","iti","null","img/motor_6.png","74","motor","","","","","","","",""
"543","207162","HierDypod34ufk","sub06","06","1","motor","83","img/motor_2.png","83","motor","2","127","1","0","0","","",""
"null","207273","HierDypod34ufk","sub06","06","1","iti","null","img/motor_2.png","83","motor","","","","","","","",""
"630","207912","HierDypod34ufk","sub06","06","1","motor","70","img/motor_4.png","70","motor","4","128","1","0","0","","",""
"null","208023","HierDypod34ufk","sub06","06","1","iti","null","img/motor_4.png","70","motor","","","","","","","",""
"678","208712","HierDypod34ufk","sub06","06","1","motor","83","img/motor_2.png","83","motor","2","129","1","0","0","","",""
"null","208825","HierDypod34ufk","sub06","06","1","iti","null","img/motor_2.png","83","motor","","","","","","","",""
"409","209244","HierDypod34ufk","sub06","06","1","motor","65","img/motor_1.png","65","motor","1","130","1","0","0","","",""
"null","209353","HierDypod34ufk","sub06","06","1","iti","null","img/motor_1.png","65","motor","","","","","","","",""
"594","209956","HierDypod34ufk","sub06","06","1","motor","74","img/motor_6.png","74","motor","6","131","1","0","0","","",""
"null","210064","HierDypod34ufk","sub06","06","1","iti","null","img/motor_6.png","74","motor","","","","","","","",""
"434","210506","HierDypod34ufk","sub06","06","1","motor","75","img/motor_7.png","75","motor","7","132","1","0","0","","",""
"null","210614","HierDypod34ufk","sub06","06","1","iti","null","img/motor_7.png","75","motor","","","","","","","",""
"448","211071","HierDypod34ufk","sub06","06","1","motor","75","img/motor_7.png","75","motor","7","133","1","0","0","","",""
"null","211181","HierDypod34ufk","sub06","06","1","iti","null","img/motor_7.png","75","motor","","","","","","","",""
"558","211746","HierDypod34ufk","sub06","06","1","motor","70","img/motor_4.png","70","motor","4","134","1","0","0","","",""
"null","211855","HierDypod34ufk","sub06","06","1","iti","null","img/motor_4.png","70","motor","","","","","","","",""
"509","212373","HierDypod34ufk","sub06","06","1","motor","68","img/motor_3.png","68","motor","3","135","1","0","0","","",""
"null","212484","HierDypod34ufk","sub06","06","1","iti","null","img/motor_3.png","68","motor","","","","","","","",""
"417","212911","HierDypod34ufk","sub06","06","1","motor","72","img/motor_5.png","72","motor","5","136","1","0","0","","",""
"null","213023","HierDypod34ufk","sub06","06","1","iti","null","img/motor_5.png","72","motor","","","","","","","",""
"414","213446","HierDypod34ufk","sub06","06","1","motor","76","img/motor_8.png","76","motor","8","137","1","0","0","","",""
"null","213557","HierDypod34ufk","sub06","06","1","iti","null","img/motor_8.png","76","motor","","","","","","","",""
"496","214064","HierDypod34ufk","sub06","06","1","motor","65","img/motor_1.png","65","motor","1","138","1","0","0","","",""
"null","214175","HierDypod34ufk","sub06","06","1","iti","null","img/motor_1.png","65","motor","","","","","","","",""
"616","214799","HierDypod34ufk","sub06","06","1","motor","68","img/motor_3.png","68","motor","3","139","1","0","0","","",""
"null","214907","HierDypod34ufk","sub06","06","1","iti","null","img/motor_3.png","68","motor","","","","","","","",""
"522","215437","HierDypod34ufk","sub06","06","1","motor","68","img/motor_3.png","68","motor","3","140","1","0","0","","",""
"null","215545","HierDypod34ufk","sub06","06","1","iti","null","img/motor_3.png","68","motor","","","","","","","",""
"430","215982","HierDypod34ufk","sub06","06","1","motor","74","img/motor_7.png","75","motor","7","141","0","1","0","","",""
"210","216200","HierDypod34ufk","sub06","06","1","motorRepeat","75","img/motor_7.png","75","motor","7","141","1","0","0","","",""
"null","216309","HierDypod34ufk","sub06","06","1","iti","null","img/motor_7.png","75","motor","","","","","","","",""
"487","216806","HierDypod34ufk","sub06","06","1","motor","75","img/motor_7.png","75","motor","7","142","1","0","0","","",""
"null","216915","HierDypod34ufk","sub06","06","1","iti","null","img/motor_7.png","75","motor","","","","","","","",""
"555","217479","HierDypod34ufk","sub06","06","1","motor","83","img/motor_2.png","83","motor","2","143","1","0","0","","",""
"null","217591","HierDypod34ufk","sub06","06","1","iti","null","img/motor_2.png","83","motor","","","","","","","",""
"605","218206","HierDypod34ufk","sub06","06","1","motor","76","img/motor_8.png","76","motor","8","144","1","0","0","","",""
"null","218315","HierDypod34ufk","sub06","06","1","iti","null","img/motor_8.png","76","motor","","","","","","","",""
"429","218754","HierDypod34ufk","sub06","06","1","motor","65","img/motor_1.png","65","motor","1","145","1","0","0","","",""
"null","218863","HierDypod34ufk","sub06","06","1","iti","null","img/motor_1.png","65","motor","","","","","","","",""
"484","219356","HierDypod34ufk","sub06","06","1","motor","72","img/motor_3.png","68","motor","3","146","0","1","0","","",""
"200","219563","HierDypod34ufk","sub06","06","1","motorRepeat","68","img/motor_3.png","68","motor","3","146","1","0","0","","",""
"null","219674","HierDypod34ufk","sub06","06","1","iti","null","img/motor_3.png","68","motor","","","","","","","",""
"549","220231","HierDypod34ufk","sub06","06","1","motor","76","img/motor_8.png","76","motor","8","147","1","0","0","","",""
"null","220342","HierDypod34ufk","sub06","06","1","iti","null","img/motor_8.png","76","motor","","","","","","","",""
"513","220864","HierDypod34ufk","sub06","06","1","motor","70","img/motor_3.png","68","motor","3","148","0","1","0","","",""
"222","221096","HierDypod34ufk","sub06","06","1","motorRepeat","68","img/motor_3.png","68","motor","3","148","1","0","0","","",""
"null","221204","HierDypod34ufk","sub06","06","1","iti","null","img/motor_3.png","68","motor","","","","","","","",""
"617","221831","HierDypod34ufk","sub06","06","1","motor","76","img/motor_8.png","76","motor","8","149","1","0","0","","",""
"null","221942","HierDypod34ufk","sub06","06","1","iti","null","img/motor_8.png","76","motor","","","","","","","",""
"409","222360","HierDypod34ufk","sub06","06","1","motor","65","img/motor_1.png","65","motor","1","150","1","0","0","","",""
"null","222472","HierDypod34ufk","sub06","06","1","iti","null","img/motor_1.png","65","motor","","","","","","","",""
"628","223109","HierDypod34ufk","sub06","06","1","motor","74","img/motor_7.png","75","motor","7","151","0","1","0","","",""
"146","223265","HierDypod34ufk","sub06","06","1","motorRepeat","75","img/motor_7.png","75","motor","7","151","1","0","0","","",""
"null","223377","HierDypod34ufk","sub06","06","1","iti","null","img/motor_7.png","75","motor","","","","","","","",""
"724","224109","HierDypod34ufk","sub06","06","1","motor","83","img/motor_2.png","83","motor","2","152","1","0","0","","",""
"null","224217","HierDypod34ufk","sub06","06","1","iti","null","img/motor_2.png","83","motor","","","","","","","",""
"498","224723","HierDypod34ufk","sub06","06","1","motor","76","img/motor_8.png","76","motor","8","153","1","0","0","","",""
"null","224833","HierDypod34ufk","sub06","06","1","iti","null","img/motor_8.png","76","motor","","","","","","","",""
"860","225700","HierDypod34ufk","sub06","06","1","motor","75","img/motor_7.png","75","motor","7","154","1","0","0","","",""
"null","225808","HierDypod34ufk","sub06","06","1","iti","null","img/motor_7.png","75","motor","","","","","","","",""
"577","226394","HierDypod34ufk","sub06","06","1","motor","76","img/motor_8.png","76","motor","8","155","1","0","0","","",""
"null","226506","HierDypod34ufk","sub06","06","1","iti","null","img/motor_8.png","76","motor","","","","","","","",""
"696","227213","HierDypod34ufk","sub06","06","1","motor","74","img/motor_6.png","74","motor","6","156","1","0","0","","",""
"null","227324","HierDypod34ufk","sub06","06","1","iti","null","img/motor_6.png","74","motor","","","","","","","",""
"680","228012","HierDypod34ufk","sub06","06","1","motor","72","img/motor_5.png","72","motor","5","157","1","0","0","","",""
"null","228121","HierDypod34ufk","sub06","06","1","iti","null","img/motor_5.png","72","motor","","","","","","","",""
"431","228563","HierDypod34ufk","sub06","06","1","motor","76","img/motor_8.png","76","motor","8","158","1","0","0","","",""
"null","228673","HierDypod34ufk","sub06","06","1","iti","null","img/motor_8.png","76","motor","","","","","","","",""
"654","229337","HierDypod34ufk","sub06","06","1","motor","74","img/motor_6.png","74","motor","6","159","1","0","0","","",""
"null","229450","HierDypod34ufk","sub06","06","1","iti","null","img/motor_6.png","74","motor","","","","","","","",""
"603","230063","HierDypod34ufk","sub06","06","1","motor","76","img/motor_8.png","76","motor","8","160","1","0","0","","",""
"null","230173","HierDypod34ufk","sub06","06","1","iti","null","img/motor_8.png","76","motor","","","","","","","",""
"629","230811","HierDypod34ufk","sub06","06","1","motor","68","img/motor_3.png","68","motor","3","161","1","0","0","","",""
"null","230923","HierDypod34ufk","sub06","06","1","iti","null","img/motor_3.png","68","motor","","","","","","","",""
"502","231436","HierDypod34ufk","sub06","06","1","motor","83","img/motor_2.png","83","motor","2","162","1","0","0","","",""
"null","231549","HierDypod34ufk","sub06","06","1","iti","null","img/motor_2.png","83","motor","","","","","","","",""
"548","232104","HierDypod34ufk","sub06","06","1","motor","74","img/motor_6.png","74","motor","6","163","1","0","0","","",""
"null","232217","HierDypod34ufk","sub06","06","1","iti","null","img/motor_6.png","74","motor","","","","","","","",""
"412","232639","HierDypod34ufk","sub06","06","1","motor","74","img/motor_6.png","74","motor","6","164","1","0","0","","",""
"null","232750","HierDypod34ufk","sub06","06","1","iti","null","img/motor_6.png","74","motor","","","","","","","",""
"517","233278","HierDypod34ufk","sub06","06","1","motor","75","img/motor_7.png","75","motor","7","165","1","0","0","","",""
"null","233388","HierDypod34ufk","sub06","06","1","iti","null","img/motor_7.png","75","motor","","","","","","","",""
"607","234004","HierDypod34ufk","sub06","06","1","motor","68","img/motor_3.png","68","motor","3","166","1","0","0","","",""
"null","234114","HierDypod34ufk","sub06","06","1","iti","null","img/motor_3.png","68","motor","","","","","","","",""
"462","234586","HierDypod34ufk","sub06","06","1","motor","74","img/motor_6.png","74","motor","6","167","1","0","0","","",""
"null","234698","HierDypod34ufk","sub06","06","1","iti","null","img/motor_6.png","74","motor","","","","","","","",""
"577","235286","HierDypod34ufk","sub06","06","1","motor","68","img/motor_3.png","68","motor","3","168","1","0","0","","",""
"null","235398","HierDypod34ufk","sub06","06","1","iti","null","img/motor_3.png","68","motor","","","","","","","",""
"545","235953","HierDypod34ufk","sub06","06","1","motor","83","img/motor_2.png","83","motor","2","169","1","0","0","","",""
"null","236064","HierDypod34ufk","sub06","06","1","iti","null","img/motor_2.png","83","motor","","","","","","","",""
"636","236709","HierDypod34ufk","sub06","06","1","motor","74","img/motor_6.png","74","motor","6","170","1","0","0","","",""
"null","236821","HierDypod34ufk","sub06","06","1","iti","null","img/motor_6.png","74","motor","","","","","","","",""
"665","237496","HierDypod34ufk","sub06","06","1","motor","68","img/motor_3.png","68","motor","3","171","1","0","0","","",""
"null","237605","HierDypod34ufk","sub06","06","1","iti","null","img/motor_3.png","68","motor","","","","","","","",""
"547","238164","HierDypod34ufk","sub06","06","1","motor","70","img/motor_4.png","70","motor","4","172","1","0","0","","",""
"null","238276","HierDypod34ufk","sub06","06","1","iti","null","img/motor_4.png","70","motor","","","","","","","",""
"467","238754","HierDypod34ufk","sub06","06","1","motor","72","img/motor_5.png","72","motor","5","173","1","0","0","","",""
"null","238865","HierDypod34ufk","sub06","06","1","iti","null","img/motor_5.png","72","motor","","","","","","","",""
"481","239356","HierDypod34ufk","sub06","06","1","motor","70","img/motor_4.png","70","motor","4","174","1","0","0","","",""
"null","239468","HierDypod34ufk","sub06","06","1","iti","null","img/motor_4.png","70","motor","","","","","","","",""
"512","239990","HierDypod34ufk","sub06","06","1","motor","65","img/motor_1.png","65","motor","1","175","1","0","0","","",""
"null","240101","HierDypod34ufk","sub06","06","1","iti","null","img/motor_1.png","65","motor","","","","","","","",""
"465","240576","HierDypod34ufk","sub06","06","1","motor","72","img/motor_5.png","72","motor","5","176","1","0","0","","",""
"null","240687","HierDypod34ufk","sub06","06","1","iti","null","img/motor_5.png","72","motor","","","","","","","",""
"370","241067","HierDypod34ufk","sub06","06","1","motor","72","img/motor_5.png","72","motor","5","177","1","0","0","","",""
"null","241181","HierDypod34ufk","sub06","06","1","iti","null","img/motor_5.png","72","motor","","","","","","","",""
"570","241762","HierDypod34ufk","sub06","06","1","motor","68","img/motor_3.png","68","motor","3","178","1","0","0","","",""
"null","241873","HierDypod34ufk","sub06","06","1","iti","null","img/motor_3.png","68","motor","","","","","","","",""
"486","242368","HierDypod34ufk","sub06","06","1","motor","72","img/motor_5.png","72","motor","5","179","1","0","0","","",""
"null","242480","HierDypod34ufk","sub06","06","1","iti","null","img/motor_5.png","72","motor","","","","","","","",""
"560","243051","HierDypod34ufk","sub06","06","1","motor","70","img/motor_4.png","70","motor","4","180","1","0","0","","",""
"null","243163","HierDypod34ufk","sub06","06","1","iti","null","img/motor_4.png","70","motor","","","","","","","",""
"430","243601","HierDypod34ufk","sub06","06","1","motor","72","img/motor_5.png","72","motor","5","181","1","0","0","","",""
"null","243712","HierDypod34ufk","sub06","06","1","iti","null","img/motor_5.png","72","motor","","","","","","","",""
"635","244357","HierDypod34ufk","sub06","06","1","motor","68","img/motor_3.png","68","motor","3","182","1","0","0","","",""
"null","244469","HierDypod34ufk","sub06","06","1","iti","null","img/motor_3.png","68","motor","","","","","","","",""
"475","244954","HierDypod34ufk","sub06","06","1","motor","65","img/motor_1.png","65","motor","1","183","1","0","0","","",""
"null","245063","HierDypod34ufk","sub06","06","1","iti","null","img/motor_1.png","65","motor","","","","","","","",""
"466","245538","HierDypod34ufk","sub06","06","1","motor","75","img/motor_7.png","75","motor","7","184","1","0","0","","",""
"null","245648","HierDypod34ufk","sub06","06","1","iti","null","img/motor_7.png","75","motor","","","","","","","",""
"605","246262","HierDypod34ufk","sub06","06","1","motor","72","img/motor_5.png","72","motor","5","185","1","0","0","","",""
"null","246374","HierDypod34ufk","sub06","06","1","iti","null","img/motor_5.png","72","motor","","","","","","","",""
"416","246802","HierDypod34ufk","sub06","06","1","motor","72","img/motor_5.png","72","motor","5","186","1","0","0","","",""
"null","246914","HierDypod34ufk","sub06","06","1","iti","null","img/motor_5.png","72","motor","","","","","","","",""
"590","247515","HierDypod34ufk","sub06","06","1","motor","68","img/motor_2.png","83","motor","2","187","0","1","0","","",""
"45","247569","HierDypod34ufk","sub06","06","1","motorRepeat","83","img/motor_2.png","83","motor","2","187","1","0","0","","",""
"null","247679","HierDypod34ufk","sub06","06","1","iti","null","img/motor_2.png","83","motor","","","","","","","",""
"529","248217","HierDypod34ufk","sub06","06","1","motor","72","img/motor_5.png","72","motor","5","188","1","0","0","","",""
"null","248328","HierDypod34ufk","sub06","06","1","iti","null","img/motor_5.png","72","motor","","","","","","","",""
"546","248885","HierDypod34ufk","sub06","06","1","motor","75","img/motor_7.png","75","motor","7","189","1","0","0","","",""
"null","248996","HierDypod34ufk","sub06","06","1","iti","null","img/motor_7.png","75","motor","","","","","","","",""
"482","249489","HierDypod34ufk","sub06","06","1","motor","72","img/motor_5.png","72","motor","5","190","1","0","0","","",""
"null","249600","HierDypod34ufk","sub06","06","1","iti","null","img/motor_5.png","72","motor","","","","","","","",""
"612","250221","HierDypod34ufk","sub06","06","1","motor","70","img/motor_4.png","70","motor","4","191","1","0","0","","",""
"null","250333","HierDypod34ufk","sub06","06","1","iti","null","img/motor_4.png","70","motor","","","","","","","",""
"441","250787","HierDypod34ufk","sub06","06","1","motor","70","img/motor_4.png","70","motor","4","192","1","0","0","","",""
"null","250900","HierDypod34ufk","sub06","06","1","iti","null","img/motor_4.png","70","motor","","","","","","","",""
"569","251481","HierDypod34ufk","sub06","06","1","motor","74","img/motor_6.png","74","motor","6","193","1","0","0","","",""
"null","251593","HierDypod34ufk","sub06","06","1","iti","null","img/motor_6.png","74","motor","","","","","","","",""
"517","252118","HierDypod34ufk","sub06","06","1","motor","83","img/motor_1.png","65","motor","1","194","0","1","0","","",""
"80","252208","HierDypod34ufk","sub06","06","1","motorRepeat","65","img/motor_1.png","65","motor","1","194","1","0","0","","",""
"null","252321","HierDypod34ufk","sub06","06","1","iti","null","img/motor_1.png","65","motor","","","","","","","",""
"822","253153","HierDypod34ufk","sub06","06","1","motor","70","img/motor_4.png","70","motor","4","195","1","0","0","","",""
"null","253265","HierDypod34ufk","sub06","06","1","iti","null","img/motor_4.png","70","motor","","","","","","","",""
"617","253890","HierDypod34ufk","sub06","06","1","motor","83","img/motor_2.png","83","motor","2","196","1","0","0","","",""
"null","254003","HierDypod34ufk","sub06","06","1","iti","null","img/motor_2.png","83","motor","","","","","","","",""
"444","254457","HierDypod34ufk","sub06","06","1","motor","68","img/motor_3.png","68","motor","3","197","1","0","0","","",""
"null","254570","HierDypod34ufk","sub06","06","1","iti","null","img/motor_3.png","68","motor","","","","","","","",""
"506","255090","HierDypod34ufk","sub06","06","1","motor","74","img/motor_7.png","75","motor","7","198","0","1","0","","",""
"219","255321","HierDypod34ufk","sub06","06","1","motorRepeat","75","img/motor_7.png","75","motor","7","198","1","0","0","","",""
"null","255434","HierDypod34ufk","sub06","06","1","iti","null","img/motor_7.png","75","motor","","","","","","","",""
"489","255934","HierDypod34ufk","sub06","06","1","motor","76","img/motor_8.png","76","motor","8","199","1","0","0","","",""
"null","256046","HierDypod34ufk","sub06","06","1","iti","null","img/motor_8.png","76","motor","","","","","","","",""
"745","256804","HierDypod34ufk","sub06","06","1","motor","75","img/motor_7.png","75","motor","7","200","1","0","0","","",""
"null","256918","HierDypod34ufk","sub06","06","1","iti","null","img/motor_7.png","75","motor","","","","","","","",""
"457","257385","HierDypod34ufk","sub06","06","1","motor","65","img/motor_1.png","65","motor","1","201","1","0","0","","",""
"null","257497","HierDypod34ufk","sub06","06","1","iti","null","img/motor_1.png","65","motor","","","","","","","",""
"570","258079","HierDypod34ufk","sub06","06","1","motor","72","img/motor_5.png","72","motor","5","202","1","0","0","","",""
"null","258191","HierDypod34ufk","sub06","06","1","iti","null","img/motor_5.png","72","motor","","","","","","","",""
"619","258820","HierDypod34ufk","sub06","06","1","motor","65","img/motor_1.png","65","motor","1","203","1","0","0","","",""
"null","258932","HierDypod34ufk","sub06","06","1","iti","null","img/motor_1.png","65","motor","","","","","","","",""
"480","259423","HierDypod34ufk","sub06","06","1","motor","76","img/motor_8.png","76","motor","8","204","1","0","0","","",""
"null","259535","HierDypod34ufk","sub06","06","1","iti","null","img/motor_8.png","76","motor","","","","","","","",""
"502","260047","HierDypod34ufk","sub06","06","1","motor","75","img/motor_7.png","75","motor","7","205","1","0","0","","",""
"null","260159","HierDypod34ufk","sub06","06","1","iti","null","img/motor_7.png","75","motor","","","","","","","",""
"358","260527","HierDypod34ufk","sub06","06","1","motor","74","img/motor_6.png","74","motor","6","206","1","0","0","","",""
"null","260639","HierDypod34ufk","sub06","06","1","iti","null","img/motor_6.png","74","motor","","","","","","","",""
"521","261170","HierDypod34ufk","sub06","06","1","motor","65","img/motor_1.png","65","motor","1","207","1","0","0","","",""
"null","261282","HierDypod34ufk","sub06","06","1","iti","null","img/motor_1.png","65","motor","","","","","","","",""
"605","261898","HierDypod34ufk","sub06","06","1","motor","83","img/motor_2.png","83","motor","2","208","1","0","0","","",""
"null","262010","HierDypod34ufk","sub06","06","1","iti","null","img/motor_2.png","83","motor","","","","","","","",""
"440","262462","HierDypod34ufk","sub06","06","1","motor","76","img/motor_8.png","76","motor","8","209","1","0","0","","",""
"null","262573","HierDypod34ufk","sub06","06","1","iti","null","img/motor_8.png","76","motor","","","","","","","",""
"373","262956","HierDypod34ufk","sub06","06","1","motor","76","img/motor_8.png","76","motor","8","210","1","0","0","","",""
"null","263067","HierDypod34ufk","sub06","06","1","iti","null","img/motor_8.png","76","motor","","","","","","","",""
"472","263549","HierDypod34ufk","sub06","06","1","motor","65","img/motor_1.png","65","motor","1","211","1","0","0","","",""
"null","263660","HierDypod34ufk","sub06","06","1","iti","null","img/motor_1.png","65","motor","","","","","","","",""
"581","264250","HierDypod34ufk","sub06","06","1","motor","70","img/motor_3.png","68","motor","3","212","0","1","0","","",""
"208","264467","HierDypod34ufk","sub06","06","1","motorRepeat","68","img/motor_3.png","68","motor","3","212","1","0","0","","",""
"null","264578","HierDypod34ufk","sub06","06","1","iti","null","img/motor_3.png","68","motor","","","","","","","",""
"462","265051","HierDypod34ufk","sub06","06","1","motor","68","img/motor_4.png","70","motor","4","213","0","1","0","","",""
"189","265249","HierDypod34ufk","sub06","06","1","motorRepeat","70","img/motor_4.png","70","motor","4","213","1","0","0","","",""
"null","265359","HierDypod34ufk","sub06","06","1","iti","null","img/motor_4.png","70","motor","","","","","","","",""
"384","265751","HierDypod34ufk","sub06","06","1","motor","72","img/motor_5.png","72","motor","5","214","1","0","0","","",""
"null","265860","HierDypod34ufk","sub06","06","1","iti","null","img/motor_5.png","72","motor","","","","","","","",""
"464","266332","HierDypod34ufk","sub06","06","1","motor","83","img/motor_3.png","68","motor","3","215","0","1","0","","",""
"189","266532","HierDypod34ufk","sub06","06","1","motorRepeat","68","img/motor_3.png","68","motor","3","215","1","0","0","","",""
"null","266644","HierDypod34ufk","sub06","06","1","iti","null","img/motor_3.png","68","motor","","","","","","","",""
"623","267275","HierDypod34ufk","sub06","06","1","motor","72","img/motor_5.png","72","motor","5","216","1","0","0","","",""
"null","267387","HierDypod34ufk","sub06","06","1","iti","null","img/motor_5.png","72","motor","","","","","","","",""
"509","267906","HierDypod34ufk","sub06","06","1","motor","74","img/motor_6.png","74","motor","6","217","1","0","0","","",""
"null","268016","HierDypod34ufk","sub06","06","1","iti","null","img/motor_6.png","74","motor","","","","","","","",""
"547","268574","HierDypod34ufk","sub06","06","1","motor","70","img/motor_4.png","70","motor","4","218","1","0","0","","",""
"null","268685","HierDypod34ufk","sub06","06","1","iti","null","img/motor_4.png","70","motor","","","","","","","",""
"638","269334","HierDypod34ufk","sub06","06","1","motor","83","img/motor_2.png","83","motor","2","219","1","0","0","","",""
"null","269445","HierDypod34ufk","sub06","06","1","iti","null","img/motor_2.png","83","motor","","","","","","","",""
"806","270261","HierDypod34ufk","sub06","06","1","motor","74","img/motor_7.png","75","motor","7","220","0","1","0","","",""
"223","270494","HierDypod34ufk","sub06","06","1","motorRepeat","75","img/motor_7.png","75","motor","7","220","1","0","0","","",""
"null","270602","HierDypod34ufk","sub06","06","1","iti","null","img/motor_7.png","75","motor","","","","","","","",""
"453","271065","HierDypod34ufk","sub06","06","1","motor","74","img/motor_6.png","74","motor","6","221","1","0","0","","",""
"null","271177","HierDypod34ufk","sub06","06","1","iti","null","img/motor_6.png","74","motor","","","","","","","",""
"630","271816","HierDypod34ufk","sub06","06","1","motor","75","img/motor_7.png","75","motor","7","222","1","0","0","","",""
"null","271926","HierDypod34ufk","sub06","06","1","iti","null","img/motor_7.png","75","motor","","","","","","","",""
"673","272610","HierDypod34ufk","sub06","06","1","motor","68","img/motor_3.png","68","motor","3","223","1","0","0","","",""
"null","272721","HierDypod34ufk","sub06","06","1","iti","null","img/motor_3.png","68","motor","","","","","","","",""
"538","273269","HierDypod34ufk","sub06","06","1","motor","70","img/motor_4.png","70","motor","4","224","1","0","0","","",""
"null","273381","HierDypod34ufk","sub06","06","1","iti","null","img/motor_4.png","70","motor","","","","","","","",""
"564","273956","HierDypod34ufk","sub06","06","1","motor","75","img/motor_7.png","75","motor","7","225","1","0","0","","",""
"null","274067","HierDypod34ufk","sub06","06","1","iti","null","img/motor_7.png","75","motor","","","","","","","",""
"433","274510","HierDypod34ufk","sub06","06","1","motor","68","img/motor_3.png","68","motor","3","226","1","0","0","","",""
"null","274622","HierDypod34ufk","sub06","06","1","iti","null","img/motor_3.png","68","motor","","","","","","","",""
"575","275207","HierDypod34ufk","sub06","06","1","motor","83","img/motor_2.png","83","motor","2","227","1","0","0","","",""
"null","275319","HierDypod34ufk","sub06","06","1","iti","null","img/motor_2.png","83","motor","","","","","","","",""
"473","275804","HierDypod34ufk","sub06","06","1","motor","68","img/motor_3.png","68","motor","3","228","1","0","0","","",""
"null","275915","HierDypod34ufk","sub06","06","1","iti","null","img/motor_3.png","68","motor","","","","","","","",""
"555","276480","HierDypod34ufk","sub06","06","1","motor","76","img/motor_8.png","76","motor","8","229","1","0","0","","",""
"null","276590","HierDypod34ufk","sub06","06","1","iti","null","img/motor_8.png","76","motor","","","","","","","",""
"758","277359","HierDypod34ufk","sub06","06","1","motor","68","img/motor_3.png","68","motor","3","230","1","0","0","","",""
"null","277469","HierDypod34ufk","sub06","06","1","iti","null","img/motor_3.png","68","motor","","","","","","","",""
"570","278048","HierDypod34ufk","sub06","06","1","motor","72","img/motor_5.png","72","motor","5","231","1","0","0","","",""
"null","278159","HierDypod34ufk","sub06","06","1","iti","null","img/motor_5.png","72","motor","","","","","","","",""
"374","278544","HierDypod34ufk","sub06","06","1","motor","74","img/motor_6.png","74","motor","6","232","1","0","0","","",""
"null","278655","HierDypod34ufk","sub06","06","1","iti","null","img/motor_6.png","74","motor","","","","","","","",""
"415","279081","HierDypod34ufk","sub06","06","1","motor","76","img/motor_8.png","76","motor","8","233","1","0","0","","",""
"null","279190","HierDypod34ufk","sub06","06","1","iti","null","img/motor_8.png","76","motor","","","","","","","",""
"744","279945","HierDypod34ufk","sub06","06","1","motor","74","img/motor_6.png","74","motor","6","234","1","0","0","","",""
"null","280057","HierDypod34ufk","sub06","06","1","iti","null","img/motor_6.png","74","motor","","","","","","","",""
"567","280634","HierDypod34ufk","sub06","06","1","motor","83","img/motor_2.png","83","motor","2","235","1","0","0","","",""
"null","280744","HierDypod34ufk","sub06","06","1","iti","null","img/motor_2.png","83","motor","","","","","","","",""
"477","281228","HierDypod34ufk","sub06","06","1","motor","65","img/motor_1.png","65","motor","1","236","1","0","0","","",""
"null","281339","HierDypod34ufk","sub06","06","1","iti","null","img/motor_1.png","65","motor","","","","","","","",""
"513","281861","HierDypod34ufk","sub06","06","1","motor","65","img/motor_1.png","65","motor","1","237","1","0","0","","",""
"null","281973","HierDypod34ufk","sub06","06","1","iti","null","img/motor_1.png","65","motor","","","","","","","",""
"512","282495","HierDypod34ufk","sub06","06","1","motor","72","img/motor_5.png","72","motor","5","238","1","0","0","","",""
"null","282605","HierDypod34ufk","sub06","06","1","iti","null","img/motor_5.png","72","motor","","","","","","","",""
"539","283154","HierDypod34ufk","sub06","06","1","motor","76","img/motor_8.png","76","motor","8","239","1","0","0","","",""
"null","283266","HierDypod34ufk","sub06","06","1","iti","null","img/motor_8.png","76","motor","","","","","","","",""
"508","283786","HierDypod34ufk","sub06","06","1","motor","72","img/motor_4.png","70","motor","4","240","0","1","0","","",""
"442","284237","HierDypod34ufk","sub06","06","1","motorRepeat","70","img/motor_4.png","70","motor","4","240","1","0","0","","",""
"null","284348","HierDypod34ufk","sub06","06","1","iti","null","img/motor_4.png","70","motor","","","","","","","",""
"652","285011","HierDypod34ufk","sub06","06","1","motor","83","img/motor_2.png","83","motor","2","241","1","0","0","","",""
"null","285122","HierDypod34ufk","sub06","06","1","iti","null","img/motor_2.png","83","motor","","","","","","","",""
"538","285670","HierDypod34ufk","sub06","06","1","motor","74","img/motor_6.png","74","motor","6","242","1","0","0","","",""
"null","285781","HierDypod34ufk","sub06","06","1","iti","null","img/motor_6.png","74","motor","","","","","","","",""
"525","286315","HierDypod34ufk","sub06","06","1","motor","70","img/motor_4.png","70","motor","4","243","1","0","0","","",""
"null","286426","HierDypod34ufk","sub06","06","1","iti","null","img/motor_4.png","70","motor","","","","","","","",""
"488","286924","HierDypod34ufk","sub06","06","1","motor","76","img/motor_8.png","76","motor","8","244","1","0","0","","",""
"null","287036","HierDypod34ufk","sub06","06","1","iti","null","img/motor_8.png","76","motor","","","","","","","",""
"700","287746","HierDypod34ufk","sub06","06","1","motor","72","img/motor_5.png","72","motor","5","245","1","0","0","","",""
"null","287856","HierDypod34ufk","sub06","06","1","iti","null","img/motor_5.png","72","motor","","","","","","","",""
"498","288364","HierDypod34ufk","sub06","06","1","motor","65","img/motor_1.png","65","motor","1","246","1","0","0","","",""
"null","288476","HierDypod34ufk","sub06","06","1","iti","null","img/motor_1.png","65","motor","","","","","","","",""
"591","289077","HierDypod34ufk","sub06","06","1","motor","68","img/motor_3.png","68","motor","3","247","1","0","0","","",""
"null","289189","HierDypod34ufk","sub06","06","1","iti","null","img/motor_3.png","68","motor","","","","","","","",""
"450","289650","HierDypod34ufk","sub06","06","1","motor","65","img/motor_1.png","65","motor","1","248","1","0","0","","",""
"null","289761","HierDypod34ufk","sub06","06","1","iti","null","img/motor_1.png","65","motor","","","","","","","",""
"514","290286","HierDypod34ufk","sub06","06","1","motor","70","img/motor_4.png","70","motor","4","249","1","0","0","","",""
"null","290396","HierDypod34ufk","sub06","06","1","iti","null","img/motor_4.png","70","motor","","","","","","","",""
"437","290844","HierDypod34ufk","sub06","06","1","motor","70","img/motor_4.png","70","motor","4","250","1","0","0","","",""
"null","290954","HierDypod34ufk","sub06","06","1","iti","null","img/motor_4.png","70","motor","","","","","","","",""
"362","291325","HierDypod34ufk","sub06","06","1","motor","70","img/motor_3.png","68","motor","3","251","0","1","0","","",""
"184","291517","HierDypod34ufk","sub06","06","1","motorRepeat","68","img/motor_3.png","68","motor","3","251","1","0","0","","",""
"null","291627","HierDypod34ufk","sub06","06","1","iti","null","img/motor_3.png","68","motor","","","","","","","",""
"578","292215","HierDypod34ufk","sub06","06","1","motor","75","img/motor_7.png","75","motor","7","252","1","0","0","","",""
"null","292328","HierDypod34ufk","sub06","06","1","iti","null","img/motor_7.png","75","motor","","","","","","","",""
"876","293213","HierDypod34ufk","sub06","06","1","motor","83","img/motor_2.png","83","motor","2","253","1","0","0","","",""
"null","293325","HierDypod34ufk","sub06","06","1","iti","null","img/motor_2.png","83","motor","","","","","","","",""
"732","294067","HierDypod34ufk","sub06","06","1","motor","72","img/motor_5.png","72","motor","5","254","1","0","0","","",""
"null","294177","HierDypod34ufk","sub06","06","1","iti","null","img/motor_5.png","72","motor","","","","","","","",""
"456","294644","HierDypod34ufk","sub06","06","1","motor","70","img/motor_4.png","70","motor","4","255","1","0","0","","",""
"null","294755","HierDypod34ufk","sub06","06","1","iti","null","img/motor_4.png","70","motor","","","","","","","",""
"461","295226","HierDypod34ufk","sub06","06","1","motor","76","img/motor_8.png","76","motor","8","256","1","0","0","","",""
"null","295338","HierDypod34ufk","sub06","06","1","iti","null","img/motor_8.png","76","motor","","","","","","","",""
"811","296160","HierDypod34ufk","sub06","06","1","motor","83","img/motor_2.png","83","motor","2","257","1","0","0","","",""
"null","296272","HierDypod34ufk","sub06","06","1","iti","null","img/motor_2.png","83","motor","","","","","","","",""
"501","296783","HierDypod34ufk","sub06","06","1","motor","74","img/motor_7.png","75","motor","7","258","0","1","0","","",""
"95","296887","HierDypod34ufk","sub06","06","1","motorRepeat","75","img/motor_7.png","75","motor","7","258","1","0","0","","",""
"null","296999","HierDypod34ufk","sub06","06","1","iti","null","img/motor_7.png","75","motor","","","","","","","",""
"608","297615","HierDypod34ufk","sub06","06","1","motor","70","img/motor_4.png","70","motor","4","259","1","0","0","","",""
"null","297727","HierDypod34ufk","sub06","06","1","iti","null","img/motor_4.png","70","motor","","","","","","","",""
"421","298158","HierDypod34ufk","sub06","06","1","motor","76","img/motor_8.png","76","motor","8","260","1","0","0","","",""
"null","298269","HierDypod34ufk","sub06","06","1","iti","null","img/motor_8.png","76","motor","","","","","","","",""
"533","298812","HierDypod34ufk","sub06","06","1","motor","68","img/motor_3.png","68","motor","3","261","1","0","0","","",""
"null","298924","HierDypod34ufk","sub06","06","1","iti","null","img/motor_3.png","68","motor","","","","","","","",""
"16","298948","HierDypod34ufk","sub06","06","1","motor","70","img/motor_5.png","72","motor","5","262","0","1","0","","",""
"601","299559","HierDypod34ufk","sub06","06","1","motorRepeat","72","img/motor_5.png","72","motor","5","262","1","0","0","","",""
"null","299670","HierDypod34ufk","sub06","06","1","iti","null","img/motor_5.png","72","motor","","","","","","","",""
"531","300211","HierDypod34ufk","sub06","06","1","motor","76","img/motor_8.png","76","motor","8","263","1","0","0","","",""
"null","300323","HierDypod34ufk","sub06","06","1","iti","null","img/motor_8.png","76","motor","","","","","","","",""
"407","300741","HierDypod34ufk","sub06","06","1","motor","76","img/motor_8.png","76","motor","8","264","1","0","0","","",""
"null","300852","HierDypod34ufk","sub06","06","1","iti","null","img/motor_8.png","76","motor","","","","","","","",""
"498","301359","HierDypod34ufk","sub06","06","1","motor","75","img/motor_7.png","75","motor","7","265","1","0","0","","",""
"null","301471","HierDypod34ufk","sub06","06","1","iti","null","img/motor_7.png","75","motor","","","","","","","",""
"451","301932","HierDypod34ufk","sub06","06","1","motor","65","img/motor_1.png","65","motor","1","266","1","0","0","","",""
"null","302043","HierDypod34ufk","sub06","06","1","iti","null","img/motor_1.png","65","motor","","","","","","","",""
"568","302621","HierDypod34ufk","sub06","06","1","motor","75","img/motor_7.png","75","motor","7","267","1","0","0","","",""
"null","302733","HierDypod34ufk","sub06","06","1","iti","null","img/motor_7.png","75","motor","","","","","","","",""
"400","303142","HierDypod34ufk","sub06","06","1","motor","75","img/motor_8.png","76","motor","8","268","0","1","0","","",""
"156","303306","HierDypod34ufk","sub06","06","1","motorRepeat","76","img/motor_8.png","76","motor","8","268","1","0","0","","",""
"null","303419","HierDypod34ufk","sub06","06","1","iti","null","img/motor_8.png","76","motor","","","","","","","",""
"548","303976","HierDypod34ufk","sub06","06","1","motor","83","img/motor_2.png","83","motor","2","269","1","0","0","","",""
"null","304089","HierDypod34ufk","sub06","06","1","iti","null","img/motor_2.png","83","motor","","","","","","","",""
"425","304525","HierDypod34ufk","sub06","06","1","motor","83","img/motor_2.png","83","motor","2","270","1","0","0","","",""
"null","304636","HierDypod34ufk","sub06","06","1","iti","null","img/motor_2.png","83","motor","","","","","","","",""
"445","305092","HierDypod34ufk","sub06","06","1","motor","72","img/motor_5.png","72","motor","5","271","1","0","0","","",""
"null","305204","HierDypod34ufk","sub06","06","1","iti","null","img/motor_5.png","72","motor","","","","","","","",""
"696","305909","HierDypod34ufk","sub06","06","1","motor","68","img/motor_3.png","68","motor","3","272","1","0","0","","",""
"null","306021","HierDypod34ufk","sub06","06","1","iti","null","img/motor_3.png","68","motor","","","","","","","",""
"450","306481","HierDypod34ufk","sub06","06","1","motor","72","img/motor_5.png","72","motor","5","273","1","0","0","","",""
"null","306593","HierDypod34ufk","sub06","06","1","iti","null","img/motor_5.png","72","motor","","","","","","","",""
"565","307168","HierDypod34ufk","sub06","06","1","motor","83","img/motor_2.png","83","motor","2","274","1","0","0","","",""
"null","307280","HierDypod34ufk","sub06","06","1","iti","null","img/motor_2.png","83","motor","","","","","","","",""
"591","307881","HierDypod34ufk","sub06","06","1","motor","75","img/motor_7.png","75","motor","7","275","1","0","0","","",""
"null","307993","HierDypod34ufk","sub06","06","1","iti","null","img/motor_7.png","75","motor","","","","","","","",""
"392","308395","HierDypod34ufk","sub06","06","1","motor","75","img/motor_7.png","75","motor","7","276","1","0","0","","",""
"null","308506","HierDypod34ufk","sub06","06","1","iti","null","img/motor_7.png","75","motor","","","","","","","",""
"444","308962","HierDypod34ufk","sub06","06","1","motor","72","img/motor_5.png","72","motor","5","277","1","0","0","","",""
"null","309073","HierDypod34ufk","sub06","06","1","iti","null","img/motor_5.png","72","motor","","","","","","","",""
"532","309614","HierDypod34ufk","sub06","06","1","motor","68","img/motor_3.png","68","motor","3","278","1","0","0","","",""
"null","309725","HierDypod34ufk","sub06","06","1","iti","null","img/motor_3.png","68","motor","","","","","","","",""
"405","310142","HierDypod34ufk","sub06","06","1","motor","76","img/motor_8.png","76","motor","8","279","1","0","0","","",""
"null","310253","HierDypod34ufk","sub06","06","1","iti","null","img/motor_8.png","76","motor","","","","","","","",""
"633","310897","HierDypod34ufk","sub06","06","1","motor","75","img/motor_7.png","75","motor","7","280","1","0","0","","",""
"null","311008","HierDypod34ufk","sub06","06","1","iti","null","img/motor_7.png","75","motor","","","","","","","",""
"450","311470","HierDypod34ufk","sub06","06","1","motor","74","img/motor_6.png","74","motor","6","281","1","0","0","","",""
"null","311581","HierDypod34ufk","sub06","06","1","iti","null","img/motor_6.png","74","motor","","","","","","","",""
"488","312080","HierDypod34ufk","sub06","06","1","motor","76","img/motor_8.png","76","motor","8","282","1","0","0","","",""
"null","312192","HierDypod34ufk","sub06","06","1","iti","null","img/motor_8.png","76","motor","","","","","","","",""
"544","312747","HierDypod34ufk","sub06","06","1","motor","70","img/motor_4.png","70","motor","4","283","1","0","0","","",""
"null","312856","HierDypod34ufk","sub06","06","1","iti","null","img/motor_4.png","70","motor","","","","","","","",""
"393","313259","HierDypod34ufk","sub06","06","1","motor","70","img/motor_4.png","70","motor","4","284","1","0","0","","",""
"null","313369","HierDypod34ufk","sub06","06","1","iti","null","img/motor_4.png","70","motor","","","","","","","",""
"532","313912","HierDypod34ufk","sub06","06","1","motor","74","img/motor_6.png","74","motor","6","285","1","0","0","","",""
"null","314023","HierDypod34ufk","sub06","06","1","iti","null","img/motor_6.png","74","motor","","","","","","","",""
"677","314711","HierDypod34ufk","sub06","06","1","motor","68","img/motor_3.png","68","motor","3","286","1","0","0","","",""
"null","314823","HierDypod34ufk","sub06","06","1","iti","null","img/motor_3.png","68","motor","","","","","","","",""
"474","315309","HierDypod34ufk","sub06","06","1","motor","65","img/motor_1.png","65","motor","1","287","1","0","0","","",""
"null","315423","HierDypod34ufk","sub06","06","1","iti","null","img/motor_1.png","65","motor","","","","","","","",""
"594","316031","HierDypod34ufk","sub06","06","1","motor","83","img/motor_2.png","83","motor","2","288","1","0","0","","",""
"null","316143","HierDypod34ufk","sub06","06","1","iti","null","img/motor_2.png","83","motor","","","","","","","",""
"439","316592","HierDypod34ufk","sub06","06","1","motor","70","img/motor_4.png","70","motor","4","289","1","0","0","","",""
"null","316705","HierDypod34ufk","sub06","06","1","iti","null","img/motor_4.png","70","motor","","","","","","","",""
"729","317447","HierDypod34ufk","sub06","06","1","motor","83","img/motor_2.png","83","motor","2","290","1","0","0","","",""
"null","317561","HierDypod34ufk","sub06","06","1","iti","null","img/motor_2.png","83","motor","","","","","","","",""
"404","317976","HierDypod34ufk","sub06","06","1","motor","68","img/motor_3.png","68","motor","3","291","1","0","0","","",""
"null","318087","HierDypod34ufk","sub06","06","1","iti","null","img/motor_3.png","68","motor","","","","","","","",""
"423","318521","HierDypod34ufk","sub06","06","1","motor","65","img/motor_2.png","83","motor","2","292","0","1","0","","",""
"249","318782","HierDypod34ufk","sub06","06","1","motorRepeat","83","img/motor_2.png","83","motor","2","292","1","0","0","","",""
"null","318894","HierDypod34ufk","sub06","06","1","iti","null","img/motor_2.png","83","motor","","","","","","","",""
"433","319341","HierDypod34ufk","sub06","06","1","motor","76","img/motor_8.png","76","motor","8","293","1","0","0","","",""
"null","319454","HierDypod34ufk","sub06","06","1","iti","null","img/motor_8.png","76","motor","","","","","","","",""
"465","319930","HierDypod34ufk","sub06","06","1","motor","74","img/motor_6.png","74","motor","6","294","1","0","0","","",""
"null","320042","HierDypod34ufk","sub06","06","1","iti","null","img/motor_6.png","74","motor","","","","","","","",""
"506","320560","HierDypod34ufk","sub06","06","1","motor","72","img/motor_5.png","72","motor","5","295","1","0","0","","",""
"null","320671","HierDypod34ufk","sub06","06","1","iti","null","img/motor_5.png","72","motor","","","","","","","",""
"486","321167","HierDypod34ufk","sub06","06","1","motor","65","img/motor_1.png","65","motor","1","296","1","0","0","","",""
"null","321279","HierDypod34ufk","sub06","06","1","iti","null","img/motor_1.png","65","motor","","","","","","","",""
"441","321731","HierDypod34ufk","sub06","06","1","motor","68","img/motor_3.png","68","motor","3","297","1","0","0","","",""
"null","321844","HierDypod34ufk","sub06","06","1","iti","null","img/motor_3.png","68","motor","","","","","","","",""
"514","322367","HierDypod34ufk","sub06","06","1","motor","72","img/motor_6.png","74","motor","6","298","0","1","0","","",""
"165","322541","HierDypod34ufk","sub06","06","1","motorRepeat","74","img/motor_6.png","74","motor","6","298","1","0","0","","",""
"null","322654","HierDypod34ufk","sub06","06","1","iti","null","img/motor_6.png","74","motor","","","","","","","",""
"545","323210","HierDypod34ufk","sub06","06","1","motor","70","img/motor_3.png","68","motor","3","299","0","1","0","","",""
"231","323451","HierDypod34ufk","sub06","06","1","motorRepeat","68","img/motor_3.png","68","motor","3","299","1","0","0","","",""
"null","323562","HierDypod34ufk","sub06","06","1","iti","null","img/motor_3.png","68","motor","","","","","","","",""
"516","324089","HierDypod34ufk","sub06","06","1","motor","83","img/motor_2.png","83","motor","2","300","1","0","0","","",""
"null","324199","HierDypod34ufk","sub06","06","1","iti","null","img/motor_2.png","83","motor","","","","","","","",""
"462","324670","HierDypod34ufk","sub06","06","1","motor","70","img/motor_4.png","70","motor","4","301","1","0","0","","",""
"null","324781","HierDypod34ufk","sub06","06","1","iti","null","img/motor_4.png","70","motor","","","","","","","",""
"562","325352","HierDypod34ufk","sub06","06","1","motor","83","img/motor_2.png","83","motor","2","302","1","0","0","","",""
"null","325464","HierDypod34ufk","sub06","06","1","iti","null","img/motor_2.png","83","motor","","","","","","","",""
"563","326038","HierDypod34ufk","sub06","06","1","motor","83","img/motor_2.png","83","motor","2","303","1","0","0","","",""
"null","326150","HierDypod34ufk","sub06","06","1","iti","null","img/motor_2.png","83","motor","","","","","","","",""
"724","326885","HierDypod34ufk","sub06","06","1","motor","75","img/motor_7.png","75","motor","7","304","1","0","0","","",""
"null","326997","HierDypod34ufk","sub06","06","1","iti","null","img/motor_7.png","75","motor","","","","","","","",""
"425","327433","HierDypod34ufk","sub06","06","1","motor","72","img/motor_5.png","72","motor","5","305","1","0","0","","",""
"null","327544","HierDypod34ufk","sub06","06","1","iti","null","img/motor_5.png","72","motor","","","","","","","",""
"490","328044","HierDypod34ufk","sub06","06","1","motor","65","img/motor_1.png","65","motor","1","306","1","0","0","","",""
"null","328157","HierDypod34ufk","sub06","06","1","iti","null","img/motor_1.png","65","motor","","","","","","","",""
"434","328599","HierDypod34ufk","sub06","06","1","motor","72","img/motor_5.png","72","motor","5","307","1","0","0","","",""
"null","328712","HierDypod34ufk","sub06","06","1","iti","null","img/motor_5.png","72","motor","","","","","","","",""
"861","329582","HierDypod34ufk","sub06","06","1","motor","83","img/motor_2.png","83","motor","2","308","1","0","0","","",""
"null","329694","HierDypod34ufk","sub06","06","1","iti","null","img/motor_2.png","83","motor","","","","","","","",""
"352","330058","HierDypod34ufk","sub06","06","1","motor","83","img/motor_2.png","83","motor","2","309","1","0","0","","",""
"null","330170","HierDypod34ufk","sub06","06","1","iti","null","img/motor_2.png","83","motor","","","","","","","",""
"494","330676","HierDypod34ufk","sub06","06","1","motor","70","img/motor_4.png","70","motor","4","310","1","0","0","","",""
"null","330787","HierDypod34ufk","sub06","06","1","iti","null","img/motor_4.png","70","motor","","","","","","","",""
"468","331266","HierDypod34ufk","sub06","06","1","motor","68","img/motor_3.png","68","motor","3","311","1","0","0","","",""
"null","331378","HierDypod34ufk","sub06","06","1","iti","null","img/motor_3.png","68","motor","","","","","","","",""
"496","331885","HierDypod34ufk","sub06","06","1","motor","65","img/motor_1.png","65","motor","1","312","1","0","0","","",""
"null","331996","HierDypod34ufk","sub06","06","1","iti","null","img/motor_1.png","65","motor","","","","","","","",""
"436","332444","HierDypod34ufk","sub06","06","1","motor","75","img/motor_7.png","75","motor","7","313","1","0","0","","",""
"null","332556","HierDypod34ufk","sub06","06","1","iti","null","img/motor_7.png","75","motor","","","","","","","",""
"476","333041","HierDypod34ufk","sub06","06","1","motor","72","img/motor_5.png","72","motor","5","314","1","0","0","","",""
"null","333154","HierDypod34ufk","sub06","06","1","iti","null","img/motor_5.png","72","motor","","","","","","","",""
"412","333577","HierDypod34ufk","sub06","06","1","motor","72","img/motor_5.png","72","motor","5","315","1","0","0","","",""
"null","333687","HierDypod34ufk","sub06","06","1","iti","null","img/motor_5.png","72","motor","","","","","","","",""
"642","334340","HierDypod34ufk","sub06","06","1","motor","75","img/motor_7.png","75","motor","7","316","1","0","0","","",""
"null","334452","HierDypod34ufk","sub06","06","1","iti","null","img/motor_7.png","75","motor","","","","","","","",""
"490","334953","HierDypod34ufk","sub06","06","1","motor","65","img/motor_1.png","65","motor","1","317","1","0","0","","",""
"null","335066","HierDypod34ufk","sub06","06","1","iti","null","img/motor_1.png","65","motor","","","","","","","",""
"393","335469","HierDypod34ufk","sub06","06","1","motor","72","img/motor_4.png","70","motor","4","318","0","1","0","","",""
"166","335645","HierDypod34ufk","sub06","06","1","motorRepeat","70","img/motor_4.png","70","motor","4","318","1","0","0","","",""
"null","335756","HierDypod34ufk","sub06","06","1","iti","null","img/motor_4.png","70","motor","","","","","","","",""
"490","336257","HierDypod34ufk","sub06","06","1","motor","65","img/motor_1.png","65","motor","1","319","1","0","0","","",""
"null","336368","HierDypod34ufk","sub06","06","1","iti","null","img/motor_1.png","65","motor","","","","","","","",""
"431","336810","HierDypod34ufk","sub06","06","1","motor","76","img/motor_8.png","76","motor","8","320","1","0","0","","",""
"null","336922","HierDypod34ufk","sub06","06","1","iti","null","img/motor_8.png","76","motor","","","","","","","",""
"471","337403","HierDypod34ufk","sub06","06","1","motor","70","img/motor_4.png","70","motor","4","321","1","0","0","","",""
"null","337515","HierDypod34ufk","sub06","06","1","iti","null","img/motor_4.png","70","motor","","","","","","","",""
"551","338077","HierDypod34ufk","sub06","06","1","motor","74","img/motor_6.png","74","motor","6","322","1","0","0","","",""
"null","338189","HierDypod34ufk","sub06","06","1","iti","null","img/motor_6.png","74","motor","","","","","","","",""
"569","338769","HierDypod34ufk","sub06","06","1","motor","70","img/motor_4.png","70","motor","4","323","1","0","0","","",""
"null","338882","HierDypod34ufk","sub06","06","1","iti","null","img/motor_4.png","70","motor","","","","","","","",""
"524","339416","HierDypod34ufk","sub06","06","1","motor","75","img/motor_7.png","75","motor","7","324","1","0","0","","",""
"null","339528","HierDypod34ufk","sub06","06","1","iti","null","img/motor_7.png","75","motor","","","","","","","",""
"606","340146","HierDypod34ufk","sub06","06","1","motor","83","img/motor_2.png","83","motor","2","325","1","0","0","","",""
"null","340256","HierDypod34ufk","sub06","06","1","iti","null","img/motor_2.png","83","motor","","","","","","","",""
"444","340711","HierDypod34ufk","sub06","06","1","motor","76","img/motor_8.png","76","motor","8","326","1","0","0","","",""
"null","340822","HierDypod34ufk","sub06","06","1","iti","null","img/motor_8.png","76","motor","","","","","","","",""
"477","341308","HierDypod34ufk","sub06","06","1","motor","65","img/motor_1.png","65","motor","1","327","1","0","0","","",""
"null","341420","HierDypod34ufk","sub06","06","1","iti","null","img/motor_1.png","65","motor","","","","","","","",""
"368","341800","HierDypod34ufk","sub06","06","1","motor","72","img/motor_5.png","72","motor","5","328","1","0","0","","",""
"null","341913","HierDypod34ufk","sub06","06","1","iti","null","img/motor_5.png","72","motor","","","","","","","",""
"490","342413","HierDypod34ufk","sub06","06","1","motor","76","img/motor_8.png","76","motor","8","329","1","0","0","","",""
"null","342525","HierDypod34ufk","sub06","06","1","iti","null","img/motor_8.png","76","motor","","","","","","","",""
"313","342849","HierDypod34ufk","sub06","06","1","motor","76","img/motor_8.png","76","motor","8","330","1","0","0","","",""
"null","342962","HierDypod34ufk","sub06","06","1","iti","null","img/motor_8.png","76","motor","","","","","","","",""
"476","343449","HierDypod34ufk","sub06","06","1","motor","70","img/motor_1.png","65","motor","1","331","0","1","0","","",""
"152","343610","HierDypod34ufk","sub06","06","1","motorRepeat","65","img/motor_1.png","65","motor","1","331","1","0","0","","",""
"null","343722","HierDypod34ufk","sub06","06","1","iti","null","img/motor_1.png","65","motor","","","","","","","",""
"490","344224","HierDypod34ufk","sub06","06","1","motor","70","img/motor_4.png","70","motor","4","332","1","0","0","","",""
"null","344332","HierDypod34ufk","sub06","06","1","iti","null","img/motor_4.png","70","motor","","","","","","","",""
"394","344736","HierDypod34ufk","sub06","06","1","motor","72","img/motor_5.png","72","motor","5","333","1","0","0","","",""
"null","344846","HierDypod34ufk","sub06","06","1","iti","null","img/motor_5.png","72","motor","","","","","","","",""
"397","345252","HierDypod34ufk","sub06","06","1","motor","72","img/motor_5.png","72","motor","5","334","1","0","0","","",""
"null","345363","HierDypod34ufk","sub06","06","1","iti","null","img/motor_5.png","72","motor","","","","","","","",""
"499","345872","HierDypod34ufk","sub06","06","1","motor","65","img/motor_1.png","65","motor","1","335","1","0","0","","",""
"null","345981","HierDypod34ufk","sub06","06","1","iti","null","img/motor_1.png","65","motor","","","","","","","",""
"569","346560","HierDypod34ufk","sub06","06","1","motor","68","img/motor_3.png","68","motor","3","336","1","0","0","","",""
"null","346672","HierDypod34ufk","sub06","06","1","iti","null","img/motor_3.png","68","motor","","","","","","","",""
"489","347171","HierDypod34ufk","sub06","06","1","motor","65","img/motor_1.png","65","motor","1","337","1","0","0","","",""
"null","347282","HierDypod34ufk","sub06","06","1","iti","null","img/motor_1.png","65","motor","","","","","","","",""
"456","347750","HierDypod34ufk","sub06","06","1","motor","76","img/motor_8.png","76","motor","8","338","1","0","0","","",""
"null","347860","HierDypod34ufk","sub06","06","1","iti","null","img/motor_8.png","76","motor","","","","","","","",""
"773","348645","HierDypod34ufk","sub06","06","1","motor","68","img/motor_3.png","68","motor","3","339","1","0","0","","",""
"null","348757","HierDypod34ufk","sub06","06","1","iti","null","img/motor_3.png","68","motor","","","","","","","",""
"704","349472","HierDypod34ufk","sub06","06","1","motor","75","img/motor_7.png","75","motor","7","340","1","0","0","","",""
"null","349584","HierDypod34ufk","sub06","06","1","iti","null","img/motor_7.png","75","motor","","","","","","","",""
"389","349983","HierDypod34ufk","sub06","06","1","motor","75","img/motor_8.png","76","motor","8","341","0","1","0","","",""
"177","350170","HierDypod34ufk","sub06","06","1","motorRepeat","76","img/motor_8.png","76","motor","8","341","1","0","0","","",""
"null","350281","HierDypod34ufk","sub06","06","1","iti","null","img/motor_8.png","76","motor","","","","","","","",""
"516","350808","HierDypod34ufk","sub06","06","1","motor","72","img/motor_5.png","72","motor","5","342","1","0","0","","",""
"null","350920","HierDypod34ufk","sub06","06","1","iti","null","img/motor_5.png","72","motor","","","","","","","",""
"382","351313","HierDypod34ufk","sub06","06","1","motor","74","img/motor_6.png","74","motor","6","343","1","0","0","","",""
"null","351424","HierDypod34ufk","sub06","06","1","iti","null","img/motor_6.png","74","motor","","","","","","","",""
"512","351947","HierDypod34ufk","sub06","06","1","motor","65","img/motor_1.png","65","motor","1","344","1","0","0","","",""
"null","352058","HierDypod34ufk","sub06","06","1","iti","null","img/motor_1.png","65","motor","","","","","","","",""
"349","352417","HierDypod34ufk","sub06","06","1","motor","70","img/motor_4.png","70","motor","4","345","1","0","0","","",""
"null","352530","HierDypod34ufk","sub06","06","1","iti","null","img/motor_4.png","70","motor","","","","","","","",""
"526","353065","HierDypod34ufk","sub06","06","1","motor","68","img/motor_3.png","68","motor","3","346","1","0","0","","",""
"null","353176","HierDypod34ufk","sub06","06","1","iti","null","img/motor_3.png","68","motor","","","","","","","",""
"438","353623","HierDypod34ufk","sub06","06","1","motor","70","img/motor_4.png","70","motor","4","347","1","0","0","","",""
"null","353736","HierDypod34ufk","sub06","06","1","iti","null","img/motor_4.png","70","motor","","","","","","","",""
"437","354182","HierDypod34ufk","sub06","06","1","motor","72","img/motor_7.png","75","motor","7","348","0","1","0","","",""
"108","354301","HierDypod34ufk","sub06","06","1","motorRepeat","74","img/motor_7.png","75","motor","7","348","0","1","0","","",""
"294","354605","HierDypod34ufk","sub06","06","1","motorRepeat","75","img/motor_7.png","75","motor","7","348","1","0","0","","",""
"null","354717","HierDypod34ufk","sub06","06","1","iti","null","img/motor_7.png","75","motor","","","","","","","",""
"476","355204","HierDypod34ufk","sub06","06","1","motor","70","img/motor_4.png","70","motor","4","349","1","0","0","","",""
"null","355317","HierDypod34ufk","sub06","06","1","iti","null","img/motor_4.png","70","motor","","","","","","","",""
"384","355709","HierDypod34ufk","sub06","06","1","motor","76","img/motor_8.png","76","motor","8","350","1","0","0","","",""
"null","355822","HierDypod34ufk","sub06","06","1","iti","null","img/motor_8.png","76","motor","","","","","","","",""
"420","356251","HierDypod34ufk","sub06","06","1","motor","72","img/motor_5.png","72","motor","5","351","1","0","0","","",""
"null","356362","HierDypod34ufk","sub06","06","1","iti","null","img/motor_5.png","72","motor","","","","","","","",""
"599","356972","HierDypod34ufk","sub06","06","1","motor","74","img/motor_7.png","75","motor","7","352","0","1","0","","",""
"277","357259","HierDypod34ufk","sub06","06","1","motorRepeat","75","img/motor_7.png","75","motor","7","352","1","0","0","","",""
"null","357371","HierDypod34ufk","sub06","06","1","iti","null","img/motor_7.png","75","motor","","","","","","","",""
"574","357956","HierDypod34ufk","sub06","06","1","motor","75","img/motor_7.png","75","motor","7","353","1","0","0","","",""
"null","358069","HierDypod34ufk","sub06","06","1","iti","null","img/motor_7.png","75","motor","","","","","","","",""
"812","358891","HierDypod34ufk","sub06","06","1","motor","68","img/motor_3.png","68","motor","3","354","1","0","0","","",""
"null","359004","HierDypod34ufk","sub06","06","1","iti","null","img/motor_3.png","68","motor","","","","","","","",""
"578","359593","HierDypod34ufk","sub06","06","1","motor","70","img/motor_4.png","70","motor","4","355","1","0","0","","",""
"null","359704","HierDypod34ufk","sub06","06","1","iti","null","img/motor_4.png","70","motor","","","","","","","",""
"614","360330","HierDypod34ufk","sub06","06","1","motor","72","img/motor_5.png","72","motor","5","356","1","0","0","","",""
"null","360441","HierDypod34ufk","sub06","06","1","iti","null","img/motor_5.png","72","motor","","","","","","","",""
"488","360940","HierDypod34ufk","sub06","06","1","motor","65","img/motor_1.png","65","motor","1","357","1","0","0","","",""
"null","361053","HierDypod34ufk","sub06","06","1","iti","null","img/motor_1.png","65","motor","","","","","","","",""
"607","361670","HierDypod34ufk","sub06","06","1","motor","72","img/motor_6.png","74","motor","6","358","0","1","0","","",""
"166","361847","HierDypod34ufk","sub06","06","1","motorRepeat","74","img/motor_6.png","74","motor","6","358","1","0","0","","",""
"null","361958","HierDypod34ufk","sub06","06","1","iti","null","img/motor_6.png","74","motor","","","","","","","",""
"677","362645","HierDypod34ufk","sub06","06","1","motor","68","img/motor_3.png","68","motor","3","359","1","0","0","","",""
"null","362757","HierDypod34ufk","sub06","06","1","iti","null","img/motor_3.png","68","motor","","","","","","","",""
"566","363333","HierDypod34ufk","sub06","06","1","motor","65","img/motor_1.png","65","motor","1","360","1","0","0","","",""
"null","363445","HierDypod34ufk","sub06","06","1","iti","null","img/motor_1.png","65","motor","","","","","","","",""
"375","363829","HierDypod34ufk","sub06","06","1","motor","65","img/motor_2.png","83","motor","2","361","0","1","0","","",""
"147","363986","HierDypod34ufk","sub06","06","1","motorRepeat","83","img/motor_2.png","83","motor","2","361","1","0","0","","",""
"null","364097","HierDypod34ufk","sub06","06","1","iti","null","img/motor_2.png","83","motor","","","","","","","",""
"456","364565","HierDypod34ufk","sub06","06","1","motor","65","img/motor_1.png","65","motor","1","362","1","0","0","","",""
"null","364676","HierDypod34ufk","sub06","06","1","iti","null","img/motor_1.png","65","motor","","","","","","","",""
"548","365235","HierDypod34ufk","sub06","06","1","motor","70","img/motor_4.png","70","motor","4","363","1","0","0","","",""
"null","365347","HierDypod34ufk","sub06","06","1","iti","null","img/motor_4.png","70","motor","","","","","","","",""
"530","365887","HierDypod34ufk","sub06","06","1","motor","74","img/motor_7.png","75","motor","7","364","0","1","0","","",""
"60","365956","HierDypod34ufk","sub06","06","1","motorRepeat","75","img/motor_7.png","75","motor","7","364","1","0","0","","",""
"null","366068","HierDypod34ufk","sub06","06","1","iti","null","img/motor_7.png","75","motor","","","","","","","",""
"493","366572","HierDypod34ufk","sub06","06","1","motor","65","img/motor_1.png","65","motor","1","365","1","0","0","","",""
"null","366685","HierDypod34ufk","sub06","06","1","iti","null","img/motor_1.png","65","motor","","","","","","","",""
"585","367280","HierDypod34ufk","sub06","06","1","motor","68","img/motor_3.png","68","motor","3","366","1","0","0","","",""
"null","367393","HierDypod34ufk","sub06","06","1","iti","null","img/motor_3.png","68","motor","","","","","","","",""
"451","367855","HierDypod34ufk","sub06","06","1","motor","68","img/motor_3.png","68","motor","3","367","1","0","0","","",""
"null","367966","HierDypod34ufk","sub06","06","1","iti","null","img/motor_3.png","68","motor","","","","","","","",""
"535","368513","HierDypod34ufk","sub06","06","1","motor","74","img/motor_6.png","74","motor","6","368","1","0","0","","",""
"null","368625","HierDypod34ufk","sub06","06","1","iti","null","img/motor_6.png","74","motor","","","","","","","",""
"497","369133","HierDypod34ufk","sub06","06","1","motor","74","img/motor_6.png","74","motor","6","369","1","0","0","","",""
"null","369245","HierDypod34ufk","sub06","06","1","iti","null","img/motor_6.png","74","motor","","","","","","","",""
"682","369939","HierDypod34ufk","sub06","06","1","motor","72","img/motor_5.png","72","motor","5","370","1","0","0","","",""
"null","370050","HierDypod34ufk","sub06","06","1","iti","null","img/motor_5.png","72","motor","","","","","","","",""
"557","370615","HierDypod34ufk","sub06","06","1","motor","75","img/motor_7.png","75","motor","7","371","1","0","0","","",""
"null","370724","HierDypod34ufk","sub06","06","1","iti","null","img/motor_7.png","75","motor","","","","","","","",""
"536","371269","HierDypod34ufk","sub06","06","1","motor","65","img/motor_1.png","65","motor","1","372","1","0","0","","",""
"null","371381","HierDypod34ufk","sub06","06","1","iti","null","img/motor_1.png","65","motor","","","","","","","",""
"465","371856","HierDypod34ufk","sub06","06","1","motor","65","img/motor_1.png","65","motor","1","373","1","0","0","","",""
"null","371967","HierDypod34ufk","sub06","06","1","iti","null","img/motor_1.png","65","motor","","","","","","","",""
"439","372416","HierDypod34ufk","sub06","06","1","motor","76","img/motor_8.png","76","motor","8","374","1","0","0","","",""
"null","372529","HierDypod34ufk","sub06","06","1","iti","null","img/motor_8.png","76","motor","","","","","","","",""
"538","373076","HierDypod34ufk","sub06","06","1","motor","75","img/motor_7.png","75","motor","7","375","1","0","0","","",""
"null","373188","HierDypod34ufk","sub06","06","1","iti","null","img/motor_7.png","75","motor","","","","","","","",""
"456","373653","HierDypod34ufk","sub06","06","1","motor","72","img/motor_5.png","72","motor","5","376","1","0","0","","",""
"null","373765","HierDypod34ufk","sub06","06","1","iti","null","img/motor_5.png","72","motor","","","","","","","",""
"587","374363","HierDypod34ufk","sub06","06","1","motor","68","img/motor_2.png","83","motor","2","377","0","1","0","","",""
"90","374463","HierDypod34ufk","sub06","06","1","motorRepeat","83","img/motor_2.png","83","motor","2","377","1","0","0","","",""
"null","374574","HierDypod34ufk","sub06","06","1","iti","null","img/motor_2.png","83","motor","","","","","","","",""
"479","375064","HierDypod34ufk","sub06","06","1","motor","72","img/motor_5.png","72","motor","5","378","1","0","0","","",""
"null","375177","HierDypod34ufk","sub06","06","1","iti","null","img/motor_5.png","72","motor","","","","","","","",""
"595","375782","HierDypod34ufk","sub06","06","1","motor","83","img/motor_2.png","83","motor","2","379","1","0","0","","",""
"null","375895","HierDypod34ufk","sub06","06","1","iti","null","img/motor_2.png","83","motor","","","","","","","",""
"484","376391","HierDypod34ufk","sub06","06","1","motor","65","img/motor_1.png","65","motor","1","380","1","0","0","","",""
"null","376503","HierDypod34ufk","sub06","06","1","iti","null","img/motor_1.png","65","motor","","","","","","","",""
"574","377088","HierDypod34ufk","sub06","06","1","motor","74","img/motor_6.png","74","motor","6","381","1","0","0","","",""
"null","377200","HierDypod34ufk","sub06","06","1","iti","null","img/motor_6.png","74","motor","","","","","","","",""
"631","377842","HierDypod34ufk","sub06","06","1","motor","68","img/motor_3.png","68","motor","3","382","1","0","0","","",""
"null","377954","HierDypod34ufk","sub06","06","1","iti","null","img/motor_3.png","68","motor","","","","","","","",""
"609","378576","HierDypod34ufk","sub06","06","1","motor","74","img/motor_6.png","74","motor","6","383","1","0","0","","",""
"null","378688","HierDypod34ufk","sub06","06","1","iti","null","img/motor_6.png","74","motor","","","","","","","",""
"443","379142","HierDypod34ufk","sub06","06","1","motor","76","img/motor_8.png","76","motor","8","384","1","0","0","","",""
"null","379253","HierDypod34ufk","sub06","06","1","iti","null","img/motor_8.png","76","motor","","","","","","","",""
"405","379671","HierDypod34ufk","sub06","06","1","motor","76","img/motor_8.png","76","motor","8","385","1","0","0","","",""
"null","379785","HierDypod34ufk","sub06","06","1","iti","null","img/motor_8.png","76","motor","","","","","","","",""
"541","380339","HierDypod34ufk","sub06","06","1","motor","74","img/motor_6.png","74","motor","6","386","1","0","0","","",""
"null","380452","HierDypod34ufk","sub06","06","1","iti","null","img/motor_6.png","74","motor","","","","","","","",""
"560","381024","HierDypod34ufk","sub06","06","1","motor","70","img/motor_4.png","70","motor","4","387","1","0","0","","",""
"null","381136","HierDypod34ufk","sub06","06","1","iti","null","img/motor_4.png","70","motor","","","","","","","",""
"383","381531","HierDypod34ufk","sub06","06","1","motor","65","img/motor_1.png","65","motor","1","388","1","0","0","","",""
"null","381641","HierDypod34ufk","sub06","06","1","iti","null","img/motor_1.png","65","motor","","","","","","","",""
"387","382039","HierDypod34ufk","sub06","06","1","motor","65","img/motor_1.png","65","motor","1","389","1","0","0","","",""
"null","382150","HierDypod34ufk","sub06","06","1","iti","null","img/motor_1.png","65","motor","","","","","","","",""
"585","382746","HierDypod34ufk","sub06","06","1","motor","75","img/motor_7.png","75","motor","7","390","1","0","0","","",""
