"rt","time_elapsed","subject","subID","group","day","trialType","phase","key_press","stim","stimNum","corrresp","hierarchy","trialNum","corr","responses"
"1664.5999999940395","1669","HierDyqhw7lx03","sub18","06","05","","","","","","","","","",""
"","3839","HierDyqhw7lx03","sub18","06","05","fullscreen","","","","","","","","",""
"1013.7999999970198","4853","HierDyqhw7lx03","sub18","06","05","","prac","","","","","","","",""
"888.2999999970198","5744","HierDyqhw7lx03","sub18","06","05","","","32","","","","","","",""
"3016","8760","HierDyqhw7lx03","sub18","06","05","","prac","","","","","","","",""
"1413.5","10175","HierDyqhw7lx03","sub18","06","05","rl","test","83","img/r_t_stripes.png","2","83","pattern,shape,color","1","1",""
"null","11183","HierDyqhw7lx03","sub18","06","05","feedback","test","null","","","na","","1","",""
"1194.7000000029802","12379","HierDyqhw7lx03","sub18","06","05","rl","test","75","img/o_s_check.png","7","75","pattern,shape,color","2","1",""
"null","13385","HierDyqhw7lx03","sub18","06","05","feedback","test","null","","","na","","2","",""
"1077.2999999970198","14464","HierDyqhw7lx03","sub18","06","05","rl","test","72","img/o_t_check.png","5","72","pattern,shape,color","3","1",""
"null","15474","HierDyqhw7lx03","sub18","06","05","feedback","test","null","","","na","","3","",""
"938.3999999985099","16414","HierDyqhw7lx03","sub18","06","05","rl","test","65","img/o_t_stripes.png","1","65","pattern,shape,color","4","1",""
"null","17416","HierDyqhw7lx03","sub18","06","05","feedback","test","null","","","na","","4","",""
"713.3000000044703","18130","HierDyqhw7lx03","sub18","06","05","rl","test","70","img/r_s_stripes.png","4","70","pattern,shape,color","5","1",""
"null","19138","HierDyqhw7lx03","sub18","06","05","feedback","test","null","","","na","","5","",""
"830.7999999970198","19970","HierDyqhw7lx03","sub18","06","05","rl","test","74","img/r_t_check.png","6","74","pattern,shape,color","6","1",""
"null","20976","HierDyqhw7lx03","sub18","06","05","feedback","test","null","","","na","","6","",""
"938.1000000014901","21915","HierDyqhw7lx03","sub18","06","05","rl","test","68","img/o_s_stripes.png","3","68","pattern,shape,color","7","1",""
"null","22920","HierDyqhw7lx03","sub18","06","05","feedback","test","null","","","na","","7","",""
"991.7999999970198","23913","HierDyqhw7lx03","sub18","06","05","rl","test","74","img/r_t_check.png","6","74","pattern,shape,color","8","1",""
"null","24921","HierDyqhw7lx03","sub18","06","05","feedback","test","null","","","na","","8","",""
"806.3999999985099","25729","HierDyqhw7lx03","sub18","06","05","rl","test","83","img/o_t_stripes.png","1","65","pattern,shape,color","9","0",""
"null","26737","HierDyqhw7lx03","sub18","06","05","feedback","test","null","","","na","","9","",""
"832","27570","HierDyqhw7lx03","sub18","06","05","rl","test","76","img/r_s_check.png","8","76","pattern,shape,color","10","1",""
"null","28577","HierDyqhw7lx03","sub18","06","05","feedback","test","null","","","na","","10","",""
"648.8000000044703","29227","HierDyqhw7lx03","sub18","06","05","rl","test","76","img/r_s_check.png","8","76","pattern,shape,color","11","1",""
"null","30235","HierDyqhw7lx03","sub18","06","05","feedback","test","null","","","na","","11","",""
"936.2000000029802","31172","HierDyqhw7lx03","sub18","06","05","rl","test","68","img/o_s_stripes.png","3","68","pattern,shape,color","12","1",""
"null","32175","HierDyqhw7lx03","sub18","06","05","feedback","test","null","","","na","","12","",""
"1385.5999999940395","33562","HierDyqhw7lx03","sub18","06","05","rl","test","72","img/o_t_check.png","5","72","pattern,shape,color","13","1",""
"null","34568","HierDyqhw7lx03","sub18","06","05","feedback","test","null","","","na","","13","",""
"1111.7999999970198","35680","HierDyqhw7lx03","sub18","06","05","rl","test","83","img/r_t_stripes.png","2","83","pattern,shape,color","14","1",""
"null","36691","HierDyqhw7lx03","sub18","06","05","feedback","test","null","","","na","","14","",""
"1434.1000000014901","38126","HierDyqhw7lx03","sub18","06","05","rl","test","72","img/o_t_check.png","5","72","pattern,shape,color","15","1",""
"null","39131","HierDyqhw7lx03","sub18","06","05","feedback","test","null","","","na","","15","",""
"737.3999999985099","39869","HierDyqhw7lx03","sub18","06","05","rl","test","75","img/o_s_check.png","7","75","pattern,shape,color","16","1",""
"null","40872","HierDyqhw7lx03","sub18","06","05","feedback","test","null","","","na","","16","",""
"854.5","41727","HierDyqhw7lx03","sub18","06","05","rl","test","70","img/r_s_stripes.png","4","70","pattern,shape,color","17","1",""
"null","42736","HierDyqhw7lx03","sub18","06","05","feedback","test","null","","","na","","17","",""
"1118.3999999985099","43855","HierDyqhw7lx03","sub18","06","05","rl","test","83","img/r_t_stripes.png","2","83","pattern,shape,color","18","1",""
"null","44866","HierDyqhw7lx03","sub18","06","05","feedback","test","null","","","na","","18","",""
"816.7000000029802","45684","HierDyqhw7lx03","sub18","06","05","rl","test","68","img/o_s_stripes.png","3","68","pattern,shape,color","19","1",""
"null","46688","HierDyqhw7lx03","sub18","06","05","feedback","test","null","","","na","","19","",""
"1049.5","47739","HierDyqhw7lx03","sub18","06","05","rl","test","74","img/r_s_check.png","8","76","pattern,shape,color","20","0",""
"null","48743","HierDyqhw7lx03","sub18","06","05","feedback","test","null","","","na","","20","",""
"1122.6000000014901","49867","HierDyqhw7lx03","sub18","06","05","rl","test","74","img/r_t_check.png","6","74","pattern,shape,color","21","1",""
"null","50875","HierDyqhw7lx03","sub18","06","05","feedback","test","null","","","na","","21","",""
"1247.1000000014901","52122","HierDyqhw7lx03","sub18","06","05","rl","test","70","img/o_s_check.png","7","75","pattern,shape,color","22","0",""
"null","53127","HierDyqhw7lx03","sub18","06","05","feedback","test","null","","","na","","22","",""
"1353","54481","HierDyqhw7lx03","sub18","06","05","rl","test","65","img/o_t_stripes.png","1","65","pattern,shape,color","23","1",""
"null","55492","HierDyqhw7lx03","sub18","06","05","feedback","test","null","","","na","","23","",""
"1302.2999999970198","56795","HierDyqhw7lx03","sub18","06","05","rl","test","76","img/r_s_check.png","8","76","pattern,shape,color","24","1",""
"null","57801","HierDyqhw7lx03","sub18","06","05","feedback","test","null","","","na","","24","",""
"772.4000000059605","58574","HierDyqhw7lx03","sub18","06","05","rl","test","70","img/r_s_stripes.png","4","70","pattern,shape,color","25","1",""
"null","59579","HierDyqhw7lx03","sub18","06","05","feedback","test","null","","","na","","25","",""
"981.8999999985099","60562","HierDyqhw7lx03","sub18","06","05","rl","test","83","img/o_t_stripes.png","1","65","pattern,shape,color","26","0",""
"null","61568","HierDyqhw7lx03","sub18","06","05","feedback","test","null","","","na","","26","",""
"962.2999999970198","62531","HierDyqhw7lx03","sub18","06","05","rl","test","72","img/o_t_check.png","5","72","pattern,shape,color","27","1",""
"null","63536","HierDyqhw7lx03","sub18","06","05","feedback","test","null","","","na","","27","",""
"866.2999999970198","64403","HierDyqhw7lx03","sub18","06","05","rl","test","83","img/r_t_stripes.png","2","83","pattern,shape,color","28","1",""
"null","65411","HierDyqhw7lx03","sub18","06","05","feedback","test","null","","","na","","28","",""
"612.6000000014901","66024","HierDyqhw7lx03","sub18","06","05","rl","test","83","img/r_t_stripes.png","2","83","pattern,shape,color","29","1",""
"null","67032","HierDyqhw7lx03","sub18","06","05","feedback","test","null","","","na","","29","",""
"753.8000000044703","67786","HierDyqhw7lx03","sub18","06","05","rl","test","68","img/o_s_stripes.png","3","68","pattern,shape,color","30","1",""
"null","68794","HierDyqhw7lx03","sub18","06","05","feedback","test","null","","","na","","30","",""
"456.70000000298023","69252","HierDyqhw7lx03","sub18","06","05","rl","test","70","img/r_s_stripes.png","4","70","pattern,shape,color","31","1",""
"null","70257","HierDyqhw7lx03","sub18","06","05","feedback","test","null","","","na","","31","",""
"1386.6000000014901","71645","HierDyqhw7lx03","sub18","06","05","rl","test","74","img/r_t_check.png","6","74","pattern,shape,color","32","1",""
"null","72650","HierDyqhw7lx03","sub18","06","05","feedback","test","null","","","na","","32","",""
"784.5999999940395","73436","HierDyqhw7lx03","sub18","06","05","rl","test","75","img/r_s_stripes.png","4","70","pattern,shape,color","33","0",""
"null","74442","HierDyqhw7lx03","sub18","06","05","feedback","test","null","","","na","","33","",""
"1032.1999999955297","75476","HierDyqhw7lx03","sub18","06","05","rl","test","72","img/o_t_check.png","5","72","pattern,shape,color","34","1",""
"null","76480","HierDyqhw7lx03","sub18","06","05","feedback","test","null","","","na","","34","",""
"1062.9000000059605","77544","HierDyqhw7lx03","sub18","06","05","rl","test","75","img/o_s_check.png","7","75","pattern,shape,color","35","1",""
"null","78555","HierDyqhw7lx03","sub18","06","05","feedback","test","null","","","na","","35","",""
"448.1000000014901","79004","HierDyqhw7lx03","sub18","06","05","rl","test","75","img/o_s_check.png","7","75","pattern,shape,color","36","1",""
"null","80009","HierDyqhw7lx03","sub18","06","05","feedback","test","null","","","na","","36","",""
"1003.1000000014901","81013","HierDyqhw7lx03","sub18","06","05","rl","test","83","img/r_t_check.png","6","74","pattern,shape,color","37","0",""
"null","82019","HierDyqhw7lx03","sub18","06","05","feedback","test","null","","","na","","37","",""
"810.1000000014901","82830","HierDyqhw7lx03","sub18","06","05","rl","test","76","img/r_s_check.png","8","76","pattern,shape,color","38","1",""
"null","83835","HierDyqhw7lx03","sub18","06","05","feedback","test","null","","","na","","38","",""
"895.8999999985099","84732","HierDyqhw7lx03","sub18","06","05","rl","test","68","img/o_s_stripes.png","3","68","pattern,shape,color","39","1",""
"null","85739","HierDyqhw7lx03","sub18","06","05","feedback","test","null","","","na","","39","",""
"857","86597","HierDyqhw7lx03","sub18","06","05","rl","test","65","img/o_t_stripes.png","1","65","pattern,shape,color","40","1",""
"null","87601","HierDyqhw7lx03","sub18","06","05","feedback","test","null","","","na","","40","",""
"906.1000000014901","88508","HierDyqhw7lx03","sub18","06","05","rl","test","76","img/r_s_check.png","8","76","pattern,shape,color","41","1",""
"null","89512","HierDyqhw7lx03","sub18","06","05","feedback","test","null","","","na","","41","",""
"1093.7000000029802","90606","HierDyqhw7lx03","sub18","06","05","rl","test","72","img/o_t_check.png","5","72","pattern,shape,color","42","1",""
"null","91608","HierDyqhw7lx03","sub18","06","05","feedback","test","null","","","na","","42","",""
"1001.6000000014901","92610","HierDyqhw7lx03","sub18","06","05","rl","test","68","img/o_s_stripes.png","3","68","pattern,shape,color","43","1",""
"null","93616","HierDyqhw7lx03","sub18","06","05","feedback","test","null","","","na","","43","",""
"957.7999999970198","94575","HierDyqhw7lx03","sub18","06","05","rl","test","83","img/r_t_stripes.png","2","83","pattern,shape,color","44","1",""
"null","95581","HierDyqhw7lx03","sub18","06","05","feedback","test","null","","","na","","44","",""
"1070.3000000044703","96652","HierDyqhw7lx03","sub18","06","05","rl","test","75","img/o_s_check.png","7","75","pattern,shape,color","45","1",""
"null","97660","HierDyqhw7lx03","sub18","06","05","feedback","test","null","","","na","","45","",""
"1253.7000000029802","98915","HierDyqhw7lx03","sub18","06","05","rl","test","65","img/o_t_stripes.png","1","65","pattern,shape,color","46","1",""
"null","99921","HierDyqhw7lx03","sub18","06","05","feedback","test","null","","","na","","46","",""
"742.3000000044703","100664","HierDyqhw7lx03","sub18","06","05","rl","test","74","img/r_t_check.png","6","74","pattern,shape,color","47","1",""
"null","101677","HierDyqhw7lx03","sub18","06","05","feedback","test","null","","","na","","47","",""
"893.7000000029802","102572","HierDyqhw7lx03","sub18","06","05","rl","test","70","img/r_s_stripes.png","4","70","pattern,shape,color","48","1",""
"null","103577","HierDyqhw7lx03","sub18","06","05","feedback","test","null","","","na","","48","",""
"1224.5","104803","HierDyqhw7lx03","sub18","06","05","rl","test","72","img/r_t_check.png","6","74","pattern,shape,color","49","0",""
"null","105811","HierDyqhw7lx03","sub18","06","05","feedback","test","null","","","na","","49","",""
"1349.1999999955297","107162","HierDyqhw7lx03","sub18","06","05","rl","test","83","img/o_t_stripes.png","1","65","pattern,shape,color","50","0",""
"null","108172","HierDyqhw7lx03","sub18","06","05","feedback","test","null","","","na","","50","",""
"727.8000000044703","108901","HierDyqhw7lx03","sub18","06","05","rl","test","68","img/o_s_stripes.png","3","68","pattern,shape,color","51","1",""
"null","109906","HierDyqhw7lx03","sub18","06","05","feedback","test","null","","","na","","51","",""
"1064.7999999970198","110972","HierDyqhw7lx03","sub18","06","05","rl","test","75","img/o_s_check.png","7","75","pattern,shape,color","52","1",""
"null","111980","HierDyqhw7lx03","sub18","06","05","feedback","test","null","","","na","","52","",""
"764.8000000044703","112746","HierDyqhw7lx03","sub18","06","05","rl","test","76","img/r_s_check.png","8","76","pattern,shape,color","53","1",""
"null","113753","HierDyqhw7lx03","sub18","06","05","feedback","test","null","","","na","","53","",""
"580.6999999955297","114335","HierDyqhw7lx03","sub18","06","05","rl","test","70","img/r_s_stripes.png","4","70","pattern,shape,color","54","1",""
"null","115338","HierDyqhw7lx03","sub18","06","05","feedback","test","null","","","na","","54","",""
"1291.7000000029802","116631","HierDyqhw7lx03","sub18","06","05","rl","test","83","img/r_t_stripes.png","2","83","pattern,shape,color","55","1",""
"null","117642","HierDyqhw7lx03","sub18","06","05","feedback","test","null","","","na","","55","",""
"2313.2999999970198","119957","HierDyqhw7lx03","sub18","06","05","rl","test","76","img/r_s_check.png","8","76","pattern,shape,color","56","1",""
"null","120964","HierDyqhw7lx03","sub18","06","05","feedback","test","null","","","na","","56","",""
"1411.1000000014901","122376","HierDyqhw7lx03","sub18","06","05","rl","test","72","img/o_t_check.png","5","72","pattern,shape,color","57","1",""
"null","123388","HierDyqhw7lx03","sub18","06","05","feedback","test","null","","","na","","57","",""
"524.7999999970198","123914","HierDyqhw7lx03","sub18","06","05","rl","test","72","img/o_t_check.png","5","72","pattern,shape,color","58","1",""
"null","124923","HierDyqhw7lx03","sub18","06","05","feedback","test","null","","","na","","58","",""
"957.1999999955297","125881","HierDyqhw7lx03","sub18","06","05","rl","test","70","img/r_s_stripes.png","4","70","pattern,shape,color","59","1",""
"null","126893","HierDyqhw7lx03","sub18","06","05","feedback","test","null","","","na","","59","",""
"1684.8999999985099","128579","HierDyqhw7lx03","sub18","06","05","rl","test","75","img/o_s_check.png","7","75","pattern,shape,color","60","1",""
"null","129588","HierDyqhw7lx03","sub18","06","05","feedback","test","null","","","na","","60","",""
"1037.1000000014901","130626","HierDyqhw7lx03","sub18","06","05","rl","test","74","img/r_t_check.png","6","74","pattern,shape,color","61","1",""
"null","131633","HierDyqhw7lx03","sub18","06","05","feedback","test","null","","","na","","61","",""
"909.6000000014901","132543","HierDyqhw7lx03","sub18","06","05","rl","test","83","img/r_t_stripes.png","2","83","pattern,shape,color","62","1",""
"null","133558","HierDyqhw7lx03","sub18","06","05","feedback","test","null","","","na","","62","",""
"639.2999999970198","134198","HierDyqhw7lx03","sub18","06","05","rl","test","65","img/o_t_stripes.png","1","65","pattern,shape,color","63","1",""
"null","135206","HierDyqhw7lx03","sub18","06","05","feedback","test","null","","","na","","63","",""
"1146","136353","HierDyqhw7lx03","sub18","06","05","rl","test","68","img/o_s_stripes.png","3","68","pattern,shape,color","64","1",""
"null","137361","HierDyqhw7lx03","sub18","06","05","feedback","test","null","","","na","","64","",""
"492.29999999701977","137854","HierDyqhw7lx03","sub18","06","05","rl","test","68","img/o_s_stripes.png","3","68","pattern,shape,color","65","1",""
"null","138858","HierDyqhw7lx03","sub18","06","05","feedback","test","null","","","na","","65","",""
"716.7000000029802","139575","HierDyqhw7lx03","sub18","06","05","rl","test","75","img/r_s_check.png","8","76","pattern,shape,color","66","0",""
"null","140582","HierDyqhw7lx03","sub18","06","05","feedback","test","null","","","na","","66","",""
"1283.7000000029802","141867","HierDyqhw7lx03","sub18","06","05","rl","test","65","img/o_t_stripes.png","1","65","pattern,shape,color","67","1",""
"null","142874","HierDyqhw7lx03","sub18","06","05","feedback","test","null","","","na","","67","",""
"932","143807","HierDyqhw7lx03","sub18","06","05","rl","test","70","img/r_s_stripes.png","4","70","pattern,shape,color","68","1",""
"null","144818","HierDyqhw7lx03","sub18","06","05","feedback","test","null","","","na","","68","",""
"1049","145869","HierDyqhw7lx03","sub18","06","05","rl","test","83","img/o_t_check.png","5","72","pattern,shape,color","69","0",""
"null","146877","HierDyqhw7lx03","sub18","06","05","feedback","test","null","","","na","","69","",""
"1599.2999999970198","148478","HierDyqhw7lx03","sub18","06","05","rl","test","75","img/o_s_check.png","7","75","pattern,shape,color","70","1",""
"null","149485","HierDyqhw7lx03","sub18","06","05","feedback","test","null","","","na","","70","",""
"1031.5","150518","HierDyqhw7lx03","sub18","06","05","rl","test","76","img/r_s_check.png","8","76","pattern,shape,color","71","1",""
"null","151525","HierDyqhw7lx03","sub18","06","05","feedback","test","null","","","na","","71","",""
"1047.3000000044703","152574","HierDyqhw7lx03","sub18","06","05","rl","test","75","img/o_s_check.png","7","75","pattern,shape,color","72","1",""
"null","153581","HierDyqhw7lx03","sub18","06","05","feedback","test","null","","","na","","72","",""
"1802.3999999985099","155385","HierDyqhw7lx03","sub18","06","05","rl","test","83","img/r_t_stripes.png","2","83","pattern,shape,color","73","1",""
"null","156398","HierDyqhw7lx03","sub18","06","05","feedback","test","null","","","na","","73","",""
"1075.6999999955297","157475","HierDyqhw7lx03","sub18","06","05","rl","test","74","img/r_t_check.png","6","74","pattern,shape,color","74","1",""
"null","158482","HierDyqhw7lx03","sub18","06","05","feedback","test","null","","","na","","74","",""
"598.1000000014901","159081","HierDyqhw7lx03","sub18","06","05","rl","test","72","img/o_t_check.png","5","72","pattern,shape,color","75","1",""
"null","160093","HierDyqhw7lx03","sub18","06","05","feedback","test","null","","","na","","75","",""
"752.1000000014901","160846","HierDyqhw7lx03","sub18","06","05","rl","test","83","img/r_t_stripes.png","2","83","pattern,shape,color","76","1",""
"null","161852","HierDyqhw7lx03","sub18","06","05","feedback","test","null","","","na","","76","",""
"669.5999999940395","162523","HierDyqhw7lx03","sub18","06","05","rl","test","70","img/r_s_stripes.png","4","70","pattern,shape,color","77","1",""
"null","163529","HierDyqhw7lx03","sub18","06","05","feedback","test","null","","","na","","77","",""
"738.6999999955297","164269","HierDyqhw7lx03","sub18","06","05","rl","test","74","img/r_t_check.png","6","74","pattern,shape,color","78","1",""
"null","165276","HierDyqhw7lx03","sub18","06","05","feedback","test","null","","","na","","78","",""
"765.9000000059605","166042","HierDyqhw7lx03","sub18","06","05","rl","test","68","img/o_s_stripes.png","3","68","pattern,shape,color","79","1",""
"null","167050","HierDyqhw7lx03","sub18","06","05","feedback","test","null","","","na","","79","",""
"1097.8000000044703","168149","HierDyqhw7lx03","sub18","06","05","rl","test","75","img/o_s_check.png","7","75","pattern,shape,color","80","1",""
"null","169155","HierDyqhw7lx03","sub18","06","05","feedback","test","null","","","na","","80","",""
"876.3999999985099","170032","HierDyqhw7lx03","sub18","06","05","rl","test","65","img/o_t_stripes.png","1","65","pattern,shape,color","81","1",""
"null","171041","HierDyqhw7lx03","sub18","06","05","feedback","test","null","","","na","","81","",""
"650.2999999970198","171692","HierDyqhw7lx03","sub18","06","05","rl","test","70","img/r_s_stripes.png","4","70","pattern,shape,color","82","1",""
"null","172697","HierDyqhw7lx03","sub18","06","05","feedback","test","null","","","na","","82","",""
"927.1000000014901","173625","HierDyqhw7lx03","sub18","06","05","rl","test","83","img/o_t_stripes.png","1","65","pattern,shape,color","83","0",""
"null","174634","HierDyqhw7lx03","sub18","06","05","feedback","test","null","","","na","","83","",""
"768.6000000014901","175403","HierDyqhw7lx03","sub18","06","05","rl","test","68","img/o_t_stripes.png","1","65","pattern,shape,color","84","0",""
"null","176409","HierDyqhw7lx03","sub18","06","05","feedback","test","null","","","na","","84","",""
"1227","177638","HierDyqhw7lx03","sub18","06","05","rl","test","74","img/r_t_check.png","6","74","pattern,shape,color","85","1",""
"null","178645","HierDyqhw7lx03","sub18","06","05","feedback","test","null","","","na","","85","",""
"1107.7000000029802","179753","HierDyqhw7lx03","sub18","06","05","rl","test","76","img/r_s_check.png","8","76","pattern,shape,color","86","1",""
"null","180761","HierDyqhw7lx03","sub18","06","05","feedback","test","null","","","na","","86","",""
"1428.3000000044703","182190","HierDyqhw7lx03","sub18","06","05","rl","test","72","img/o_t_check.png","5","72","pattern,shape,color","87","1",""
"null","183194","HierDyqhw7lx03","sub18","06","05","feedback","test","null","","","na","","87","",""
"1920.8999999985099","185115","HierDyqhw7lx03","sub18","06","05","rl","test","83","img/r_t_stripes.png","2","83","pattern,shape,color","88","1",""
"null","186122","HierDyqhw7lx03","sub18","06","05","feedback","test","null","","","na","","88","",""
"627.5","186751","HierDyqhw7lx03","sub18","06","05","rl","test","68","img/o_s_stripes.png","3","68","pattern,shape,color","89","1",""
"null","187756","HierDyqhw7lx03","sub18","06","05","feedback","test","null","","","na","","89","",""
"1369.5","189127","HierDyqhw7lx03","sub18","06","05","rl","test","75","img/o_t_check.png","5","72","pattern,shape,color","90","0",""
"null","190134","HierDyqhw7lx03","sub18","06","05","feedback","test","null","","","na","","90","",""
"1051.9000000059605","191186","HierDyqhw7lx03","sub18","06","05","rl","test","76","img/o_s_check.png","7","75","pattern,shape,color","91","0",""
"null","192193","HierDyqhw7lx03","sub18","06","05","feedback","test","null","","","na","","91","",""
"677.6000000014901","192872","HierDyqhw7lx03","sub18","06","05","rl","test","76","img/r_s_check.png","8","76","pattern,shape,color","92","1",""
"null","193877","HierDyqhw7lx03","sub18","06","05","feedback","test","null","","","na","","92","",""
"938.2000000029802","194816","HierDyqhw7lx03","sub18","06","05","rl","test","68","img/o_s_stripes.png","3","68","pattern,shape,color","93","1",""
"null","195822","HierDyqhw7lx03","sub18","06","05","feedback","test","null","","","na","","93","",""
"1003","196826","HierDyqhw7lx03","sub18","06","05","rl","test","74","img/r_t_check.png","6","74","pattern,shape,color","94","1",""
"null","197833","HierDyqhw7lx03","sub18","06","05","feedback","test","null","","","na","","94","",""
"724.6000000014901","198559","HierDyqhw7lx03","sub18","06","05","rl","test","70","img/r_s_stripes.png","4","70","pattern,shape,color","95","1",""
"null","199566","HierDyqhw7lx03","sub18","06","05","feedback","test","null","","","na","","95","",""
"1005.6000000014901","200573","HierDyqhw7lx03","sub18","06","05","rl","test","83","img/r_t_stripes.png","2","83","pattern,shape,color","96","1",""
"null","201580","HierDyqhw7lx03","sub18","06","05","feedback","test","null","","","na","","96","",""
"855.4000000059605","202436","HierDyqhw7lx03","sub18","06","05","rl","test","74","img/r_t_check.png","6","74","pattern,shape,color","97","1",""
"null","203444","HierDyqhw7lx03","sub18","06","05","feedback","test","null","","","na","","97","",""
"783.1999999955297","204228","HierDyqhw7lx03","sub18","06","05","rl","test","68","img/o_s_stripes.png","3","68","pattern,shape,color","98","1",""
"null","205234","HierDyqhw7lx03","sub18","06","05","feedback","test","null","","","na","","98","",""
"772.1000000014901","206007","HierDyqhw7lx03","sub18","06","05","rl","test","65","img/o_t_stripes.png","1","65","pattern,shape,color","99","1",""
"null","207014","HierDyqhw7lx03","sub18","06","05","feedback","test","null","","","na","","99","",""
"715.2999999970198","207731","HierDyqhw7lx03","sub18","06","05","rl","test","83","img/r_t_stripes.png","2","83","pattern,shape,color","100","1",""
"null","208740","HierDyqhw7lx03","sub18","06","05","feedback","test","null","","","na","","100","",""
"567","209308","HierDyqhw7lx03","sub18","06","05","rl","test","83","img/r_t_stripes.png","2","83","pattern,shape,color","101","1",""
"null","210317","HierDyqhw7lx03","sub18","06","05","feedback","test","null","","","na","","101","",""
"930.1000000014901","211248","HierDyqhw7lx03","sub18","06","05","rl","test","70","img/r_s_stripes.png","4","70","pattern,shape,color","102","1",""
"null","212249","HierDyqhw7lx03","sub18","06","05","feedback","test","null","","","na","","102","",""
"966.5","213217","HierDyqhw7lx03","sub18","06","05","rl","test","75","img/o_s_check.png","7","75","pattern,shape,color","103","1",""
"null","214227","HierDyqhw7lx03","sub18","06","05","feedback","test","null","","","na","","103","",""
"764.3999999985099","214993","HierDyqhw7lx03","sub18","06","05","rl","test","72","img/o_t_check.png","5","72","pattern,shape,color","104","1",""
"null","216003","HierDyqhw7lx03","sub18","06","05","feedback","test","null","","","na","","104","",""
"642.3000000044703","216646","HierDyqhw7lx03","sub18","06","05","rl","test","76","img/r_s_check.png","8","76","pattern,shape,color","105","1",""
"null","217652","HierDyqhw7lx03","sub18","06","05","feedback","test","null","","","na","","105","",""
"753.2999999970198","218406","HierDyqhw7lx03","sub18","06","05","rl","test","72","img/o_t_check.png","5","72","pattern,shape,color","106","1",""
"null","219413","HierDyqhw7lx03","sub18","06","05","feedback","test","null","","","na","","106","",""
"986.8999999985099","220400","HierDyqhw7lx03","sub18","06","05","rl","test","65","img/o_t_stripes.png","1","65","pattern,shape,color","107","1",""
"null","221402","HierDyqhw7lx03","sub18","06","05","feedback","test","null","","","na","","107","",""
"1186.1999999955297","222589","HierDyqhw7lx03","sub18","06","05","rl","test","68","img/o_s_stripes.png","3","68","pattern,shape,color","108","1",""
"null","223596","HierDyqhw7lx03","sub18","06","05","feedback","test","null","","","na","","108","",""
"1197.0999999940395","224794","HierDyqhw7lx03","sub18","06","05","rl","test","75","img/o_s_check.png","7","75","pattern,shape,color","109","1",""
"null","225802","HierDyqhw7lx03","sub18","06","05","feedback","test","null","","","na","","109","",""
"1127.3000000044703","226930","HierDyqhw7lx03","sub18","06","05","rl","test","76","img/r_s_check.png","8","76","pattern,shape,color","110","1",""
"null","227942","HierDyqhw7lx03","sub18","06","05","feedback","test","null","","","na","","110","",""
"1106.1000000014901","229049","HierDyqhw7lx03","sub18","06","05","rl","test","74","img/r_t_check.png","6","74","pattern,shape,color","111","1",""
"null","230059","HierDyqhw7lx03","sub18","06","05","feedback","test","null","","","na","","111","",""
"611.3999999985099","230671","HierDyqhw7lx03","sub18","06","05","rl","test","74","img/r_t_check.png","6","74","pattern,shape,color","112","1",""
"null","231674","HierDyqhw7lx03","sub18","06","05","feedback","test","null","","","na","","112","",""
"649.3999999985099","232324","HierDyqhw7lx03","sub18","06","05","rl","test","70","img/r_s_stripes.png","4","70","pattern,shape,color","113","1",""
"null","233330","HierDyqhw7lx03","sub18","06","05","feedback","test","null","","","na","","113","",""
"809.8000000044703","234141","HierDyqhw7lx03","sub18","06","05","rl","test","65","img/o_t_stripes.png","1","65","pattern,shape,color","114","1",""
"null","235148","HierDyqhw7lx03","sub18","06","05","feedback","test","null","","","na","","114","",""
"819.2000000029802","235967","HierDyqhw7lx03","sub18","06","05","rl","test","70","img/r_s_stripes.png","4","70","pattern,shape,color","115","1",""
"null","236970","HierDyqhw7lx03","sub18","06","05","feedback","test","null","","","na","","115","",""
"798.8999999985099","237769","HierDyqhw7lx03","sub18","06","05","rl","test","83","img/r_t_stripes.png","2","83","pattern,shape,color","116","1",""
"null","238782","HierDyqhw7lx03","sub18","06","05","feedback","test","null","","","na","","116","",""
"746.0999999940395","239529","HierDyqhw7lx03","sub18","06","05","rl","test","68","img/o_s_stripes.png","3","68","pattern,shape,color","117","1",""
"null","240540","HierDyqhw7lx03","sub18","06","05","feedback","test","null","","","na","","117","",""
"1069.3000000044703","241611","HierDyqhw7lx03","sub18","06","05","rl","test","76","img/r_s_check.png","8","76","pattern,shape,color","118","1",""
"null","242619","HierDyqhw7lx03","sub18","06","05","feedback","test","null","","","na","","118","",""
"676.6000000014901","243297","HierDyqhw7lx03","sub18","06","05","rl","test","75","img/o_s_check.png","7","75","pattern,shape,color","119","1",""
"null","244307","HierDyqhw7lx03","sub18","06","05","feedback","test","null","","","na","","119","",""
"1073.7000000029802","245382","HierDyqhw7lx03","sub18","06","05","rl","test","72","img/o_t_check.png","5","72","pattern,shape,color","120","1",""
"null","246386","HierDyqhw7lx03","sub18","06","05","feedback","test","null","","","na","","120","",""
"741","247128","HierDyqhw7lx03","sub18","06","05","rl","test","76","img/r_s_check.png","8","76","pattern,shape,color","121","1",""
"null","248131","HierDyqhw7lx03","sub18","06","05","feedback","test","null","","","na","","121","",""
"677.6000000014901","248810","HierDyqhw7lx03","sub18","06","05","rl","test","72","img/o_t_check.png","5","72","pattern,shape,color","122","1",""
"null","249820","HierDyqhw7lx03","sub18","06","05","feedback","test","null","","","na","","122","",""
"570.7999999970198","250392","HierDyqhw7lx03","sub18","06","05","rl","test","74","img/r_t_check.png","6","74","pattern,shape,color","123","1",""
"null","251398","HierDyqhw7lx03","sub18","06","05","feedback","test","null","","","na","","123","",""
"655.6999999955297","252054","HierDyqhw7lx03","sub18","06","05","rl","test","70","img/r_s_stripes.png","4","70","pattern,shape,color","124","1",""
"null","253061","HierDyqhw7lx03","sub18","06","05","feedback","test","null","","","na","","124","",""
"836.8000000044703","253899","HierDyqhw7lx03","sub18","06","05","rl","test","75","img/o_s_check.png","7","75","pattern,shape,color","125","1",""
"null","254906","HierDyqhw7lx03","sub18","06","05","feedback","test","null","","","na","","125","",""
"998.7999999970198","255906","HierDyqhw7lx03","sub18","06","05","rl","test","65","img/o_t_stripes.png","1","65","pattern,shape,color","126","1",""
"null","256914","HierDyqhw7lx03","sub18","06","05","feedback","test","null","","","na","","126","",""
"705.8999999985099","257621","HierDyqhw7lx03","sub18","06","05","rl","test","68","img/o_s_stripes.png","3","68","pattern,shape,color","127","1",""
"null","258629","HierDyqhw7lx03","sub18","06","05","feedback","test","null","","","na","","127","",""
"1057.2000000029802","259687","HierDyqhw7lx03","sub18","06","05","rl","test","75","img/o_s_check.png","7","75","pattern,shape,color","128","1",""
"null","260691","HierDyqhw7lx03","sub18","06","05","feedback","test","null","","","na","","128","",""
"1065.8999999985099","261758","HierDyqhw7lx03","sub18","06","05","rl","test","83","img/r_t_stripes.png","2","83","pattern,shape,color","129","1",""
"null","262763","HierDyqhw7lx03","sub18","06","05","feedback","test","null","","","na","","129","",""
"739.6000000014901","263503","HierDyqhw7lx03","sub18","06","05","rl","test","65","img/o_t_stripes.png","1","65","pattern,shape,color","130","1",""
"null","264506","HierDyqhw7lx03","sub18","06","05","feedback","test","null","","","na","","130","",""
"1823","266330","HierDyqhw7lx03","sub18","06","05","rl","test","70","img/r_s_stripes.png","4","70","pattern,shape,color","131","1",""
"null","267338","HierDyqhw7lx03","sub18","06","05","feedback","test","null","","","na","","131","",""
"619.0999999940395","267959","HierDyqhw7lx03","sub18","06","05","rl","test","68","img/o_s_stripes.png","3","68","pattern,shape,color","132","1",""
"null","268963","HierDyqhw7lx03","sub18","06","05","feedback","test","null","","","na","","132","",""
"995.5","269959","HierDyqhw7lx03","sub18","06","05","rl","test","76","img/r_s_check.png","8","76","pattern,shape,color","133","1",""
"null","270967","HierDyqhw7lx03","sub18","06","05","feedback","test","null","","","na","","133","",""
"680.5","271649","HierDyqhw7lx03","sub18","06","05","rl","test","83","img/r_t_stripes.png","2","83","pattern,shape,color","134","1",""
"null","272663","HierDyqhw7lx03","sub18","06","05","feedback","test","null","","","na","","134","",""
"1406.3999999985099","274071","HierDyqhw7lx03","sub18","06","05","rl","test","72","img/o_t_check.png","5","72","pattern,shape,color","135","1",""
"null","275078","HierDyqhw7lx03","sub18","06","05","feedback","test","null","","","na","","135","",""
"615.5","275695","HierDyqhw7lx03","sub18","06","05","rl","test","72","img/o_t_check.png","5","72","pattern,shape,color","136","1",""
"null","276699","HierDyqhw7lx03","sub18","06","05","feedback","test","null","","","na","","136","",""
"521.1000000014901","277222","HierDyqhw7lx03","sub18","06","05","rl","test","74","img/r_t_check.png","6","74","pattern,shape,color","137","1",""
"null","278230","HierDyqhw7lx03","sub18","06","05","feedback","test","null","","","na","","137","",""
"905","279136","HierDyqhw7lx03","sub18","06","05","rl","test","75","img/o_t_stripes.png","1","65","pattern,shape,color","138","0",""
"null","280144","HierDyqhw7lx03","sub18","06","05","feedback","test","null","","","na","","138","",""
"1337.5999999940395","281482","HierDyqhw7lx03","sub18","06","05","rl","test","74","img/r_t_check.png","6","74","pattern,shape,color","139","1",""
"null","282495","HierDyqhw7lx03","sub18","06","05","feedback","test","null","","","na","","139","",""
"1125.1999999955297","283622","HierDyqhw7lx03","sub18","06","05","rl","test","76","img/r_s_check.png","8","76","pattern,shape,color","140","1",""
"null","284629","HierDyqhw7lx03","sub18","06","05","feedback","test","null","","","na","","140","",""
"2312.89999999851","286944","HierDyqhw7lx03","sub18","06","05","rl","test","68","img/o_s_stripes.png","3","68","pattern,shape,color","141","1",""
"null","287947","HierDyqhw7lx03","sub18","06","05","feedback","test","null","","","na","","141","",""
"482.30000000447035","288431","HierDyqhw7lx03","sub18","06","05","rl","test","70","img/r_s_stripes.png","4","70","pattern,shape,color","142","1",""
"null","289438","HierDyqhw7lx03","sub18","06","05","feedback","test","null","","","na","","142","",""
"838.8999999985099","290278","HierDyqhw7lx03","sub18","06","05","rl","test","76","img/o_s_check.png","7","75","pattern,shape,color","143","0",""
"null","291285","HierDyqhw7lx03","sub18","06","05","feedback","test","null","","","na","","143","",""
"1087.8999999985099","292375","HierDyqhw7lx03","sub18","06","05","rl","test","65","img/o_t_stripes.png","1","65","pattern,shape,color","144","1",""
"null","293383","HierDyqhw7lx03","sub18","06","05","feedback","test","null","","","na","","144","",""
"725.8999999985099","294111","HierDyqhw7lx03","sub18","06","05","rl","test","68","img/o_s_stripes.png","3","68","pattern,shape,color","145","1",""
"null","295118","HierDyqhw7lx03","sub18","06","05","feedback","test","null","","","na","","145","",""
"1273.1000000014901","296393","HierDyqhw7lx03","sub18","06","05","rl","test","83","img/r_t_stripes.png","2","83","pattern,shape,color","146","1",""
"null","297395","HierDyqhw7lx03","sub18","06","05","feedback","test","null","","","na","","146","",""
"585","297981","HierDyqhw7lx03","sub18","06","05","rl","test","83","img/r_t_stripes.png","2","83","pattern,shape,color","147","1",""
"null","298987","HierDyqhw7lx03","sub18","06","05","feedback","test","null","","","na","","147","",""
"764.5999999940395","299753","HierDyqhw7lx03","sub18","06","05","rl","test","76","img/r_s_check.png","8","76","pattern,shape,color","148","1",""
"null","300759","HierDyqhw7lx03","sub18","06","05","feedback","test","null","","","na","","148","",""
"730.3000000044703","301491","HierDyqhw7lx03","sub18","06","05","rl","test","75","img/o_s_check.png","7","75","pattern,shape,color","149","1",""
"null","302499","HierDyqhw7lx03","sub18","06","05","feedback","test","null","","","na","","149","",""
"1023.1000000014901","303523","HierDyqhw7lx03","sub18","06","05","rl","test","83","img/r_t_stripes.png","2","83","pattern,shape,color","150","1",""
"null","304536","HierDyqhw7lx03","sub18","06","05","feedback","test","null","","","na","","150","",""
"1247.5","305784","HierDyqhw7lx03","sub18","06","05","rl","test","72","img/o_t_check.png","5","72","pattern,shape,color","151","1",""
"null","306791","HierDyqhw7lx03","sub18","06","05","feedback","test","null","","","na","","151","",""
"755.6000000014901","307548","HierDyqhw7lx03","sub18","06","05","rl","test","70","img/r_s_stripes.png","4","70","pattern,shape,color","152","1",""
"null","308558","HierDyqhw7lx03","sub18","06","05","feedback","test","null","","","na","","152","",""
"752.3000000044703","309312","HierDyqhw7lx03","sub18","06","05","rl","test","74","img/r_t_check.png","6","74","pattern,shape,color","153","1",""
"null","310319","HierDyqhw7lx03","sub18","06","05","feedback","test","null","","","na","","153","",""
"852.3999999985099","311173","HierDyqhw7lx03","sub18","06","05","rl","test","68","img/o_s_stripes.png","3","68","pattern,shape,color","154","1",""
"null","312180","HierDyqhw7lx03","sub18","06","05","feedback","test","null","","","na","","154","",""
"600.6999999955297","312782","HierDyqhw7lx03","sub18","06","05","rl","test","70","img/r_s_stripes.png","4","70","pattern,shape,color","155","1",""
"null","313789","HierDyqhw7lx03","sub18","06","05","feedback","test","null","","","na","","155","",""
"1472.1000000014901","315262","HierDyqhw7lx03","sub18","06","05","rl","test","72","img/o_t_check.png","5","72","pattern,shape,color","156","1",""
"null","316271","HierDyqhw7lx03","sub18","06","05","feedback","test","null","","","na","","156","",""
"687.7000000029802","316959","HierDyqhw7lx03","sub18","06","05","rl","test","74","img/r_t_check.png","6","74","pattern,shape,color","157","1",""
"null","317968","HierDyqhw7lx03","sub18","06","05","feedback","test","null","","","na","","157","",""
"1264.5","319234","HierDyqhw7lx03","sub18","06","05","rl","test","75","img/o_s_check.png","7","75","pattern,shape,color","158","1",""
"null","320248","HierDyqhw7lx03","sub18","06","05","feedback","test","null","","","na","","158","",""
"1158.7000000029802","321408","HierDyqhw7lx03","sub18","06","05","rl","test","65","img/o_t_stripes.png","1","65","pattern,shape,color","159","1",""
"null","322416","HierDyqhw7lx03","sub18","06","05","feedback","test","null","","","na","","159","",""
"921","323338","HierDyqhw7lx03","sub18","06","05","rl","test","75","img/o_s_check.png","7","75","pattern,shape,color","160","1",""
"null","324351","HierDyqhw7lx03","sub18","06","05","feedback","test","null","","","na","","160","",""
"841.8999999985099","325194","HierDyqhw7lx03","sub18","06","05","rl","test","76","img/r_s_check.png","8","76","pattern,shape,color","161","1",""
"null","326205","HierDyqhw7lx03","sub18","06","05","feedback","test","null","","","na","","161","",""
"772.3999999985099","326978","HierDyqhw7lx03","sub18","06","05","rl","test","76","img/r_s_check.png","8","76","pattern,shape,color","162","1",""
"null","327989","HierDyqhw7lx03","sub18","06","05","feedback","test","null","","","na","","162","",""
"1063.6000000014901","329054","HierDyqhw7lx03","sub18","06","05","rl","test","72","img/o_t_check.png","5","72","pattern,shape,color","163","1",""
"null","330060","HierDyqhw7lx03","sub18","06","05","feedback","test","null","","","na","","163","",""
"2247.9000000059605","332310","HierDyqhw7lx03","sub18","06","05","rl","test","75","img/o_t_stripes.png","1","65","pattern,shape,color","164","0",""
"null","333316","HierDyqhw7lx03","sub18","06","05","feedback","test","null","","","na","","164","",""
"1333","334650","HierDyqhw7lx03","sub18","06","05","rl","test","83","img/r_t_stripes.png","2","83","pattern,shape,color","165","1",""
"null","335661","HierDyqhw7lx03","sub18","06","05","feedback","test","null","","","na","","165","",""
"1443.8000000044703","337106","HierDyqhw7lx03","sub18","06","05","rl","test","70","img/r_s_stripes.png","4","70","pattern,shape,color","166","1",""
"null","338120","HierDyqhw7lx03","sub18","06","05","feedback","test","null","","","na","","166","",""
"777.2999999970198","338898","HierDyqhw7lx03","sub18","06","05","rl","test","68","img/o_s_stripes.png","3","68","pattern,shape,color","167","1",""
"null","339907","HierDyqhw7lx03","sub18","06","05","feedback","test","null","","","na","","167","",""
"1024.2999999970198","340933","HierDyqhw7lx03","sub18","06","05","rl","test","75","img/r_t_check.png","6","74","pattern,shape,color","168","0",""
"null","341939","HierDyqhw7lx03","sub18","06","05","feedback","test","null","","","na","","168","",""
"1038","342978","HierDyqhw7lx03","sub18","06","05","rl","test","68","img/o_s_stripes.png","3","68","pattern,shape,color","169","1",""
"null","343988","HierDyqhw7lx03","sub18","06","05","feedback","test","null","","","na","","169","",""
"1052.8000000044703","345042","HierDyqhw7lx03","sub18","06","05","rl","test","72","img/o_t_check.png","5","72","pattern,shape,color","170","1",""
"null","346045","HierDyqhw7lx03","sub18","06","05","feedback","test","null","","","na","","170","",""
"722.2000000029802","346768","HierDyqhw7lx03","sub18","06","05","rl","test","74","img/r_t_check.png","6","74","pattern,shape,color","171","1",""
"null","347776","HierDyqhw7lx03","sub18","06","05","feedback","test","null","","","na","","171","",""
"1079.2999999970198","348857","HierDyqhw7lx03","sub18","06","05","rl","test","75","img/o_s_check.png","7","75","pattern,shape,color","172","1",""
"null","349862","HierDyqhw7lx03","sub18","06","05","feedback","test","null","","","na","","172","",""
"1117.6000000014901","350980","HierDyqhw7lx03","sub18","06","05","rl","test","83","img/r_t_stripes.png","2","83","pattern,shape,color","173","1",""
"null","351991","HierDyqhw7lx03","sub18","06","05","feedback","test","null","","","na","","173","",""
"733.3000000044703","352726","HierDyqhw7lx03","sub18","06","05","rl","test","83","img/o_t_stripes.png","1","65","pattern,shape,color","174","0",""
"null","353731","HierDyqhw7lx03","sub18","06","05","feedback","test","null","","","na","","174","",""
"1032","354765","HierDyqhw7lx03","sub18","06","05","rl","test","65","img/o_t_stripes.png","1","65","pattern,shape,color","175","1",""
"null","355774","HierDyqhw7lx03","sub18","06","05","feedback","test","null","","","na","","175","",""
"1171.3999999985099","356946","HierDyqhw7lx03","sub18","06","05","rl","test","68","img/r_s_check.png","8","76","pattern,shape,color","176","0",""
"null","357956","HierDyqhw7lx03","sub18","06","05","feedback","test","null","","","na","","176","",""
"755.5","358713","HierDyqhw7lx03","sub18","06","05","rl","test","83","img/r_t_stripes.png","2","83","pattern,shape,color","177","1",""
"null","359720","HierDyqhw7lx03","sub18","06","05","feedback","test","null","","","na","","177","",""
"952.7999999970198","360674","HierDyqhw7lx03","sub18","06","05","rl","test","70","img/r_s_stripes.png","4","70","pattern,shape,color","178","1",""
"null","361688","HierDyqhw7lx03","sub18","06","05","feedback","test","null","","","na","","178","",""
"572.1000000014901","362261","HierDyqhw7lx03","sub18","06","05","rl","test","70","img/r_s_stripes.png","4","70","pattern,shape,color","179","1",""
"null","363272","HierDyqhw7lx03","sub18","06","05","feedback","test","null","","","na","","179","",""
"918.8999999985099","364193","HierDyqhw7lx03","sub18","06","05","rl","test","75","img/r_s_check.png","8","76","pattern,shape,color","180","0",""
"null","365199","HierDyqhw7lx03","sub18","06","05","feedback","test","null","","","na","","180","",""
"2456.5","367656","HierDyqhw7lx03","sub18","06","05","rl","test","83","img/o_t_stripes.png","1","65","pattern,shape,color","181","0",""
"null","368661","HierDyqhw7lx03","sub18","06","05","feedback","test","null","","","na","","181","",""
"1669.6999999955297","370332","HierDyqhw7lx03","sub18","06","05","rl","test","75","img/o_s_check.png","7","75","pattern,shape,color","182","1",""
"null","371341","HierDyqhw7lx03","sub18","06","05","feedback","test","null","","","na","","182","",""
"1057.1999999955297","372399","HierDyqhw7lx03","sub18","06","05","rl","test","72","img/o_t_check.png","5","72","pattern,shape,color","183","1",""
"null","373407","HierDyqhw7lx03","sub18","06","05","feedback","test","null","","","na","","183","",""
"1006.3000000044703","374415","HierDyqhw7lx03","sub18","06","05","rl","test","68","img/o_s_stripes.png","3","68","pattern,shape,color","184","1",""
"null","375422","HierDyqhw7lx03","sub18","06","05","feedback","test","null","","","na","","184","",""
"803.4000000059605","376226","HierDyqhw7lx03","sub18","06","05","rl","test","72","img/r_t_check.png","6","74","pattern,shape,color","185","0",""
"null","377236","HierDyqhw7lx03","sub18","06","05","feedback","test","null","","","na","","185","",""
"882.3999999985099","378120","HierDyqhw7lx03","sub18","06","05","rl","test","76","img/r_s_check.png","8","76","pattern,shape,color","186","1",""
"null","379126","HierDyqhw7lx03","sub18","06","05","feedback","test","null","","","na","","186","",""
"933.2999999970198","380061","HierDyqhw7lx03","sub18","06","05","rl","test","75","img/o_s_check.png","7","75","pattern,shape,color","187","1",""
"null","381071","HierDyqhw7lx03","sub18","06","05","feedback","test","null","","","na","","187","",""
"850","381923","HierDyqhw7lx03","sub18","06","05","rl","test","70","img/r_s_stripes.png","4","70","pattern,shape,color","188","1",""
"null","382935","HierDyqhw7lx03","sub18","06","05","feedback","test","null","","","na","","188","",""
"1746.1000000014901","384682","HierDyqhw7lx03","sub18","06","05","rl","test","74","img/r_t_check.png","6","74","pattern,shape,color","189","1",""
"null","385693","HierDyqhw7lx03","sub18","06","05","feedback","test","null","","","na","","189","",""
"833.9000000059605","386528","HierDyqhw7lx03","sub18","06","05","rl","test","72","img/o_t_check.png","5","72","pattern,shape,color","190","1",""
"null","387535","HierDyqhw7lx03","sub18","06","05","feedback","test","null","","","na","","190","",""
"1725.8999999985099","389262","HierDyqhw7lx03","sub18","06","05","rl","test","83","img/r_t_stripes.png","2","83","pattern,shape,color","191","1",""
"null","390268","HierDyqhw7lx03","sub18","06","05","feedback","test","null","","","na","","191","",""
"1533.7999999970198","391803","HierDyqhw7lx03","sub18","06","05","rl","test","68","img/o_s_stripes.png","3","68","pattern,shape,color","192","1",""
"null","392814","HierDyqhw7lx03","sub18","06","05","feedback","test","null","","","na","","192","",""
"1798.2000000029802","394613","HierDyqhw7lx03","sub18","06","05","rl","test","83","img/r_t_stripes.png","2","83","pattern,shape,color","193","1",""
"null","395624","HierDyqhw7lx03","sub18","06","05","feedback","test","null","","","na","","193","",""
"848.7999999970198","396474","HierDyqhw7lx03","sub18","06","05","rl","test","68","img/o_s_stripes.png","3","68","pattern,shape,color","194","1",""
"null","397484","HierDyqhw7lx03","sub18","06","05","feedback","test","null","","","na","","194","",""
"757.1000000014901","398243","HierDyqhw7lx03","sub18","06","05","rl","test","75","img/o_t_check.png","5","72","pattern,shape,color","195","0",""
"null","399252","HierDyqhw7lx03","sub18","06","05","feedback","test","null","","","na","","195","",""
"815.3999999985099","400068","HierDyqhw7lx03","sub18","06","05","rl","test","83","img/o_t_stripes.png","1","65","pattern,shape,color","196","0",""
"null","401077","HierDyqhw7lx03","sub18","06","05","feedback","test","null","","","na","","196","",""
"1410.1999999955297","402488","HierDyqhw7lx03","sub18","06","05","rl","test","76","img/r_s_check.png","8","76","pattern,shape,color","197","1",""
"null","403496","HierDyqhw7lx03","sub18","06","05","feedback","test","null","","","na","","197","",""
"613.7000000029802","404111","HierDyqhw7lx03","sub18","06","05","rl","test","75","img/o_s_check.png","7","75","pattern,shape,color","198","1",""
"null","405118","HierDyqhw7lx03","sub18","06","05","feedback","test","null","","","na","","198","",""
"1111.6000000014901","406231","HierDyqhw7lx03","sub18","06","05","rl","test","74","img/r_t_check.png","6","74","pattern,shape,color","199","1",""
"null","407240","HierDyqhw7lx03","sub18","06","05","feedback","test","null","","","na","","199","",""
"975.1000000014901","408216","HierDyqhw7lx03","sub18","06","05","rl","test","70","img/r_s_stripes.png","4","70","pattern,shape,color","200","1",""
"null","409222","HierDyqhw7lx03","sub18","06","05","feedback","test","null","","","na","","200","",""
"879.4000000059605","410102","HierDyqhw7lx03","sub18","06","05","rl","test","76","img/o_s_check.png","7","75","pattern,shape,color","201","0",""
"null","411108","HierDyqhw7lx03","sub18","06","05","feedback","test","null","","","na","","201","",""
"1146.8999999985099","412256","HierDyqhw7lx03","sub18","06","05","rl","test","68","img/o_s_stripes.png","3","68","pattern,shape,color","202","1",""
"null","413261","HierDyqhw7lx03","sub18","06","05","feedback","test","null","","","na","","202","",""
"1381.1999999955297","414644","HierDyqhw7lx03","sub18","06","05","rl","test","75","img/r_s_check.png","8","76","pattern,shape,color","203","0",""
"null","415655","HierDyqhw7lx03","sub18","06","05","feedback","test","null","","","na","","203","",""
"null","418165","HierDyqhw7lx03","sub18","06","05","rl","test","null","img/o_t_check.png","5","72","pattern,shape,color","204","0",""
"null","419172","HierDyqhw7lx03","sub18","06","05","feedback","test","null","","","na","","204","",""
"842.2000000029802","420014","HierDyqhw7lx03","sub18","06","05","rl","test","83","img/o_t_stripes.png","1","65","pattern,shape,color","205","0",""
"null","421021","HierDyqhw7lx03","sub18","06","05","feedback","test","null","","","na","","205","",""
"766.5999999940395","421789","HierDyqhw7lx03","sub18","06","05","rl","test","68","img/r_t_stripes.png","2","83","pattern,shape,color","206","0",""
"null","422799","HierDyqhw7lx03","sub18","06","05","feedback","test","null","","","na","","206","",""
"755.2999999970198","423556","HierDyqhw7lx03","sub18","06","05","rl","test","70","img/r_s_stripes.png","4","70","pattern,shape,color","207","1",""
"null","424566","HierDyqhw7lx03","sub18","06","05","feedback","test","null","","","na","","207","",""
"532.8999999985099","425100","HierDyqhw7lx03","sub18","06","05","rl","test","70","img/r_s_stripes.png","4","70","pattern,shape,color","208","1",""
"null","426108","HierDyqhw7lx03","sub18","06","05","feedback","test","null","","","na","","208","",""
"1107.8999999985099","427217","HierDyqhw7lx03","sub18","06","05","rl","test","74","img/r_t_check.png","6","74","pattern,shape,color","209","1",""
"null","428223","HierDyqhw7lx03","sub18","06","05","feedback","test","null","","","na","","209","",""
"1737.1000000014901","429961","HierDyqhw7lx03","sub18","06","05","rl","test","83","img/r_t_stripes.png","2","83","pattern,shape,color","210","1",""
"null","430969","HierDyqhw7lx03","sub18","06","05","feedback","test","null","","","na","","210","",""
"626.2000000029802","431596","HierDyqhw7lx03","sub18","06","05","rl","test","65","img/o_t_stripes.png","1","65","pattern,shape,color","211","1",""
"null","432604","HierDyqhw7lx03","sub18","06","05","feedback","test","null","","","na","","211","",""
"816.6000000014901","433423","HierDyqhw7lx03","sub18","06","05","rl","test","74","img/r_t_check.png","6","74","pattern,shape,color","212","1",""
"null","434430","HierDyqhw7lx03","sub18","06","05","feedback","test","null","","","na","","212","",""
"1314.5","435745","HierDyqhw7lx03","sub18","06","05","rl","test","83","img/o_s_stripes.png","3","68","pattern,shape,color","213","0",""
"null","436749","HierDyqhw7lx03","sub18","06","05","feedback","test","null","","","na","","213","",""
"2019.8999999985099","438770","HierDyqhw7lx03","sub18","06","05","rl","test","75","img/o_s_check.png","7","75","pattern,shape,color","214","1",""
"null","439773","HierDyqhw7lx03","sub18","06","05","feedback","test","null","","","na","","214","",""
"617.8999999985099","440392","HierDyqhw7lx03","sub18","06","05","rl","test","76","img/r_s_check.png","8","76","pattern,shape,color","215","1",""
"null","441397","HierDyqhw7lx03","sub18","06","05","feedback","test","null","","","na","","215","",""
"1067.7999999970198","442466","HierDyqhw7lx03","sub18","06","05","rl","test","74","img/o_t_check.png","5","72","pattern,shape,color","216","0",""
"null","443471","HierDyqhw7lx03","sub18","06","05","feedback","test","null","","","na","","216","",""
"794","444266","HierDyqhw7lx03","sub18","06","05","rl","test","83","img/r_t_stripes.png","2","83","pattern,shape,color","217","1",""
"null","445273","HierDyqhw7lx03","sub18","06","05","feedback","test","null","","","na","","217","",""
"1059.5","446334","HierDyqhw7lx03","sub18","06","05","rl","test","68","img/o_t_check.png","5","72","pattern,shape,color","218","0",""
"null","447342","HierDyqhw7lx03","sub18","06","05","feedback","test","null","","","na","","218","",""
"718.8000000044703","448062","HierDyqhw7lx03","sub18","06","05","rl","test","83","img/o_t_stripes.png","1","65","pattern,shape,color","219","0",""
"null","449069","HierDyqhw7lx03","sub18","06","05","feedback","test","null","","","na","","219","",""
"966.5999999940395","450037","HierDyqhw7lx03","sub18","06","05","rl","test","76","img/r_s_check.png","8","76","pattern,shape,color","220","1",""
"null","451046","HierDyqhw7lx03","sub18","06","05","feedback","test","null","","","na","","220","",""
"1108.2999999970198","452155","HierDyqhw7lx03","sub18","06","05","rl","test","76","img/r_t_check.png","6","74","pattern,shape,color","221","0",""
"null","453165","HierDyqhw7lx03","sub18","06","05","feedback","test","null","","","na","","221","",""
"936.2000000029802","454103","HierDyqhw7lx03","sub18","06","05","rl","test","70","img/r_s_stripes.png","4","70","pattern,shape,color","222","1",""
"null","455108","HierDyqhw7lx03","sub18","06","05","feedback","test","null","","","na","","222","",""
"537.1000000014901","455647","HierDyqhw7lx03","sub18","06","05","rl","test","70","img/r_s_stripes.png","4","70","pattern,shape,color","223","1",""
"null","456655","HierDyqhw7lx03","sub18","06","05","feedback","test","null","","","na","","223","",""
"736.2999999970198","457392","HierDyqhw7lx03","sub18","06","05","rl","test","75","img/o_s_check.png","7","75","pattern,shape,color","224","1",""
"null","458399","HierDyqhw7lx03","sub18","06","05","feedback","test","null","","","na","","224","",""
"1284.1000000014901","459685","HierDyqhw7lx03","sub18","06","05","rl","test","76","img/r_s_check.png","8","76","pattern,shape,color","225","1",""
"null","460693","HierDyqhw7lx03","sub18","06","05","feedback","test","null","","","na","","225","",""
"1156","461850","HierDyqhw7lx03","sub18","06","05","rl","test","83","img/o_s_stripes.png","3","68","pattern,shape,color","226","0",""
"null","462856","HierDyqhw7lx03","sub18","06","05","feedback","test","null","","","na","","226","",""
"1167.1999999955297","464025","HierDyqhw7lx03","sub18","06","05","rl","test","75","img/o_s_check.png","7","75","pattern,shape,color","227","1",""
"null","465033","HierDyqhw7lx03","sub18","06","05","feedback","test","null","","","na","","227","",""
"848.1999999955297","465883","HierDyqhw7lx03","sub18","06","05","rl","test","74","img/r_t_check.png","6","74","pattern,shape,color","228","1",""
"null","466887","HierDyqhw7lx03","sub18","06","05","feedback","test","null","","","na","","228","",""
"1063","467951","HierDyqhw7lx03","sub18","06","05","rl","test","68","img/o_s_stripes.png","3","68","pattern,shape,color","229","1",""
"null","468958","HierDyqhw7lx03","sub18","06","05","feedback","test","null","","","na","","229","",""
"1011.6999999955297","469971","HierDyqhw7lx03","sub18","06","05","rl","test","65","img/o_t_stripes.png","1","65","pattern,shape,color","230","1",""
"null","470974","HierDyqhw7lx03","sub18","06","05","feedback","test","null","","","na","","230","",""
"1154.8999999985099","472130","HierDyqhw7lx03","sub18","06","05","rl","test","70","img/r_t_stripes.png","2","83","pattern,shape,color","231","0",""
"null","473138","HierDyqhw7lx03","sub18","06","05","feedback","test","null","","","na","","231","",""
"2126.10000000149","475265","HierDyqhw7lx03","sub18","06","05","rl","test","74","img/r_t_check.png","6","74","pattern,shape,color","232","1",""
"null","476270","HierDyqhw7lx03","sub18","06","05","feedback","test","null","","","na","","232","",""
"754.3999999985099","477025","HierDyqhw7lx03","sub18","06","05","rl","test","72","img/o_t_check.png","5","72","pattern,shape,color","233","1",""
"null","478030","HierDyqhw7lx03","sub18","06","05","feedback","test","null","","","na","","233","",""
"524.3999999985099","478555","HierDyqhw7lx03","sub18","06","05","rl","test","72","img/o_t_check.png","5","72","pattern,shape,color","234","1",""
"null","479561","HierDyqhw7lx03","sub18","06","05","feedback","test","null","","","na","","234","",""
"1117.6000000014901","480680","HierDyqhw7lx03","sub18","06","05","rl","test","68","img/o_s_stripes.png","3","68","pattern,shape,color","235","1",""
"null","481689","HierDyqhw7lx03","sub18","06","05","feedback","test","null","","","na","","235","",""
"1025.3999999985099","482715","HierDyqhw7lx03","sub18","06","05","rl","test","72","img/o_t_check.png","5","72","pattern,shape,color","236","1",""
"null","483728","HierDyqhw7lx03","sub18","06","05","feedback","test","null","","","na","","236","",""
"1655.1000000014901","485384","HierDyqhw7lx03","sub18","06","05","rl","test","83","img/o_t_stripes.png","1","65","pattern,shape,color","237","0",""
"null","486392","HierDyqhw7lx03","sub18","06","05","feedback","test","null","","","na","","237","",""
"695.3999999985099","487088","HierDyqhw7lx03","sub18","06","05","rl","test","70","img/r_s_stripes.png","4","70","pattern,shape,color","238","1",""
"null","488095","HierDyqhw7lx03","sub18","06","05","feedback","test","null","","","na","","238","",""
"1024.8999999985099","489121","HierDyqhw7lx03","sub18","06","05","rl","test","83","img/r_t_stripes.png","2","83","pattern,shape,color","239","1",""
"null","490130","HierDyqhw7lx03","sub18","06","05","feedback","test","null","","","na","","239","",""
"890.1000000014901","491021","HierDyqhw7lx03","sub18","06","05","rl","test","76","img/r_s_check.png","8","76","pattern,shape,color","240","1",""
"null","492028","HierDyqhw7lx03","sub18","06","05","feedback","test","null","","","na","","240","",""
"546.2000000029802","492576","HierDyqhw7lx03","sub18","06","05","rl","test","75","img/o_s_check.png","7","75","pattern,shape,color","241","1",""
"null","493583","HierDyqhw7lx03","sub18","06","05","feedback","test","null","","","na","","241","",""
"787.3000000044703","494371","HierDyqhw7lx03","sub18","06","05","rl","test","76","img/r_s_check.png","8","76","pattern,shape,color","242","1",""
"null","495382","HierDyqhw7lx03","sub18","06","05","feedback","test","null","","","na","","242","",""
"607.2000000029802","495991","HierDyqhw7lx03","sub18","06","05","rl","test","70","img/r_s_stripes.png","4","70","pattern,shape,color","243","1",""
"null","497002","HierDyqhw7lx03","sub18","06","05","feedback","test","null","","","na","","243","",""
"975.2000000029802","497978","HierDyqhw7lx03","sub18","06","05","rl","test","75","img/o_s_check.png","7","75","pattern,shape,color","244","1",""
"null","498985","HierDyqhw7lx03","sub18","06","05","feedback","test","null","","","na","","244","",""
"1173.9000000059605","500160","HierDyqhw7lx03","sub18","06","05","rl","test","83","img/o_t_stripes.png","1","65","pattern,shape,color","245","0",""
"null","501167","HierDyqhw7lx03","sub18","06","05","feedback","test","null","","","na","","245","",""
"825.7999999970198","501994","HierDyqhw7lx03","sub18","06","05","rl","test","68","img/o_s_stripes.png","3","68","pattern,shape,color","246","1",""
"null","502998","HierDyqhw7lx03","sub18","06","05","feedback","test","null","","","na","","246","",""
"974.7000000029802","503974","HierDyqhw7lx03","sub18","06","05","rl","test","74","img/r_t_check.png","6","74","pattern,shape,color","247","1",""
"null","504982","HierDyqhw7lx03","sub18","06","05","feedback","test","null","","","na","","247","",""
"825.5","505808","HierDyqhw7lx03","sub18","06","05","rl","test","83","img/r_t_stripes.png","2","83","pattern,shape,color","248","1",""
"null","506818","HierDyqhw7lx03","sub18","06","05","feedback","test","null","","","na","","248","",""
"2957","509781","HierDyqhw7lx03","sub18","06","05","","","","","","","","","","{""Q0"":""7""}"
"15649.79999999702","525434","HierDyqhw7lx03","sub18","06","05","","","","","","","","","","{""Q0"":""I startedmemorizing which goes where just from practice""}"
"1765.0999999940395","527201","HierDyqhw7lx03","sub18","06","05","","","","","","","","","",""
