"rt","time_elapsed","subject","subID","group","day","trialType","phase","key_press","stim","stimNum","corrresp","hierarchy","trialNum","corr","responses"
"2366","2370","HierDymefro8sb","sub23","11","06","","","","","","","","","",""
"","5204","HierDymefro8sb","sub23","11","06","fullscreen","","","","","","","","",""
"5505.000000000002","10713","HierDymefro8sb","sub23","11","06","","prac","","","","","","","",""
"3779.999999999998","14496","HierDymefro8sb","sub23","11","06","","","32","","","","","","",""
"1742.0000000000018","16241","HierDymefro8sb","sub23","11","06","","prac","","","","","","","",""
"1278","17521","HierDymefro8sb","sub23","11","06","rl","test","68","img/p_c_diag.png","4","70","shape,color,pattern","1","0",""
"null","18524","HierDymefro8sb","sub23","11","06","feedback","test","null","","","na","","1","",""
"784","19310","HierDymefro8sb","sub23","11","06","rl","test","68","img/p_c_dots.png","3","68","shape,color,pattern","2","1",""
"null","20313","HierDymefro8sb","sub23","11","06","feedback","test","null","","","na","","2","",""
"631","20947","HierDymefro8sb","sub23","11","06","rl","test","65","img/o_c_dots.png","1","65","shape,color,pattern","3","1",""
"null","21949","HierDymefro8sb","sub23","11","06","feedback","test","null","","","na","","3","",""
"834","22785","HierDymefro8sb","sub23","11","06","rl","test","74","img/o_s_diag.png","6","74","shape,color,pattern","4","1",""
"null","23788","HierDymefro8sb","sub23","11","06","feedback","test","null","","","na","","4","",""
"888","24679","HierDymefro8sb","sub23","11","06","rl","test","72","img/o_s_dots.png","5","72","shape,color,pattern","5","1",""
"null","25682","HierDymefro8sb","sub23","11","06","feedback","test","null","","","na","","5","",""
"750","26434","HierDymefro8sb","sub23","11","06","rl","test","83","img/o_c_diag.png","2","83","shape,color,pattern","6","1",""
"null","27438","HierDymefro8sb","sub23","11","06","feedback","test","null","","","na","","6","",""
"928","28368","HierDymefro8sb","sub23","11","06","rl","test","74","img/o_s_diag.png","6","74","shape,color,pattern","7","1",""
"null","29371","HierDymefro8sb","sub23","11","06","feedback","test","null","","","na","","7","",""
"853.9999999999927","30227","HierDymefro8sb","sub23","11","06","rl","test","75","img/p_s_dots.png","7","75","shape,color,pattern","8","1",""
"null","31230","HierDymefro8sb","sub23","11","06","feedback","test","null","","","na","","8","",""
"1180","32412","HierDymefro8sb","sub23","11","06","rl","test","75","img/p_s_dots.png","7","75","shape,color,pattern","9","1",""
"null","33414","HierDymefro8sb","sub23","11","06","feedback","test","null","","","na","","9","",""
"764","34179","HierDymefro8sb","sub23","11","06","rl","test","76","img/p_s_diag.png","8","76","shape,color,pattern","10","1",""
"null","35182","HierDymefro8sb","sub23","11","06","feedback","test","null","","","na","","10","",""
"664","35849","HierDymefro8sb","sub23","11","06","rl","test","72","img/o_s_dots.png","5","72","shape,color,pattern","11","1",""
"null","36853","HierDymefro8sb","sub23","11","06","feedback","test","null","","","na","","11","",""
"667","37523","HierDymefro8sb","sub23","11","06","rl","test","70","img/p_c_diag.png","4","70","shape,color,pattern","12","1",""
"null","38526","HierDymefro8sb","sub23","11","06","feedback","test","null","","","na","","12","",""
"906","39434","HierDymefro8sb","sub23","11","06","rl","test","75","img/p_c_dots.png","3","68","shape,color,pattern","13","0",""
"null","40438","HierDymefro8sb","sub23","11","06","feedback","test","null","","","na","","13","",""
"701","41140","HierDymefro8sb","sub23","11","06","rl","test","76","img/p_s_diag.png","8","76","shape,color,pattern","14","1",""
"null","42143","HierDymefro8sb","sub23","11","06","feedback","test","null","","","na","","14","",""
"665","42810","HierDymefro8sb","sub23","11","06","rl","test","65","img/o_c_dots.png","1","65","shape,color,pattern","15","1",""
"null","43813","HierDymefro8sb","sub23","11","06","feedback","test","null","","","na","","15","",""
"671","44486","HierDymefro8sb","sub23","11","06","rl","test","68","img/p_c_dots.png","3","68","shape,color,pattern","16","1",""
"null","45488","HierDymefro8sb","sub23","11","06","feedback","test","null","","","na","","16","",""
"751","46240","HierDymefro8sb","sub23","11","06","rl","test","65","img/o_c_dots.png","1","65","shape,color,pattern","17","1",""
"null","47243","HierDymefro8sb","sub23","11","06","feedback","test","null","","","na","","17","",""
"1028","48273","HierDymefro8sb","sub23","11","06","rl","test","75","img/p_s_dots.png","7","75","shape,color,pattern","18","1",""
"null","49276","HierDymefro8sb","sub23","11","06","feedback","test","null","","","na","","18","",""
"828","50107","HierDymefro8sb","sub23","11","06","rl","test","83","img/o_c_diag.png","2","83","shape,color,pattern","19","1",""
"null","51110","HierDymefro8sb","sub23","11","06","feedback","test","null","","","na","","19","",""
"873","51984","HierDymefro8sb","sub23","11","06","rl","test","83","img/o_c_diag.png","2","83","shape,color,pattern","20","1",""
"null","52988","HierDymefro8sb","sub23","11","06","feedback","test","null","","","na","","20","",""
"973.0000000000073","53963","HierDymefro8sb","sub23","11","06","rl","test","74","img/o_s_diag.png","6","74","shape,color,pattern","21","1",""
"null","54966","HierDymefro8sb","sub23","11","06","feedback","test","null","","","na","","21","",""
"750.9999999999927","55720","HierDymefro8sb","sub23","11","06","rl","test","76","img/p_s_diag.png","8","76","shape,color,pattern","22","1",""
"null","56723","HierDymefro8sb","sub23","11","06","feedback","test","null","","","na","","22","",""
"981","57709","HierDymefro8sb","sub23","11","06","rl","test","75","img/p_s_dots.png","7","75","shape,color,pattern","23","1",""
"null","58713","HierDymefro8sb","sub23","11","06","feedback","test","null","","","na","","23","",""
"860","59576","HierDymefro8sb","sub23","11","06","rl","test","72","img/o_s_dots.png","5","72","shape,color,pattern","24","1",""
"null","60579","HierDymefro8sb","sub23","11","06","feedback","test","null","","","na","","24","",""
"1058.9999999999927","61640","HierDymefro8sb","sub23","11","06","rl","test","74","img/o_s_diag.png","6","74","shape,color,pattern","25","1",""
"null","62644","HierDymefro8sb","sub23","11","06","feedback","test","null","","","na","","25","",""
"1266.9999999999927","63913","HierDymefro8sb","sub23","11","06","rl","test","70","img/p_c_diag.png","4","70","shape,color,pattern","26","1",""
"null","64916","HierDymefro8sb","sub23","11","06","feedback","test","null","","","na","","26","",""
"1151","66070","HierDymefro8sb","sub23","11","06","rl","test","74","img/o_c_diag.png","2","83","shape,color,pattern","27","0",""
"null","67073","HierDymefro8sb","sub23","11","06","feedback","test","null","","","na","","27","",""
"946","68021","HierDymefro8sb","sub23","11","06","rl","test","76","img/p_c_diag.png","4","70","shape,color,pattern","28","0",""
"null","69024","HierDymefro8sb","sub23","11","06","feedback","test","null","","","na","","28","",""
"721","69749","HierDymefro8sb","sub23","11","06","rl","test","83","img/p_c_dots.png","3","68","shape,color,pattern","29","0",""
"null","70752","HierDymefro8sb","sub23","11","06","feedback","test","null","","","na","","29","",""
"812.9999999999854","71566","HierDymefro8sb","sub23","11","06","rl","test","72","img/o_s_dots.png","5","72","shape,color,pattern","30","1",""
"null","72569","HierDymefro8sb","sub23","11","06","feedback","test","null","","","na","","30","",""
"899","73470","HierDymefro8sb","sub23","11","06","rl","test","76","img/p_s_diag.png","8","76","shape,color,pattern","31","1",""
"null","74475","HierDymefro8sb","sub23","11","06","feedback","test","null","","","na","","31","",""
"664","75142","HierDymefro8sb","sub23","11","06","rl","test","72","img/o_c_dots.png","1","65","shape,color,pattern","32","0",""
"null","76145","HierDymefro8sb","sub23","11","06","feedback","test","null","","","na","","32","",""
"878","77026","HierDymefro8sb","sub23","11","06","rl","test","76","img/p_c_diag.png","4","70","shape,color,pattern","33","0",""
"null","78030","HierDymefro8sb","sub23","11","06","feedback","test","null","","","na","","33","",""
"800","78832","HierDymefro8sb","sub23","11","06","rl","test","72","img/o_s_dots.png","5","72","shape,color,pattern","34","1",""
"null","79835","HierDymefro8sb","sub23","11","06","feedback","test","null","","","na","","34","",""
"865","80702","HierDymefro8sb","sub23","11","06","rl","test","83","img/o_c_diag.png","2","83","shape,color,pattern","35","1",""
"null","81705","HierDymefro8sb","sub23","11","06","feedback","test","null","","","na","","35","",""
"844","82551","HierDymefro8sb","sub23","11","06","rl","test","68","img/p_c_dots.png","3","68","shape,color,pattern","36","1",""
"null","83555","HierDymefro8sb","sub23","11","06","feedback","test","null","","","na","","36","",""
"1010","84566","HierDymefro8sb","sub23","11","06","rl","test","75","img/p_s_dots.png","7","75","shape,color,pattern","37","1",""
"null","85568","HierDymefro8sb","sub23","11","06","feedback","test","null","","","na","","37","",""
"873","86444","HierDymefro8sb","sub23","11","06","rl","test","74","img/o_c_diag.png","2","83","shape,color,pattern","38","0",""
"null","87447","HierDymefro8sb","sub23","11","06","feedback","test","null","","","na","","38","",""
"988","88437","HierDymefro8sb","sub23","11","06","rl","test","75","img/p_s_dots.png","7","75","shape,color,pattern","39","1",""
"null","89440","HierDymefro8sb","sub23","11","06","feedback","test","null","","","na","","39","",""
"1231","90673","HierDymefro8sb","sub23","11","06","rl","test","74","img/o_s_diag.png","6","74","shape,color,pattern","40","1",""
"null","91676","HierDymefro8sb","sub23","11","06","feedback","test","null","","","na","","40","",""
"1431","93109","HierDymefro8sb","sub23","11","06","rl","test","76","img/p_s_diag.png","8","76","shape,color,pattern","41","1",""
"null","94112","HierDymefro8sb","sub23","11","06","feedback","test","null","","","na","","41","",""
"701","94815","HierDymefro8sb","sub23","11","06","rl","test","76","img/p_s_diag.png","8","76","shape,color,pattern","42","1",""
"null","95819","HierDymefro8sb","sub23","11","06","feedback","test","null","","","na","","42","",""
"849","96669","HierDymefro8sb","sub23","11","06","rl","test","72","img/o_c_dots.png","1","65","shape,color,pattern","43","0",""
"null","97672","HierDymefro8sb","sub23","11","06","feedback","test","null","","","na","","43","",""
"1587","99261","HierDymefro8sb","sub23","11","06","rl","test","74","img/o_s_diag.png","6","74","shape,color,pattern","44","1",""
"null","100262","HierDymefro8sb","sub23","11","06","feedback","test","null","","","na","","44","",""
"1371","101636","HierDymefro8sb","sub23","11","06","rl","test","70","img/p_c_diag.png","4","70","shape,color,pattern","45","1",""
"null","102639","HierDymefro8sb","sub23","11","06","feedback","test","null","","","na","","45","",""
"600.0000000000146","103241","HierDymefro8sb","sub23","11","06","rl","test","65","img/o_c_dots.png","1","65","shape,color,pattern","46","1",""
"null","104243","HierDymefro8sb","sub23","11","06","feedback","test","null","","","na","","46","",""
"696","104942","HierDymefro8sb","sub23","11","06","rl","test","68","img/p_c_dots.png","3","68","shape,color,pattern","47","1",""
"null","105945","HierDymefro8sb","sub23","11","06","feedback","test","null","","","na","","47","",""
"852","106799","HierDymefro8sb","sub23","11","06","rl","test","72","img/o_s_dots.png","5","72","shape,color,pattern","48","1",""
"null","107802","HierDymefro8sb","sub23","11","06","feedback","test","null","","","na","","48","",""
"945","108749","HierDymefro8sb","sub23","11","06","rl","test","75","img/p_s_dots.png","7","75","shape,color,pattern","49","1",""
"null","109752","HierDymefro8sb","sub23","11","06","feedback","test","null","","","na","","49","",""
"861","110615","HierDymefro8sb","sub23","11","06","rl","test","72","img/o_s_dots.png","5","72","shape,color,pattern","50","1",""
"null","111619","HierDymefro8sb","sub23","11","06","feedback","test","null","","","na","","50","",""
"793","112415","HierDymefro8sb","sub23","11","06","rl","test","70","img/p_c_diag.png","4","70","shape,color,pattern","51","1",""
"null","113418","HierDymefro8sb","sub23","11","06","feedback","test","null","","","na","","51","",""
"827.0000000000146","114247","HierDymefro8sb","sub23","11","06","rl","test","74","img/o_s_diag.png","6","74","shape,color,pattern","52","1",""
"null","115250","HierDymefro8sb","sub23","11","06","feedback","test","null","","","na","","52","",""
"798.9999999999854","116052","HierDymefro8sb","sub23","11","06","rl","test","83","img/o_c_diag.png","2","83","shape,color,pattern","53","1",""
"null","117055","HierDymefro8sb","sub23","11","06","feedback","test","null","","","na","","53","",""
"972","118029","HierDymefro8sb","sub23","11","06","rl","test","68","img/p_c_dots.png","3","68","shape,color,pattern","54","1",""
"null","119032","HierDymefro8sb","sub23","11","06","feedback","test","null","","","na","","54","",""
"1046","120080","HierDymefro8sb","sub23","11","06","rl","test","65","img/o_c_dots.png","1","65","shape,color,pattern","55","1",""
"null","121084","HierDymefro8sb","sub23","11","06","feedback","test","null","","","na","","55","",""
"920.0000000000146","122006","HierDymefro8sb","sub23","11","06","rl","test","70","img/p_c_diag.png","4","70","shape,color,pattern","56","1",""
"null","123009","HierDymefro8sb","sub23","11","06","feedback","test","null","","","na","","56","",""
"1297.9999999999854","124310","HierDymefro8sb","sub23","11","06","rl","test","76","img/p_s_diag.png","8","76","shape,color,pattern","57","1",""
"null","125314","HierDymefro8sb","sub23","11","06","feedback","test","null","","","na","","57","",""
"619","125936","HierDymefro8sb","sub23","11","06","rl","test","76","img/p_s_diag.png","8","76","shape,color,pattern","58","1",""
"null","126939","HierDymefro8sb","sub23","11","06","feedback","test","null","","","na","","58","",""
"798","127739","HierDymefro8sb","sub23","11","06","rl","test","75","img/p_c_dots.png","3","68","shape,color,pattern","59","0",""
"null","128742","HierDymefro8sb","sub23","11","06","feedback","test","null","","","na","","59","",""
"1150","129895","HierDymefro8sb","sub23","11","06","rl","test","74","img/o_s_diag.png","6","74","shape,color,pattern","60","1",""
"null","130898","HierDymefro8sb","sub23","11","06","feedback","test","null","","","na","","60","",""
"1085","131986","HierDymefro8sb","sub23","11","06","rl","test","75","img/p_s_dots.png","7","75","shape,color,pattern","61","1",""
"null","132989","HierDymefro8sb","sub23","11","06","feedback","test","null","","","na","","61","",""
"681","133672","HierDymefro8sb","sub23","11","06","rl","test","72","img/o_s_dots.png","5","72","shape,color,pattern","62","1",""
"null","134674","HierDymefro8sb","sub23","11","06","feedback","test","null","","","na","","62","",""
"857","135532","HierDymefro8sb","sub23","11","06","rl","test","83","img/o_c_diag.png","2","83","shape,color,pattern","63","1",""
"null","136534","HierDymefro8sb","sub23","11","06","feedback","test","null","","","na","","63","",""
"740","137277","HierDymefro8sb","sub23","11","06","rl","test","65","img/o_c_dots.png","1","65","shape,color,pattern","64","1",""
"null","138281","HierDymefro8sb","sub23","11","06","feedback","test","null","","","na","","64","",""
"796","139079","HierDymefro8sb","sub23","11","06","rl","test","83","img/o_c_diag.png","2","83","shape,color,pattern","65","1",""
"null","140082","HierDymefro8sb","sub23","11","06","feedback","test","null","","","na","","65","",""
"942","141027","HierDymefro8sb","sub23","11","06","rl","test","68","img/p_c_dots.png","3","68","shape,color,pattern","66","1",""
"null","142030","HierDymefro8sb","sub23","11","06","feedback","test","null","","","na","","66","",""
"788.0000000000291","142820","HierDymefro8sb","sub23","11","06","rl","test","75","img/p_s_dots.png","7","75","shape,color,pattern","67","1",""
"null","143823","HierDymefro8sb","sub23","11","06","feedback","test","null","","","na","","67","",""
"1022","144847","HierDymefro8sb","sub23","11","06","rl","test","65","img/o_c_dots.png","1","65","shape,color,pattern","68","1",""
"null","145851","HierDymefro8sb","sub23","11","06","feedback","test","null","","","na","","68","",""
"781","146635","HierDymefro8sb","sub23","11","06","rl","test","70","img/p_c_diag.png","4","70","shape,color,pattern","69","1",""
"null","147638","HierDymefro8sb","sub23","11","06","feedback","test","null","","","na","","69","",""
"675","148315","HierDymefro8sb","sub23","11","06","rl","test","75","img/p_s_dots.png","7","75","shape,color,pattern","70","1",""
"null","149318","HierDymefro8sb","sub23","11","06","feedback","test","null","","","na","","70","",""
"917.9999999999709","150238","HierDymefro8sb","sub23","11","06","rl","test","74","img/o_s_diag.png","6","74","shape,color,pattern","71","1",""
"null","151242","HierDymefro8sb","sub23","11","06","feedback","test","null","","","na","","71","",""
"814.0000000000291","152058","HierDymefro8sb","sub23","11","06","rl","test","76","img/p_s_diag.png","8","76","shape,color,pattern","72","1",""
"null","153062","HierDymefro8sb","sub23","11","06","feedback","test","null","","","na","","72","",""
"744","153808","HierDymefro8sb","sub23","11","06","rl","test","72","img/o_s_dots.png","5","72","shape,color,pattern","73","1",""
"null","154811","HierDymefro8sb","sub23","11","06","feedback","test","null","","","na","","73","",""
"888.9999999999709","155704","HierDymefro8sb","sub23","11","06","rl","test","72","img/o_s_dots.png","5","72","shape,color,pattern","74","1",""
"null","156707","HierDymefro8sb","sub23","11","06","feedback","test","null","","","na","","74","",""
"1102","157811","HierDymefro8sb","sub23","11","06","rl","test","65","img/o_c_dots.png","1","65","shape,color,pattern","75","1",""
"null","158814","HierDymefro8sb","sub23","11","06","feedback","test","null","","","na","","75","",""
"935","159751","HierDymefro8sb","sub23","11","06","rl","test","74","img/o_s_diag.png","6","74","shape,color,pattern","76","1",""
"null","160755","HierDymefro8sb","sub23","11","06","feedback","test","null","","","na","","76","",""
"846","161603","HierDymefro8sb","sub23","11","06","rl","test","70","img/p_c_diag.png","4","70","shape,color,pattern","77","1",""
"null","162606","HierDymefro8sb","sub23","11","06","feedback","test","null","","","na","","77","",""
"776","163385","HierDymefro8sb","sub23","11","06","rl","test","83","img/o_c_diag.png","2","83","shape,color,pattern","78","1",""
"null","164388","HierDymefro8sb","sub23","11","06","feedback","test","null","","","na","","78","",""
"873","165263","HierDymefro8sb","sub23","11","06","rl","test","68","img/p_c_dots.png","3","68","shape,color,pattern","79","1",""
"null","166266","HierDymefro8sb","sub23","11","06","feedback","test","null","","","na","","79","",""
"736","167003","HierDymefro8sb","sub23","11","06","rl","test","74","img/o_s_diag.png","6","74","shape,color,pattern","80","1",""
"null","168006","HierDymefro8sb","sub23","11","06","feedback","test","null","","","na","","80","",""
"1097.000000000029","169106","HierDymefro8sb","sub23","11","06","rl","test","68","img/p_c_dots.png","3","68","shape,color,pattern","81","1",""
"null","170108","HierDymefro8sb","sub23","11","06","feedback","test","null","","","na","","81","",""
"1245.000000000029","171356","HierDymefro8sb","sub23","11","06","rl","test","76","img/p_s_diag.png","8","76","shape,color,pattern","82","1",""
"null","172360","HierDymefro8sb","sub23","11","06","feedback","test","null","","","na","","82","",""
"727","173089","HierDymefro8sb","sub23","11","06","rl","test","76","img/p_s_diag.png","8","76","shape,color,pattern","83","1",""
"null","174092","HierDymefro8sb","sub23","11","06","feedback","test","null","","","na","","83","",""
"812","174907","HierDymefro8sb","sub23","11","06","rl","test","65","img/o_c_dots.png","1","65","shape,color,pattern","84","1",""
"null","175911","HierDymefro8sb","sub23","11","06","feedback","test","null","","","na","","84","",""
"1349","177261","HierDymefro8sb","sub23","11","06","rl","test","75","img/p_s_dots.png","7","75","shape,color,pattern","85","1",""
"null","178265","HierDymefro8sb","sub23","11","06","feedback","test","null","","","na","","85","",""
"650","178917","HierDymefro8sb","sub23","11","06","rl","test","72","img/o_s_dots.png","5","72","shape,color,pattern","86","1",""
"null","179920","HierDymefro8sb","sub23","11","06","feedback","test","null","","","na","","86","",""
"727","180650","HierDymefro8sb","sub23","11","06","rl","test","68","img/p_c_dots.png","3","68","shape,color,pattern","87","1",""
"null","181653","HierDymefro8sb","sub23","11","06","feedback","test","null","","","na","","87","",""
"765.0000000000291","182420","HierDymefro8sb","sub23","11","06","rl","test","72","img/o_s_dots.png","5","72","shape,color,pattern","88","1",""
"null","183423","HierDymefro8sb","sub23","11","06","feedback","test","null","","","na","","88","",""
"753","184179","HierDymefro8sb","sub23","11","06","rl","test","70","img/p_c_diag.png","4","70","shape,color,pattern","89","1",""
"null","185182","HierDymefro8sb","sub23","11","06","feedback","test","null","","","na","","89","",""
"977","186163","HierDymefro8sb","sub23","11","06","rl","test","74","img/o_s_diag.png","6","74","shape,color,pattern","90","1",""
"null","187166","HierDymefro8sb","sub23","11","06","feedback","test","null","","","na","","90","",""
"859","188028","HierDymefro8sb","sub23","11","06","rl","test","83","img/o_c_diag.png","2","83","shape,color,pattern","91","1",""
"null","189030","HierDymefro8sb","sub23","11","06","feedback","test","null","","","na","","91","",""
"824","189856","HierDymefro8sb","sub23","11","06","rl","test","70","img/p_c_diag.png","4","70","shape,color,pattern","92","1",""
"null","190860","HierDymefro8sb","sub23","11","06","feedback","test","null","","","na","","92","",""
"623","191485","HierDymefro8sb","sub23","11","06","rl","test","65","img/o_c_dots.png","1","65","shape,color,pattern","93","1",""
"null","192488","HierDymefro8sb","sub23","11","06","feedback","test","null","","","na","","93","",""
"752.0000000000291","193242","HierDymefro8sb","sub23","11","06","rl","test","83","img/o_c_diag.png","2","83","shape,color,pattern","94","1",""
"null","194245","HierDymefro8sb","sub23","11","06","feedback","test","null","","","na","","94","",""
"712","194959","HierDymefro8sb","sub23","11","06","rl","test","76","img/p_s_diag.png","8","76","shape,color,pattern","95","1",""
"null","195962","HierDymefro8sb","sub23","11","06","feedback","test","null","","","na","","95","",""
"1110","197075","HierDymefro8sb","sub23","11","06","rl","test","75","img/p_s_dots.png","7","75","shape,color,pattern","96","1",""
"null","198077","HierDymefro8sb","sub23","11","06","feedback","test","null","","","na","","96","",""
"583","198663","HierDymefro8sb","sub23","11","06","rl","test","75","img/p_s_dots.png","7","75","shape,color,pattern","97","1",""
"null","199666","HierDymefro8sb","sub23","11","06","feedback","test","null","","","na","","97","",""
"605","200274","HierDymefro8sb","sub23","11","06","rl","test","83","img/o_c_diag.png","2","83","shape,color,pattern","98","1",""
"null","201277","HierDymefro8sb","sub23","11","06","feedback","test","null","","","na","","98","",""
"621","201899","HierDymefro8sb","sub23","11","06","rl","test","65","img/o_c_dots.png","1","65","shape,color,pattern","99","1",""
"null","202902","HierDymefro8sb","sub23","11","06","feedback","test","null","","","na","","99","",""
"854","203758","HierDymefro8sb","sub23","11","06","rl","test","76","img/p_s_diag.png","8","76","shape,color,pattern","100","1",""
"null","204760","HierDymefro8sb","sub23","11","06","feedback","test","null","","","na","","100","",""
"1009","205773","HierDymefro8sb","sub23","11","06","rl","test","68","img/p_c_dots.png","3","68","shape,color,pattern","101","1",""
"null","206776","HierDymefro8sb","sub23","11","06","feedback","test","null","","","na","","101","",""
"680","207458","HierDymefro8sb","sub23","11","06","rl","test","72","img/o_s_dots.png","5","72","shape,color,pattern","102","1",""
"null","208461","HierDymefro8sb","sub23","11","06","feedback","test","null","","","na","","102","",""
"661","209123","HierDymefro8sb","sub23","11","06","rl","test","70","img/p_c_diag.png","4","70","shape,color,pattern","103","1",""
"null","210126","HierDymefro8sb","sub23","11","06","feedback","test","null","","","na","","103","",""
"765","210892","HierDymefro8sb","sub23","11","06","rl","test","74","img/o_s_diag.png","6","74","shape,color,pattern","104","1",""
"null","211895","HierDymefro8sb","sub23","11","06","feedback","test","null","","","na","","104","",""
"786.9999999999709","212684","HierDymefro8sb","sub23","11","06","rl","test","83","img/o_c_diag.png","2","83","shape,color,pattern","105","1",""
"null","213688","HierDymefro8sb","sub23","11","06","feedback","test","null","","","na","","105","",""
"1026","214716","HierDymefro8sb","sub23","11","06","rl","test","75","img/p_s_dots.png","7","75","shape,color,pattern","106","1",""
"null","215719","HierDymefro8sb","sub23","11","06","feedback","test","null","","","na","","106","",""
"680","216402","HierDymefro8sb","sub23","11","06","rl","test","72","img/o_s_dots.png","5","72","shape,color,pattern","107","1",""
"null","217404","HierDymefro8sb","sub23","11","06","feedback","test","null","","","na","","107","",""
"572","217979","HierDymefro8sb","sub23","11","06","rl","test","76","img/p_s_diag.png","8","76","shape,color,pattern","108","1",""
"null","218981","HierDymefro8sb","sub23","11","06","feedback","test","null","","","na","","108","",""
"927","219910","HierDymefro8sb","sub23","11","06","rl","test","68","img/p_c_dots.png","3","68","shape,color,pattern","109","1",""
"null","220914","HierDymefro8sb","sub23","11","06","feedback","test","null","","","na","","109","",""
"610","221526","HierDymefro8sb","sub23","11","06","rl","test","70","img/p_c_diag.png","4","70","shape,color,pattern","110","1",""
"null","222529","HierDymefro8sb","sub23","11","06","feedback","test","null","","","na","","110","",""
"613","223145","HierDymefro8sb","sub23","11","06","rl","test","74","img/o_s_diag.png","6","74","shape,color,pattern","111","1",""
"null","224148","HierDymefro8sb","sub23","11","06","feedback","test","null","","","na","","111","",""
"655","224805","HierDymefro8sb","sub23","11","06","rl","test","65","img/o_c_dots.png","1","65","shape,color,pattern","112","1",""
"null","225808","HierDymefro8sb","sub23","11","06","feedback","test","null","","","na","","112","",""
"1177","226987","HierDymefro8sb","sub23","11","06","rl","test","68","img/p_c_dots.png","3","68","shape,color,pattern","113","1",""
"null","227991","HierDymefro8sb","sub23","11","06","feedback","test","null","","","na","","113","",""
"875","228868","HierDymefro8sb","sub23","11","06","rl","test","74","img/o_s_diag.png","6","74","shape,color,pattern","114","1",""
"null","229871","HierDymefro8sb","sub23","11","06","feedback","test","null","","","na","","114","",""
"649","230522","HierDymefro8sb","sub23","11","06","rl","test","83","img/o_c_diag.png","2","83","shape,color,pattern","115","1",""
"null","231525","HierDymefro8sb","sub23","11","06","feedback","test","null","","","na","","115","",""
"647","232174","HierDymefro8sb","sub23","11","06","rl","test","70","img/p_c_diag.png","4","70","shape,color,pattern","116","1",""
"null","233178","HierDymefro8sb","sub23","11","06","feedback","test","null","","","na","","116","",""
"758.0000000000291","233939","HierDymefro8sb","sub23","11","06","rl","test","72","img/o_c_dots.png","1","65","shape,color,pattern","117","0",""
"null","234944","HierDymefro8sb","sub23","11","06","feedback","test","null","","","na","","117","",""
"1221","236167","HierDymefro8sb","sub23","11","06","rl","test","70","img/p_c_diag.png","4","70","shape,color,pattern","118","1",""
"null","237170","HierDymefro8sb","sub23","11","06","feedback","test","null","","","na","","118","",""
"851","238023","HierDymefro8sb","sub23","11","06","rl","test","75","img/p_s_diag.png","8","76","shape,color,pattern","119","0",""
"null","239026","HierDymefro8sb","sub23","11","06","feedback","test","null","","","na","","119","",""
"855","239884","HierDymefro8sb","sub23","11","06","rl","test","72","img/o_s_dots.png","5","72","shape,color,pattern","120","1",""
"null","240887","HierDymefro8sb","sub23","11","06","feedback","test","null","","","na","","120","",""
"833","241722","HierDymefro8sb","sub23","11","06","rl","test","75","img/p_s_dots.png","7","75","shape,color,pattern","121","1",""
"null","242726","HierDymefro8sb","sub23","11","06","feedback","test","null","","","na","","121","",""
"742","243470","HierDymefro8sb","sub23","11","06","rl","test","75","img/p_s_dots.png","7","75","shape,color,pattern","122","1",""
"null","244473","HierDymefro8sb","sub23","11","06","feedback","test","null","","","na","","122","",""
"1116","245592","HierDymefro8sb","sub23","11","06","rl","test","74","img/o_s_diag.png","6","74","shape,color,pattern","123","1",""
"null","246596","HierDymefro8sb","sub23","11","06","feedback","test","null","","","na","","123","",""
"1197.000000000029","247795","HierDymefro8sb","sub23","11","06","rl","test","76","img/p_s_diag.png","8","76","shape,color,pattern","124","1",""
"null","248799","HierDymefro8sb","sub23","11","06","feedback","test","null","","","na","","124","",""
"744","249545","HierDymefro8sb","sub23","11","06","rl","test","65","img/o_c_dots.png","1","65","shape,color,pattern","125","1",""
"null","250548","HierDymefro8sb","sub23","11","06","feedback","test","null","","","na","","125","",""
"1334.999999999971","251886","HierDymefro8sb","sub23","11","06","rl","test","74","img/o_s_dots.png","5","72","shape,color,pattern","126","0",""
"null","252889","HierDymefro8sb","sub23","11","06","feedback","test","null","","","na","","126","",""
"1413","254306","HierDymefro8sb","sub23","11","06","rl","test","83","img/o_c_diag.png","2","83","shape,color,pattern","127","1",""
"null","255309","HierDymefro8sb","sub23","11","06","feedback","test","null","","","na","","127","",""
"1201.000000000029","256513","HierDymefro8sb","sub23","11","06","rl","test","68","img/p_c_dots.png","3","68","shape,color,pattern","128","1",""
"null","257516","HierDymefro8sb","sub23","11","06","feedback","test","null","","","na","","128","",""
"703.0000000000291","258221","HierDymefro8sb","sub23","11","06","rl","test","65","img/o_c_dots.png","1","65","shape,color,pattern","129","1",""
"null","259225","HierDymefro8sb","sub23","11","06","feedback","test","null","","","na","","129","",""
"955","260182","HierDymefro8sb","sub23","11","06","rl","test","68","img/p_c_dots.png","3","68","shape,color,pattern","130","1",""
"null","261184","HierDymefro8sb","sub23","11","06","feedback","test","null","","","na","","130","",""
"616","261802","HierDymefro8sb","sub23","11","06","rl","test","83","img/o_c_diag.png","2","83","shape,color,pattern","131","1",""
"null","262805","HierDymefro8sb","sub23","11","06","feedback","test","null","","","na","","131","",""
"653","263460","HierDymefro8sb","sub23","11","06","rl","test","70","img/p_c_diag.png","4","70","shape,color,pattern","132","1",""
"null","264464","HierDymefro8sb","sub23","11","06","feedback","test","null","","","na","","132","",""
"872","265338","HierDymefro8sb","sub23","11","06","rl","test","74","img/o_s_diag.png","6","74","shape,color,pattern","133","1",""
"null","266341","HierDymefro8sb","sub23","11","06","feedback","test","null","","","na","","133","",""
"780","267124","HierDymefro8sb","sub23","11","06","rl","test","75","img/p_s_dots.png","7","75","shape,color,pattern","134","1",""
"null","268128","HierDymefro8sb","sub23","11","06","feedback","test","null","","","na","","134","",""
"1124","269254","HierDymefro8sb","sub23","11","06","rl","test","70","img/p_c_diag.png","4","70","shape,color,pattern","135","1",""
"null","270257","HierDymefro8sb","sub23","11","06","feedback","test","null","","","na","","135","",""
"840","271102","HierDymefro8sb","sub23","11","06","rl","test","72","img/o_s_dots.png","5","72","shape,color,pattern","136","1",""
"null","272106","HierDymefro8sb","sub23","11","06","feedback","test","null","","","na","","136","",""
"636.0000000000582","272744","HierDymefro8sb","sub23","11","06","rl","test","72","img/o_s_dots.png","5","72","shape,color,pattern","137","1",""
"null","273747","HierDymefro8sb","sub23","11","06","feedback","test","null","","","na","","137","",""
"853","274603","HierDymefro8sb","sub23","11","06","rl","test","76","img/p_s_diag.png","8","76","shape,color,pattern","138","1",""
"null","275605","HierDymefro8sb","sub23","11","06","feedback","test","null","","","na","","138","",""
"775.9999999999418","276384","HierDymefro8sb","sub23","11","06","rl","test","74","img/o_s_diag.png","6","74","shape,color,pattern","139","1",""
"null","277386","HierDymefro8sb","sub23","11","06","feedback","test","null","","","na","","139","",""
"773","278161","HierDymefro8sb","sub23","11","06","rl","test","65","img/o_c_dots.png","1","65","shape,color,pattern","140","1",""
"null","279164","HierDymefro8sb","sub23","11","06","feedback","test","null","","","na","","140","",""
"1229","280395","HierDymefro8sb","sub23","11","06","rl","test","76","img/p_s_diag.png","8","76","shape,color,pattern","141","1",""
"null","281398","HierDymefro8sb","sub23","11","06","feedback","test","null","","","na","","141","",""
"807","282207","HierDymefro8sb","sub23","11","06","rl","test","75","img/p_s_dots.png","7","75","shape,color,pattern","142","1",""
"null","283211","HierDymefro8sb","sub23","11","06","feedback","test","null","","","na","","142","",""
"1345","284559","HierDymefro8sb","sub23","11","06","rl","test","68","img/p_c_dots.png","3","68","shape,color,pattern","143","1",""
"null","285561","HierDymefro8sb","sub23","11","06","feedback","test","null","","","na","","143","",""
"915","286479","HierDymefro8sb","sub23","11","06","rl","test","70","img/p_c_diag.png","4","70","shape,color,pattern","144","1",""
"null","287482","HierDymefro8sb","sub23","11","06","feedback","test","null","","","na","","144","",""
"791","288276","HierDymefro8sb","sub23","11","06","rl","test","68","img/p_c_dots.png","3","68","shape,color,pattern","145","1",""
"null","289279","HierDymefro8sb","sub23","11","06","feedback","test","null","","","na","","145","",""
"690","289971","HierDymefro8sb","sub23","11","06","rl","test","83","img/o_c_diag.png","2","83","shape,color,pattern","146","1",""
"null","290976","HierDymefro8sb","sub23","11","06","feedback","test","null","","","na","","146","",""
"636","291614","HierDymefro8sb","sub23","11","06","rl","test","65","img/o_c_dots.png","1","65","shape,color,pattern","147","1",""
"null","292617","HierDymefro8sb","sub23","11","06","feedback","test","null","","","na","","147","",""
"950","293569","HierDymefro8sb","sub23","11","06","rl","test","75","img/p_s_dots.png","7","75","shape,color,pattern","148","1",""
"null","294572","HierDymefro8sb","sub23","11","06","feedback","test","null","","","na","","148","",""
"599","295174","HierDymefro8sb","sub23","11","06","rl","test","75","img/p_s_dots.png","7","75","shape,color,pattern","149","1",""
"null","296178","HierDymefro8sb","sub23","11","06","feedback","test","null","","","na","","149","",""
"612.0000000000582","296793","HierDymefro8sb","sub23","11","06","rl","test","83","img/o_c_diag.png","2","83","shape,color,pattern","150","1",""
"null","297797","HierDymefro8sb","sub23","11","06","feedback","test","null","","","na","","150","",""
"830","298628","HierDymefro8sb","sub23","11","06","rl","test","74","img/o_s_diag.png","6","74","shape,color,pattern","151","1",""
"null","299632","HierDymefro8sb","sub23","11","06","feedback","test","null","","","na","","151","",""
"1140","300776","HierDymefro8sb","sub23","11","06","rl","test","72","img/o_s_dots.png","5","72","shape,color,pattern","152","1",""
"null","301781","HierDymefro8sb","sub23","11","06","feedback","test","null","","","na","","152","",""
"1496","303280","HierDymefro8sb","sub23","11","06","rl","test","74","img/o_s_diag.png","6","74","shape,color,pattern","153","1",""
"null","304284","HierDymefro8sb","sub23","11","06","feedback","test","null","","","na","","153","",""
"869","305155","HierDymefro8sb","sub23","11","06","rl","test","76","img/p_s_diag.png","8","76","shape,color,pattern","154","1",""
"null","306158","HierDymefro8sb","sub23","11","06","feedback","test","null","","","na","","154","",""
"1460","307620","HierDymefro8sb","sub23","11","06","rl","test","68","img/p_c_dots.png","3","68","shape,color,pattern","155","1",""
"null","308623","HierDymefro8sb","sub23","11","06","feedback","test","null","","","na","","155","",""
"1423","310048","HierDymefro8sb","sub23","11","06","rl","test","65","img/o_c_dots.png","1","65","shape,color,pattern","156","1",""
"null","311050","HierDymefro8sb","sub23","11","06","feedback","test","null","","","na","","156","",""
"1036","312090","HierDymefro8sb","sub23","11","06","rl","test","72","img/o_s_dots.png","5","72","shape,color,pattern","157","1",""
"null","313093","HierDymefro8sb","sub23","11","06","feedback","test","null","","","na","","157","",""
"1937.9999999999418","315033","HierDymefro8sb","sub23","11","06","rl","test","70","img/p_c_diag.png","4","70","shape,color,pattern","158","1",""
"null","316036","HierDymefro8sb","sub23","11","06","feedback","test","null","","","na","","158","",""
"674","316712","HierDymefro8sb","sub23","11","06","rl","test","65","img/o_c_dots.png","1","65","shape,color,pattern","159","1",""
"null","317714","HierDymefro8sb","sub23","11","06","feedback","test","null","","","na","","159","",""
"730","318447","HierDymefro8sb","sub23","11","06","rl","test","75","img/p_s_dots.png","7","75","shape,color,pattern","160","1",""
"null","319453","HierDymefro8sb","sub23","11","06","feedback","test","null","","","na","","160","",""
"760","320215","HierDymefro8sb","sub23","11","06","rl","test","76","img/p_s_diag.png","8","76","shape,color,pattern","161","1",""
"null","321219","HierDymefro8sb","sub23","11","06","feedback","test","null","","","na","","161","",""
"548","321769","HierDymefro8sb","sub23","11","06","rl","test","76","img/p_s_diag.png","8","76","shape,color,pattern","162","1",""
"null","322772","HierDymefro8sb","sub23","11","06","feedback","test","null","","","na","","162","",""
"788","323564","HierDymefro8sb","sub23","11","06","rl","test","68","img/p_c_dots.png","3","68","shape,color,pattern","163","1",""
"null","324567","HierDymefro8sb","sub23","11","06","feedback","test","null","","","na","","163","",""
"829","325398","HierDymefro8sb","sub23","11","06","rl","test","83","img/o_c_diag.png","2","83","shape,color,pattern","164","1",""
"null","326402","HierDymefro8sb","sub23","11","06","feedback","test","null","","","na","","164","",""
"1468","327872","HierDymefro8sb","sub23","11","06","rl","test","74","img/o_s_diag.png","6","74","shape,color,pattern","165","1",""
"null","328876","HierDymefro8sb","sub23","11","06","feedback","test","null","","","na","","165","",""
"632","329511","HierDymefro8sb","sub23","11","06","rl","test","83","img/o_c_diag.png","2","83","shape,color,pattern","166","1",""
"null","330514","HierDymefro8sb","sub23","11","06","feedback","test","null","","","na","","166","",""
"1111","331628","HierDymefro8sb","sub23","11","06","rl","test","75","img/p_c_diag.png","4","70","shape,color,pattern","167","0",""
"null","332633","HierDymefro8sb","sub23","11","06","feedback","test","null","","","na","","167","",""
"741","333376","HierDymefro8sb","sub23","11","06","rl","test","72","img/o_s_dots.png","5","72","shape,color,pattern","168","1",""
"null","334379","HierDymefro8sb","sub23","11","06","feedback","test","null","","","na","","168","",""
"1883","336265","HierDymefro8sb","sub23","11","06","rl","test","83","img/o_c_diag.png","2","83","shape,color,pattern","169","1",""
"null","337269","HierDymefro8sb","sub23","11","06","feedback","test","null","","","na","","169","",""
"1226","338498","HierDymefro8sb","sub23","11","06","rl","test","76","img/p_s_diag.png","8","76","shape,color,pattern","170","1",""
"null","339501","HierDymefro8sb","sub23","11","06","feedback","test","null","","","na","","170","",""
"1504","341008","HierDymefro8sb","sub23","11","06","rl","test","70","img/p_c_diag.png","4","70","shape,color,pattern","171","1",""
"null","342012","HierDymefro8sb","sub23","11","06","feedback","test","null","","","na","","171","",""
"1750","343764","HierDymefro8sb","sub23","11","06","rl","test","65","img/o_c_dots.png","1","65","shape,color,pattern","172","1",""
"null","344768","HierDymefro8sb","sub23","11","06","feedback","test","null","","","na","","172","",""
"762","345532","HierDymefro8sb","sub23","11","06","rl","test","72","img/o_s_dots.png","5","72","shape,color,pattern","173","1",""
"null","346535","HierDymefro8sb","sub23","11","06","feedback","test","null","","","na","","173","",""
"882","347421","HierDymefro8sb","sub23","11","06","rl","test","75","img/p_s_dots.png","7","75","shape,color,pattern","174","1",""
"null","348425","HierDymefro8sb","sub23","11","06","feedback","test","null","","","na","","174","",""
"1533","349961","HierDymefro8sb","sub23","11","06","rl","test","74","img/o_s_diag.png","6","74","shape,color,pattern","175","1",""
"null","350964","HierDymefro8sb","sub23","11","06","feedback","test","null","","","na","","175","",""
"1075","352041","HierDymefro8sb","sub23","11","06","rl","test","76","img/p_s_diag.png","8","76","shape,color,pattern","176","1",""
"null","353044","HierDymefro8sb","sub23","11","06","feedback","test","null","","","na","","176","",""
"771","353818","HierDymefro8sb","sub23","11","06","rl","test","74","img/o_s_diag.png","6","74","shape,color,pattern","177","1",""
"null","354821","HierDymefro8sb","sub23","11","06","feedback","test","null","","","na","","177","",""
"959","355782","HierDymefro8sb","sub23","11","06","rl","test","68","img/p_c_dots.png","3","68","shape,color,pattern","178","1",""
"null","356785","HierDymefro8sb","sub23","11","06","feedback","test","null","","","na","","178","",""
"1298","358086","HierDymefro8sb","sub23","11","06","rl","test","65","img/o_c_dots.png","1","65","shape,color,pattern","179","1",""
"null","359089","HierDymefro8sb","sub23","11","06","feedback","test","null","","","na","","179","",""
"864","359956","HierDymefro8sb","sub23","11","06","rl","test","83","img/o_c_diag.png","2","83","shape,color,pattern","180","1",""
"null","360960","HierDymefro8sb","sub23","11","06","feedback","test","null","","","na","","180","",""
"847.0000000000582","361810","HierDymefro8sb","sub23","11","06","rl","test","83","img/o_c_diag.png","2","83","shape,color,pattern","181","1",""
"null","362813","HierDymefro8sb","sub23","11","06","feedback","test","null","","","na","","181","",""
"683.9999999999418","363500","HierDymefro8sb","sub23","11","06","rl","test","68","img/p_c_dots.png","3","68","shape,color,pattern","182","1",""
"null","364504","HierDymefro8sb","sub23","11","06","feedback","test","null","","","na","","182","",""
"731.9999999999418","365238","HierDymefro8sb","sub23","11","06","rl","test","72","img/o_s_dots.png","5","72","shape,color,pattern","183","1",""
"null","366242","HierDymefro8sb","sub23","11","06","feedback","test","null","","","na","","183","",""
"800","367045","HierDymefro8sb","sub23","11","06","rl","test","76","img/p_c_diag.png","4","70","shape,color,pattern","184","0",""
"null","368049","HierDymefro8sb","sub23","11","06","feedback","test","null","","","na","","184","",""
"1208","369259","HierDymefro8sb","sub23","11","06","rl","test","65","img/o_c_dots.png","1","65","shape,color,pattern","185","1",""
"null","370263","HierDymefro8sb","sub23","11","06","feedback","test","null","","","na","","185","",""
"887","371152","HierDymefro8sb","sub23","11","06","rl","test","75","img/p_s_dots.png","7","75","shape,color,pattern","186","1",""
"null","372155","HierDymefro8sb","sub23","11","06","feedback","test","null","","","na","","186","",""
"760.0000000000582","372917","HierDymefro8sb","sub23","11","06","rl","test","68","img/p_c_dots.png","3","68","shape,color,pattern","187","1",""
"null","373920","HierDymefro8sb","sub23","11","06","feedback","test","null","","","na","","187","",""
"877","374800","HierDymefro8sb","sub23","11","06","rl","test","70","img/p_c_diag.png","4","70","shape,color,pattern","188","1",""
"null","375803","HierDymefro8sb","sub23","11","06","feedback","test","null","","","na","","188","",""
"1008","376814","HierDymefro8sb","sub23","11","06","rl","test","75","img/p_s_dots.png","7","75","shape,color,pattern","189","1",""
"null","377818","HierDymefro8sb","sub23","11","06","feedback","test","null","","","na","","189","",""
"793.9999999999418","378615","HierDymefro8sb","sub23","11","06","rl","test","72","img/o_s_dots.png","5","72","shape,color,pattern","190","1",""
"null","379618","HierDymefro8sb","sub23","11","06","feedback","test","null","","","na","","190","",""
"831","380452","HierDymefro8sb","sub23","11","06","rl","test","76","img/p_s_diag.png","8","76","shape,color,pattern","191","1",""
"null","381456","HierDymefro8sb","sub23","11","06","feedback","test","null","","","na","","191","",""
"695","382154","HierDymefro8sb","sub23","11","06","rl","test","74","img/o_s_diag.png","6","74","shape,color,pattern","192","1",""
"null","383157","HierDymefro8sb","sub23","11","06","feedback","test","null","","","na","","192","",""
"772","383932","HierDymefro8sb","sub23","11","06","rl","test","65","img/o_c_dots.png","1","65","shape,color,pattern","193","1",""
"null","384936","HierDymefro8sb","sub23","11","06","feedback","test","null","","","na","","193","",""
"672","385610","HierDymefro8sb","sub23","11","06","rl","test","83","img/o_c_diag.png","2","83","shape,color,pattern","194","1",""
"null","386614","HierDymefro8sb","sub23","11","06","feedback","test","null","","","na","","194","",""
"1271","387886","HierDymefro8sb","sub23","11","06","rl","test","72","img/o_s_dots.png","5","72","shape,color,pattern","195","1",""
"null","388889","HierDymefro8sb","sub23","11","06","feedback","test","null","","","na","","195","",""
"873","389764","HierDymefro8sb","sub23","11","06","rl","test","68","img/p_c_dots.png","3","68","shape,color,pattern","196","1",""
"null","390767","HierDymefro8sb","sub23","11","06","feedback","test","null","","","na","","196","",""
"963","391733","HierDymefro8sb","sub23","11","06","rl","test","70","img/p_c_diag.png","4","70","shape,color,pattern","197","1",""
"null","392736","HierDymefro8sb","sub23","11","06","feedback","test","null","","","na","","197","",""
"597.9999999999418","393337","HierDymefro8sb","sub23","11","06","rl","test","70","img/p_c_diag.png","4","70","shape,color,pattern","198","1",""
"null","394340","HierDymefro8sb","sub23","11","06","feedback","test","null","","","na","","198","",""
"668","395010","HierDymefro8sb","sub23","11","06","rl","test","76","img/p_s_diag.png","8","76","shape,color,pattern","199","1",""
"null","396014","HierDymefro8sb","sub23","11","06","feedback","test","null","","","na","","199","",""
"796","396812","HierDymefro8sb","sub23","11","06","rl","test","68","img/p_s_dots.png","7","75","shape,color,pattern","200","0",""
"null","397816","HierDymefro8sb","sub23","11","06","feedback","test","null","","","na","","200","",""
"677","398496","HierDymefro8sb","sub23","11","06","rl","test","83","img/o_c_diag.png","2","83","shape,color,pattern","201","1",""
"null","399499","HierDymefro8sb","sub23","11","06","feedback","test","null","","","na","","201","",""
"741","400243","HierDymefro8sb","sub23","11","06","rl","test","74","img/o_s_diag.png","6","74","shape,color,pattern","202","1",""
"null","401248","HierDymefro8sb","sub23","11","06","feedback","test","null","","","na","","202","",""
"783","402033","HierDymefro8sb","sub23","11","06","rl","test","75","img/p_s_dots.png","7","75","shape,color,pattern","203","1",""
"null","403037","HierDymefro8sb","sub23","11","06","feedback","test","null","","","na","","203","",""
"640","403680","HierDymefro8sb","sub23","11","06","rl","test","74","img/o_s_diag.png","6","74","shape,color,pattern","204","1",""
"null","404684","HierDymefro8sb","sub23","11","06","feedback","test","null","","","na","","204","",""
"558","405245","HierDymefro8sb","sub23","11","06","rl","test","65","img/o_c_dots.png","1","65","shape,color,pattern","205","1",""
"null","406248","HierDymefro8sb","sub23","11","06","feedback","test","null","","","na","","205","",""
"786","407037","HierDymefro8sb","sub23","11","06","rl","test","76","img/p_s_diag.png","8","76","shape,color,pattern","206","1",""
"null","408040","HierDymefro8sb","sub23","11","06","feedback","test","null","","","na","","206","",""
"1185","409226","HierDymefro8sb","sub23","11","06","rl","test","74","img/o_s_dots.png","5","72","shape,color,pattern","207","0",""
"null","410230","HierDymefro8sb","sub23","11","06","feedback","test","null","","","na","","207","",""
"639","410872","HierDymefro8sb","sub23","11","06","rl","test","72","img/o_s_dots.png","5","72","shape,color,pattern","208","1",""
"null","411875","HierDymefro8sb","sub23","11","06","feedback","test","null","","","na","","208","",""
"699","412576","HierDymefro8sb","sub23","11","06","rl","test","75","img/p_s_dots.png","7","75","shape,color,pattern","209","1",""
"null","413579","HierDymefro8sb","sub23","11","06","feedback","test","null","","","na","","209","",""
"1499","415079","HierDymefro8sb","sub23","11","06","rl","test","68","img/p_c_dots.png","3","68","shape,color,pattern","210","1",""
"null","416083","HierDymefro8sb","sub23","11","06","feedback","test","null","","","na","","210","",""
"766","416853","HierDymefro8sb","sub23","11","06","rl","test","70","img/p_c_diag.png","4","70","shape,color,pattern","211","1",""
"null","417857","HierDymefro8sb","sub23","11","06","feedback","test","null","","","na","","211","",""
"950","418809","HierDymefro8sb","sub23","11","06","rl","test","76","img/p_s_diag.png","8","76","shape,color,pattern","212","1",""
"null","419813","HierDymefro8sb","sub23","11","06","feedback","test","null","","","na","","212","",""
"733.9999999999418","420550","HierDymefro8sb","sub23","11","06","rl","test","65","img/o_c_dots.png","1","65","shape,color,pattern","213","1",""
"null","421553","HierDymefro8sb","sub23","11","06","feedback","test","null","","","na","","213","",""
"664.0000000000582","422219","HierDymefro8sb","sub23","11","06","rl","test","74","img/o_s_diag.png","6","74","shape,color,pattern","214","1",""
"null","423222","HierDymefro8sb","sub23","11","06","feedback","test","null","","","na","","214","",""
"844","424068","HierDymefro8sb","sub23","11","06","rl","test","75","img/p_c_dots.png","3","68","shape,color,pattern","215","0",""
"null","425072","HierDymefro8sb","sub23","11","06","feedback","test","null","","","na","","215","",""
"1110","426184","HierDymefro8sb","sub23","11","06","rl","test","83","img/o_c_diag.png","2","83","shape,color,pattern","216","1",""
"null","427188","HierDymefro8sb","sub23","11","06","feedback","test","null","","","na","","216","",""
"679.9999999999418","427871","HierDymefro8sb","sub23","11","06","rl","test","65","img/o_c_dots.png","1","65","shape,color,pattern","217","1",""
"null","428874","HierDymefro8sb","sub23","11","06","feedback","test","null","","","na","","217","",""
"1549.9999999999418","430425","HierDymefro8sb","sub23","11","06","rl","test","83","img/o_c_diag.png","2","83","shape,color,pattern","218","1",""
"null","431429","HierDymefro8sb","sub23","11","06","feedback","test","null","","","na","","218","",""
"1037","432468","HierDymefro8sb","sub23","11","06","rl","test","72","img/o_s_dots.png","5","72","shape,color,pattern","219","1",""
"null","433471","HierDymefro8sb","sub23","11","06","feedback","test","null","","","na","","219","",""
"864","434335","HierDymefro8sb","sub23","11","06","rl","test","70","img/p_c_diag.png","4","70","shape,color,pattern","220","1",""
"null","435339","HierDymefro8sb","sub23","11","06","feedback","test","null","","","na","","220","",""
"1084","436426","HierDymefro8sb","sub23","11","06","rl","test","83","img/o_c_diag.png","2","83","shape,color,pattern","221","1",""
"null","437429","HierDymefro8sb","sub23","11","06","feedback","test","null","","","na","","221","",""
"913.0000000000582","438344","HierDymefro8sb","sub23","11","06","rl","test","68","img/p_c_dots.png","3","68","shape,color,pattern","222","1",""
"null","439347","HierDymefro8sb","sub23","11","06","feedback","test","null","","","na","","222","",""
"1504","440854","HierDymefro8sb","sub23","11","06","rl","test","75","img/p_s_dots.png","7","75","shape,color,pattern","223","1",""
"null","441857","HierDymefro8sb","sub23","11","06","feedback","test","null","","","na","","223","",""
"665","442526","HierDymefro8sb","sub23","11","06","rl","test","74","img/o_s_diag.png","6","74","shape,color,pattern","224","1",""
"null","443529","HierDymefro8sb","sub23","11","06","feedback","test","null","","","na","","224","",""
"1235","444766","HierDymefro8sb","sub23","11","06","rl","test","74","img/o_s_diag.png","6","74","shape,color,pattern","225","1",""
"null","445770","HierDymefro8sb","sub23","11","06","feedback","test","null","","","na","","225","",""
"776","446550","HierDymefro8sb","sub23","11","06","rl","test","76","img/p_s_diag.png","8","76","shape,color,pattern","226","1",""
"null","447553","HierDymefro8sb","sub23","11","06","feedback","test","null","","","na","","226","",""
"696","448252","HierDymefro8sb","sub23","11","06","rl","test","76","img/p_s_diag.png","8","76","shape,color,pattern","227","1",""
"null","449255","HierDymefro8sb","sub23","11","06","feedback","test","null","","","na","","227","",""
"650","449907","HierDymefro8sb","sub23","11","06","rl","test","75","img/p_s_dots.png","7","75","shape,color,pattern","228","1",""
"null","450911","HierDymefro8sb","sub23","11","06","feedback","test","null","","","na","","228","",""
"725","451638","HierDymefro8sb","sub23","11","06","rl","test","65","img/o_c_dots.png","1","65","shape,color,pattern","229","1",""
"null","452642","HierDymefro8sb","sub23","11","06","feedback","test","null","","","na","","229","",""
"714","453358","HierDymefro8sb","sub23","11","06","rl","test","68","img/p_c_dots.png","3","68","shape,color,pattern","230","1",""
"null","454361","HierDymefro8sb","sub23","11","06","feedback","test","null","","","na","","230","",""
"753","455117","HierDymefro8sb","sub23","11","06","rl","test","70","img/p_c_diag.png","4","70","shape,color,pattern","231","1",""
"null","456120","HierDymefro8sb","sub23","11","06","feedback","test","null","","","na","","231","",""
"777.0000000000582","456899","HierDymefro8sb","sub23","11","06","rl","test","75","img/o_s_dots.png","5","72","shape,color,pattern","232","0",""
"null","457902","HierDymefro8sb","sub23","11","06","feedback","test","null","","","na","","232","",""
"933","458838","HierDymefro8sb","sub23","11","06","rl","test","76","img/p_s_diag.png","8","76","shape,color,pattern","233","1",""
"null","459842","HierDymefro8sb","sub23","11","06","feedback","test","null","","","na","","233","",""
"730.9999999999418","460575","HierDymefro8sb","sub23","11","06","rl","test","72","img/o_s_dots.png","5","72","shape,color,pattern","234","1",""
"null","461579","HierDymefro8sb","sub23","11","06","feedback","test","null","","","na","","234","",""
"1459","463040","HierDymefro8sb","sub23","11","06","rl","test","70","img/p_c_diag.png","4","70","shape,color,pattern","235","1",""
"null","464043","HierDymefro8sb","sub23","11","06","feedback","test","null","","","na","","235","",""
"802","464848","HierDymefro8sb","sub23","11","06","rl","test","83","img/o_c_diag.png","2","83","shape,color,pattern","236","1",""
"null","465851","HierDymefro8sb","sub23","11","06","feedback","test","null","","","na","","236","",""
"746","466600","HierDymefro8sb","sub23","11","06","rl","test","75","img/p_s_dots.png","7","75","shape,color,pattern","237","1",""
"null","467603","HierDymefro8sb","sub23","11","06","feedback","test","null","","","na","","237","",""
"944","468551","HierDymefro8sb","sub23","11","06","rl","test","76","img/p_c_diag.png","4","70","shape,color,pattern","238","0",""
"null","469555","HierDymefro8sb","sub23","11","06","feedback","test","null","","","na","","238","",""
"662.9999999999418","470221","HierDymefro8sb","sub23","11","06","rl","test","65","img/o_c_dots.png","1","65","shape,color,pattern","239","1",""
"null","471225","HierDymefro8sb","sub23","11","06","feedback","test","null","","","na","","239","",""
"888","472115","HierDymefro8sb","sub23","11","06","rl","test","74","img/o_s_diag.png","6","74","shape,color,pattern","240","1",""
"null","473119","HierDymefro8sb","sub23","11","06","feedback","test","null","","","na","","240","",""
"1041","474162","HierDymefro8sb","sub23","11","06","rl","test","68","img/p_c_dots.png","3","68","shape,color,pattern","241","1",""
"null","475165","HierDymefro8sb","sub23","11","06","feedback","test","null","","","na","","241","",""
"1157","476325","HierDymefro8sb","sub23","11","06","rl","test","83","img/o_c_diag.png","2","83","shape,color,pattern","242","1",""
"null","477328","HierDymefro8sb","sub23","11","06","feedback","test","null","","","na","","242","",""
"875","478206","HierDymefro8sb","sub23","11","06","rl","test","65","img/o_c_dots.png","1","65","shape,color,pattern","243","1",""
"null","479209","HierDymefro8sb","sub23","11","06","feedback","test","null","","","na","","243","",""
"985","480197","HierDymefro8sb","sub23","11","06","rl","test","68","img/p_c_dots.png","3","68","shape,color,pattern","244","1",""
"null","481200","HierDymefro8sb","sub23","11","06","feedback","test","null","","","na","","244","",""
"705","481908","HierDymefro8sb","sub23","11","06","rl","test","75","img/p_s_dots.png","7","75","shape,color,pattern","245","1",""
"null","482912","HierDymefro8sb","sub23","11","06","feedback","test","null","","","na","","245","",""
"908","483823","HierDymefro8sb","sub23","11","06","rl","test","72","img/o_s_dots.png","5","72","shape,color,pattern","246","1",""
"null","484827","HierDymefro8sb","sub23","11","06","feedback","test","null","","","na","","246","",""
"1004","485834","HierDymefro8sb","sub23","11","06","rl","test","74","img/o_s_diag.png","6","74","shape,color,pattern","247","1",""
"null","486838","HierDymefro8sb","sub23","11","06","feedback","test","null","","","na","","247","",""
"1340","488181","HierDymefro8sb","sub23","11","06","rl","test","70","img/p_s_diag.png","8","76","shape,color,pattern","248","0",""
"null","489185","HierDymefro8sb","sub23","11","06","feedback","test","null","","","na","","248","",""
"12360","501580","HierDymefro8sb","sub23","11","06","","","","","","","","","","{""Q0"":""8.5""}"
"3210","504795","HierDymefro8sb","sub23","11","06","","","","","","","","","","{""Q0"":""none""}"
"1873","506669","HierDymefro8sb","sub23","11","06","","","","","","","","","",""
