"rt","time_elapsed","subject","subID","group","day","trialType","phase","key_press","stim","stimNum","corrresp","hierarchy","trialNum","corr","responses"
"1591","1594","HierDy6v2wvcjj","sub23","11","03","","","","","","","","","",""
"","4014","HierDy6v2wvcjj","sub23","11","03","fullscreen","","","","","","","","",""
"3323","7338","HierDy6v2wvcjj","sub23","11","03","","prac","","","","","","","",""
"2096","9435","HierDy6v2wvcjj","sub23","11","03","","","32","","","","","","",""
"730","10166","HierDy6v2wvcjj","sub23","11","03","","prac","","","","","","","",""
"872","11041","HierDy6v2wvcjj","sub23","11","03","rl","test","75","img/o_s_dots.png","5","72","shape,color,pattern","1","0",""
"null","12044","HierDy6v2wvcjj","sub23","11","03","feedback","test","null","","","na","","1","",""
"907","12953","HierDy6v2wvcjj","sub23","11","03","rl","test","70","img/p_c_diag.png","4","70","shape,color,pattern","2","1",""
"null","13956","HierDy6v2wvcjj","sub23","11","03","feedback","test","null","","","na","","2","",""
"763","14722","HierDy6v2wvcjj","sub23","11","03","rl","test","65","img/o_c_dots.png","1","65","shape,color,pattern","3","1",""
"null","15725","HierDy6v2wvcjj","sub23","11","03","feedback","test","null","","","na","","3","",""
"852","16580","HierDy6v2wvcjj","sub23","11","03","rl","test","68","img/p_c_dots.png","3","68","shape,color,pattern","4","1",""
"null","17582","HierDy6v2wvcjj","sub23","11","03","feedback","test","null","","","na","","4","",""
"2160","19745","HierDy6v2wvcjj","sub23","11","03","rl","test","76","img/p_s_diag.png","8","76","shape,color,pattern","5","1",""
"null","20748","HierDy6v2wvcjj","sub23","11","03","feedback","test","null","","","na","","5","",""
"655.0000000000036","21407","HierDy6v2wvcjj","sub23","11","03","rl","test","74","img/o_s_diag.png","6","74","shape,color,pattern","6","1",""
"null","22411","HierDy6v2wvcjj","sub23","11","03","feedback","test","null","","","na","","6","",""
"1277","23691","HierDy6v2wvcjj","sub23","11","03","rl","test","83","img/o_c_diag.png","2","83","shape,color,pattern","7","1",""
"null","24694","HierDy6v2wvcjj","sub23","11","03","feedback","test","null","","","na","","7","",""
"758","25455","HierDy6v2wvcjj","sub23","11","03","rl","test","75","img/p_s_dots.png","7","75","shape,color,pattern","8","1",""
"null","26458","HierDy6v2wvcjj","sub23","11","03","feedback","test","null","","","na","","8","",""
"1106","27565","HierDy6v2wvcjj","sub23","11","03","rl","test","74","img/o_s_diag.png","6","74","shape,color,pattern","9","1",""
"null","28568","HierDy6v2wvcjj","sub23","11","03","feedback","test","null","","","na","","9","",""
"815.9999999999964","29386","HierDy6v2wvcjj","sub23","11","03","rl","test","65","img/o_c_dots.png","1","65","shape,color,pattern","10","1",""
"null","30388","HierDy6v2wvcjj","sub23","11","03","feedback","test","null","","","na","","10","",""
"926","31316","HierDy6v2wvcjj","sub23","11","03","rl","test","83","img/o_c_diag.png","2","83","shape,color,pattern","11","1",""
"null","32319","HierDy6v2wvcjj","sub23","11","03","feedback","test","null","","","na","","11","",""
"1516","33837","HierDy6v2wvcjj","sub23","11","03","rl","test","74","img/o_s_dots.png","5","72","shape,color,pattern","12","0",""
"null","34840","HierDy6v2wvcjj","sub23","11","03","feedback","test","null","","","na","","12","",""
"1481","36324","HierDy6v2wvcjj","sub23","11","03","rl","test","83","img/o_c_diag.png","2","83","shape,color,pattern","13","1",""
"null","37326","HierDy6v2wvcjj","sub23","11","03","feedback","test","null","","","na","","13","",""
"935.0000000000073","38262","HierDy6v2wvcjj","sub23","11","03","rl","test","70","img/p_c_diag.png","4","70","shape,color,pattern","14","1",""
"null","39265","HierDy6v2wvcjj","sub23","11","03","feedback","test","null","","","na","","14","",""
"985","40251","HierDy6v2wvcjj","sub23","11","03","rl","test","75","img/p_s_dots.png","7","75","shape,color,pattern","15","1",""
"null","41254","HierDy6v2wvcjj","sub23","11","03","feedback","test","null","","","na","","15","",""
"844","42102","HierDy6v2wvcjj","sub23","11","03","rl","test","76","img/p_s_diag.png","8","76","shape,color,pattern","16","1",""
"null","43106","HierDy6v2wvcjj","sub23","11","03","feedback","test","null","","","na","","16","",""
"1063","44170","HierDy6v2wvcjj","sub23","11","03","rl","test","68","img/p_c_dots.png","3","68","shape,color,pattern","17","1",""
"null","45173","HierDy6v2wvcjj","sub23","11","03","feedback","test","null","","","na","","17","",""
"576","45750","HierDy6v2wvcjj","sub23","11","03","rl","test","68","img/p_c_dots.png","3","68","shape,color,pattern","18","1",""
"null","46754","HierDy6v2wvcjj","sub23","11","03","feedback","test","null","","","na","","18","",""
"748","47504","HierDy6v2wvcjj","sub23","11","03","rl","test","70","img/p_c_diag.png","4","70","shape,color,pattern","19","1",""
"null","48508","HierDy6v2wvcjj","sub23","11","03","feedback","test","null","","","na","","19","",""
"1378","49889","HierDy6v2wvcjj","sub23","11","03","rl","test","74","img/o_s_dots.png","5","72","shape,color,pattern","20","0",""
"null","50892","HierDy6v2wvcjj","sub23","11","03","feedback","test","null","","","na","","20","",""
"726.9999999999927","51620","HierDy6v2wvcjj","sub23","11","03","rl","test","74","img/o_s_diag.png","6","74","shape,color,pattern","21","1",""
"null","52623","HierDy6v2wvcjj","sub23","11","03","feedback","test","null","","","na","","21","",""
"733","53358","HierDy6v2wvcjj","sub23","11","03","rl","test","76","img/p_s_diag.png","8","76","shape,color,pattern","22","1",""
"null","54361","HierDy6v2wvcjj","sub23","11","03","feedback","test","null","","","na","","22","",""
"641","55003","HierDy6v2wvcjj","sub23","11","03","rl","test","76","img/p_s_diag.png","8","76","shape,color,pattern","23","1",""
"null","56006","HierDy6v2wvcjj","sub23","11","03","feedback","test","null","","","na","","23","",""
"684","56693","HierDy6v2wvcjj","sub23","11","03","rl","test","72","img/o_c_dots.png","1","65","shape,color,pattern","24","0",""
"null","57697","HierDy6v2wvcjj","sub23","11","03","feedback","test","null","","","na","","24","",""
"1105","58804","HierDy6v2wvcjj","sub23","11","03","rl","test","75","img/p_s_dots.png","7","75","shape,color,pattern","25","1",""
"null","59807","HierDy6v2wvcjj","sub23","11","03","feedback","test","null","","","na","","25","",""
"849.0000000000073","60657","HierDy6v2wvcjj","sub23","11","03","rl","test","65","img/o_c_dots.png","1","65","shape,color,pattern","26","1",""
"null","61660","HierDy6v2wvcjj","sub23","11","03","feedback","test","null","","","na","","26","",""
"653.9999999999927","62315","HierDy6v2wvcjj","sub23","11","03","rl","test","83","img/o_c_diag.png","2","83","shape,color,pattern","27","1",""
"null","63317","HierDy6v2wvcjj","sub23","11","03","feedback","test","null","","","na","","27","",""
"734.0000000000073","64053","HierDy6v2wvcjj","sub23","11","03","rl","test","75","img/p_s_dots.png","7","75","shape,color,pattern","28","1",""
"null","65057","HierDy6v2wvcjj","sub23","11","03","feedback","test","null","","","na","","28","",""
"798.9999999999854","65858","HierDy6v2wvcjj","sub23","11","03","rl","test","74","img/o_s_diag.png","6","74","shape,color,pattern","29","1",""
"null","66862","HierDy6v2wvcjj","sub23","11","03","feedback","test","null","","","na","","29","",""
"1082.0000000000146","67945","HierDy6v2wvcjj","sub23","11","03","rl","test","68","img/p_c_dots.png","3","68","shape,color,pattern","30","1",""
"null","68949","HierDy6v2wvcjj","sub23","11","03","feedback","test","null","","","na","","30","",""
"1120.0000000000146","70071","HierDy6v2wvcjj","sub23","11","03","rl","test","72","img/o_s_dots.png","5","72","shape,color,pattern","31","1",""
"null","71075","HierDy6v2wvcjj","sub23","11","03","feedback","test","null","","","na","","31","",""
"1071.9999999999854","72149","HierDy6v2wvcjj","sub23","11","03","rl","test","70","img/p_c_diag.png","4","70","shape,color,pattern","32","1",""
"null","73151","HierDy6v2wvcjj","sub23","11","03","feedback","test","null","","","na","","32","",""
"802","73956","HierDy6v2wvcjj","sub23","11","03","rl","test","76","img/p_s_diag.png","8","76","shape,color,pattern","33","1",""
"null","74958","HierDy6v2wvcjj","sub23","11","03","feedback","test","null","","","na","","33","",""
"650","75611","HierDy6v2wvcjj","sub23","11","03","rl","test","83","img/o_c_diag.png","2","83","shape,color,pattern","34","1",""
"null","76615","HierDy6v2wvcjj","sub23","11","03","feedback","test","null","","","na","","34","",""
"685","77302","HierDy6v2wvcjj","sub23","11","03","rl","test","72","img/o_c_dots.png","1","65","shape,color,pattern","35","0",""
"null","78305","HierDy6v2wvcjj","sub23","11","03","feedback","test","null","","","na","","35","",""
"1151.0000000000146","79457","HierDy6v2wvcjj","sub23","11","03","rl","test","68","img/p_c_dots.png","3","68","shape,color,pattern","36","1",""
"null","80460","HierDy6v2wvcjj","sub23","11","03","feedback","test","null","","","na","","36","",""
"676","81138","HierDy6v2wvcjj","sub23","11","03","rl","test","70","img/p_c_diag.png","4","70","shape,color,pattern","37","1",""
"null","82140","HierDy6v2wvcjj","sub23","11","03","feedback","test","null","","","na","","37","",""
"1568","83709","HierDy6v2wvcjj","sub23","11","03","rl","test","70","img/p_c_diag.png","4","70","shape,color,pattern","38","1",""
"null","84712","HierDy6v2wvcjj","sub23","11","03","feedback","test","null","","","na","","38","",""
"727","85441","HierDy6v2wvcjj","sub23","11","03","rl","test","75","img/p_s_dots.png","7","75","shape,color,pattern","39","1",""
"null","86443","HierDy6v2wvcjj","sub23","11","03","feedback","test","null","","","na","","39","",""
"1331.9999999999854","87777","HierDy6v2wvcjj","sub23","11","03","rl","test","68","img/p_c_dots.png","3","68","shape,color,pattern","40","1",""
"null","88780","HierDy6v2wvcjj","sub23","11","03","feedback","test","null","","","na","","40","",""
"726","89508","HierDy6v2wvcjj","sub23","11","03","rl","test","72","img/o_s_dots.png","5","72","shape,color,pattern","41","1",""
"null","90510","HierDy6v2wvcjj","sub23","11","03","feedback","test","null","","","na","","41","",""
"898","91411","HierDy6v2wvcjj","sub23","11","03","rl","test","75","img/p_s_dots.png","7","75","shape,color,pattern","42","1",""
"null","92414","HierDy6v2wvcjj","sub23","11","03","feedback","test","null","","","na","","42","",""
"921","93337","HierDy6v2wvcjj","sub23","11","03","rl","test","74","img/o_s_diag.png","6","74","shape,color,pattern","43","1",""
"null","94340","HierDy6v2wvcjj","sub23","11","03","feedback","test","null","","","na","","43","",""
"758.9999999999854","95100","HierDy6v2wvcjj","sub23","11","03","rl","test","74","img/o_s_diag.png","6","74","shape,color,pattern","44","1",""
"null","96103","HierDy6v2wvcjj","sub23","11","03","feedback","test","null","","","na","","44","",""
"730.0000000000146","96835","HierDy6v2wvcjj","sub23","11","03","rl","test","76","img/p_s_diag.png","8","76","shape,color,pattern","45","1",""
"null","97838","HierDy6v2wvcjj","sub23","11","03","feedback","test","null","","","na","","45","",""
"793","98632","HierDy6v2wvcjj","sub23","11","03","rl","test","74","img/o_s_diag.png","6","74","shape,color,pattern","46","1",""
"null","99635","HierDy6v2wvcjj","sub23","11","03","feedback","test","null","","","na","","46","",""
"860","100496","HierDy6v2wvcjj","sub23","11","03","rl","test","75","img/o_s_dots.png","5","72","shape,color,pattern","47","0",""
"null","101498","HierDy6v2wvcjj","sub23","11","03","feedback","test","null","","","na","","47","",""
"1007","102508","HierDy6v2wvcjj","sub23","11","03","rl","test","83","img/o_c_diag.png","2","83","shape,color,pattern","48","1",""
"null","103511","HierDy6v2wvcjj","sub23","11","03","feedback","test","null","","","na","","48","",""
"945","104458","HierDy6v2wvcjj","sub23","11","03","rl","test","68","img/p_c_dots.png","3","68","shape,color,pattern","49","1",""
"null","105460","HierDy6v2wvcjj","sub23","11","03","feedback","test","null","","","na","","49","",""
"618","106080","HierDy6v2wvcjj","sub23","11","03","rl","test","65","img/o_c_dots.png","1","65","shape,color,pattern","50","1",""
"null","107083","HierDy6v2wvcjj","sub23","11","03","feedback","test","null","","","na","","50","",""
"615.0000000000146","107701","HierDy6v2wvcjj","sub23","11","03","rl","test","83","img/o_c_diag.png","2","83","shape,color,pattern","51","1",""
"null","108705","HierDy6v2wvcjj","sub23","11","03","feedback","test","null","","","na","","51","",""
"788.9999999999854","109496","HierDy6v2wvcjj","sub23","11","03","rl","test","65","img/o_c_dots.png","1","65","shape,color,pattern","52","1",""
"null","110499","HierDy6v2wvcjj","sub23","11","03","feedback","test","null","","","na","","52","",""
"607","111108","HierDy6v2wvcjj","sub23","11","03","rl","test","70","img/p_c_diag.png","4","70","shape,color,pattern","53","1",""
"null","112111","HierDy6v2wvcjj","sub23","11","03","feedback","test","null","","","na","","53","",""
"822.0000000000146","112935","HierDy6v2wvcjj","sub23","11","03","rl","test","74","img/o_s_diag.png","6","74","shape,color,pattern","54","1",""
"null","113939","HierDy6v2wvcjj","sub23","11","03","feedback","test","null","","","na","","54","",""
"864.0000000000146","114805","HierDy6v2wvcjj","sub23","11","03","rl","test","75","img/p_s_dots.png","7","75","shape,color,pattern","55","1",""
"null","115808","HierDy6v2wvcjj","sub23","11","03","feedback","test","null","","","na","","55","",""
"643.9999999999854","116454","HierDy6v2wvcjj","sub23","11","03","rl","test","72","img/o_s_dots.png","5","72","shape,color,pattern","56","1",""
"null","117457","HierDy6v2wvcjj","sub23","11","03","feedback","test","null","","","na","","56","",""
"659","118118","HierDy6v2wvcjj","sub23","11","03","rl","test","76","img/p_s_diag.png","8","76","shape,color,pattern","57","1",""
"null","119121","HierDy6v2wvcjj","sub23","11","03","feedback","test","null","","","na","","57","",""
"1047.0000000000146","120171","HierDy6v2wvcjj","sub23","11","03","rl","test","83","img/o_c_diag.png","2","83","shape,color,pattern","58","1",""
"null","121174","HierDy6v2wvcjj","sub23","11","03","feedback","test","null","","","na","","58","",""
"1102","122277","HierDy6v2wvcjj","sub23","11","03","rl","test","75","img/p_s_dots.png","7","75","shape,color,pattern","59","1",""
"null","123281","HierDy6v2wvcjj","sub23","11","03","feedback","test","null","","","na","","59","",""
"846","124129","HierDy6v2wvcjj","sub23","11","03","rl","test","72","img/o_s_dots.png","5","72","shape,color,pattern","60","1",""
"null","125133","HierDy6v2wvcjj","sub23","11","03","feedback","test","null","","","na","","60","",""
"619","125754","HierDy6v2wvcjj","sub23","11","03","rl","test","70","img/p_c_diag.png","4","70","shape,color,pattern","61","1",""
"null","126757","HierDy6v2wvcjj","sub23","11","03","feedback","test","null","","","na","","61","",""
"717.0000000000146","127476","HierDy6v2wvcjj","sub23","11","03","rl","test","76","img/p_s_diag.png","8","76","shape,color,pattern","62","1",""
"null","128479","HierDy6v2wvcjj","sub23","11","03","feedback","test","null","","","na","","62","",""
"767","129249","HierDy6v2wvcjj","sub23","11","03","rl","test","65","img/o_c_dots.png","1","65","shape,color,pattern","63","1",""
"null","130250","HierDy6v2wvcjj","sub23","11","03","feedback","test","null","","","na","","63","",""
"1451","131703","HierDy6v2wvcjj","sub23","11","03","rl","test","68","img/p_c_dots.png","3","68","shape,color,pattern","64","1",""
"null","132706","HierDy6v2wvcjj","sub23","11","03","feedback","test","null","","","na","","64","",""
"899","133606","HierDy6v2wvcjj","sub23","11","03","rl","test","76","img/p_s_diag.png","8","76","shape,color,pattern","65","1",""
"null","134609","HierDy6v2wvcjj","sub23","11","03","feedback","test","null","","","na","","65","",""
"932","135542","HierDy6v2wvcjj","sub23","11","03","rl","test","68","img/p_c_dots.png","3","68","shape,color,pattern","66","1",""
"null","136545","HierDy6v2wvcjj","sub23","11","03","feedback","test","null","","","na","","66","",""
"874","137421","HierDy6v2wvcjj","sub23","11","03","rl","test","74","img/o_s_diag.png","6","74","shape,color,pattern","67","1",""
"null","138425","HierDy6v2wvcjj","sub23","11","03","feedback","test","null","","","na","","67","",""
"1313","139740","HierDy6v2wvcjj","sub23","11","03","rl","test","83","img/o_c_diag.png","2","83","shape,color,pattern","68","1",""
"null","140743","HierDy6v2wvcjj","sub23","11","03","feedback","test","null","","","na","","68","",""
"896","141641","HierDy6v2wvcjj","sub23","11","03","rl","test","65","img/o_c_dots.png","1","65","shape,color,pattern","69","1",""
"null","142644","HierDy6v2wvcjj","sub23","11","03","feedback","test","null","","","na","","69","",""
"1000","143646","HierDy6v2wvcjj","sub23","11","03","rl","test","70","img/p_c_diag.png","4","70","shape,color,pattern","70","1",""
"null","144648","HierDy6v2wvcjj","sub23","11","03","feedback","test","null","","","na","","70","",""
"1245.000000000029","145896","HierDy6v2wvcjj","sub23","11","03","rl","test","75","img/p_s_dots.png","7","75","shape,color,pattern","71","1",""
"null","146899","HierDy6v2wvcjj","sub23","11","03","feedback","test","null","","","na","","71","",""
"1635.999999999971","148537","HierDy6v2wvcjj","sub23","11","03","rl","test","76","img/p_s_diag.png","8","76","shape,color,pattern","72","1",""
"null","149540","HierDy6v2wvcjj","sub23","11","03","feedback","test","null","","","na","","72","",""
"646","150187","HierDy6v2wvcjj","sub23","11","03","rl","test","83","img/o_c_diag.png","2","83","shape,color,pattern","73","1",""
"null","151190","HierDy6v2wvcjj","sub23","11","03","feedback","test","null","","","na","","73","",""
"619","151811","HierDy6v2wvcjj","sub23","11","03","rl","test","72","img/o_s_dots.png","5","72","shape,color,pattern","74","1",""
"null","152814","HierDy6v2wvcjj","sub23","11","03","feedback","test","null","","","na","","74","",""
"854","153670","HierDy6v2wvcjj","sub23","11","03","rl","test","74","img/o_s_dots.png","5","72","shape,color,pattern","75","0",""
"null","154674","HierDy6v2wvcjj","sub23","11","03","feedback","test","null","","","na","","75","",""
"780","155456","HierDy6v2wvcjj","sub23","11","03","rl","test","65","img/o_c_dots.png","1","65","shape,color,pattern","76","1",""
"null","156460","HierDy6v2wvcjj","sub23","11","03","feedback","test","null","","","na","","76","",""
"942","157404","HierDy6v2wvcjj","sub23","11","03","rl","test","74","img/o_s_diag.png","6","74","shape,color,pattern","77","1",""
"null","158408","HierDy6v2wvcjj","sub23","11","03","feedback","test","null","","","na","","77","",""
"1037","159447","HierDy6v2wvcjj","sub23","11","03","rl","test","70","img/p_c_diag.png","4","70","shape,color,pattern","78","1",""
"null","160449","HierDy6v2wvcjj","sub23","11","03","feedback","test","null","","","na","","78","",""
"1025","161476","HierDy6v2wvcjj","sub23","11","03","rl","test","68","img/p_c_dots.png","3","68","shape,color,pattern","79","1",""
"null","162479","HierDy6v2wvcjj","sub23","11","03","feedback","test","null","","","na","","79","",""
"961","163443","HierDy6v2wvcjj","sub23","11","03","rl","test","72","img/o_s_dots.png","5","72","shape,color,pattern","80","1",""
"null","164446","HierDy6v2wvcjj","sub23","11","03","feedback","test","null","","","na","","80","",""
"679","165126","HierDy6v2wvcjj","sub23","11","03","rl","test","75","img/p_s_dots.png","7","75","shape,color,pattern","81","1",""
"null","166129","HierDy6v2wvcjj","sub23","11","03","feedback","test","null","","","na","","81","",""
"748","166879","HierDy6v2wvcjj","sub23","11","03","rl","test","70","img/p_c_diag.png","4","70","shape,color,pattern","82","1",""
"null","167882","HierDy6v2wvcjj","sub23","11","03","feedback","test","null","","","na","","82","",""
"1240","169123","HierDy6v2wvcjj","sub23","11","03","rl","test","74","img/o_s_diag.png","6","74","shape,color,pattern","83","1",""
"null","170127","HierDy6v2wvcjj","sub23","11","03","feedback","test","null","","","na","","83","",""
"844","170972","HierDy6v2wvcjj","sub23","11","03","rl","test","75","img/p_s_dots.png","7","75","shape,color,pattern","84","1",""
"null","171975","HierDy6v2wvcjj","sub23","11","03","feedback","test","null","","","na","","84","",""
"928","172905","HierDy6v2wvcjj","sub23","11","03","rl","test","83","img/o_c_diag.png","2","83","shape,color,pattern","85","1",""
"null","173909","HierDy6v2wvcjj","sub23","11","03","feedback","test","null","","","na","","85","",""
"1321","175233","HierDy6v2wvcjj","sub23","11","03","rl","test","70","img/p_s_diag.png","8","76","shape,color,pattern","86","0",""
"null","176236","HierDy6v2wvcjj","sub23","11","03","feedback","test","null","","","na","","86","",""
"727","176966","HierDy6v2wvcjj","sub23","11","03","rl","test","72","img/o_c_dots.png","1","65","shape,color,pattern","87","0",""
"null","177969","HierDy6v2wvcjj","sub23","11","03","feedback","test","null","","","na","","87","",""
"1314","179285","HierDy6v2wvcjj","sub23","11","03","rl","test","68","img/p_c_dots.png","3","68","shape,color,pattern","88","1",""
"null","180287","HierDy6v2wvcjj","sub23","11","03","feedback","test","null","","","na","","88","",""
"602","180892","HierDy6v2wvcjj","sub23","11","03","rl","test","65","img/o_c_dots.png","1","65","shape,color,pattern","89","1",""
"null","181896","HierDy6v2wvcjj","sub23","11","03","feedback","test","null","","","na","","89","",""
"781","182679","HierDy6v2wvcjj","sub23","11","03","rl","test","70","img/p_c_diag.png","4","70","shape,color,pattern","90","1",""
"null","183682","HierDy6v2wvcjj","sub23","11","03","feedback","test","null","","","na","","90","",""
"636","184321","HierDy6v2wvcjj","sub23","11","03","rl","test","83","img/o_c_diag.png","2","83","shape,color,pattern","91","1",""
"null","185324","HierDy6v2wvcjj","sub23","11","03","feedback","test","null","","","na","","91","",""
"687.0000000000291","186013","HierDy6v2wvcjj","sub23","11","03","rl","test","83","img/o_c_diag.png","2","83","shape,color,pattern","92","1",""
"null","187016","HierDy6v2wvcjj","sub23","11","03","feedback","test","null","","","na","","92","",""
"667","187685","HierDy6v2wvcjj","sub23","11","03","rl","test","76","img/p_s_diag.png","8","76","shape,color,pattern","93","1",""
"null","188689","HierDy6v2wvcjj","sub23","11","03","feedback","test","null","","","na","","93","",""
"930.0000000000291","189620","HierDy6v2wvcjj","sub23","11","03","rl","test","74","img/o_s_diag.png","6","74","shape,color,pattern","94","1",""
"null","190622","HierDy6v2wvcjj","sub23","11","03","feedback","test","null","","","na","","94","",""
"742","191366","HierDy6v2wvcjj","sub23","11","03","rl","test","72","img/o_s_dots.png","5","72","shape,color,pattern","95","1",""
"null","192369","HierDy6v2wvcjj","sub23","11","03","feedback","test","null","","","na","","95","",""
"1138","193509","HierDy6v2wvcjj","sub23","11","03","rl","test","74","img/o_s_diag.png","6","74","shape,color,pattern","96","1",""
"null","194512","HierDy6v2wvcjj","sub23","11","03","feedback","test","null","","","na","","96","",""
"604","195119","HierDy6v2wvcjj","sub23","11","03","rl","test","75","img/p_s_dots.png","7","75","shape,color,pattern","97","1",""
"null","196122","HierDy6v2wvcjj","sub23","11","03","feedback","test","null","","","na","","97","",""
"669.0000000000291","196794","HierDy6v2wvcjj","sub23","11","03","rl","test","76","img/p_s_diag.png","8","76","shape,color,pattern","98","1",""
"null","197797","HierDy6v2wvcjj","sub23","11","03","feedback","test","null","","","na","","98","",""
"1149.999999999971","198949","HierDy6v2wvcjj","sub23","11","03","rl","test","68","img/p_c_dots.png","3","68","shape,color,pattern","99","1",""
"null","199952","HierDy6v2wvcjj","sub23","11","03","feedback","test","null","","","na","","99","",""
"658.9999999999709","200613","HierDy6v2wvcjj","sub23","11","03","rl","test","68","img/p_c_dots.png","3","68","shape,color,pattern","100","1",""
"null","201616","HierDy6v2wvcjj","sub23","11","03","feedback","test","null","","","na","","100","",""
"1111","202729","HierDy6v2wvcjj","sub23","11","03","rl","test","75","img/p_s_dots.png","7","75","shape,color,pattern","101","1",""
"null","203732","HierDy6v2wvcjj","sub23","11","03","feedback","test","null","","","na","","101","",""
"763","204498","HierDy6v2wvcjj","sub23","11","03","rl","test","72","img/o_s_dots.png","5","72","shape,color,pattern","102","1",""
"null","205501","HierDy6v2wvcjj","sub23","11","03","feedback","test","null","","","na","","102","",""
"673","206177","HierDy6v2wvcjj","sub23","11","03","rl","test","65","img/o_c_dots.png","1","65","shape,color,pattern","103","1",""
"null","207181","HierDy6v2wvcjj","sub23","11","03","feedback","test","null","","","na","","103","",""
"988","208172","HierDy6v2wvcjj","sub23","11","03","rl","test","75","img/p_s_dots.png","7","75","shape,color,pattern","104","1",""
"null","209176","HierDy6v2wvcjj","sub23","11","03","feedback","test","null","","","na","","104","",""
"749","209927","HierDy6v2wvcjj","sub23","11","03","rl","test","70","img/p_c_diag.png","4","70","shape,color,pattern","105","1",""
"null","210930","HierDy6v2wvcjj","sub23","11","03","feedback","test","null","","","na","","105","",""
"674","211607","HierDy6v2wvcjj","sub23","11","03","rl","test","74","img/o_s_diag.png","6","74","shape,color,pattern","106","1",""
"null","212610","HierDy6v2wvcjj","sub23","11","03","feedback","test","null","","","na","","106","",""
"833","213446","HierDy6v2wvcjj","sub23","11","03","rl","test","83","img/o_c_diag.png","2","83","shape,color,pattern","107","1",""
"null","214449","HierDy6v2wvcjj","sub23","11","03","feedback","test","null","","","na","","107","",""
"590","215041","HierDy6v2wvcjj","sub23","11","03","rl","test","65","img/o_c_dots.png","1","65","shape,color,pattern","108","1",""
"null","216044","HierDy6v2wvcjj","sub23","11","03","feedback","test","null","","","na","","108","",""
"589","216635","HierDy6v2wvcjj","sub23","11","03","rl","test","70","img/p_c_diag.png","4","70","shape,color,pattern","109","1",""
"null","217638","HierDy6v2wvcjj","sub23","11","03","feedback","test","null","","","na","","109","",""
"662","218303","HierDy6v2wvcjj","sub23","11","03","rl","test","72","img/o_s_dots.png","5","72","shape,color,pattern","110","1",""
"null","219306","HierDy6v2wvcjj","sub23","11","03","feedback","test","null","","","na","","110","",""
"754","220061","HierDy6v2wvcjj","sub23","11","03","rl","test","76","img/p_s_diag.png","8","76","shape,color,pattern","111","1",""
"null","221064","HierDy6v2wvcjj","sub23","11","03","feedback","test","null","","","na","","111","",""
"888","221956","HierDy6v2wvcjj","sub23","11","03","rl","test","68","img/p_c_dots.png","3","68","shape,color,pattern","112","1",""
"null","222960","HierDy6v2wvcjj","sub23","11","03","feedback","test","null","","","na","","112","",""
"651","223613","HierDy6v2wvcjj","sub23","11","03","rl","test","72","img/o_s_dots.png","5","72","shape,color,pattern","113","1",""
"null","224616","HierDy6v2wvcjj","sub23","11","03","feedback","test","null","","","na","","113","",""
"764.0000000000291","225381","HierDy6v2wvcjj","sub23","11","03","rl","test","68","img/p_c_dots.png","3","68","shape,color,pattern","114","1",""
"null","226385","HierDy6v2wvcjj","sub23","11","03","feedback","test","null","","","na","","114","",""
"753.9999999999709","227142","HierDy6v2wvcjj","sub23","11","03","rl","test","74","img/o_s_diag.png","6","74","shape,color,pattern","115","1",""
"null","228145","HierDy6v2wvcjj","sub23","11","03","feedback","test","null","","","na","","115","",""
"836","228983","HierDy6v2wvcjj","sub23","11","03","rl","test","76","img/p_s_diag.png","8","76","shape,color,pattern","116","1",""
"null","229986","HierDy6v2wvcjj","sub23","11","03","feedback","test","null","","","na","","116","",""
"709","230698","HierDy6v2wvcjj","sub23","11","03","rl","test","83","img/o_c_diag.png","2","83","shape,color,pattern","117","1",""
"null","231701","HierDy6v2wvcjj","sub23","11","03","feedback","test","null","","","na","","117","",""
"847.9999999999709","232551","HierDy6v2wvcjj","sub23","11","03","rl","test","75","img/p_s_dots.png","7","75","shape,color,pattern","118","1",""
"null","233554","HierDy6v2wvcjj","sub23","11","03","feedback","test","null","","","na","","118","",""
"596","234153","HierDy6v2wvcjj","sub23","11","03","rl","test","72","img/o_s_dots.png","5","72","shape,color,pattern","119","1",""
"null","235156","HierDy6v2wvcjj","sub23","11","03","feedback","test","null","","","na","","119","",""
"672","235831","HierDy6v2wvcjj","sub23","11","03","rl","test","70","img/p_c_diag.png","4","70","shape,color,pattern","120","1",""
"null","236834","HierDy6v2wvcjj","sub23","11","03","feedback","test","null","","","na","","120","",""
"674","237510","HierDy6v2wvcjj","sub23","11","03","rl","test","65","img/o_c_dots.png","1","65","shape,color,pattern","121","1",""
"null","238513","HierDy6v2wvcjj","sub23","11","03","feedback","test","null","","","na","","121","",""
"537","239052","HierDy6v2wvcjj","sub23","11","03","rl","test","65","img/o_c_dots.png","1","65","shape,color,pattern","122","1",""
"null","240056","HierDy6v2wvcjj","sub23","11","03","feedback","test","null","","","na","","122","",""
"963","241023","HierDy6v2wvcjj","sub23","11","03","rl","test","70","img/p_c_diag.png","4","70","shape,color,pattern","123","1",""
"null","242026","HierDy6v2wvcjj","sub23","11","03","feedback","test","null","","","na","","123","",""
"759","242788","HierDy6v2wvcjj","sub23","11","03","rl","test","76","img/p_s_diag.png","8","76","shape,color,pattern","124","1",""
"null","243791","HierDy6v2wvcjj","sub23","11","03","feedback","test","null","","","na","","124","",""
"651","244444","HierDy6v2wvcjj","sub23","11","03","rl","test","75","img/p_s_dots.png","7","75","shape,color,pattern","125","1",""
"null","245447","HierDy6v2wvcjj","sub23","11","03","feedback","test","null","","","na","","125","",""
"747","246197","HierDy6v2wvcjj","sub23","11","03","rl","test","83","img/o_c_diag.png","2","83","shape,color,pattern","126","1",""
"null","247200","HierDy6v2wvcjj","sub23","11","03","feedback","test","null","","","na","","126","",""
"894.0000000000291","248096","HierDy6v2wvcjj","sub23","11","03","rl","test","74","img/o_s_diag.png","6","74","shape,color,pattern","127","1",""
"null","249098","HierDy6v2wvcjj","sub23","11","03","feedback","test","null","","","na","","127","",""
"739.0000000000291","249840","HierDy6v2wvcjj","sub23","11","03","rl","test","68","img/p_c_dots.png","3","68","shape,color,pattern","128","1",""
"null","250843","HierDy6v2wvcjj","sub23","11","03","feedback","test","null","","","na","","128","",""
"1007","251851","HierDy6v2wvcjj","sub23","11","03","rl","test","68","img/p_c_dots.png","3","68","shape,color,pattern","129","1",""
"null","252855","HierDy6v2wvcjj","sub23","11","03","feedback","test","null","","","na","","129","",""
"817","253674","HierDy6v2wvcjj","sub23","11","03","rl","test","76","img/p_s_diag.png","8","76","shape,color,pattern","130","1",""
"null","254676","HierDy6v2wvcjj","sub23","11","03","feedback","test","null","","","na","","130","",""
"914.0000000000582","255592","HierDy6v2wvcjj","sub23","11","03","rl","test","74","img/o_s_diag.png","6","74","shape,color,pattern","131","1",""
"null","256595","HierDy6v2wvcjj","sub23","11","03","feedback","test","null","","","na","","131","",""
"1008.9999999999709","257608","HierDy6v2wvcjj","sub23","11","03","rl","test","72","img/o_s_dots.png","5","72","shape,color,pattern","132","1",""
"null","258612","HierDy6v2wvcjj","sub23","11","03","feedback","test","null","","","na","","132","",""
"661.9999999999709","259276","HierDy6v2wvcjj","sub23","11","03","rl","test","65","img/o_c_dots.png","1","65","shape,color,pattern","133","1",""
"null","260279","HierDy6v2wvcjj","sub23","11","03","feedback","test","null","","","na","","133","",""
"936.9999999999709","261219","HierDy6v2wvcjj","sub23","11","03","rl","test","68","img/p_s_dots.png","7","75","shape,color,pattern","134","0",""
"null","262223","HierDy6v2wvcjj","sub23","11","03","feedback","test","null","","","na","","134","",""
"631","262857","HierDy6v2wvcjj","sub23","11","03","rl","test","65","img/o_c_dots.png","1","65","shape,color,pattern","135","1",""
"null","263860","HierDy6v2wvcjj","sub23","11","03","feedback","test","null","","","na","","135","",""
"639","264502","HierDy6v2wvcjj","sub23","11","03","rl","test","83","img/o_c_diag.png","2","83","shape,color,pattern","136","1",""
"null","265505","HierDy6v2wvcjj","sub23","11","03","feedback","test","null","","","na","","136","",""
"711","266218","HierDy6v2wvcjj","sub23","11","03","rl","test","70","img/p_c_diag.png","4","70","shape,color,pattern","137","1",""
"null","267222","HierDy6v2wvcjj","sub23","11","03","feedback","test","null","","","na","","137","",""
"1070.9999999999418","268294","HierDy6v2wvcjj","sub23","11","03","rl","test","75","img/p_s_dots.png","7","75","shape,color,pattern","138","1",""
"null","269297","HierDy6v2wvcjj","sub23","11","03","feedback","test","null","","","na","","138","",""
"785","270085","HierDy6v2wvcjj","sub23","11","03","rl","test","70","img/p_c_diag.png","4","70","shape,color,pattern","139","1",""
"null","271088","HierDy6v2wvcjj","sub23","11","03","feedback","test","null","","","na","","139","",""
"964","272055","HierDy6v2wvcjj","sub23","11","03","rl","test","74","img/o_s_dots.png","5","72","shape,color,pattern","140","0",""
"null","273058","HierDy6v2wvcjj","sub23","11","03","feedback","test","null","","","na","","140","",""
"1067","274127","HierDy6v2wvcjj","sub23","11","03","rl","test","68","img/p_c_dots.png","3","68","shape,color,pattern","141","1",""
"null","275130","HierDy6v2wvcjj","sub23","11","03","feedback","test","null","","","na","","141","",""
"1096","276229","HierDy6v2wvcjj","sub23","11","03","rl","test","83","img/o_c_diag.png","2","83","shape,color,pattern","142","1",""
"null","277233","HierDy6v2wvcjj","sub23","11","03","feedback","test","null","","","na","","142","",""
"1001.0000000000582","278235","HierDy6v2wvcjj","sub23","11","03","rl","test","76","img/p_s_diag.png","8","76","shape,color,pattern","143","1",""
"null","279239","HierDy6v2wvcjj","sub23","11","03","feedback","test","null","","","na","","143","",""
"1069","280310","HierDy6v2wvcjj","sub23","11","03","rl","test","68","img/p_c_dots.png","3","68","shape,color,pattern","144","1",""
"null","281313","HierDy6v2wvcjj","sub23","11","03","feedback","test","null","","","na","","144","",""
"1052","282367","HierDy6v2wvcjj","sub23","11","03","rl","test","75","img/p_s_dots.png","7","75","shape,color,pattern","145","1",""
"null","283371","HierDy6v2wvcjj","sub23","11","03","feedback","test","null","","","na","","145","",""
"800","284173","HierDy6v2wvcjj","sub23","11","03","rl","test","74","img/o_s_diag.png","6","74","shape,color,pattern","146","1",""
"null","285175","HierDy6v2wvcjj","sub23","11","03","feedback","test","null","","","na","","146","",""
"1192","286368","HierDy6v2wvcjj","sub23","11","03","rl","test","83","img/o_c_diag.png","2","83","shape,color,pattern","147","1",""
"null","287369","HierDy6v2wvcjj","sub23","11","03","feedback","test","null","","","na","","147","",""
"775","288145","HierDy6v2wvcjj","sub23","11","03","rl","test","72","img/o_s_dots.png","5","72","shape,color,pattern","148","1",""
"null","289146","HierDy6v2wvcjj","sub23","11","03","feedback","test","null","","","na","","148","",""
"721","289868","HierDy6v2wvcjj","sub23","11","03","rl","test","74","img/o_s_diag.png","6","74","shape,color,pattern","149","1",""
"null","290869","HierDy6v2wvcjj","sub23","11","03","feedback","test","null","","","na","","149","",""
"929","291799","HierDy6v2wvcjj","sub23","11","03","rl","test","65","img/o_c_dots.png","1","65","shape,color,pattern","150","1",""
"null","292800","HierDy6v2wvcjj","sub23","11","03","feedback","test","null","","","na","","150","",""
"622","293423","HierDy6v2wvcjj","sub23","11","03","rl","test","65","img/o_c_dots.png","1","65","shape,color,pattern","151","1",""
"null","294425","HierDy6v2wvcjj","sub23","11","03","feedback","test","null","","","na","","151","",""
"1385","295811","HierDy6v2wvcjj","sub23","11","03","rl","test","76","img/p_s_diag.png","8","76","shape,color,pattern","152","1",""
"null","296813","HierDy6v2wvcjj","sub23","11","03","feedback","test","null","","","na","","152","",""
"766","297580","HierDy6v2wvcjj","sub23","11","03","rl","test","70","img/p_c_diag.png","4","70","shape,color,pattern","153","1",""
"null","298582","HierDy6v2wvcjj","sub23","11","03","feedback","test","null","","","na","","153","",""
"769","299351","HierDy6v2wvcjj","sub23","11","03","rl","test","74","img/o_s_diag.png","6","74","shape,color,pattern","154","1",""
"null","300353","HierDy6v2wvcjj","sub23","11","03","feedback","test","null","","","na","","154","",""
"690","301044","HierDy6v2wvcjj","sub23","11","03","rl","test","75","img/p_s_dots.png","7","75","shape,color,pattern","155","1",""
"null","302045","HierDy6v2wvcjj","sub23","11","03","feedback","test","null","","","na","","155","",""
"1103","303149","HierDy6v2wvcjj","sub23","11","03","rl","test","68","img/p_c_dots.png","3","68","shape,color,pattern","156","1",""
"null","304151","HierDy6v2wvcjj","sub23","11","03","feedback","test","null","","","na","","156","",""
"714","304866","HierDy6v2wvcjj","sub23","11","03","rl","test","70","img/p_c_diag.png","4","70","shape,color,pattern","157","1",""
"null","305867","HierDy6v2wvcjj","sub23","11","03","feedback","test","null","","","na","","157","",""
"870","306738","HierDy6v2wvcjj","sub23","11","03","rl","test","76","img/p_s_diag.png","8","76","shape,color,pattern","158","1",""
"null","307739","HierDy6v2wvcjj","sub23","11","03","feedback","test","null","","","na","","158","",""
"866","308607","HierDy6v2wvcjj","sub23","11","03","rl","test","72","img/o_s_dots.png","5","72","shape,color,pattern","159","1",""
"null","309608","HierDy6v2wvcjj","sub23","11","03","feedback","test","null","","","na","","159","",""
"629.9999999999418","310240","HierDy6v2wvcjj","sub23","11","03","rl","test","72","img/o_s_dots.png","5","72","shape,color,pattern","160","1",""
"null","311241","HierDy6v2wvcjj","sub23","11","03","feedback","test","null","","","na","","160","",""
"947","312189","HierDy6v2wvcjj","sub23","11","03","rl","test","83","img/o_c_diag.png","2","83","shape,color,pattern","161","1",""
"null","313191","HierDy6v2wvcjj","sub23","11","03","feedback","test","null","","","na","","161","",""
"661","313854","HierDy6v2wvcjj","sub23","11","03","rl","test","75","img/p_s_dots.png","7","75","shape,color,pattern","162","1",""
"null","314855","HierDy6v2wvcjj","sub23","11","03","feedback","test","null","","","na","","162","",""
"1195","316051","HierDy6v2wvcjj","sub23","11","03","rl","test","83","img/o_c_diag.png","2","83","shape,color,pattern","163","1",""
"null","317053","HierDy6v2wvcjj","sub23","11","03","feedback","test","null","","","na","","163","",""
"1202","318256","HierDy6v2wvcjj","sub23","11","03","rl","test","68","img/p_c_dots.png","3","68","shape,color,pattern","164","1",""
"null","319258","HierDy6v2wvcjj","sub23","11","03","feedback","test","null","","","na","","164","",""
"765.9999999999418","320024","HierDy6v2wvcjj","sub23","11","03","rl","test","74","img/o_s_diag.png","6","74","shape,color,pattern","165","1",""
"null","321025","HierDy6v2wvcjj","sub23","11","03","feedback","test","null","","","na","","165","",""
"692","321718","HierDy6v2wvcjj","sub23","11","03","rl","test","65","img/o_c_dots.png","1","65","shape,color,pattern","166","1",""
"null","322719","HierDy6v2wvcjj","sub23","11","03","feedback","test","null","","","na","","166","",""
"660","323380","HierDy6v2wvcjj","sub23","11","03","rl","test","70","img/p_c_diag.png","4","70","shape,color,pattern","167","1",""
"null","324381","HierDy6v2wvcjj","sub23","11","03","feedback","test","null","","","na","","167","",""
"627","325009","HierDy6v2wvcjj","sub23","11","03","rl","test","70","img/p_c_diag.png","4","70","shape,color,pattern","168","1",""
"null","326011","HierDy6v2wvcjj","sub23","11","03","feedback","test","null","","","na","","168","",""
"1080","327091","HierDy6v2wvcjj","sub23","11","03","rl","test","76","img/p_s_diag.png","8","76","shape,color,pattern","169","1",""
"null","328093","HierDy6v2wvcjj","sub23","11","03","feedback","test","null","","","na","","169","",""
"1330.0000000000582","329423","HierDy6v2wvcjj","sub23","11","03","rl","test","83","img/o_c_diag.png","2","83","shape,color,pattern","170","1",""
"null","330425","HierDy6v2wvcjj","sub23","11","03","feedback","test","null","","","na","","170","",""
"1081","331507","HierDy6v2wvcjj","sub23","11","03","rl","test","74","img/o_s_diag.png","6","74","shape,color,pattern","171","1",""
"null","332509","HierDy6v2wvcjj","sub23","11","03","feedback","test","null","","","na","","171","",""
"1226","333735","HierDy6v2wvcjj","sub23","11","03","rl","test","76","img/p_s_diag.png","8","76","shape,color,pattern","172","1",""
"null","334736","HierDy6v2wvcjj","sub23","11","03","feedback","test","null","","","na","","172","",""
"1061","335798","HierDy6v2wvcjj","sub23","11","03","rl","test","72","img/o_s_dots.png","5","72","shape,color,pattern","173","1",""
"null","336799","HierDy6v2wvcjj","sub23","11","03","feedback","test","null","","","na","","173","",""
"1472","338272","HierDy6v2wvcjj","sub23","11","03","rl","test","75","img/p_s_dots.png","7","75","shape,color,pattern","174","1",""
"null","339273","HierDy6v2wvcjj","sub23","11","03","feedback","test","null","","","na","","174","",""
"850","340124","HierDy6v2wvcjj","sub23","11","03","rl","test","65","img/o_c_dots.png","1","65","shape,color,pattern","175","1",""
"null","341125","HierDy6v2wvcjj","sub23","11","03","feedback","test","null","","","na","","175","",""
"1243.9999999999418","342369","HierDy6v2wvcjj","sub23","11","03","rl","test","74","img/o_s_diag.png","6","74","shape,color,pattern","176","1",""
"null","343371","HierDy6v2wvcjj","sub23","11","03","feedback","test","null","","","na","","176","",""
"984","344356","HierDy6v2wvcjj","sub23","11","03","rl","test","65","img/o_c_dots.png","1","65","shape,color,pattern","177","1",""
"null","345357","HierDy6v2wvcjj","sub23","11","03","feedback","test","null","","","na","","177","",""
"591","345948","HierDy6v2wvcjj","sub23","11","03","rl","test","75","img/p_s_dots.png","7","75","shape,color,pattern","178","1",""
"null","346950","HierDy6v2wvcjj","sub23","11","03","feedback","test","null","","","na","","178","",""
"854","347804","HierDy6v2wvcjj","sub23","11","03","rl","test","68","img/p_c_dots.png","3","68","shape,color,pattern","179","1",""
"null","348806","HierDy6v2wvcjj","sub23","11","03","feedback","test","null","","","na","","179","",""
"687","349494","HierDy6v2wvcjj","sub23","11","03","rl","test","83","img/o_c_diag.png","2","83","shape,color,pattern","180","1",""
"null","350495","HierDy6v2wvcjj","sub23","11","03","feedback","test","null","","","na","","180","",""
"707","351204","HierDy6v2wvcjj","sub23","11","03","rl","test","70","img/p_c_diag.png","4","70","shape,color,pattern","181","1",""
"null","352205","HierDy6v2wvcjj","sub23","11","03","feedback","test","null","","","na","","181","",""
"693.0000000000582","352899","HierDy6v2wvcjj","sub23","11","03","rl","test","72","img/o_s_dots.png","5","72","shape,color,pattern","182","1",""
"null","353901","HierDy6v2wvcjj","sub23","11","03","feedback","test","null","","","na","","182","",""
"1035","354936","HierDy6v2wvcjj","sub23","11","03","rl","test","68","img/p_c_dots.png","3","68","shape,color,pattern","183","1",""
"null","355937","HierDy6v2wvcjj","sub23","11","03","feedback","test","null","","","na","","183","",""
"813.0000000000582","356750","HierDy6v2wvcjj","sub23","11","03","rl","test","76","img/p_s_diag.png","8","76","shape,color,pattern","184","1",""
"null","357751","HierDy6v2wvcjj","sub23","11","03","feedback","test","null","","","na","","184","",""
"876","358628","HierDy6v2wvcjj","sub23","11","03","rl","test","76","img/p_s_diag.png","8","76","shape,color,pattern","185","1",""
"null","359630","HierDy6v2wvcjj","sub23","11","03","feedback","test","null","","","na","","185","",""
"1815","361447","HierDy6v2wvcjj","sub23","11","03","rl","test","83","img/o_c_diag.png","2","83","shape,color,pattern","186","1",""
"null","362448","HierDy6v2wvcjj","sub23","11","03","feedback","test","null","","","na","","186","",""
"698","363147","HierDy6v2wvcjj","sub23","11","03","rl","test","72","img/o_s_dots.png","5","72","shape,color,pattern","187","1",""
"null","364149","HierDy6v2wvcjj","sub23","11","03","feedback","test","null","","","na","","187","",""
"1062.9999999999418","365212","HierDy6v2wvcjj","sub23","11","03","rl","test","70","img/p_c_diag.png","4","70","shape,color,pattern","188","1",""
"null","366214","HierDy6v2wvcjj","sub23","11","03","feedback","test","null","","","na","","188","",""
"644","366859","HierDy6v2wvcjj","sub23","11","03","rl","test","72","img/o_s_dots.png","5","72","shape,color,pattern","189","1",""
"null","367860","HierDy6v2wvcjj","sub23","11","03","feedback","test","null","","","na","","189","",""
"733","368594","HierDy6v2wvcjj","sub23","11","03","rl","test","74","img/o_s_diag.png","6","74","shape,color,pattern","190","1",""
"null","369596","HierDy6v2wvcjj","sub23","11","03","feedback","test","null","","","na","","190","",""
"837.9999999999418","370434","HierDy6v2wvcjj","sub23","11","03","rl","test","68","img/p_c_dots.png","3","68","shape,color,pattern","191","1",""
"null","371436","HierDy6v2wvcjj","sub23","11","03","feedback","test","null","","","na","","191","",""
"668","372105","HierDy6v2wvcjj","sub23","11","03","rl","test","65","img/o_c_dots.png","1","65","shape,color,pattern","192","1",""
"null","373107","HierDy6v2wvcjj","sub23","11","03","feedback","test","null","","","na","","192","",""
"1437.9999999999418","374546","HierDy6v2wvcjj","sub23","11","03","rl","test","75","img/p_s_dots.png","7","75","shape,color,pattern","193","1",""
"null","375547","HierDy6v2wvcjj","sub23","11","03","feedback","test","null","","","na","","193","",""
"892.9999999999418","376441","HierDy6v2wvcjj","sub23","11","03","rl","test","68","img/p_c_dots.png","3","68","shape,color,pattern","194","1",""
"null","377442","HierDy6v2wvcjj","sub23","11","03","feedback","test","null","","","na","","194","",""
"596","378039","HierDy6v2wvcjj","sub23","11","03","rl","test","65","img/o_c_dots.png","1","65","shape,color,pattern","195","1",""
"null","379040","HierDy6v2wvcjj","sub23","11","03","feedback","test","null","","","na","","195","",""
"1087","380127","HierDy6v2wvcjj","sub23","11","03","rl","test","74","img/o_s_diag.png","6","74","shape,color,pattern","196","1",""
"null","381129","HierDy6v2wvcjj","sub23","11","03","feedback","test","null","","","na","","196","",""
"1047","382177","HierDy6v2wvcjj","sub23","11","03","rl","test","76","img/p_s_diag.png","8","76","shape,color,pattern","197","1",""
"null","383179","HierDy6v2wvcjj","sub23","11","03","feedback","test","null","","","na","","197","",""
"974","384153","HierDy6v2wvcjj","sub23","11","03","rl","test","70","img/p_c_diag.png","4","70","shape,color,pattern","198","1",""
"null","385155","HierDy6v2wvcjj","sub23","11","03","feedback","test","null","","","na","","198","",""
"645.9999999999418","385801","HierDy6v2wvcjj","sub23","11","03","rl","test","83","img/o_c_diag.png","2","83","shape,color,pattern","199","1",""
"null","386803","HierDy6v2wvcjj","sub23","11","03","feedback","test","null","","","na","","199","",""
"655.0000000000582","387459","HierDy6v2wvcjj","sub23","11","03","rl","test","75","img/p_s_dots.png","7","75","shape,color,pattern","200","1",""
"null","388460","HierDy6v2wvcjj","sub23","11","03","feedback","test","null","","","na","","200","",""
"638","389098","HierDy6v2wvcjj","sub23","11","03","rl","test","83","img/o_c_diag.png","2","83","shape,color,pattern","201","1",""
"null","390100","HierDy6v2wvcjj","sub23","11","03","feedback","test","null","","","na","","201","",""
"685.0000000000582","390785","HierDy6v2wvcjj","sub23","11","03","rl","test","70","img/p_c_diag.png","4","70","shape,color,pattern","202","1",""
"null","391786","HierDy6v2wvcjj","sub23","11","03","feedback","test","null","","","na","","202","",""
"596","392383","HierDy6v2wvcjj","sub23","11","03","rl","test","83","img/p_c_dots.png","3","68","shape,color,pattern","203","0",""
"null","393385","HierDy6v2wvcjj","sub23","11","03","feedback","test","null","","","na","","203","",""
"902.9999999999418","394289","HierDy6v2wvcjj","sub23","11","03","rl","test","72","img/o_s_dots.png","5","72","shape,color,pattern","204","1",""
"null","395291","HierDy6v2wvcjj","sub23","11","03","feedback","test","null","","","na","","204","",""
"804.0000000000582","396096","HierDy6v2wvcjj","sub23","11","03","rl","test","76","img/p_s_diag.png","8","76","shape,color,pattern","205","1",""
"null","397097","HierDy6v2wvcjj","sub23","11","03","feedback","test","null","","","na","","205","",""
"622.0000000000582","397720","HierDy6v2wvcjj","sub23","11","03","rl","test","65","img/o_c_dots.png","1","65","shape,color,pattern","206","1",""
"null","398722","HierDy6v2wvcjj","sub23","11","03","feedback","test","null","","","na","","206","",""
"521","399243","HierDy6v2wvcjj","sub23","11","03","rl","test","70","img/p_c_diag.png","4","70","shape,color,pattern","207","1",""
"null","400245","HierDy6v2wvcjj","sub23","11","03","feedback","test","null","","","na","","207","",""
"572","400817","HierDy6v2wvcjj","sub23","11","03","rl","test","75","img/p_s_dots.png","7","75","shape,color,pattern","208","1",""
"null","401818","HierDy6v2wvcjj","sub23","11","03","feedback","test","null","","","na","","208","",""
"503","402323","HierDy6v2wvcjj","sub23","11","03","rl","test","75","img/p_s_dots.png","7","75","shape,color,pattern","209","1",""
"null","403324","HierDy6v2wvcjj","sub23","11","03","feedback","test","null","","","na","","209","",""
"1414","404738","HierDy6v2wvcjj","sub23","11","03","rl","test","74","img/o_s_diag.png","6","74","shape,color,pattern","210","1",""
"null","405739","HierDy6v2wvcjj","sub23","11","03","feedback","test","null","","","na","","210","",""
"419.0000000000582","406160","HierDy6v2wvcjj","sub23","11","03","rl","test","74","img/o_s_diag.png","6","74","shape,color,pattern","211","1",""
"null","407162","HierDy6v2wvcjj","sub23","11","03","feedback","test","null","","","na","","211","",""
"593","407756","HierDy6v2wvcjj","sub23","11","03","rl","test","75","img/p_s_diag.png","8","76","shape,color,pattern","212","0",""
"null","408757","HierDy6v2wvcjj","sub23","11","03","feedback","test","null","","","na","","212","",""
"955","409713","HierDy6v2wvcjj","sub23","11","03","rl","test","68","img/p_c_dots.png","3","68","shape,color,pattern","213","1",""
"null","410714","HierDy6v2wvcjj","sub23","11","03","feedback","test","null","","","na","","213","",""
"744.0000000000582","411458","HierDy6v2wvcjj","sub23","11","03","rl","test","83","img/o_c_diag.png","2","83","shape,color,pattern","214","1",""
"null","412460","HierDy6v2wvcjj","sub23","11","03","feedback","test","null","","","na","","214","",""
"653","413113","HierDy6v2wvcjj","sub23","11","03","rl","test","72","img/o_s_dots.png","5","72","shape,color,pattern","215","1",""
"null","414115","HierDy6v2wvcjj","sub23","11","03","feedback","test","null","","","na","","215","",""
"522","414637","HierDy6v2wvcjj","sub23","11","03","rl","test","76","img/p_s_diag.png","8","76","shape,color,pattern","216","1",""
"null","415638","HierDy6v2wvcjj","sub23","11","03","feedback","test","null","","","na","","216","",""
"624","416263","HierDy6v2wvcjj","sub23","11","03","rl","test","72","img/o_s_dots.png","5","72","shape,color,pattern","217","1",""
"null","417264","HierDy6v2wvcjj","sub23","11","03","feedback","test","null","","","na","","217","",""
"649","417914","HierDy6v2wvcjj","sub23","11","03","rl","test","65","img/o_c_dots.png","1","65","shape,color,pattern","218","1",""
"null","418917","HierDy6v2wvcjj","sub23","11","03","feedback","test","null","","","na","","218","",""
"762.9999999999418","419680","HierDy6v2wvcjj","sub23","11","03","rl","test","68","img/p_c_dots.png","3","68","shape,color,pattern","219","1",""
"null","420681","HierDy6v2wvcjj","sub23","11","03","feedback","test","null","","","na","","219","",""
"1198","421880","HierDy6v2wvcjj","sub23","11","03","rl","test","74","img/o_s_diag.png","6","74","shape,color,pattern","220","1",""
"null","422882","HierDy6v2wvcjj","sub23","11","03","feedback","test","null","","","na","","220","",""
"717","423600","HierDy6v2wvcjj","sub23","11","03","rl","test","70","img/p_c_diag.png","4","70","shape,color,pattern","221","1",""
"null","424602","HierDy6v2wvcjj","sub23","11","03","feedback","test","null","","","na","","221","",""
"788","425391","HierDy6v2wvcjj","sub23","11","03","rl","test","75","img/p_s_dots.png","7","75","shape,color,pattern","222","1",""
"null","426393","HierDy6v2wvcjj","sub23","11","03","feedback","test","null","","","na","","222","",""
"1051","427445","HierDy6v2wvcjj","sub23","11","03","rl","test","65","img/o_c_dots.png","1","65","shape,color,pattern","223","1",""
"null","428447","HierDy6v2wvcjj","sub23","11","03","feedback","test","null","","","na","","223","",""
"727","429175","HierDy6v2wvcjj","sub23","11","03","rl","test","70","img/p_c_diag.png","4","70","shape,color,pattern","224","1",""
"null","430177","HierDy6v2wvcjj","sub23","11","03","feedback","test","null","","","na","","224","",""
"942","431120","HierDy6v2wvcjj","sub23","11","03","rl","test","83","img/o_c_diag.png","2","83","shape,color,pattern","225","1",""
"null","432122","HierDy6v2wvcjj","sub23","11","03","feedback","test","null","","","na","","225","",""
"1823.0000000000582","433946","HierDy6v2wvcjj","sub23","11","03","rl","test","68","img/p_s_diag.png","8","76","shape,color,pattern","226","0",""
"null","434948","HierDy6v2wvcjj","sub23","11","03","feedback","test","null","","","na","","226","",""
"685","435634","HierDy6v2wvcjj","sub23","11","03","rl","test","83","img/o_c_diag.png","2","83","shape,color,pattern","227","1",""
"null","436635","HierDy6v2wvcjj","sub23","11","03","feedback","test","null","","","na","","227","",""
"848.9999999999418","437485","HierDy6v2wvcjj","sub23","11","03","rl","test","68","img/p_c_dots.png","3","68","shape,color,pattern","228","1",""
"null","438487","HierDy6v2wvcjj","sub23","11","03","feedback","test","null","","","na","","228","",""
"616","439103","HierDy6v2wvcjj","sub23","11","03","rl","test","72","img/o_s_dots.png","5","72","shape,color,pattern","229","1",""
"null","440104","HierDy6v2wvcjj","sub23","11","03","feedback","test","null","","","na","","229","",""
"572","440678","HierDy6v2wvcjj","sub23","11","03","rl","test","74","img/o_c_dots.png","1","65","shape,color,pattern","230","0",""
"null","441679","HierDy6v2wvcjj","sub23","11","03","feedback","test","null","","","na","","230","",""
"492","442173","HierDy6v2wvcjj","sub23","11","03","rl","test","65","img/o_c_dots.png","1","65","shape,color,pattern","231","1",""
"null","443175","HierDy6v2wvcjj","sub23","11","03","feedback","test","null","","","na","","231","",""
"804","443979","HierDy6v2wvcjj","sub23","11","03","rl","test","75","img/p_s_dots.png","7","75","shape,color,pattern","232","1",""
"null","444982","HierDy6v2wvcjj","sub23","11","03","feedback","test","null","","","na","","232","",""
"724","445706","HierDy6v2wvcjj","sub23","11","03","rl","test","72","img/o_s_dots.png","5","72","shape,color,pattern","233","1",""
"null","446707","HierDy6v2wvcjj","sub23","11","03","feedback","test","null","","","na","","233","",""
"709.9999999999418","447418","HierDy6v2wvcjj","sub23","11","03","rl","test","83","img/o_s_diag.png","6","74","shape,color,pattern","234","0",""
"null","448419","HierDy6v2wvcjj","sub23","11","03","feedback","test","null","","","na","","234","",""
"866","449287","HierDy6v2wvcjj","sub23","11","03","rl","test","83","img/o_c_diag.png","2","83","shape,color,pattern","235","1",""
"null","450288","HierDy6v2wvcjj","sub23","11","03","feedback","test","null","","","na","","235","",""
"1760","452049","HierDy6v2wvcjj","sub23","11","03","rl","test","75","img/p_s_dots.png","7","75","shape,color,pattern","236","1",""
"null","453051","HierDy6v2wvcjj","sub23","11","03","feedback","test","null","","","na","","236","",""
"1276.0000000000582","454328","HierDy6v2wvcjj","sub23","11","03","rl","test","74","img/o_s_diag.png","6","74","shape,color,pattern","237","1",""
"null","455329","HierDy6v2wvcjj","sub23","11","03","feedback","test","null","","","na","","237","",""
"806","456136","HierDy6v2wvcjj","sub23","11","03","rl","test","72","img/o_s_dots.png","5","72","shape,color,pattern","238","1",""
"null","457138","HierDy6v2wvcjj","sub23","11","03","feedback","test","null","","","na","","238","",""
"784","457923","HierDy6v2wvcjj","sub23","11","03","rl","test","70","img/p_c_diag.png","4","70","shape,color,pattern","239","1",""
"null","458925","HierDy6v2wvcjj","sub23","11","03","feedback","test","null","","","na","","239","",""
"1445","460372","HierDy6v2wvcjj","sub23","11","03","rl","test","70","img/p_c_dots.png","3","68","shape,color,pattern","240","0",""
"null","461373","HierDy6v2wvcjj","sub23","11","03","feedback","test","null","","","na","","240","",""
"1077.9999999999418","462451","HierDy6v2wvcjj","sub23","11","03","rl","test","76","img/p_s_diag.png","8","76","shape,color,pattern","241","1",""
"null","463452","HierDy6v2wvcjj","sub23","11","03","feedback","test","null","","","na","","241","",""
"1327","464780","HierDy6v2wvcjj","sub23","11","03","rl","test","74","img/p_s_dots.png","7","75","shape,color,pattern","242","0",""
"null","465782","HierDy6v2wvcjj","sub23","11","03","feedback","test","null","","","na","","242","",""
"1155","466937","HierDy6v2wvcjj","sub23","11","03","rl","test","68","img/p_c_dots.png","3","68","shape,color,pattern","243","1",""
"null","467939","HierDy6v2wvcjj","sub23","11","03","feedback","test","null","","","na","","243","",""
"878.9999999999418","468819","HierDy6v2wvcjj","sub23","11","03","rl","test","74","img/o_s_diag.png","6","74","shape,color,pattern","244","1",""
"null","469820","HierDy6v2wvcjj","sub23","11","03","feedback","test","null","","","na","","244","",""
"891","470712","HierDy6v2wvcjj","sub23","11","03","rl","test","70","img/p_c_diag.png","4","70","shape,color,pattern","245","1",""
"null","471713","HierDy6v2wvcjj","sub23","11","03","feedback","test","null","","","na","","245","",""
"640.9999999999418","472355","HierDy6v2wvcjj","sub23","11","03","rl","test","72","img/o_c_dots.png","1","65","shape,color,pattern","246","0",""
"null","473357","HierDy6v2wvcjj","sub23","11","03","feedback","test","null","","","na","","246","",""
"624","473981","HierDy6v2wvcjj","sub23","11","03","rl","test","72","img/o_s_dots.png","5","72","shape,color,pattern","247","1",""
"null","474983","HierDy6v2wvcjj","sub23","11","03","feedback","test","null","","","na","","247","",""
"1286","476270","HierDy6v2wvcjj","sub23","11","03","rl","test","83","img/o_c_diag.png","2","83","shape,color,pattern","248","1",""
"null","477271","HierDy6v2wvcjj","sub23","11","03","feedback","test","null","","","na","","248","",""
"22798","500089","HierDy6v2wvcjj","sub23","11","03","","","","","","","","","","{""Q0"":""8""}"
"4946","505042","HierDy6v2wvcjj","sub23","11","03","","","","","","","","","","{""Q0"":""None""}"
"2333","507376","HierDy6v2wvcjj","sub23","11","03","","","","","","","","","",""
