"rt","time_elapsed","subject","subID","group","day","trialType","phase","key_press","stim","stimNum","corrresp","hierarchy","trialNum","corr","responses"
"6332","6335","HierDyw2wz7uqq","sub23","11","07","","","","","","","","","",""
"","8958","HierDyw2wz7uqq","sub23","11","07","fullscreen","","","","","","","","",""
"4867","13825","HierDyw2wz7uqq","sub23","11","07","","prac","","","","","","","",""
"510","14339","HierDyw2wz7uqq","sub23","11","07","","","32","","","","","","",""
"362","14703","HierDyw2wz7uqq","sub23","11","07","","prac","","","","","","","",""
"939","15645","HierDyw2wz7uqq","sub23","11","07","rl","test","70","img/p_c_diag.png","4","70","shape,color,pattern","1","1",""
"null","16649","HierDyw2wz7uqq","sub23","11","07","feedback","test","null","","","na","","1","",""
"726","17377","HierDyw2wz7uqq","sub23","11","07","rl","test","74","img/o_s_diag.png","6","74","shape,color,pattern","2","1",""
"null","18379","HierDyw2wz7uqq","sub23","11","07","feedback","test","null","","","na","","2","",""
"782","19164","HierDyw2wz7uqq","sub23","11","07","rl","test","72","img/o_s_dots.png","5","72","shape,color,pattern","3","1",""
"null","20168","HierDyw2wz7uqq","sub23","11","07","feedback","test","null","","","na","","3","",""
"800","20970","HierDyw2wz7uqq","sub23","11","07","rl","test","83","img/o_c_diag.png","2","83","shape,color,pattern","4","1",""
"null","21973","HierDyw2wz7uqq","sub23","11","07","feedback","test","null","","","na","","4","",""
"667.9999999999964","22643","HierDyw2wz7uqq","sub23","11","07","rl","test","65","img/o_c_dots.png","1","65","shape,color,pattern","5","1",""
"null","23645","HierDyw2wz7uqq","sub23","11","07","feedback","test","null","","","na","","5","",""
"790","24437","HierDyw2wz7uqq","sub23","11","07","rl","test","75","img/p_s_dots.png","7","75","shape,color,pattern","6","1",""
"null","25440","HierDyw2wz7uqq","sub23","11","07","feedback","test","null","","","na","","6","",""
"682","26125","HierDyw2wz7uqq","sub23","11","07","rl","test","83","img/o_c_diag.png","2","83","shape,color,pattern","7","1",""
"null","27127","HierDyw2wz7uqq","sub23","11","07","feedback","test","null","","","na","","7","",""
"951","28081","HierDyw2wz7uqq","sub23","11","07","rl","test","68","img/p_c_dots.png","3","68","shape,color,pattern","8","1",""
"null","29084","HierDyw2wz7uqq","sub23","11","07","feedback","test","null","","","na","","8","",""
"704","29790","HierDyw2wz7uqq","sub23","11","07","rl","test","76","img/p_s_diag.png","8","76","shape,color,pattern","9","1",""
"null","30792","HierDyw2wz7uqq","sub23","11","07","feedback","test","null","","","na","","9","",""
"623","31418","HierDyw2wz7uqq","sub23","11","07","rl","test","76","img/p_s_diag.png","8","76","shape,color,pattern","10","1",""
"null","32421","HierDyw2wz7uqq","sub23","11","07","feedback","test","null","","","na","","10","",""
"738.0000000000073","33160","HierDyw2wz7uqq","sub23","11","07","rl","test","72","img/o_s_dots.png","5","72","shape,color,pattern","11","1",""
"null","34163","HierDyw2wz7uqq","sub23","11","07","feedback","test","null","","","na","","11","",""
"803.0000000000073","34969","HierDyw2wz7uqq","sub23","11","07","rl","test","70","img/p_c_diag.png","4","70","shape,color,pattern","12","1",""
"null","35971","HierDyw2wz7uqq","sub23","11","07","feedback","test","null","","","na","","12","",""
"839","36813","HierDyw2wz7uqq","sub23","11","07","rl","test","68","img/p_c_dots.png","3","68","shape,color,pattern","13","1",""
"null","37815","HierDyw2wz7uqq","sub23","11","07","feedback","test","null","","","na","","13","",""
"768.0000000000073","38584","HierDyw2wz7uqq","sub23","11","07","rl","test","75","img/p_s_dots.png","7","75","shape,color,pattern","14","1",""
"null","39586","HierDyw2wz7uqq","sub23","11","07","feedback","test","null","","","na","","14","",""
"1008.0000000000073","40597","HierDyw2wz7uqq","sub23","11","07","rl","test","74","img/o_s_diag.png","6","74","shape,color,pattern","15","1",""
"null","41599","HierDyw2wz7uqq","sub23","11","07","feedback","test","null","","","na","","15","",""
"804.0000000000073","42404","HierDyw2wz7uqq","sub23","11","07","rl","test","65","img/o_c_dots.png","1","65","shape,color,pattern","16","1",""
"null","43406","HierDyw2wz7uqq","sub23","11","07","feedback","test","null","","","na","","16","",""
"687","44095","HierDyw2wz7uqq","sub23","11","07","rl","test","74","img/o_s_diag.png","6","74","shape,color,pattern","17","1",""
"null","45098","HierDyw2wz7uqq","sub23","11","07","feedback","test","null","","","na","","17","",""
"882.9999999999927","45982","HierDyw2wz7uqq","sub23","11","07","rl","test","70","img/p_c_diag.png","4","70","shape,color,pattern","18","1",""
"null","46984","HierDyw2wz7uqq","sub23","11","07","feedback","test","null","","","na","","18","",""
"761","47746","HierDyw2wz7uqq","sub23","11","07","rl","test","83","img/o_c_diag.png","2","83","shape,color,pattern","19","1",""
"null","48749","HierDyw2wz7uqq","sub23","11","07","feedback","test","null","","","na","","19","",""
"698","49448","HierDyw2wz7uqq","sub23","11","07","rl","test","65","img/o_c_dots.png","1","65","shape,color,pattern","20","1",""
"null","50451","HierDyw2wz7uqq","sub23","11","07","feedback","test","null","","","na","","20","",""
"1077.0000000000073","51531","HierDyw2wz7uqq","sub23","11","07","rl","test","72","img/o_s_dots.png","5","72","shape,color,pattern","21","1",""
"null","52533","HierDyw2wz7uqq","sub23","11","07","feedback","test","null","","","na","","21","",""
"819","53353","HierDyw2wz7uqq","sub23","11","07","rl","test","68","img/p_c_dots.png","3","68","shape,color,pattern","22","1",""
"null","54356","HierDyw2wz7uqq","sub23","11","07","feedback","test","null","","","na","","22","",""
"775","55132","HierDyw2wz7uqq","sub23","11","07","rl","test","75","img/p_s_dots.png","7","75","shape,color,pattern","23","1",""
"null","56133","HierDyw2wz7uqq","sub23","11","07","feedback","test","null","","","na","","23","",""
"733","56868","HierDyw2wz7uqq","sub23","11","07","rl","test","76","img/p_s_diag.png","8","76","shape,color,pattern","24","1",""
"null","57871","HierDyw2wz7uqq","sub23","11","07","feedback","test","null","","","na","","24","",""
"1029.0000000000073","58901","HierDyw2wz7uqq","sub23","11","07","rl","test","76","img/p_s_diag.png","8","76","shape,color,pattern","25","1",""
"null","59903","HierDyw2wz7uqq","sub23","11","07","feedback","test","null","","","na","","25","",""
"640","60544","HierDyw2wz7uqq","sub23","11","07","rl","test","83","img/o_c_diag.png","2","83","shape,color,pattern","26","1",""
"null","61546","HierDyw2wz7uqq","sub23","11","07","feedback","test","null","","","na","","26","",""
"687.9999999999854","62237","HierDyw2wz7uqq","sub23","11","07","rl","test","76","img/p_s_diag.png","8","76","shape,color,pattern","27","1",""
"null","63241","HierDyw2wz7uqq","sub23","11","07","feedback","test","null","","","na","","27","",""
"795","64038","HierDyw2wz7uqq","sub23","11","07","rl","test","68","img/p_c_dots.png","3","68","shape,color,pattern","28","1",""
"null","65041","HierDyw2wz7uqq","sub23","11","07","feedback","test","null","","","na","","28","",""
"731","65774","HierDyw2wz7uqq","sub23","11","07","rl","test","70","img/p_c_diag.png","4","70","shape,color,pattern","29","1",""
"null","66777","HierDyw2wz7uqq","sub23","11","07","feedback","test","null","","","na","","29","",""
"745","67524","HierDyw2wz7uqq","sub23","11","07","rl","test","75","img/p_s_dots.png","7","75","shape,color,pattern","30","1",""
"null","68527","HierDyw2wz7uqq","sub23","11","07","feedback","test","null","","","na","","30","",""
"1090","69619","HierDyw2wz7uqq","sub23","11","07","rl","test","74","img/o_s_diag.png","6","74","shape,color,pattern","31","1",""
"null","70622","HierDyw2wz7uqq","sub23","11","07","feedback","test","null","","","na","","31","",""
"625","71249","HierDyw2wz7uqq","sub23","11","07","rl","test","65","img/o_c_dots.png","1","65","shape,color,pattern","32","1",""
"null","72251","HierDyw2wz7uqq","sub23","11","07","feedback","test","null","","","na","","32","",""
"941","73193","HierDyw2wz7uqq","sub23","11","07","rl","test","75","img/p_s_dots.png","7","75","shape,color,pattern","33","1",""
"null","74196","HierDyw2wz7uqq","sub23","11","07","feedback","test","null","","","na","","33","",""
"947","75146","HierDyw2wz7uqq","sub23","11","07","rl","test","72","img/o_s_dots.png","5","72","shape,color,pattern","34","1",""
"null","76148","HierDyw2wz7uqq","sub23","11","07","feedback","test","null","","","na","","34","",""
"825","76976","HierDyw2wz7uqq","sub23","11","07","rl","test","65","img/o_c_dots.png","1","65","shape,color,pattern","35","1",""
"null","77979","HierDyw2wz7uqq","sub23","11","07","feedback","test","null","","","na","","35","",""
"1001","78981","HierDyw2wz7uqq","sub23","11","07","rl","test","74","img/o_s_diag.png","6","74","shape,color,pattern","36","1",""
"null","79984","HierDyw2wz7uqq","sub23","11","07","feedback","test","null","","","na","","36","",""
"642","80628","HierDyw2wz7uqq","sub23","11","07","rl","test","70","img/p_c_diag.png","4","70","shape,color,pattern","37","1",""
"null","81631","HierDyw2wz7uqq","sub23","11","07","feedback","test","null","","","na","","37","",""
"872","82506","HierDyw2wz7uqq","sub23","11","07","rl","test","72","img/o_s_dots.png","5","72","shape,color,pattern","38","1",""
"null","83509","HierDyw2wz7uqq","sub23","11","07","feedback","test","null","","","na","","38","",""
"658","84169","HierDyw2wz7uqq","sub23","11","07","rl","test","70","img/p_c_diag.png","4","70","shape,color,pattern","39","1",""
"null","85172","HierDyw2wz7uqq","sub23","11","07","feedback","test","null","","","na","","39","",""
"734","85908","HierDyw2wz7uqq","sub23","11","07","rl","test","83","img/o_c_diag.png","2","83","shape,color,pattern","40","1",""
"null","86912","HierDyw2wz7uqq","sub23","11","07","feedback","test","null","","","na","","40","",""
"1102","88015","HierDyw2wz7uqq","sub23","11","07","rl","test","68","img/p_c_dots.png","3","68","shape,color,pattern","41","1",""
"null","89018","HierDyw2wz7uqq","sub23","11","07","feedback","test","null","","","na","","41","",""
"1032","90051","HierDyw2wz7uqq","sub23","11","07","rl","test","76","img/p_s_diag.png","8","76","shape,color,pattern","42","1",""
"null","91054","HierDyw2wz7uqq","sub23","11","07","feedback","test","null","","","na","","42","",""
"743.9999999999854","91802","HierDyw2wz7uqq","sub23","11","07","rl","test","75","img/p_s_dots.png","7","75","shape,color,pattern","43","1",""
"null","92804","HierDyw2wz7uqq","sub23","11","07","feedback","test","null","","","na","","43","",""
"848","93654","HierDyw2wz7uqq","sub23","11","07","rl","test","74","img/o_s_diag.png","6","74","shape,color,pattern","44","1",""
"null","94656","HierDyw2wz7uqq","sub23","11","07","feedback","test","null","","","na","","44","",""
"599","95258","HierDyw2wz7uqq","sub23","11","07","rl","test","65","img/o_c_dots.png","1","65","shape,color,pattern","45","1",""
"null","96261","HierDyw2wz7uqq","sub23","11","07","feedback","test","null","","","na","","45","",""
"686","96948","HierDyw2wz7uqq","sub23","11","07","rl","test","65","img/o_c_dots.png","1","65","shape,color,pattern","46","1",""
"null","97951","HierDyw2wz7uqq","sub23","11","07","feedback","test","null","","","na","","46","",""
"881","98835","HierDyw2wz7uqq","sub23","11","07","rl","test","72","img/o_s_dots.png","5","72","shape,color,pattern","47","1",""
"null","99838","HierDyw2wz7uqq","sub23","11","07","feedback","test","null","","","na","","47","",""
"1003","100842","HierDyw2wz7uqq","sub23","11","07","rl","test","68","img/p_c_dots.png","3","68","shape,color,pattern","48","1",""
"null","101845","HierDyw2wz7uqq","sub23","11","07","feedback","test","null","","","na","","48","",""
"727","102574","HierDyw2wz7uqq","sub23","11","07","rl","test","83","img/o_c_diag.png","2","83","shape,color,pattern","49","1",""
"null","103577","HierDyw2wz7uqq","sub23","11","07","feedback","test","null","","","na","","49","",""
"1317","104896","HierDyw2wz7uqq","sub23","11","07","rl","test","68","img/p_c_dots.png","3","68","shape,color,pattern","50","1",""
"null","105899","HierDyw2wz7uqq","sub23","11","07","feedback","test","null","","","na","","50","",""
"778.0000000000146","106680","HierDyw2wz7uqq","sub23","11","07","rl","test","72","img/o_s_dots.png","5","72","shape,color,pattern","51","1",""
"null","107683","HierDyw2wz7uqq","sub23","11","07","feedback","test","null","","","na","","51","",""
"795","108481","HierDyw2wz7uqq","sub23","11","07","rl","test","83","img/o_c_diag.png","2","83","shape,color,pattern","52","1",""
"null","109484","HierDyw2wz7uqq","sub23","11","07","feedback","test","null","","","na","","52","",""
"656","110141","HierDyw2wz7uqq","sub23","11","07","rl","test","70","img/p_c_diag.png","4","70","shape,color,pattern","53","1",""
"null","111143","HierDyw2wz7uqq","sub23","11","07","feedback","test","null","","","na","","53","",""
"895","112040","HierDyw2wz7uqq","sub23","11","07","rl","test","76","img/p_s_diag.png","8","76","shape,color,pattern","54","1",""
"null","113043","HierDyw2wz7uqq","sub23","11","07","feedback","test","null","","","na","","54","",""
"1209","114255","HierDyw2wz7uqq","sub23","11","07","rl","test","74","img/o_s_diag.png","6","74","shape,color,pattern","55","1",""
"null","115257","HierDyw2wz7uqq","sub23","11","07","feedback","test","null","","","na","","55","",""
"1074.0000000000146","116334","HierDyw2wz7uqq","sub23","11","07","rl","test","74","img/o_s_diag.png","6","74","shape,color,pattern","56","1",""
"null","117337","HierDyw2wz7uqq","sub23","11","07","feedback","test","null","","","na","","56","",""
"705","118044","HierDyw2wz7uqq","sub23","11","07","rl","test","83","img/o_c_diag.png","2","83","shape,color,pattern","57","1",""
"null","119047","HierDyw2wz7uqq","sub23","11","07","feedback","test","null","","","na","","57","",""
"915","119964","HierDyw2wz7uqq","sub23","11","07","rl","test","75","img/p_s_dots.png","7","75","shape,color,pattern","58","1",""
"null","120967","HierDyw2wz7uqq","sub23","11","07","feedback","test","null","","","na","","58","",""
"813.9999999999854","121785","HierDyw2wz7uqq","sub23","11","07","rl","test","70","img/p_c_diag.png","4","70","shape,color,pattern","59","1",""
"null","122788","HierDyw2wz7uqq","sub23","11","07","feedback","test","null","","","na","","59","",""
"1396","124187","HierDyw2wz7uqq","sub23","11","07","rl","test","68","img/p_c_dots.png","3","68","shape,color,pattern","60","1",""
"null","125190","HierDyw2wz7uqq","sub23","11","07","feedback","test","null","","","na","","60","",""
"651.9999999999854","125846","HierDyw2wz7uqq","sub23","11","07","rl","test","65","img/o_c_dots.png","1","65","shape,color,pattern","61","1",""
"null","126849","HierDyw2wz7uqq","sub23","11","07","feedback","test","null","","","na","","61","",""
"794.0000000000146","127645","HierDyw2wz7uqq","sub23","11","07","rl","test","76","img/p_s_diag.png","8","76","shape,color,pattern","62","1",""
"null","128647","HierDyw2wz7uqq","sub23","11","07","feedback","test","null","","","na","","62","",""
"804","129454","HierDyw2wz7uqq","sub23","11","07","rl","test","65","img/o_c_dots.png","1","65","shape,color,pattern","63","1",""
"null","130456","HierDyw2wz7uqq","sub23","11","07","feedback","test","null","","","na","","63","",""
"762","131221","HierDyw2wz7uqq","sub23","11","07","rl","test","72","img/o_s_dots.png","5","72","shape,color,pattern","64","1",""
"null","132224","HierDyw2wz7uqq","sub23","11","07","feedback","test","null","","","na","","64","",""
"797","133022","HierDyw2wz7uqq","sub23","11","07","rl","test","75","img/p_s_dots.png","7","75","shape,color,pattern","65","1",""
"null","134024","HierDyw2wz7uqq","sub23","11","07","feedback","test","null","","","na","","65","",""
"1100","135126","HierDyw2wz7uqq","sub23","11","07","rl","test","68","img/p_c_dots.png","3","68","shape,color,pattern","66","1",""
"null","136129","HierDyw2wz7uqq","sub23","11","07","feedback","test","null","","","na","","66","",""
"950","137081","HierDyw2wz7uqq","sub23","11","07","rl","test","72","img/o_s_dots.png","5","72","shape,color,pattern","67","1",""
"null","138083","HierDyw2wz7uqq","sub23","11","07","feedback","test","null","","","na","","67","",""
"801.0000000000291","138886","HierDyw2wz7uqq","sub23","11","07","rl","test","83","img/o_c_diag.png","2","83","shape,color,pattern","68","1",""
"null","139889","HierDyw2wz7uqq","sub23","11","07","feedback","test","null","","","na","","68","",""
"833","140724","HierDyw2wz7uqq","sub23","11","07","rl","test","75","img/p_s_dots.png","7","75","shape,color,pattern","69","1",""
"null","141727","HierDyw2wz7uqq","sub23","11","07","feedback","test","null","","","na","","69","",""
"753","142483","HierDyw2wz7uqq","sub23","11","07","rl","test","74","img/o_s_diag.png","6","74","shape,color,pattern","70","1",""
"null","143486","HierDyw2wz7uqq","sub23","11","07","feedback","test","null","","","na","","70","",""
"631","144119","HierDyw2wz7uqq","sub23","11","07","rl","test","70","img/p_c_diag.png","4","70","shape,color,pattern","71","1",""
"null","145122","HierDyw2wz7uqq","sub23","11","07","feedback","test","null","","","na","","71","",""
"675","145800","HierDyw2wz7uqq","sub23","11","07","rl","test","72","img/o_s_dots.png","5","72","shape,color,pattern","72","1",""
"null","146802","HierDyw2wz7uqq","sub23","11","07","feedback","test","null","","","na","","72","",""
"887","147691","HierDyw2wz7uqq","sub23","11","07","rl","test","76","img/p_s_diag.png","8","76","shape,color,pattern","73","1",""
"null","148695","HierDyw2wz7uqq","sub23","11","07","feedback","test","null","","","na","","73","",""
"602","149301","HierDyw2wz7uqq","sub23","11","07","rl","test","76","img/p_s_diag.png","8","76","shape,color,pattern","74","1",""
"null","150304","HierDyw2wz7uqq","sub23","11","07","feedback","test","null","","","na","","74","",""
"697","151004","HierDyw2wz7uqq","sub23","11","07","rl","test","70","img/p_c_diag.png","4","70","shape,color,pattern","75","1",""
"null","152007","HierDyw2wz7uqq","sub23","11","07","feedback","test","null","","","na","","75","",""
"775.0000000000291","152785","HierDyw2wz7uqq","sub23","11","07","rl","test","74","img/o_s_diag.png","6","74","shape,color,pattern","76","1",""
"null","153788","HierDyw2wz7uqq","sub23","11","07","feedback","test","null","","","na","","76","",""
"638.0000000000291","154427","HierDyw2wz7uqq","sub23","11","07","rl","test","75","img/p_s_dots.png","7","75","shape,color,pattern","77","1",""
"null","155430","HierDyw2wz7uqq","sub23","11","07","feedback","test","null","","","na","","77","",""
"799","156232","HierDyw2wz7uqq","sub23","11","07","rl","test","65","img/o_c_dots.png","1","65","shape,color,pattern","78","1",""
"null","157233","HierDyw2wz7uqq","sub23","11","07","feedback","test","null","","","na","","78","",""
"null","159736","HierDyw2wz7uqq","sub23","11","07","rl","test","null","img/p_c_dots.png","3","68","shape,color,pattern","79","0",""
"null","160738","HierDyw2wz7uqq","sub23","11","07","feedback","test","null","","","na","","79","",""
"null","163240","HierDyw2wz7uqq","sub23","11","07","rl","test","null","img/o_c_diag.png","2","83","shape,color,pattern","80","0",""
"null","164242","HierDyw2wz7uqq","sub23","11","07","feedback","test","null","","","na","","80","",""
"null","166775","HierDyw2wz7uqq","sub23","11","07","rl","test","null","img/p_s_diag.png","8","76","shape,color,pattern","81","0",""
"null","167795","HierDyw2wz7uqq","sub23","11","07","feedback","test","null","","","na","","81","",""
"1128.999999999971","168925","HierDyw2wz7uqq","sub23","11","07","rl","test","72","img/o_s_dots.png","5","72","shape,color,pattern","82","1",""
"null","169927","HierDyw2wz7uqq","sub23","11","07","feedback","test","null","","","na","","82","",""
"1243","171172","HierDyw2wz7uqq","sub23","11","07","rl","test","65","img/o_c_dots.png","1","65","shape,color,pattern","83","1",""
"null","172175","HierDyw2wz7uqq","sub23","11","07","feedback","test","null","","","na","","83","",""
"1214","173391","HierDyw2wz7uqq","sub23","11","07","rl","test","70","img/p_c_diag.png","4","70","shape,color,pattern","84","1",""
"null","174393","HierDyw2wz7uqq","sub23","11","07","feedback","test","null","","","na","","84","",""
"587","174982","HierDyw2wz7uqq","sub23","11","07","rl","test","83","img/o_c_diag.png","2","83","shape,color,pattern","85","1",""
"null","175984","HierDyw2wz7uqq","sub23","11","07","feedback","test","null","","","na","","85","",""
"1068","177054","HierDyw2wz7uqq","sub23","11","07","rl","test","74","img/o_s_diag.png","6","74","shape,color,pattern","86","1",""
"null","178057","HierDyw2wz7uqq","sub23","11","07","feedback","test","null","","","na","","86","",""
"1270","179329","HierDyw2wz7uqq","sub23","11","07","rl","test","68","img/p_c_dots.png","3","68","shape,color,pattern","87","1",""
"null","180332","HierDyw2wz7uqq","sub23","11","07","feedback","test","null","","","na","","87","",""
"1186","181520","HierDyw2wz7uqq","sub23","11","07","rl","test","74","img/o_s_diag.png","6","74","shape,color,pattern","88","1",""
"null","182524","HierDyw2wz7uqq","sub23","11","07","feedback","test","null","","","na","","88","",""
"null","185027","HierDyw2wz7uqq","sub23","11","07","rl","test","null","img/p_s_dots.png","7","75","shape,color,pattern","89","0",""
"null","186029","HierDyw2wz7uqq","sub23","11","07","feedback","test","null","","","na","","89","",""
"null","188532","HierDyw2wz7uqq","sub23","11","07","rl","test","null","img/p_c_dots.png","3","68","shape,color,pattern","90","0",""
"null","189534","HierDyw2wz7uqq","sub23","11","07","feedback","test","null","","","na","","90","",""
"null","192415","HierDyw2wz7uqq","sub23","11","07","rl","test","null","img/o_c_diag.png","2","83","shape,color,pattern","91","0",""
"null","194118","HierDyw2wz7uqq","sub23","11","07","feedback","test","null","","","na","","91","",""
"null","196625","HierDyw2wz7uqq","sub23","11","07","rl","test","null","img/p_s_diag.png","8","76","shape,color,pattern","92","0",""
"null","197646","HierDyw2wz7uqq","sub23","11","07","feedback","test","null","","","na","","92","",""
"579","198236","HierDyw2wz7uqq","sub23","11","07","rl","test","75","img/p_s_dots.png","7","75","shape,color,pattern","93","1",""
"null","199239","HierDyw2wz7uqq","sub23","11","07","feedback","test","null","","","na","","93","",""
"716.0000000000291","199957","HierDyw2wz7uqq","sub23","11","07","rl","test","75","img/p_s_dots.png","7","75","shape,color,pattern","94","1",""
"null","200960","HierDyw2wz7uqq","sub23","11","07","feedback","test","null","","","na","","94","",""
"595","201557","HierDyw2wz7uqq","sub23","11","07","rl","test","72","img/o_s_dots.png","5","72","shape,color,pattern","95","1",""
"null","202561","HierDyw2wz7uqq","sub23","11","07","feedback","test","null","","","na","","95","",""
"711","203273","HierDyw2wz7uqq","sub23","11","07","rl","test","70","img/p_c_diag.png","4","70","shape,color,pattern","96","1",""
"null","204277","HierDyw2wz7uqq","sub23","11","07","feedback","test","null","","","na","","96","",""
"661","204940","HierDyw2wz7uqq","sub23","11","07","rl","test","65","img/o_c_dots.png","1","65","shape,color,pattern","97","1",""
"null","205943","HierDyw2wz7uqq","sub23","11","07","feedback","test","null","","","na","","97","",""
"848.9999999999709","206794","HierDyw2wz7uqq","sub23","11","07","rl","test","72","img/o_s_dots.png","5","72","shape,color,pattern","98","1",""
"null","207797","HierDyw2wz7uqq","sub23","11","07","feedback","test","null","","","na","","98","",""
"587","208388","HierDyw2wz7uqq","sub23","11","07","rl","test","70","img/p_c_dots.png","3","68","shape,color,pattern","99","0",""
"null","209391","HierDyw2wz7uqq","sub23","11","07","feedback","test","null","","","na","","99","",""
"1294","210687","HierDyw2wz7uqq","sub23","11","07","rl","test","72","img/o_c_dots.png","1","65","shape,color,pattern","100","0",""
"null","211690","HierDyw2wz7uqq","sub23","11","07","feedback","test","null","","","na","","100","",""
"701","212394","HierDyw2wz7uqq","sub23","11","07","rl","test","68","img/p_c_dots.png","3","68","shape,color,pattern","101","1",""
"null","213397","HierDyw2wz7uqq","sub23","11","07","feedback","test","null","","","na","","101","",""
"714","214114","HierDyw2wz7uqq","sub23","11","07","rl","test","74","img/o_s_diag.png","6","74","shape,color,pattern","102","1",""
"null","215116","HierDyw2wz7uqq","sub23","11","07","feedback","test","null","","","na","","102","",""
"625","215743","HierDyw2wz7uqq","sub23","11","07","rl","test","70","img/p_c_diag.png","4","70","shape,color,pattern","103","1",""
"null","216746","HierDyw2wz7uqq","sub23","11","07","feedback","test","null","","","na","","103","",""
"589.0000000000291","217338","HierDyw2wz7uqq","sub23","11","07","rl","test","70","img/p_c_diag.png","4","70","shape,color,pattern","104","1",""
"null","218341","HierDyw2wz7uqq","sub23","11","07","feedback","test","null","","","na","","104","",""
"528","218871","HierDyw2wz7uqq","sub23","11","07","rl","test","83","img/o_c_diag.png","2","83","shape,color,pattern","105","1",""
"null","219873","HierDyw2wz7uqq","sub23","11","07","feedback","test","null","","","na","","105","",""
"1254","221130","HierDyw2wz7uqq","sub23","11","07","rl","test","65","img/o_c_dots.png","1","65","shape,color,pattern","106","1",""
"null","222133","HierDyw2wz7uqq","sub23","11","07","feedback","test","null","","","na","","106","",""
"744","222879","HierDyw2wz7uqq","sub23","11","07","rl","test","76","img/p_s_diag.png","8","76","shape,color,pattern","107","1",""
"null","223882","HierDyw2wz7uqq","sub23","11","07","feedback","test","null","","","na","","107","",""
"622","224505","HierDyw2wz7uqq","sub23","11","07","rl","test","76","img/p_s_diag.png","8","76","shape,color,pattern","108","1",""
"null","225509","HierDyw2wz7uqq","sub23","11","07","feedback","test","null","","","na","","108","",""
"844.0000000000291","226356","HierDyw2wz7uqq","sub23","11","07","rl","test","75","img/p_s_dots.png","7","75","shape,color,pattern","109","1",""
"null","227358","HierDyw2wz7uqq","sub23","11","07","feedback","test","null","","","na","","109","",""
"899.0000000000291","228260","HierDyw2wz7uqq","sub23","11","07","rl","test","83","img/o_c_diag.png","2","83","shape,color,pattern","110","1",""
"null","229263","HierDyw2wz7uqq","sub23","11","07","feedback","test","null","","","na","","110","",""
"1195","230459","HierDyw2wz7uqq","sub23","11","07","rl","test","74","img/o_s_diag.png","6","74","shape,color,pattern","111","1",""
"null","231463","HierDyw2wz7uqq","sub23","11","07","feedback","test","null","","","na","","111","",""
"1126","232593","HierDyw2wz7uqq","sub23","11","07","rl","test","70","img/p_c_diag.png","4","70","shape,color,pattern","112","1",""
"null","233596","HierDyw2wz7uqq","sub23","11","07","feedback","test","null","","","na","","112","",""
"596.0000000000291","234194","HierDyw2wz7uqq","sub23","11","07","rl","test","72","img/o_s_dots.png","5","72","shape,color,pattern","113","1",""
"null","235197","HierDyw2wz7uqq","sub23","11","07","feedback","test","null","","","na","","113","",""
"1151","236350","HierDyw2wz7uqq","sub23","11","07","rl","test","68","img/p_c_dots.png","3","68","shape,color,pattern","114","1",""
"null","237353","HierDyw2wz7uqq","sub23","11","07","feedback","test","null","","","na","","114","",""
"637.9999999999709","237993","HierDyw2wz7uqq","sub23","11","07","rl","test","74","img/o_s_diag.png","6","74","shape,color,pattern","115","1",""
"null","238996","HierDyw2wz7uqq","sub23","11","07","feedback","test","null","","","na","","115","",""
"994","239993","HierDyw2wz7uqq","sub23","11","07","rl","test","75","img/p_s_dots.png","7","75","shape,color,pattern","116","1",""
"null","240996","HierDyw2wz7uqq","sub23","11","07","feedback","test","null","","","na","","116","",""
"903","241901","HierDyw2wz7uqq","sub23","11","07","rl","test","65","img/o_c_dots.png","1","65","shape,color,pattern","117","1",""
"null","242904","HierDyw2wz7uqq","sub23","11","07","feedback","test","null","","","na","","117","",""
"1283","244189","HierDyw2wz7uqq","sub23","11","07","rl","test","76","img/p_s_diag.png","8","76","shape,color,pattern","118","1",""
"null","245192","HierDyw2wz7uqq","sub23","11","07","feedback","test","null","","","na","","118","",""
"1961","247156","HierDyw2wz7uqq","sub23","11","07","rl","test","83","img/o_c_diag.png","2","83","shape,color,pattern","119","1",""
"null","248158","HierDyw2wz7uqq","sub23","11","07","feedback","test","null","","","na","","119","",""
"974.0000000000291","249134","HierDyw2wz7uqq","sub23","11","07","rl","test","75","img/p_s_diag.png","8","76","shape,color,pattern","120","0",""
"null","250136","HierDyw2wz7uqq","sub23","11","07","feedback","test","null","","","na","","120","",""
"651.0000000000291","250789","HierDyw2wz7uqq","sub23","11","07","rl","test","72","img/o_s_dots.png","5","72","shape,color,pattern","121","1",""
"null","251792","HierDyw2wz7uqq","sub23","11","07","feedback","test","null","","","na","","121","",""
"702","252496","HierDyw2wz7uqq","sub23","11","07","rl","test","83","img/o_c_diag.png","2","83","shape,color,pattern","122","1",""
"null","253499","HierDyw2wz7uqq","sub23","11","07","feedback","test","null","","","na","","122","",""
"1257.999999999971","254758","HierDyw2wz7uqq","sub23","11","07","rl","test","75","img/p_s_dots.png","7","75","shape,color,pattern","123","1",""
"null","255761","HierDyw2wz7uqq","sub23","11","07","feedback","test","null","","","na","","123","",""
"791.9999999999709","256555","HierDyw2wz7uqq","sub23","11","07","rl","test","83","img/p_c_dots.png","3","68","shape,color,pattern","124","0",""
"null","257558","HierDyw2wz7uqq","sub23","11","07","feedback","test","null","","","na","","124","",""
"606","258166","HierDyw2wz7uqq","sub23","11","07","rl","test","72","img/o_s_dots.png","5","72","shape,color,pattern","125","1",""
"null","259169","HierDyw2wz7uqq","sub23","11","07","feedback","test","null","","","na","","125","",""
"731.9999999999709","259903","HierDyw2wz7uqq","sub23","11","07","rl","test","70","img/p_c_diag.png","4","70","shape,color,pattern","126","1",""
"null","260906","HierDyw2wz7uqq","sub23","11","07","feedback","test","null","","","na","","126","",""
"845","261753","HierDyw2wz7uqq","sub23","11","07","rl","test","74","img/o_s_diag.png","6","74","shape,color,pattern","127","1",""
"null","262757","HierDyw2wz7uqq","sub23","11","07","feedback","test","null","","","na","","127","",""
"762","263521","HierDyw2wz7uqq","sub23","11","07","rl","test","65","img/o_c_dots.png","1","65","shape,color,pattern","128","1",""
"null","264524","HierDyw2wz7uqq","sub23","11","07","feedback","test","null","","","na","","128","",""
"1233.0000000000582","265762","HierDyw2wz7uqq","sub23","11","07","rl","test","75","img/p_s_dots.png","7","75","shape,color,pattern","129","1",""
"null","266766","HierDyw2wz7uqq","sub23","11","07","feedback","test","null","","","na","","129","",""
"723","267492","HierDyw2wz7uqq","sub23","11","07","rl","test","65","img/o_c_dots.png","1","65","shape,color,pattern","130","1",""
"null","268496","HierDyw2wz7uqq","sub23","11","07","feedback","test","null","","","na","","130","",""
"1159","269657","HierDyw2wz7uqq","sub23","11","07","rl","test","76","img/p_c_diag.png","4","70","shape,color,pattern","131","0",""
"null","270660","HierDyw2wz7uqq","sub23","11","07","feedback","test","null","","","na","","131","",""
"692","271355","HierDyw2wz7uqq","sub23","11","07","rl","test","74","img/o_s_diag.png","6","74","shape,color,pattern","132","1",""
"null","272358","HierDyw2wz7uqq","sub23","11","07","feedback","test","null","","","na","","132","",""
"749","273110","HierDyw2wz7uqq","sub23","11","07","rl","test","68","img/p_c_dots.png","3","68","shape,color,pattern","133","1",""
"null","274113","HierDyw2wz7uqq","sub23","11","07","feedback","test","null","","","na","","133","",""
"779","274893","HierDyw2wz7uqq","sub23","11","07","rl","test","76","img/p_s_diag.png","8","76","shape,color,pattern","134","1",""
"null","275896","HierDyw2wz7uqq","sub23","11","07","feedback","test","null","","","na","","134","",""
"626.9999999999418","276525","HierDyw2wz7uqq","sub23","11","07","rl","test","83","img/o_c_diag.png","2","83","shape,color,pattern","135","1",""
"null","277529","HierDyw2wz7uqq","sub23","11","07","feedback","test","null","","","na","","135","",""
"718","278249","HierDyw2wz7uqq","sub23","11","07","rl","test","72","img/o_s_dots.png","5","72","shape,color,pattern","136","1",""
"null","279252","HierDyw2wz7uqq","sub23","11","07","feedback","test","null","","","na","","136","",""
"784","280039","HierDyw2wz7uqq","sub23","11","07","rl","test","72","img/o_s_dots.png","5","72","shape,color,pattern","137","1",""
"null","281042","HierDyw2wz7uqq","sub23","11","07","feedback","test","null","","","na","","137","",""
"724","281769","HierDyw2wz7uqq","sub23","11","07","rl","test","83","img/o_c_diag.png","2","83","shape,color,pattern","138","1",""
"null","282775","HierDyw2wz7uqq","sub23","11","07","feedback","test","null","","","na","","138","",""
"770","283547","HierDyw2wz7uqq","sub23","11","07","rl","test","74","img/o_s_diag.png","6","74","shape,color,pattern","139","1",""
"null","284550","HierDyw2wz7uqq","sub23","11","07","feedback","test","null","","","na","","139","",""
"653","285206","HierDyw2wz7uqq","sub23","11","07","rl","test","65","img/o_c_dots.png","1","65","shape,color,pattern","140","1",""
"null","286209","HierDyw2wz7uqq","sub23","11","07","feedback","test","null","","","na","","140","",""
"813","287024","HierDyw2wz7uqq","sub23","11","07","rl","test","75","img/p_c_dots.png","3","68","shape,color,pattern","141","0",""
"null","288027","HierDyw2wz7uqq","sub23","11","07","feedback","test","null","","","na","","141","",""
"760","288788","HierDyw2wz7uqq","sub23","11","07","rl","test","75","img/p_s_dots.png","7","75","shape,color,pattern","142","1",""
"null","289791","HierDyw2wz7uqq","sub23","11","07","feedback","test","null","","","na","","142","",""
"724","290517","HierDyw2wz7uqq","sub23","11","07","rl","test","70","img/p_c_diag.png","4","70","shape,color,pattern","143","1",""
"null","291520","HierDyw2wz7uqq","sub23","11","07","feedback","test","null","","","na","","143","",""
"966","292489","HierDyw2wz7uqq","sub23","11","07","rl","test","83","img/o_c_diag.png","2","83","shape,color,pattern","144","1",""
"null","293492","HierDyw2wz7uqq","sub23","11","07","feedback","test","null","","","na","","144","",""
"592.9999999999418","294087","HierDyw2wz7uqq","sub23","11","07","rl","test","70","img/p_c_diag.png","4","70","shape,color,pattern","145","1",""
"null","295090","HierDyw2wz7uqq","sub23","11","07","feedback","test","null","","","na","","145","",""
"800","295892","HierDyw2wz7uqq","sub23","11","07","rl","test","75","img/p_s_dots.png","7","75","shape,color,pattern","146","1",""
"null","296895","HierDyw2wz7uqq","sub23","11","07","feedback","test","null","","","na","","146","",""
"591","297489","HierDyw2wz7uqq","sub23","11","07","rl","test","76","img/p_s_diag.png","8","76","shape,color,pattern","147","1",""
"null","298492","HierDyw2wz7uqq","sub23","11","07","feedback","test","null","","","na","","147","",""
"569.9999999999418","299065","HierDyw2wz7uqq","sub23","11","07","rl","test","76","img/p_s_diag.png","8","76","shape,color,pattern","148","1",""
"null","300066","HierDyw2wz7uqq","sub23","11","07","feedback","test","null","","","na","","148","",""
"701","300770","HierDyw2wz7uqq","sub23","11","07","rl","test","72","img/o_s_dots.png","5","72","shape,color,pattern","149","1",""
"null","301773","HierDyw2wz7uqq","sub23","11","07","feedback","test","null","","","na","","149","",""
"897.0000000000582","302673","HierDyw2wz7uqq","sub23","11","07","rl","test","65","img/o_c_dots.png","1","65","shape,color,pattern","150","1",""
"null","303676","HierDyw2wz7uqq","sub23","11","07","feedback","test","null","","","na","","150","",""
"864","304543","HierDyw2wz7uqq","sub23","11","07","rl","test","68","img/p_c_dots.png","3","68","shape,color,pattern","151","1",""
"null","305545","HierDyw2wz7uqq","sub23","11","07","feedback","test","null","","","na","","151","",""
"746.9999999999418","306294","HierDyw2wz7uqq","sub23","11","07","rl","test","75","img/p_s_dots.png","7","75","shape,color,pattern","152","1",""
"null","307298","HierDyw2wz7uqq","sub23","11","07","feedback","test","null","","","na","","152","",""
"865","308166","HierDyw2wz7uqq","sub23","11","07","rl","test","74","img/o_s_diag.png","6","74","shape,color,pattern","153","1",""
"null","309169","HierDyw2wz7uqq","sub23","11","07","feedback","test","null","","","na","","153","",""
"674.0000000000582","309845","HierDyw2wz7uqq","sub23","11","07","rl","test","83","img/p_c_dots.png","3","68","shape,color,pattern","154","0",""
"null","310849","HierDyw2wz7uqq","sub23","11","07","feedback","test","null","","","na","","154","",""
"585","311436","HierDyw2wz7uqq","sub23","11","07","rl","test","83","img/o_c_diag.png","2","83","shape,color,pattern","155","1",""
"null","312440","HierDyw2wz7uqq","sub23","11","07","feedback","test","null","","","na","","155","",""
"710","313153","HierDyw2wz7uqq","sub23","11","07","rl","test","72","img/o_s_dots.png","5","72","shape,color,pattern","156","1",""
"null","314156","HierDyw2wz7uqq","sub23","11","07","feedback","test","null","","","na","","156","",""
"880","315039","HierDyw2wz7uqq","sub23","11","07","rl","test","74","img/o_s_diag.png","6","74","shape,color,pattern","157","1",""
"null","316042","HierDyw2wz7uqq","sub23","11","07","feedback","test","null","","","na","","157","",""
"566","316610","HierDyw2wz7uqq","sub23","11","07","rl","test","83","img/o_c_dots.png","1","65","shape,color,pattern","158","0",""
"null","317614","HierDyw2wz7uqq","sub23","11","07","feedback","test","null","","","na","","158","",""
"1034","318650","HierDyw2wz7uqq","sub23","11","07","rl","test","68","img/p_c_dots.png","3","68","shape,color,pattern","159","1",""
"null","319654","HierDyw2wz7uqq","sub23","11","07","feedback","test","null","","","na","","159","",""
"1610","321266","HierDyw2wz7uqq","sub23","11","07","rl","test","75","img/p_c_diag.png","4","70","shape,color,pattern","160","0",""
"null","322270","HierDyw2wz7uqq","sub23","11","07","feedback","test","null","","","na","","160","",""
"1183","323455","HierDyw2wz7uqq","sub23","11","07","rl","test","70","img/p_c_diag.png","4","70","shape,color,pattern","161","1",""
"null","324458","HierDyw2wz7uqq","sub23","11","07","feedback","test","null","","","na","","161","",""
"827","325289","HierDyw2wz7uqq","sub23","11","07","rl","test","76","img/p_s_diag.png","8","76","shape,color,pattern","162","1",""
"null","326292","HierDyw2wz7uqq","sub23","11","07","feedback","test","null","","","na","","162","",""
"1413","327707","HierDyw2wz7uqq","sub23","11","07","rl","test","65","img/o_c_dots.png","1","65","shape,color,pattern","163","1",""
"null","328711","HierDyw2wz7uqq","sub23","11","07","feedback","test","null","","","na","","163","",""
"705","329418","HierDyw2wz7uqq","sub23","11","07","rl","test","83","img/o_c_diag.png","2","83","shape,color,pattern","164","1",""
"null","330421","HierDyw2wz7uqq","sub23","11","07","feedback","test","null","","","na","","164","",""
"1086","331510","HierDyw2wz7uqq","sub23","11","07","rl","test","76","img/p_s_diag.png","8","76","shape,color,pattern","165","1",""
"null","332514","HierDyw2wz7uqq","sub23","11","07","feedback","test","null","","","na","","165","",""
"1692.0000000000582","334208","HierDyw2wz7uqq","sub23","11","07","rl","test","83","img/o_s_diag.png","6","74","shape,color,pattern","166","0",""
"null","335211","HierDyw2wz7uqq","sub23","11","07","feedback","test","null","","","na","","166","",""
"1314","336528","HierDyw2wz7uqq","sub23","11","07","rl","test","74","img/p_s_dots.png","7","75","shape,color,pattern","167","0",""
"null","337532","HierDyw2wz7uqq","sub23","11","07","feedback","test","null","","","na","","167","",""
"870","338404","HierDyw2wz7uqq","sub23","11","07","rl","test","72","img/o_s_dots.png","5","72","shape,color,pattern","168","1",""
"null","339407","HierDyw2wz7uqq","sub23","11","07","feedback","test","null","","","na","","168","",""
"1454.9999999999418","340865","HierDyw2wz7uqq","sub23","11","07","rl","test","75","img/p_s_dots.png","7","75","shape,color,pattern","169","1",""
"null","341868","HierDyw2wz7uqq","sub23","11","07","feedback","test","null","","","na","","169","",""
"857","342727","HierDyw2wz7uqq","sub23","11","07","rl","test","65","img/o_c_dots.png","1","65","shape,color,pattern","170","1",""
"null","343731","HierDyw2wz7uqq","sub23","11","07","feedback","test","null","","","na","","170","",""
"853","344587","HierDyw2wz7uqq","sub23","11","07","rl","test","76","img/p_s_diag.png","8","76","shape,color,pattern","171","1",""
"null","345590","HierDyw2wz7uqq","sub23","11","07","feedback","test","null","","","na","","171","",""
"1087","346678","HierDyw2wz7uqq","sub23","11","07","rl","test","70","img/p_c_diag.png","4","70","shape,color,pattern","172","1",""
"null","347682","HierDyw2wz7uqq","sub23","11","07","feedback","test","null","","","na","","172","",""
"1050","348735","HierDyw2wz7uqq","sub23","11","07","rl","test","83","img/o_c_diag.png","2","83","shape,color,pattern","173","1",""
"null","349738","HierDyw2wz7uqq","sub23","11","07","feedback","test","null","","","na","","173","",""
"1001","350742","HierDyw2wz7uqq","sub23","11","07","rl","test","68","img/p_c_dots.png","3","68","shape,color,pattern","174","1",""
"null","351746","HierDyw2wz7uqq","sub23","11","07","feedback","test","null","","","na","","174","",""
"698","352447","HierDyw2wz7uqq","sub23","11","07","rl","test","72","img/o_s_dots.png","5","72","shape,color,pattern","175","1",""
"null","353450","HierDyw2wz7uqq","sub23","11","07","feedback","test","null","","","na","","175","",""
"1748","355201","HierDyw2wz7uqq","sub23","11","07","rl","test","68","img/p_c_dots.png","3","68","shape,color,pattern","176","1",""
"null","356204","HierDyw2wz7uqq","sub23","11","07","feedback","test","null","","","na","","176","",""
"938","357144","HierDyw2wz7uqq","sub23","11","07","rl","test","83","img/o_c_diag.png","2","83","shape,color,pattern","177","1",""
"null","358148","HierDyw2wz7uqq","sub23","11","07","feedback","test","null","","","na","","177","",""
"1115","359266","HierDyw2wz7uqq","sub23","11","07","rl","test","65","img/o_c_dots.png","1","65","shape,color,pattern","178","1",""
"null","360269","HierDyw2wz7uqq","sub23","11","07","feedback","test","null","","","na","","178","",""
"913","361185","HierDyw2wz7uqq","sub23","11","07","rl","test","74","img/o_s_diag.png","6","74","shape,color,pattern","179","1",""
"null","362189","HierDyw2wz7uqq","sub23","11","07","feedback","test","null","","","na","","179","",""
"971","363162","HierDyw2wz7uqq","sub23","11","07","rl","test","74","img/o_s_diag.png","6","74","shape,color,pattern","180","1",""
"null","364166","HierDyw2wz7uqq","sub23","11","07","feedback","test","null","","","na","","180","",""
"738","364907","HierDyw2wz7uqq","sub23","11","07","rl","test","76","img/p_s_diag.png","8","76","shape,color,pattern","181","1",""
"null","365910","HierDyw2wz7uqq","sub23","11","07","feedback","test","null","","","na","","181","",""
"754.0000000000582","366666","HierDyw2wz7uqq","sub23","11","07","rl","test","75","img/p_s_dots.png","7","75","shape,color,pattern","182","1",""
"null","367670","HierDyw2wz7uqq","sub23","11","07","feedback","test","null","","","na","","182","",""
"726","368399","HierDyw2wz7uqq","sub23","11","07","rl","test","72","img/o_s_dots.png","5","72","shape,color,pattern","183","1",""
"null","369401","HierDyw2wz7uqq","sub23","11","07","feedback","test","null","","","na","","183","",""
"725","370129","HierDyw2wz7uqq","sub23","11","07","rl","test","70","img/p_c_diag.png","4","70","shape,color,pattern","184","1",""
"null","371132","HierDyw2wz7uqq","sub23","11","07","feedback","test","null","","","na","","184","",""
"1778","372912","HierDyw2wz7uqq","sub23","11","07","rl","test","74","img/p_s_diag.png","8","76","shape,color,pattern","185","0",""
"null","373915","HierDyw2wz7uqq","sub23","11","07","feedback","test","null","","","na","","185","",""
"1060","374978","HierDyw2wz7uqq","sub23","11","07","rl","test","70","img/p_c_diag.png","4","70","shape,color,pattern","186","1",""
"null","375981","HierDyw2wz7uqq","sub23","11","07","feedback","test","null","","","na","","186","",""
"790","376774","HierDyw2wz7uqq","sub23","11","07","rl","test","68","img/p_c_dots.png","3","68","shape,color,pattern","187","1",""
"null","377778","HierDyw2wz7uqq","sub23","11","07","feedback","test","null","","","na","","187","",""
"713.0000000000582","378493","HierDyw2wz7uqq","sub23","11","07","rl","test","72","img/o_s_dots.png","5","72","shape,color,pattern","188","1",""
"null","379497","HierDyw2wz7uqq","sub23","11","07","feedback","test","null","","","na","","188","",""
"735","380235","HierDyw2wz7uqq","sub23","11","07","rl","test","70","img/p_c_diag.png","4","70","shape,color,pattern","189","1",""
"null","381237","HierDyw2wz7uqq","sub23","11","07","feedback","test","null","","","na","","189","",""
"534","381774","HierDyw2wz7uqq","sub23","11","07","rl","test","74","img/o_s_diag.png","6","74","shape,color,pattern","190","1",""
"null","382777","HierDyw2wz7uqq","sub23","11","07","feedback","test","null","","","na","","190","",""
"1222","384002","HierDyw2wz7uqq","sub23","11","07","rl","test","83","img/o_c_diag.png","2","83","shape,color,pattern","191","1",""
"null","385006","HierDyw2wz7uqq","sub23","11","07","feedback","test","null","","","na","","191","",""
"510","385519","HierDyw2wz7uqq","sub23","11","07","rl","test","83","img/o_c_diag.png","2","83","shape,color,pattern","192","1",""
"null","386523","HierDyw2wz7uqq","sub23","11","07","feedback","test","null","","","na","","192","",""
"646.0000000000582","387171","HierDyw2wz7uqq","sub23","11","07","rl","test","65","img/o_c_dots.png","1","65","shape,color,pattern","193","1",""
"null","388175","HierDyw2wz7uqq","sub23","11","07","feedback","test","null","","","na","","193","",""
"813","388991","HierDyw2wz7uqq","sub23","11","07","rl","test","72","img/o_s_dots.png","5","72","shape,color,pattern","194","1",""
"null","389994","HierDyw2wz7uqq","sub23","11","07","feedback","test","null","","","na","","194","",""
"1094","391092","HierDyw2wz7uqq","sub23","11","07","rl","test","75","img/p_s_dots.png","7","75","shape,color,pattern","195","1",""
"null","392095","HierDyw2wz7uqq","sub23","11","07","feedback","test","null","","","na","","195","",""
"740","392837","HierDyw2wz7uqq","sub23","11","07","rl","test","76","img/p_s_diag.png","8","76","shape,color,pattern","196","1",""
"null","393840","HierDyw2wz7uqq","sub23","11","07","feedback","test","null","","","na","","196","",""
"1159","395002","HierDyw2wz7uqq","sub23","11","07","rl","test","65","img/o_c_dots.png","1","65","shape,color,pattern","197","1",""
"null","396006","HierDyw2wz7uqq","sub23","11","07","feedback","test","null","","","na","","197","",""
"1868","397875","HierDyw2wz7uqq","sub23","11","07","rl","test","83","img/o_s_diag.png","6","74","shape,color,pattern","198","0",""
"null","398879","HierDyw2wz7uqq","sub23","11","07","feedback","test","null","","","na","","198","",""
"951","399833","HierDyw2wz7uqq","sub23","11","07","rl","test","68","img/p_c_dots.png","3","68","shape,color,pattern","199","1",""
"null","400837","HierDyw2wz7uqq","sub23","11","07","feedback","test","null","","","na","","199","",""
"743.0000000000582","401582","HierDyw2wz7uqq","sub23","11","07","rl","test","75","img/p_s_dots.png","7","75","shape,color,pattern","200","1",""
"null","402586","HierDyw2wz7uqq","sub23","11","07","feedback","test","null","","","na","","200","",""
"521","403109","HierDyw2wz7uqq","sub23","11","07","rl","test","75","img/p_s_dots.png","7","75","shape,color,pattern","201","1",""
"null","404111","HierDyw2wz7uqq","sub23","11","07","feedback","test","null","","","na","","201","",""
"554","404667","HierDyw2wz7uqq","sub23","11","07","rl","test","75","img/p_c_dots.png","3","68","shape,color,pattern","202","0",""
"null","405670","HierDyw2wz7uqq","sub23","11","07","feedback","test","null","","","na","","202","",""
"1026","406698","HierDyw2wz7uqq","sub23","11","07","rl","test","70","img/p_c_diag.png","4","70","shape,color,pattern","203","1",""
"null","407702","HierDyw2wz7uqq","sub23","11","07","feedback","test","null","","","na","","203","",""
"695","408399","HierDyw2wz7uqq","sub23","11","07","rl","test","65","img/o_c_dots.png","1","65","shape,color,pattern","204","1",""
"null","409402","HierDyw2wz7uqq","sub23","11","07","feedback","test","null","","","na","","204","",""
"692","410097","HierDyw2wz7uqq","sub23","11","07","rl","test","76","img/p_s_diag.png","8","76","shape,color,pattern","205","1",""
"null","411101","HierDyw2wz7uqq","sub23","11","07","feedback","test","null","","","na","","205","",""
"1205","412309","HierDyw2wz7uqq","sub23","11","07","rl","test","74","img/o_s_diag.png","6","74","shape,color,pattern","206","1",""
"null","413312","HierDyw2wz7uqq","sub23","11","07","feedback","test","null","","","na","","206","",""
"882.9999999999418","414198","HierDyw2wz7uqq","sub23","11","07","rl","test","83","img/o_c_diag.png","2","83","shape,color,pattern","207","1",""
"null","415201","HierDyw2wz7uqq","sub23","11","07","feedback","test","null","","","na","","207","",""
"1350","416554","HierDyw2wz7uqq","sub23","11","07","rl","test","72","img/o_s_dots.png","5","72","shape,color,pattern","208","1",""
"null","417557","HierDyw2wz7uqq","sub23","11","07","feedback","test","null","","","na","","208","",""
"792","418352","HierDyw2wz7uqq","sub23","11","07","rl","test","70","img/p_c_diag.png","4","70","shape,color,pattern","209","1",""
"null","419354","HierDyw2wz7uqq","sub23","11","07","feedback","test","null","","","na","","209","",""
"821.0000000000582","420177","HierDyw2wz7uqq","sub23","11","07","rl","test","72","img/o_s_dots.png","5","72","shape,color,pattern","210","1",""
"null","421181","HierDyw2wz7uqq","sub23","11","07","feedback","test","null","","","na","","210","",""
"822","422005","HierDyw2wz7uqq","sub23","11","07","rl","test","65","img/o_c_dots.png","1","65","shape,color,pattern","211","1",""
"null","423008","HierDyw2wz7uqq","sub23","11","07","feedback","test","null","","","na","","211","",""
"930","423941","HierDyw2wz7uqq","sub23","11","07","rl","test","74","img/o_s_diag.png","6","74","shape,color,pattern","212","1",""
"null","424945","HierDyw2wz7uqq","sub23","11","07","feedback","test","null","","","na","","212","",""
"956.0000000000582","425904","HierDyw2wz7uqq","sub23","11","07","rl","test","68","img/p_c_dots.png","3","68","shape,color,pattern","213","1",""
"null","426907","HierDyw2wz7uqq","sub23","11","07","feedback","test","null","","","na","","213","",""
"803","427713","HierDyw2wz7uqq","sub23","11","07","rl","test","75","img/p_s_dots.png","7","75","shape,color,pattern","214","1",""
"null","428717","HierDyw2wz7uqq","sub23","11","07","feedback","test","null","","","na","","214","",""
"912","429631","HierDyw2wz7uqq","sub23","11","07","rl","test","76","img/p_s_diag.png","8","76","shape,color,pattern","215","1",""
"null","430635","HierDyw2wz7uqq","sub23","11","07","feedback","test","null","","","na","","215","",""
"1436","432072","HierDyw2wz7uqq","sub23","11","07","rl","test","83","img/o_c_diag.png","2","83","shape,color,pattern","216","1",""
"null","433076","HierDyw2wz7uqq","sub23","11","07","feedback","test","null","","","na","","216","",""
"1085","434163","HierDyw2wz7uqq","sub23","11","07","rl","test","68","img/p_c_dots.png","3","68","shape,color,pattern","217","1",""
"null","435166","HierDyw2wz7uqq","sub23","11","07","feedback","test","null","","","na","","217","",""
"1368","436538","HierDyw2wz7uqq","sub23","11","07","rl","test","83","img/o_c_diag.png","2","83","shape,color,pattern","218","1",""
"null","437541","HierDyw2wz7uqq","sub23","11","07","feedback","test","null","","","na","","218","",""
"893","438437","HierDyw2wz7uqq","sub23","11","07","rl","test","75","img/p_s_dots.png","7","75","shape,color,pattern","219","1",""
"null","439439","HierDyw2wz7uqq","sub23","11","07","feedback","test","null","","","na","","219","",""
"614","440055","HierDyw2wz7uqq","sub23","11","07","rl","test","75","img/p_s_dots.png","7","75","shape,color,pattern","220","1",""
"null","441058","HierDyw2wz7uqq","sub23","11","07","feedback","test","null","","","na","","220","",""
"1048","442107","HierDyw2wz7uqq","sub23","11","07","rl","test","70","img/p_c_diag.png","4","70","shape,color,pattern","221","1",""
"null","443110","HierDyw2wz7uqq","sub23","11","07","feedback","test","null","","","na","","221","",""
"650","443762","HierDyw2wz7uqq","sub23","11","07","rl","test","76","img/p_s_diag.png","8","76","shape,color,pattern","222","1",""
"null","444764","HierDyw2wz7uqq","sub23","11","07","feedback","test","null","","","na","","222","",""
"582","445349","HierDyw2wz7uqq","sub23","11","07","rl","test","72","img/o_s_dots.png","5","72","shape,color,pattern","223","1",""
"null","446353","HierDyw2wz7uqq","sub23","11","07","feedback","test","null","","","na","","223","",""
"690.9999999999418","447047","HierDyw2wz7uqq","sub23","11","07","rl","test","70","img/p_c_diag.png","4","70","shape,color,pattern","224","1",""
"null","448050","HierDyw2wz7uqq","sub23","11","07","feedback","test","null","","","na","","224","",""
"707","448759","HierDyw2wz7uqq","sub23","11","07","rl","test","65","img/o_c_dots.png","1","65","shape,color,pattern","225","1",""
"null","449762","HierDyw2wz7uqq","sub23","11","07","feedback","test","null","","","na","","225","",""
"1529","451295","HierDyw2wz7uqq","sub23","11","07","rl","test","76","img/p_s_diag.png","8","76","shape,color,pattern","226","1",""
"null","452298","HierDyw2wz7uqq","sub23","11","07","feedback","test","null","","","na","","226","",""
"827","453128","HierDyw2wz7uqq","sub23","11","07","rl","test","83","img/o_s_diag.png","6","74","shape,color,pattern","227","0",""
"null","454131","HierDyw2wz7uqq","sub23","11","07","feedback","test","null","","","na","","227","",""
"640.9999999999418","454775","HierDyw2wz7uqq","sub23","11","07","rl","test","65","img/o_c_dots.png","1","65","shape,color,pattern","228","1",""
"null","455779","HierDyw2wz7uqq","sub23","11","07","feedback","test","null","","","na","","228","",""
"972","456753","HierDyw2wz7uqq","sub23","11","07","rl","test","68","img/p_c_dots.png","3","68","shape,color,pattern","229","1",""
"null","457756","HierDyw2wz7uqq","sub23","11","07","feedback","test","null","","","na","","229","",""
"1860","459618","HierDyw2wz7uqq","sub23","11","07","rl","test","68","img/p_c_dots.png","3","68","shape,color,pattern","230","1",""
"null","460621","HierDyw2wz7uqq","sub23","11","07","feedback","test","null","","","na","","230","",""
"742","461365","HierDyw2wz7uqq","sub23","11","07","rl","test","72","img/o_s_dots.png","5","72","shape,color,pattern","231","1",""
"null","462369","HierDyw2wz7uqq","sub23","11","07","feedback","test","null","","","na","","231","",""
"1405","463777","HierDyw2wz7uqq","sub23","11","07","rl","test","74","img/o_s_diag.png","6","74","shape,color,pattern","232","1",""
"null","464782","HierDyw2wz7uqq","sub23","11","07","feedback","test","null","","","na","","232","",""
"970","465755","HierDyw2wz7uqq","sub23","11","07","rl","test","83","img/o_c_diag.png","2","83","shape,color,pattern","233","1",""
"null","466759","HierDyw2wz7uqq","sub23","11","07","feedback","test","null","","","na","","233","",""
"2467","469228","HierDyw2wz7uqq","sub23","11","07","rl","test","70","img/p_c_diag.png","4","70","shape,color,pattern","234","1",""
"null","470232","HierDyw2wz7uqq","sub23","11","07","feedback","test","null","","","na","","234","",""
"969","471203","HierDyw2wz7uqq","sub23","11","07","rl","test","74","img/p_s_dots.png","7","75","shape,color,pattern","235","0",""
"null","472206","HierDyw2wz7uqq","sub23","11","07","feedback","test","null","","","na","","235","",""
"911","473120","HierDyw2wz7uqq","sub23","11","07","rl","test","74","img/o_s_diag.png","6","74","shape,color,pattern","236","1",""
"null","474123","HierDyw2wz7uqq","sub23","11","07","feedback","test","null","","","na","","236","",""
"721","474847","HierDyw2wz7uqq","sub23","11","07","rl","test","72","img/o_s_dots.png","5","72","shape,color,pattern","237","1",""
"null","475850","HierDyw2wz7uqq","sub23","11","07","feedback","test","null","","","na","","237","",""
"739.0000000000582","476594","HierDyw2wz7uqq","sub23","11","07","rl","test","74","img/o_s_diag.png","6","74","shape,color,pattern","238","1",""
"null","477598","HierDyw2wz7uqq","sub23","11","07","feedback","test","null","","","na","","238","",""
"727","478328","HierDyw2wz7uqq","sub23","11","07","rl","test","72","img/o_c_dots.png","1","65","shape,color,pattern","239","0",""
"null","479331","HierDyw2wz7uqq","sub23","11","07","feedback","test","null","","","na","","239","",""
"640","479974","HierDyw2wz7uqq","sub23","11","07","rl","test","70","img/p_s_diag.png","8","76","shape,color,pattern","240","0",""
"null","480977","HierDyw2wz7uqq","sub23","11","07","feedback","test","null","","","na","","240","",""
"1291.9999999999418","482272","HierDyw2wz7uqq","sub23","11","07","rl","test","74","img/o_c_diag.png","2","83","shape,color,pattern","241","0",""
"null","483276","HierDyw2wz7uqq","sub23","11","07","feedback","test","null","","","na","","241","",""
"626","483905","HierDyw2wz7uqq","sub23","11","07","rl","test","83","img/o_c_diag.png","2","83","shape,color,pattern","242","1",""
"null","484909","HierDyw2wz7uqq","sub23","11","07","feedback","test","null","","","na","","242","",""
"1404","486315","HierDyw2wz7uqq","sub23","11","07","rl","test","76","img/p_s_diag.png","8","76","shape,color,pattern","243","1",""
"null","487317","HierDyw2wz7uqq","sub23","11","07","feedback","test","null","","","na","","243","",""
"824.9999999999418","488144","HierDyw2wz7uqq","sub23","11","07","rl","test","75","img/p_s_dots.png","7","75","shape,color,pattern","244","1",""
"null","489147","HierDyw2wz7uqq","sub23","11","07","feedback","test","null","","","na","","244","",""
"1349.0000000000582","490499","HierDyw2wz7uqq","sub23","11","07","rl","test","68","img/p_c_dots.png","3","68","shape,color,pattern","245","1",""
"null","491501","HierDyw2wz7uqq","sub23","11","07","feedback","test","null","","","na","","245","",""
"714","492218","HierDyw2wz7uqq","sub23","11","07","rl","test","65","img/o_c_dots.png","1","65","shape,color,pattern","246","1",""
"null","493221","HierDyw2wz7uqq","sub23","11","07","feedback","test","null","","","na","","246","",""
"1842","495065","HierDyw2wz7uqq","sub23","11","07","rl","test","70","img/p_c_diag.png","4","70","shape,color,pattern","247","1",""
"null","496068","HierDyw2wz7uqq","sub23","11","07","feedback","test","null","","","na","","247","",""
"1163","497234","HierDyw2wz7uqq","sub23","11","07","rl","test","74","img/o_s_dots.png","5","72","shape,color,pattern","248","0",""
"null","498237","HierDyw2wz7uqq","sub23","11","07","feedback","test","null","","","na","","248","",""
"21419.00000000006","519692","HierDyw2wz7uqq","sub23","11","07","","","","","","","","","","{""Q0"":""8.5""}"
"45891","565588","HierDyw2wz7uqq","sub23","11","07","","","","","","","","","","{""Q0"":""none, but I got a few FaceTime calls to my laptop during this session which caused this tab to be closed ""}"
"3382","568971","HierDyw2wz7uqq","sub23","11","07","","","","","","","","","",""
