"rt","time_elapsed","subject","subID","group","day","trialType","phase","key_press","stim","stimNum","corrresp","hierarchy","trialNum","corr","responses"
"14423.000000000002","14424","HierDyqcfrozfy","sub23","11","02","","","","","","","","","",""
"","17026","HierDyqcfrozfy","sub23","11","02","fullscreen","","","","","","","","",""
"16343","33369","HierDyqcfrozfy","sub23","11","02","","prac","","","","","","","",""
"6029","39402","HierDyqcfrozfy","sub23","11","02","","","32","","","","","","",""
"2021","41424","HierDyqcfrozfy","sub23","11","02","","prac","","","","","","","",""
"1000","42427","HierDyqcfrozfy","sub23","11","02","rl","test","72","img/o_s_dots.png","5","72","shape,color,pattern","1","1",""
"null","43431","HierDyqcfrozfy","sub23","11","02","feedback","test","null","","","na","","1","",""
"775","44209","HierDyqcfrozfy","sub23","11","02","rl","test","76","img/p_s_diag.png","8","76","shape,color,pattern","2","1",""
"null","45212","HierDyqcfrozfy","sub23","11","02","feedback","test","null","","","na","","2","",""
"627","45841","HierDyqcfrozfy","sub23","11","02","rl","test","72","img/o_c_dots.png","1","65","shape,color,pattern","3","0",""
"null","46844","HierDyqcfrozfy","sub23","11","02","feedback","test","null","","","na","","3","",""
"1022.0000000000073","47868","HierDyqcfrozfy","sub23","11","02","rl","test","74","img/o_s_diag.png","6","74","shape,color,pattern","4","1",""
"null","48873","HierDyqcfrozfy","sub23","11","02","feedback","test","null","","","na","","4","",""
"770","49646","HierDyqcfrozfy","sub23","11","02","rl","test","70","img/p_c_diag.png","4","70","shape,color,pattern","5","1",""
"null","50649","HierDyqcfrozfy","sub23","11","02","feedback","test","null","","","na","","5","",""
"725.0000000000073","51377","HierDyqcfrozfy","sub23","11","02","rl","test","83","img/o_c_diag.png","2","83","shape,color,pattern","6","1",""
"null","52380","HierDyqcfrozfy","sub23","11","02","feedback","test","null","","","na","","6","",""
"818.0000000000073","53199","HierDyqcfrozfy","sub23","11","02","rl","test","75","img/p_s_dots.png","7","75","shape,color,pattern","7","1",""
"null","54202","HierDyqcfrozfy","sub23","11","02","feedback","test","null","","","na","","7","",""
"1027","55231","HierDyqcfrozfy","sub23","11","02","rl","test","68","img/p_c_dots.png","3","68","shape,color,pattern","8","1",""
"null","56233","HierDyqcfrozfy","sub23","11","02","feedback","test","null","","","na","","8","",""
"851","57087","HierDyqcfrozfy","sub23","11","02","rl","test","83","img/o_c_diag.png","2","83","shape,color,pattern","9","1",""
"null","58090","HierDyqcfrozfy","sub23","11","02","feedback","test","null","","","na","","9","",""
"665","58757","HierDyqcfrozfy","sub23","11","02","rl","test","65","img/o_c_dots.png","1","65","shape,color,pattern","10","1",""
"null","59759","HierDyqcfrozfy","sub23","11","02","feedback","test","null","","","na","","10","",""
"865.0000000000073","60627","HierDyqcfrozfy","sub23","11","02","rl","test","75","img/p_c_dots.png","3","68","shape,color,pattern","11","0",""
"null","61630","HierDyqcfrozfy","sub23","11","02","feedback","test","null","","","na","","11","",""
"711.9999999999927","62344","HierDyqcfrozfy","sub23","11","02","rl","test","75","img/p_s_dots.png","7","75","shape,color,pattern","12","1",""
"null","63348","HierDyqcfrozfy","sub23","11","02","feedback","test","null","","","na","","12","",""
"700.0000000000073","64050","HierDyqcfrozfy","sub23","11","02","rl","test","76","img/p_s_diag.png","8","76","shape,color,pattern","13","1",""
"null","65053","HierDyqcfrozfy","sub23","11","02","feedback","test","null","","","na","","13","",""
"950","66006","HierDyqcfrozfy","sub23","11","02","rl","test","72","img/o_s_dots.png","5","72","shape,color,pattern","14","1",""
"null","67010","HierDyqcfrozfy","sub23","11","02","feedback","test","null","","","na","","14","",""
"680","67693","HierDyqcfrozfy","sub23","11","02","rl","test","72","img/o_s_dots.png","5","72","shape,color,pattern","15","1",""
"null","68696","HierDyqcfrozfy","sub23","11","02","feedback","test","null","","","na","","15","",""
"715","69413","HierDyqcfrozfy","sub23","11","02","rl","test","83","img/o_s_diag.png","6","74","shape,color,pattern","16","0",""
"null","70417","HierDyqcfrozfy","sub23","11","02","feedback","test","null","","","na","","16","",""
"862","71281","HierDyqcfrozfy","sub23","11","02","rl","test","76","img/p_s_diag.png","8","76","shape,color,pattern","17","1",""
"null","72283","HierDyqcfrozfy","sub23","11","02","feedback","test","null","","","na","","17","",""
"936","73221","HierDyqcfrozfy","sub23","11","02","rl","test","83","img/o_c_diag.png","2","83","shape,color,pattern","18","1",""
"null","74224","HierDyqcfrozfy","sub23","11","02","feedback","test","null","","","na","","18","",""
"961","75187","HierDyqcfrozfy","sub23","11","02","rl","test","70","img/p_c_diag.png","4","70","shape,color,pattern","19","1",""
"null","76190","HierDyqcfrozfy","sub23","11","02","feedback","test","null","","","na","","19","",""
"915","77107","HierDyqcfrozfy","sub23","11","02","rl","test","75","img/p_s_dots.png","7","75","shape,color,pattern","20","1",""
"null","78111","HierDyqcfrozfy","sub23","11","02","feedback","test","null","","","na","","20","",""
"1020","79133","HierDyqcfrozfy","sub23","11","02","rl","test","70","img/p_c_diag.png","4","70","shape,color,pattern","21","1",""
"null","80136","HierDyqcfrozfy","sub23","11","02","feedback","test","null","","","na","","21","",""
"846","80985","HierDyqcfrozfy","sub23","11","02","rl","test","74","img/o_s_diag.png","6","74","shape,color,pattern","22","1",""
"null","81988","HierDyqcfrozfy","sub23","11","02","feedback","test","null","","","na","","22","",""
"887","82877","HierDyqcfrozfy","sub23","11","02","rl","test","70","img/o_c_diag.png","2","83","shape,color,pattern","23","0",""
"null","83880","HierDyqcfrozfy","sub23","11","02","feedback","test","null","","","na","","23","",""
"758","84640","HierDyqcfrozfy","sub23","11","02","rl","test","65","img/o_c_dots.png","1","65","shape,color,pattern","24","1",""
"null","85643","HierDyqcfrozfy","sub23","11","02","feedback","test","null","","","na","","24","",""
"792.0000000000146","86439","HierDyqcfrozfy","sub23","11","02","rl","test","68","img/p_c_dots.png","3","68","shape,color,pattern","25","1",""
"null","87442","HierDyqcfrozfy","sub23","11","02","feedback","test","null","","","na","","25","",""
"534","87978","HierDyqcfrozfy","sub23","11","02","rl","test","68","img/p_c_dots.png","3","68","shape,color,pattern","26","1",""
"null","88981","HierDyqcfrozfy","sub23","11","02","feedback","test","null","","","na","","26","",""
"962","89946","HierDyqcfrozfy","sub23","11","02","rl","test","75","img/p_s_dots.png","7","75","shape,color,pattern","27","1",""
"null","90949","HierDyqcfrozfy","sub23","11","02","feedback","test","null","","","na","","27","",""
"741","91692","HierDyqcfrozfy","sub23","11","02","rl","test","76","img/p_s_diag.png","8","76","shape,color,pattern","28","1",""
"null","92695","HierDyqcfrozfy","sub23","11","02","feedback","test","null","","","na","","28","",""
"743","93440","HierDyqcfrozfy","sub23","11","02","rl","test","65","img/o_c_dots.png","1","65","shape,color,pattern","29","1",""
"null","94444","HierDyqcfrozfy","sub23","11","02","feedback","test","null","","","na","","29","",""
"614.9999999999854","95062","HierDyqcfrozfy","sub23","11","02","rl","test","72","img/o_s_dots.png","5","72","shape,color,pattern","30","1",""
"null","96065","HierDyqcfrozfy","sub23","11","02","feedback","test","null","","","na","","30","",""
"695","96763","HierDyqcfrozfy","sub23","11","02","rl","test","70","img/p_c_diag.png","4","70","shape,color,pattern","31","1",""
"null","97766","HierDyqcfrozfy","sub23","11","02","feedback","test","null","","","na","","31","",""
"1032","98800","HierDyqcfrozfy","sub23","11","02","rl","test","74","img/o_s_diag.png","6","74","shape,color,pattern","32","1",""
"null","99803","HierDyqcfrozfy","sub23","11","02","feedback","test","null","","","na","","32","",""
"859.0000000000146","100663","HierDyqcfrozfy","sub23","11","02","rl","test","70","img/p_c_diag.png","4","70","shape,color,pattern","33","1",""
"null","101667","HierDyqcfrozfy","sub23","11","02","feedback","test","null","","","na","","33","",""
"780","102448","HierDyqcfrozfy","sub23","11","02","rl","test","75","img/p_c_dots.png","3","68","shape,color,pattern","34","0",""
"null","103451","HierDyqcfrozfy","sub23","11","02","feedback","test","null","","","na","","34","",""
"782","104235","HierDyqcfrozfy","sub23","11","02","rl","test","83","img/o_c_diag.png","2","83","shape,color,pattern","35","1",""
"null","105238","HierDyqcfrozfy","sub23","11","02","feedback","test","null","","","na","","35","",""
"622","105863","HierDyqcfrozfy","sub23","11","02","rl","test","72","img/o_c_dots.png","1","65","shape,color,pattern","36","0",""
"null","106866","HierDyqcfrozfy","sub23","11","02","feedback","test","null","","","na","","36","",""
"492","107360","HierDyqcfrozfy","sub23","11","02","rl","test","65","img/o_c_dots.png","1","65","shape,color,pattern","37","1",""
"null","108364","HierDyqcfrozfy","sub23","11","02","feedback","test","null","","","na","","37","",""
"686","109052","HierDyqcfrozfy","sub23","11","02","rl","test","83","img/o_s_diag.png","6","74","shape,color,pattern","38","0",""
"null","110054","HierDyqcfrozfy","sub23","11","02","feedback","test","null","","","na","","38","",""
"908.9999999999854","110965","HierDyqcfrozfy","sub23","11","02","rl","test","76","img/p_s_diag.png","8","76","shape,color,pattern","39","1",""
"null","111968","HierDyqcfrozfy","sub23","11","02","feedback","test","null","","","na","","39","",""
"772","112742","HierDyqcfrozfy","sub23","11","02","rl","test","75","img/p_s_dots.png","7","75","shape,color,pattern","40","1",""
"null","113745","HierDyqcfrozfy","sub23","11","02","feedback","test","null","","","na","","40","",""
"672.0000000000146","114419","HierDyqcfrozfy","sub23","11","02","rl","test","74","img/o_s_diag.png","6","74","shape,color,pattern","41","1",""
"null","115422","HierDyqcfrozfy","sub23","11","02","feedback","test","null","","","na","","41","",""
"879.0000000000146","116304","HierDyqcfrozfy","sub23","11","02","rl","test","74","img/p_s_dots.png","7","75","shape,color,pattern","42","0",""
"null","117307","HierDyqcfrozfy","sub23","11","02","feedback","test","null","","","na","","42","",""
"1357.9999999999854","118667","HierDyqcfrozfy","sub23","11","02","rl","test","65","img/p_c_dots.png","3","68","shape,color,pattern","43","0",""
"null","119670","HierDyqcfrozfy","sub23","11","02","feedback","test","null","","","na","","43","",""
"1006.9999999999854","120680","HierDyqcfrozfy","sub23","11","02","rl","test","72","img/o_s_dots.png","5","72","shape,color,pattern","44","1",""
"null","121683","HierDyqcfrozfy","sub23","11","02","feedback","test","null","","","na","","44","",""
"676","122362","HierDyqcfrozfy","sub23","11","02","rl","test","76","img/p_s_diag.png","8","76","shape,color,pattern","45","1",""
"null","123364","HierDyqcfrozfy","sub23","11","02","feedback","test","null","","","na","","45","",""
"1159","124525","HierDyqcfrozfy","sub23","11","02","rl","test","68","img/p_c_diag.png","4","70","shape,color,pattern","46","0",""
"null","125528","HierDyqcfrozfy","sub23","11","02","feedback","test","null","","","na","","46","",""
"877","126407","HierDyqcfrozfy","sub23","11","02","rl","test","68","img/p_c_dots.png","3","68","shape,color,pattern","47","1",""
"null","127410","HierDyqcfrozfy","sub23","11","02","feedback","test","null","","","na","","47","",""
"882.0000000000146","128295","HierDyqcfrozfy","sub23","11","02","rl","test","72","img/o_s_dots.png","5","72","shape,color,pattern","48","1",""
"null","129297","HierDyqcfrozfy","sub23","11","02","feedback","test","null","","","na","","48","",""
"690.0000000000291","129990","HierDyqcfrozfy","sub23","11","02","rl","test","70","img/p_c_diag.png","4","70","shape,color,pattern","49","1",""
"null","130993","HierDyqcfrozfy","sub23","11","02","feedback","test","null","","","na","","49","",""
"780.9999999999709","131776","HierDyqcfrozfy","sub23","11","02","rl","test","83","img/o_c_diag.png","2","83","shape,color,pattern","50","1",""
"null","132777","HierDyqcfrozfy","sub23","11","02","feedback","test","null","","","na","","50","",""
"725","133505","HierDyqcfrozfy","sub23","11","02","rl","test","72","img/o_s_diag.png","6","74","shape,color,pattern","51","0",""
"null","134508","HierDyqcfrozfy","sub23","11","02","feedback","test","null","","","na","","51","",""
"965","135475","HierDyqcfrozfy","sub23","11","02","rl","test","65","img/o_c_dots.png","1","65","shape,color,pattern","52","1",""
"null","136478","HierDyqcfrozfy","sub23","11","02","feedback","test","null","","","na","","52","",""
"811","137291","HierDyqcfrozfy","sub23","11","02","rl","test","76","img/p_s_diag.png","8","76","shape,color,pattern","53","1",""
"null","138294","HierDyqcfrozfy","sub23","11","02","feedback","test","null","","","na","","53","",""
"658","138956","HierDyqcfrozfy","sub23","11","02","rl","test","75","img/p_s_dots.png","7","75","shape,color,pattern","54","1",""
"null","139959","HierDyqcfrozfy","sub23","11","02","feedback","test","null","","","na","","54","",""
"644","140605","HierDyqcfrozfy","sub23","11","02","rl","test","72","img/o_s_dots.png","5","72","shape,color,pattern","55","1",""
"null","141607","HierDyqcfrozfy","sub23","11","02","feedback","test","null","","","na","","55","",""
"705","142314","HierDyqcfrozfy","sub23","11","02","rl","test","74","img/o_s_diag.png","6","74","shape,color,pattern","56","1",""
"null","143316","HierDyqcfrozfy","sub23","11","02","feedback","test","null","","","na","","56","",""
"1121","144438","HierDyqcfrozfy","sub23","11","02","rl","test","83","img/o_c_diag.png","2","83","shape,color,pattern","57","1",""
"null","145441","HierDyqcfrozfy","sub23","11","02","feedback","test","null","","","na","","57","",""
"588","146032","HierDyqcfrozfy","sub23","11","02","rl","test","70","img/p_c_diag.png","4","70","shape,color,pattern","58","1",""
"null","147035","HierDyqcfrozfy","sub23","11","02","feedback","test","null","","","na","","58","",""
"651.9999999999709","147688","HierDyqcfrozfy","sub23","11","02","rl","test","83","img/o_c_diag.png","2","83","shape,color,pattern","59","1",""
"null","148692","HierDyqcfrozfy","sub23","11","02","feedback","test","null","","","na","","59","",""
"948","149642","HierDyqcfrozfy","sub23","11","02","rl","test","75","img/p_s_dots.png","7","75","shape,color,pattern","60","1",""
"null","150645","HierDyqcfrozfy","sub23","11","02","feedback","test","null","","","na","","60","",""
"728.0000000000291","151376","HierDyqcfrozfy","sub23","11","02","rl","test","76","img/p_s_diag.png","8","76","shape,color,pattern","61","1",""
"null","152379","HierDyqcfrozfy","sub23","11","02","feedback","test","null","","","na","","61","",""
"1221.999999999971","153604","HierDyqcfrozfy","sub23","11","02","rl","test","68","img/p_c_dots.png","3","68","shape,color,pattern","62","1",""
"null","154607","HierDyqcfrozfy","sub23","11","02","feedback","test","null","","","na","","62","",""
"709","155319","HierDyqcfrozfy","sub23","11","02","rl","test","65","img/o_c_dots.png","1","65","shape,color,pattern","63","1",""
"null","156322","HierDyqcfrozfy","sub23","11","02","feedback","test","null","","","na","","63","",""
"1127","157450","HierDyqcfrozfy","sub23","11","02","rl","test","74","img/o_s_dots.png","5","72","shape,color,pattern","64","0",""
"null","158453","HierDyqcfrozfy","sub23","11","02","feedback","test","null","","","na","","64","",""
"673","159127","HierDyqcfrozfy","sub23","11","02","rl","test","72","img/o_s_dots.png","5","72","shape,color,pattern","65","1",""
"null","160130","HierDyqcfrozfy","sub23","11","02","feedback","test","null","","","na","","65","",""
"544.9999999999709","160676","HierDyqcfrozfy","sub23","11","02","rl","test","74","img/o_s_diag.png","6","74","shape,color,pattern","66","1",""
"null","161679","HierDyqcfrozfy","sub23","11","02","feedback","test","null","","","na","","66","",""
"751","162431","HierDyqcfrozfy","sub23","11","02","rl","test","65","img/o_c_dots.png","1","65","shape,color,pattern","67","1",""
"null","163434","HierDyqcfrozfy","sub23","11","02","feedback","test","null","","","na","","67","",""
"901","164337","HierDyqcfrozfy","sub23","11","02","rl","test","72","img/o_s_dots.png","5","72","shape,color,pattern","68","1",""
"null","165340","HierDyqcfrozfy","sub23","11","02","feedback","test","null","","","na","","68","",""
"810","166152","HierDyqcfrozfy","sub23","11","02","rl","test","70","img/p_c_diag.png","4","70","shape,color,pattern","69","1",""
"null","167155","HierDyqcfrozfy","sub23","11","02","feedback","test","null","","","na","","69","",""
"719","167877","HierDyqcfrozfy","sub23","11","02","rl","test","76","img/p_s_diag.png","8","76","shape,color,pattern","70","1",""
"null","168880","HierDyqcfrozfy","sub23","11","02","feedback","test","null","","","na","","70","",""
"1028.999999999971","169911","HierDyqcfrozfy","sub23","11","02","rl","test","83","img/o_c_diag.png","2","83","shape,color,pattern","71","1",""
"null","170913","HierDyqcfrozfy","sub23","11","02","feedback","test","null","","","na","","71","",""
"749","171664","HierDyqcfrozfy","sub23","11","02","rl","test","65","img/o_c_dots.png","1","65","shape,color,pattern","72","1",""
"null","172667","HierDyqcfrozfy","sub23","11","02","feedback","test","null","","","na","","72","",""
"1198","173866","HierDyqcfrozfy","sub23","11","02","rl","test","75","img/p_s_dots.png","7","75","shape,color,pattern","73","1",""
"null","174871","HierDyqcfrozfy","sub23","11","02","feedback","test","null","","","na","","73","",""
"1174.000000000029","176049","HierDyqcfrozfy","sub23","11","02","rl","test","68","img/p_c_dots.png","3","68","shape,color,pattern","74","1",""
"null","177051","HierDyqcfrozfy","sub23","11","02","feedback","test","null","","","na","","74","",""
"730","177782","HierDyqcfrozfy","sub23","11","02","rl","test","68","img/p_c_dots.png","3","68","shape,color,pattern","75","1",""
"null","178784","HierDyqcfrozfy","sub23","11","02","feedback","test","null","","","na","","75","",""
"949.9999999999709","179736","HierDyqcfrozfy","sub23","11","02","rl","test","75","img/p_s_dots.png","7","75","shape,color,pattern","76","1",""
"null","180739","HierDyqcfrozfy","sub23","11","02","feedback","test","null","","","na","","76","",""
"833","181575","HierDyqcfrozfy","sub23","11","02","rl","test","70","img/p_c_diag.png","4","70","shape,color,pattern","77","1",""
"null","182578","HierDyqcfrozfy","sub23","11","02","feedback","test","null","","","na","","77","",""
"886","183467","HierDyqcfrozfy","sub23","11","02","rl","test","83","img/o_c_diag.png","2","83","shape,color,pattern","78","1",""
"null","184470","HierDyqcfrozfy","sub23","11","02","feedback","test","null","","","na","","78","",""
"1046.000000000029","185518","HierDyqcfrozfy","sub23","11","02","rl","test","74","img/o_s_diag.png","6","74","shape,color,pattern","79","1",""
"null","186522","HierDyqcfrozfy","sub23","11","02","feedback","test","null","","","na","","79","",""
"1307.999999999971","187832","HierDyqcfrozfy","sub23","11","02","rl","test","76","img/p_s_diag.png","8","76","shape,color,pattern","80","1",""
"null","188835","HierDyqcfrozfy","sub23","11","02","feedback","test","null","","","na","","80","",""
"1032.000000000029","189869","HierDyqcfrozfy","sub23","11","02","rl","test","70","img/p_c_diag.png","4","70","shape,color,pattern","81","1",""
"null","190872","HierDyqcfrozfy","sub23","11","02","feedback","test","null","","","na","","81","",""
"887","191762","HierDyqcfrozfy","sub23","11","02","rl","test","72","img/o_s_dots.png","5","72","shape,color,pattern","82","1",""
"null","192765","HierDyqcfrozfy","sub23","11","02","feedback","test","null","","","na","","82","",""
"793.0000000000291","193560","HierDyqcfrozfy","sub23","11","02","rl","test","83","img/o_c_diag.png","2","83","shape,color,pattern","83","1",""
"null","194565","HierDyqcfrozfy","sub23","11","02","feedback","test","null","","","na","","83","",""
"697","195264","HierDyqcfrozfy","sub23","11","02","rl","test","72","img/o_s_dots.png","5","72","shape,color,pattern","84","1",""
"null","196267","HierDyqcfrozfy","sub23","11","02","feedback","test","null","","","na","","84","",""
"709","196978","HierDyqcfrozfy","sub23","11","02","rl","test","72","img/o_s_diag.png","6","74","shape,color,pattern","85","0",""
"null","197981","HierDyqcfrozfy","sub23","11","02","feedback","test","null","","","na","","85","",""
"956","198939","HierDyqcfrozfy","sub23","11","02","rl","test","68","img/p_c_dots.png","3","68","shape,color,pattern","86","1",""
"null","199942","HierDyqcfrozfy","sub23","11","02","feedback","test","null","","","na","","86","",""
"859","200803","HierDyqcfrozfy","sub23","11","02","rl","test","65","img/o_c_dots.png","1","65","shape,color,pattern","87","1",""
"null","201806","HierDyqcfrozfy","sub23","11","02","feedback","test","null","","","na","","87","",""
"549","202358","HierDyqcfrozfy","sub23","11","02","rl","test","65","img/o_c_dots.png","1","65","shape,color,pattern","88","1",""
"null","203361","HierDyqcfrozfy","sub23","11","02","feedback","test","null","","","na","","88","",""
"694","204057","HierDyqcfrozfy","sub23","11","02","rl","test","75","img/p_s_dots.png","7","75","shape,color,pattern","89","1",""
"null","205061","HierDyqcfrozfy","sub23","11","02","feedback","test","null","","","na","","89","",""
"629","205692","HierDyqcfrozfy","sub23","11","02","rl","test","76","img/p_s_diag.png","8","76","shape,color,pattern","90","1",""
"null","206695","HierDyqcfrozfy","sub23","11","02","feedback","test","null","","","na","","90","",""
"773","207471","HierDyqcfrozfy","sub23","11","02","rl","test","83","img/o_c_diag.png","2","83","shape,color,pattern","91","1",""
"null","208473","HierDyqcfrozfy","sub23","11","02","feedback","test","null","","","na","","91","",""
"1066.999999999971","209543","HierDyqcfrozfy","sub23","11","02","rl","test","74","img/o_s_diag.png","6","74","shape,color,pattern","92","1",""
"null","210546","HierDyqcfrozfy","sub23","11","02","feedback","test","null","","","na","","92","",""
"739","211290","HierDyqcfrozfy","sub23","11","02","rl","test","70","img/p_c_diag.png","4","70","shape,color,pattern","93","1",""
"null","212294","HierDyqcfrozfy","sub23","11","02","feedback","test","null","","","na","","93","",""
"641","212938","HierDyqcfrozfy","sub23","11","02","rl","test","76","img/p_s_diag.png","8","76","shape,color,pattern","94","1",""
"null","213941","HierDyqcfrozfy","sub23","11","02","feedback","test","null","","","na","","94","",""
"904","214848","HierDyqcfrozfy","sub23","11","02","rl","test","68","img/p_c_dots.png","3","68","shape,color,pattern","95","1",""
"null","215851","HierDyqcfrozfy","sub23","11","02","feedback","test","null","","","na","","95","",""
"928","216781","HierDyqcfrozfy","sub23","11","02","rl","test","68","img/p_c_dots.png","3","68","shape,color,pattern","96","1",""
"null","217784","HierDyqcfrozfy","sub23","11","02","feedback","test","null","","","na","","96","",""
"1006.9999999999709","218792","HierDyqcfrozfy","sub23","11","02","rl","test","83","img/o_c_diag.png","2","83","shape,color,pattern","97","1",""
"null","219795","HierDyqcfrozfy","sub23","11","02","feedback","test","null","","","na","","97","",""
"698.9999999999709","220496","HierDyqcfrozfy","sub23","11","02","rl","test","72","img/o_s_dots.png","5","72","shape,color,pattern","98","1",""
"null","221500","HierDyqcfrozfy","sub23","11","02","feedback","test","null","","","na","","98","",""
"743","222246","HierDyqcfrozfy","sub23","11","02","rl","test","65","img/o_c_dots.png","1","65","shape,color,pattern","99","1",""
"null","223249","HierDyqcfrozfy","sub23","11","02","feedback","test","null","","","na","","99","",""
"661","223912","HierDyqcfrozfy","sub23","11","02","rl","test","75","img/p_s_dots.png","7","75","shape,color,pattern","100","1",""
"null","224915","HierDyqcfrozfy","sub23","11","02","feedback","test","null","","","na","","100","",""
"782","225699","HierDyqcfrozfy","sub23","11","02","rl","test","83","img/o_c_diag.png","2","83","shape,color,pattern","101","1",""
"null","226702","HierDyqcfrozfy","sub23","11","02","feedback","test","null","","","na","","101","",""
"651","227356","HierDyqcfrozfy","sub23","11","02","rl","test","75","img/p_s_dots.png","7","75","shape,color,pattern","102","1",""
"null","228359","HierDyqcfrozfy","sub23","11","02","feedback","test","null","","","na","","102","",""
"713","229075","HierDyqcfrozfy","sub23","11","02","rl","test","72","img/o_s_dots.png","5","72","shape,color,pattern","103","1",""
"null","230079","HierDyqcfrozfy","sub23","11","02","feedback","test","null","","","na","","103","",""
"1413","231495","HierDyqcfrozfy","sub23","11","02","rl","test","76","img/p_s_diag.png","8","76","shape,color,pattern","104","1",""
"null","232498","HierDyqcfrozfy","sub23","11","02","feedback","test","null","","","na","","104","",""
"699","233199","HierDyqcfrozfy","sub23","11","02","rl","test","74","img/o_s_diag.png","6","74","shape,color,pattern","105","1",""
"null","234203","HierDyqcfrozfy","sub23","11","02","feedback","test","null","","","na","","105","",""
"566","234771","HierDyqcfrozfy","sub23","11","02","rl","test","72","img/o_s_dots.png","5","72","shape,color,pattern","106","1",""
"null","235774","HierDyqcfrozfy","sub23","11","02","feedback","test","null","","","na","","106","",""
"832","236608","HierDyqcfrozfy","sub23","11","02","rl","test","70","img/p_c_diag.png","4","70","shape,color,pattern","107","1",""
"null","237611","HierDyqcfrozfy","sub23","11","02","feedback","test","null","","","na","","107","",""
"606","238219","HierDyqcfrozfy","sub23","11","02","rl","test","70","img/p_c_diag.png","4","70","shape,color,pattern","108","1",""
"null","239221","HierDyqcfrozfy","sub23","11","02","feedback","test","null","","","na","","108","",""
"1305.000000000029","240529","HierDyqcfrozfy","sub23","11","02","rl","test","76","img/p_s_diag.png","8","76","shape,color,pattern","109","1",""
"null","241532","HierDyqcfrozfy","sub23","11","02","feedback","test","null","","","na","","109","",""
"1262","242797","HierDyqcfrozfy","sub23","11","02","rl","test","68","img/p_c_dots.png","3","68","shape,color,pattern","110","1",""
"null","243799","HierDyqcfrozfy","sub23","11","02","feedback","test","null","","","na","","110","",""
"1173","244974","HierDyqcfrozfy","sub23","11","02","rl","test","76","img/p_s_dots.png","7","75","shape,color,pattern","111","0",""
"null","245978","HierDyqcfrozfy","sub23","11","02","feedback","test","null","","","na","","111","",""
"811.9999999999709","246792","HierDyqcfrozfy","sub23","11","02","rl","test","83","img/o_s_diag.png","6","74","shape,color,pattern","112","0",""
"null","247795","HierDyqcfrozfy","sub23","11","02","feedback","test","null","","","na","","112","",""
"1036","248832","HierDyqcfrozfy","sub23","11","02","rl","test","75","img/p_s_dots.png","7","75","shape,color,pattern","113","1",""
"null","249835","HierDyqcfrozfy","sub23","11","02","feedback","test","null","","","na","","113","",""
"716.0000000000291","250553","HierDyqcfrozfy","sub23","11","02","rl","test","65","img/o_c_dots.png","1","65","shape,color,pattern","114","1",""
"null","251556","HierDyqcfrozfy","sub23","11","02","feedback","test","null","","","na","","114","",""
"923.0000000000291","252480","HierDyqcfrozfy","sub23","11","02","rl","test","76","img/p_s_diag.png","8","76","shape,color,pattern","115","1",""
"null","253481","HierDyqcfrozfy","sub23","11","02","feedback","test","null","","","na","","115","",""
"749","254232","HierDyqcfrozfy","sub23","11","02","rl","test","83","img/o_c_diag.png","2","83","shape,color,pattern","116","1",""
"null","255235","HierDyqcfrozfy","sub23","11","02","feedback","test","null","","","na","","116","",""
"695.0000000000582","255930","HierDyqcfrozfy","sub23","11","02","rl","test","72","img/o_c_dots.png","1","65","shape,color,pattern","117","0",""
"null","256933","HierDyqcfrozfy","sub23","11","02","feedback","test","null","","","na","","117","",""
"1719.999999999971","258655","HierDyqcfrozfy","sub23","11","02","rl","test","68","img/p_c_dots.png","3","68","shape,color,pattern","118","1",""
"null","259658","HierDyqcfrozfy","sub23","11","02","feedback","test","null","","","na","","118","",""
"680.9999999999709","260340","HierDyqcfrozfy","sub23","11","02","rl","test","70","img/p_c_diag.png","4","70","shape,color,pattern","119","1",""
"null","261342","HierDyqcfrozfy","sub23","11","02","feedback","test","null","","","na","","119","",""
"810.0000000000582","262156","HierDyqcfrozfy","sub23","11","02","rl","test","74","img/o_s_diag.png","6","74","shape,color,pattern","120","1",""
"null","263159","HierDyqcfrozfy","sub23","11","02","feedback","test","null","","","na","","120","",""
"699","263861","HierDyqcfrozfy","sub23","11","02","rl","test","72","img/o_s_dots.png","5","72","shape,color,pattern","121","1",""
"null","264864","HierDyqcfrozfy","sub23","11","02","feedback","test","null","","","na","","121","",""
"743.0000000000582","265609","HierDyqcfrozfy","sub23","11","02","rl","test","65","img/o_c_dots.png","1","65","shape,color,pattern","122","1",""
"null","266611","HierDyqcfrozfy","sub23","11","02","feedback","test","null","","","na","","122","",""
"1528","268140","HierDyqcfrozfy","sub23","11","02","rl","test","75","img/p_s_dots.png","7","75","shape,color,pattern","123","1",""
"null","269142","HierDyqcfrozfy","sub23","11","02","feedback","test","null","","","na","","123","",""
"812.9999999999418","269958","HierDyqcfrozfy","sub23","11","02","rl","test","74","img/o_s_diag.png","6","74","shape,color,pattern","124","1",""
"null","270961","HierDyqcfrozfy","sub23","11","02","feedback","test","null","","","na","","124","",""
"819.0000000000582","271781","HierDyqcfrozfy","sub23","11","02","rl","test","68","img/p_c_dots.png","3","68","shape,color,pattern","125","1",""
"null","272784","HierDyqcfrozfy","sub23","11","02","feedback","test","null","","","na","","125","",""
"1199","273985","HierDyqcfrozfy","sub23","11","02","rl","test","83","img/o_s_diag.png","6","74","shape,color,pattern","126","0",""
"null","274988","HierDyqcfrozfy","sub23","11","02","feedback","test","null","","","na","","126","",""
"1140","276130","HierDyqcfrozfy","sub23","11","02","rl","test","76","img/p_s_diag.png","8","76","shape,color,pattern","127","1",""
"null","277133","HierDyqcfrozfy","sub23","11","02","feedback","test","null","","","na","","127","",""
"1164","278300","HierDyqcfrozfy","sub23","11","02","rl","test","83","img/o_c_diag.png","2","83","shape,color,pattern","128","1",""
"null","279302","HierDyqcfrozfy","sub23","11","02","feedback","test","null","","","na","","128","",""
"1452","280756","HierDyqcfrozfy","sub23","11","02","rl","test","75","img/p_s_dots.png","7","75","shape,color,pattern","129","1",""
"null","281759","HierDyqcfrozfy","sub23","11","02","feedback","test","null","","","na","","129","",""
"714","282481","HierDyqcfrozfy","sub23","11","02","rl","test","72","img/o_s_dots.png","5","72","shape,color,pattern","130","1",""
"null","283484","HierDyqcfrozfy","sub23","11","02","feedback","test","null","","","na","","130","",""
"823","284310","HierDyqcfrozfy","sub23","11","02","rl","test","83","img/o_c_diag.png","2","83","shape,color,pattern","131","1",""
"null","285314","HierDyqcfrozfy","sub23","11","02","feedback","test","null","","","na","","131","",""
"655","285971","HierDyqcfrozfy","sub23","11","02","rl","test","70","img/p_c_diag.png","4","70","shape,color,pattern","132","1",""
"null","286974","HierDyqcfrozfy","sub23","11","02","feedback","test","null","","","na","","132","",""
"1008","287984","HierDyqcfrozfy","sub23","11","02","rl","test","70","img/p_c_diag.png","4","70","shape,color,pattern","133","1",""
"null","288987","HierDyqcfrozfy","sub23","11","02","feedback","test","null","","","na","","133","",""
"683","289673","HierDyqcfrozfy","sub23","11","02","rl","test","65","img/o_c_dots.png","1","65","shape,color,pattern","134","1",""
"null","290676","HierDyqcfrozfy","sub23","11","02","feedback","test","null","","","na","","134","",""
"779","291455","HierDyqcfrozfy","sub23","11","02","rl","test","68","img/p_c_dots.png","3","68","shape,color,pattern","135","1",""
"null","292459","HierDyqcfrozfy","sub23","11","02","feedback","test","null","","","na","","135","",""
"1103","293564","HierDyqcfrozfy","sub23","11","02","rl","test","76","img/p_s_diag.png","8","76","shape,color,pattern","136","1",""
"null","294567","HierDyqcfrozfy","sub23","11","02","feedback","test","null","","","na","","136","",""
"1449","296017","HierDyqcfrozfy","sub23","11","02","rl","test","74","img/o_s_diag.png","6","74","shape,color,pattern","137","1",""
"null","297021","HierDyqcfrozfy","sub23","11","02","feedback","test","null","","","na","","137","",""
"888","297911","HierDyqcfrozfy","sub23","11","02","rl","test","72","img/o_c_dots.png","1","65","shape,color,pattern","138","0",""
"null","298914","HierDyqcfrozfy","sub23","11","02","feedback","test","null","","","na","","138","",""
"718.9999999999418","299637","HierDyqcfrozfy","sub23","11","02","rl","test","70","img/p_c_diag.png","4","70","shape,color,pattern","139","1",""
"null","300640","HierDyqcfrozfy","sub23","11","02","feedback","test","null","","","na","","139","",""
"755","301397","HierDyqcfrozfy","sub23","11","02","rl","test","68","img/p_c_dots.png","3","68","shape,color,pattern","140","1",""
"null","302400","HierDyqcfrozfy","sub23","11","02","feedback","test","null","","","na","","140","",""
"841","303244","HierDyqcfrozfy","sub23","11","02","rl","test","70","img/p_c_diag.png","4","70","shape,color,pattern","141","1",""
"null","304247","HierDyqcfrozfy","sub23","11","02","feedback","test","null","","","na","","141","",""
"956","305205","HierDyqcfrozfy","sub23","11","02","rl","test","75","img/p_s_dots.png","7","75","shape,color,pattern","142","1",""
"null","306208","HierDyqcfrozfy","sub23","11","02","feedback","test","null","","","na","","142","",""
"1554","307764","HierDyqcfrozfy","sub23","11","02","rl","test","75","img/p_s_diag.png","8","76","shape,color,pattern","143","0",""
"null","308768","HierDyqcfrozfy","sub23","11","02","feedback","test","null","","","na","","143","",""
"709","309480","HierDyqcfrozfy","sub23","11","02","rl","test","72","img/o_s_dots.png","5","72","shape,color,pattern","144","1",""
"null","310483","HierDyqcfrozfy","sub23","11","02","feedback","test","null","","","na","","144","",""
"784","311270","HierDyqcfrozfy","sub23","11","02","rl","test","83","img/o_c_diag.png","2","83","shape,color,pattern","145","1",""
"null","312273","HierDyqcfrozfy","sub23","11","02","feedback","test","null","","","na","","145","",""
"1067","313343","HierDyqcfrozfy","sub23","11","02","rl","test","70","img/o_c_diag.png","2","83","shape,color,pattern","146","0",""
"null","314346","HierDyqcfrozfy","sub23","11","02","feedback","test","null","","","na","","146","",""
"902","315251","HierDyqcfrozfy","sub23","11","02","rl","test","72","img/o_s_dots.png","5","72","shape,color,pattern","147","1",""
"null","316253","HierDyqcfrozfy","sub23","11","02","feedback","test","null","","","na","","147","",""
"1308","317564","HierDyqcfrozfy","sub23","11","02","rl","test","83","img/p_c_dots.png","3","68","shape,color,pattern","148","0",""
"null","318568","HierDyqcfrozfy","sub23","11","02","feedback","test","null","","","na","","148","",""
"1048","319618","HierDyqcfrozfy","sub23","11","02","rl","test","75","img/p_s_dots.png","7","75","shape,color,pattern","149","1",""
"null","320621","HierDyqcfrozfy","sub23","11","02","feedback","test","null","","","na","","149","",""
"1193","321818","HierDyqcfrozfy","sub23","11","02","rl","test","74","img/o_s_diag.png","6","74","shape,color,pattern","150","1",""
"null","322821","HierDyqcfrozfy","sub23","11","02","feedback","test","null","","","na","","150","",""
"691","323515","HierDyqcfrozfy","sub23","11","02","rl","test","76","img/p_s_diag.png","8","76","shape,color,pattern","151","1",""
"null","324518","HierDyqcfrozfy","sub23","11","02","feedback","test","null","","","na","","151","",""
"717","325238","HierDyqcfrozfy","sub23","11","02","rl","test","65","img/o_c_dots.png","1","65","shape,color,pattern","152","1",""
"null","326242","HierDyqcfrozfy","sub23","11","02","feedback","test","null","","","na","","152","",""
"909.9999999999418","327154","HierDyqcfrozfy","sub23","11","02","rl","test","70","img/p_c_diag.png","4","70","shape,color,pattern","153","1",""
"null","328158","HierDyqcfrozfy","sub23","11","02","feedback","test","null","","","na","","153","",""
"797","328957","HierDyqcfrozfy","sub23","11","02","rl","test","76","img/p_s_diag.png","8","76","shape,color,pattern","154","1",""
"null","329960","HierDyqcfrozfy","sub23","11","02","feedback","test","null","","","na","","154","",""
"660","330622","HierDyqcfrozfy","sub23","11","02","rl","test","83","img/o_c_diag.png","2","83","shape,color,pattern","155","1",""
"null","331625","HierDyqcfrozfy","sub23","11","02","feedback","test","null","","","na","","155","",""
"730.0000000000582","332357","HierDyqcfrozfy","sub23","11","02","rl","test","76","img/o_s_diag.png","6","74","shape,color,pattern","156","0",""
"null","333360","HierDyqcfrozfy","sub23","11","02","feedback","test","null","","","na","","156","",""
"793.0000000000582","334155","HierDyqcfrozfy","sub23","11","02","rl","test","72","img/o_s_dots.png","5","72","shape,color,pattern","157","1",""
"null","335158","HierDyqcfrozfy","sub23","11","02","feedback","test","null","","","na","","157","",""
"514","335675","HierDyqcfrozfy","sub23","11","02","rl","test","75","img/p_s_dots.png","7","75","shape,color,pattern","158","1",""
"null","336680","HierDyqcfrozfy","sub23","11","02","feedback","test","null","","","na","","158","",""
"1176","337858","HierDyqcfrozfy","sub23","11","02","rl","test","68","img/p_c_dots.png","3","68","shape,color,pattern","159","1",""
"null","338862","HierDyqcfrozfy","sub23","11","02","feedback","test","null","","","na","","159","",""
"913.9999999999418","339778","HierDyqcfrozfy","sub23","11","02","rl","test","83","img/o_c_diag.png","2","83","shape,color,pattern","160","1",""
"null","340781","HierDyqcfrozfy","sub23","11","02","feedback","test","null","","","na","","160","",""
"887","341671","HierDyqcfrozfy","sub23","11","02","rl","test","68","img/p_c_dots.png","3","68","shape,color,pattern","161","1",""
"null","342674","HierDyqcfrozfy","sub23","11","02","feedback","test","null","","","na","","161","",""
"746","343423","HierDyqcfrozfy","sub23","11","02","rl","test","65","img/o_c_dots.png","1","65","shape,color,pattern","162","1",""
"null","344426","HierDyqcfrozfy","sub23","11","02","feedback","test","null","","","na","","162","",""
"667.9999999999418","345097","HierDyqcfrozfy","sub23","11","02","rl","test","65","img/o_c_dots.png","1","65","shape,color,pattern","163","1",""
"null","346100","HierDyqcfrozfy","sub23","11","02","feedback","test","null","","","na","","163","",""
"1037","347140","HierDyqcfrozfy","sub23","11","02","rl","test","72","img/o_s_dots.png","5","72","shape,color,pattern","164","1",""
"null","348144","HierDyqcfrozfy","sub23","11","02","feedback","test","null","","","na","","164","",""
"761","348907","HierDyqcfrozfy","sub23","11","02","rl","test","70","img/p_c_diag.png","4","70","shape,color,pattern","165","1",""
"null","349910","HierDyqcfrozfy","sub23","11","02","feedback","test","null","","","na","","165","",""
"811","350724","HierDyqcfrozfy","sub23","11","02","rl","test","75","img/p_s_dots.png","7","75","shape,color,pattern","166","1",""
"null","351727","HierDyqcfrozfy","sub23","11","02","feedback","test","null","","","na","","166","",""
"652.0000000000582","352381","HierDyqcfrozfy","sub23","11","02","rl","test","72","img/o_c_dots.png","1","65","shape,color,pattern","167","0",""
"null","353384","HierDyqcfrozfy","sub23","11","02","feedback","test","null","","","na","","167","",""
"875","354263","HierDyqcfrozfy","sub23","11","02","rl","test","76","img/p_s_diag.png","8","76","shape,color,pattern","168","1",""
"null","355267","HierDyqcfrozfy","sub23","11","02","feedback","test","null","","","na","","168","",""
"1197","356467","HierDyqcfrozfy","sub23","11","02","rl","test","74","img/o_s_diag.png","6","74","shape,color,pattern","169","1",""
"null","357470","HierDyqcfrozfy","sub23","11","02","feedback","test","null","","","na","","169","",""
"907","358379","HierDyqcfrozfy","sub23","11","02","rl","test","76","img/p_s_diag.png","8","76","shape,color,pattern","170","1",""
"null","359383","HierDyqcfrozfy","sub23","11","02","feedback","test","null","","","na","","170","",""
"908","360294","HierDyqcfrozfy","sub23","11","02","rl","test","83","img/o_c_diag.png","2","83","shape,color,pattern","171","1",""
"null","361297","HierDyqcfrozfy","sub23","11","02","feedback","test","null","","","na","","171","",""
"928.0000000000582","362227","HierDyqcfrozfy","sub23","11","02","rl","test","74","img/o_s_diag.png","6","74","shape,color,pattern","172","1",""
"null","363232","HierDyqcfrozfy","sub23","11","02","feedback","test","null","","","na","","172","",""
"855","364092","HierDyqcfrozfy","sub23","11","02","rl","test","74","img/o_s_diag.png","6","74","shape,color,pattern","173","1",""
"null","365098","HierDyqcfrozfy","sub23","11","02","feedback","test","null","","","na","","173","",""
"738","365840","HierDyqcfrozfy","sub23","11","02","rl","test","70","img/p_c_diag.png","4","70","shape,color,pattern","174","1",""
"null","366845","HierDyqcfrozfy","sub23","11","02","feedback","test","null","","","na","","174","",""
"782","367631","HierDyqcfrozfy","sub23","11","02","rl","test","83","img/o_c_diag.png","2","83","shape,color,pattern","175","1",""
"null","368636","HierDyqcfrozfy","sub23","11","02","feedback","test","null","","","na","","175","",""
"634.9999999999418","369275","HierDyqcfrozfy","sub23","11","02","rl","test","68","img/p_c_dots.png","3","68","shape,color,pattern","176","1",""
"null","370280","HierDyqcfrozfy","sub23","11","02","feedback","test","null","","","na","","176","",""
"821","371104","HierDyqcfrozfy","sub23","11","02","rl","test","75","img/p_s_dots.png","7","75","shape,color,pattern","177","1",""
"null","372109","HierDyqcfrozfy","sub23","11","02","feedback","test","null","","","na","","177","",""
"769","372882","HierDyqcfrozfy","sub23","11","02","rl","test","72","img/o_s_dots.png","5","72","shape,color,pattern","178","1",""
"null","373887","HierDyqcfrozfy","sub23","11","02","feedback","test","null","","","na","","178","",""
"757.9999999999418","374648","HierDyqcfrozfy","sub23","11","02","rl","test","70","img/p_c_diag.png","4","70","shape,color,pattern","179","1",""
"null","375652","HierDyqcfrozfy","sub23","11","02","feedback","test","null","","","na","","179","",""
"610","376266","HierDyqcfrozfy","sub23","11","02","rl","test","72","img/o_s_dots.png","5","72","shape,color,pattern","180","1",""
"null","377270","HierDyqcfrozfy","sub23","11","02","feedback","test","null","","","na","","180","",""
"963","378237","HierDyqcfrozfy","sub23","11","02","rl","test","75","img/p_s_dots.png","7","75","shape,color,pattern","181","1",""
"null","379241","HierDyqcfrozfy","sub23","11","02","feedback","test","null","","","na","","181","",""
"665","379908","HierDyqcfrozfy","sub23","11","02","rl","test","72","img/o_c_dots.png","1","65","shape,color,pattern","182","0",""
"null","380911","HierDyqcfrozfy","sub23","11","02","feedback","test","null","","","na","","182","",""
"1279","382193","HierDyqcfrozfy","sub23","11","02","rl","test","68","img/p_c_dots.png","3","68","shape,color,pattern","183","1",""
"null","383197","HierDyqcfrozfy","sub23","11","02","feedback","test","null","","","na","","183","",""
"747","383948","HierDyqcfrozfy","sub23","11","02","rl","test","70","img/p_c_diag.png","4","70","shape,color,pattern","184","1",""
"null","384952","HierDyqcfrozfy","sub23","11","02","feedback","test","null","","","na","","184","",""
"945","385900","HierDyqcfrozfy","sub23","11","02","rl","test","76","img/p_s_diag.png","8","76","shape,color,pattern","185","1",""
"null","386904","HierDyqcfrozfy","sub23","11","02","feedback","test","null","","","na","","185","",""
"928","387834","HierDyqcfrozfy","sub23","11","02","rl","test","72","img/o_s_dots.png","5","72","shape,color,pattern","186","1",""
"null","388836","HierDyqcfrozfy","sub23","11","02","feedback","test","null","","","na","","186","",""
"840","389681","HierDyqcfrozfy","sub23","11","02","rl","test","83","img/o_c_diag.png","2","83","shape,color,pattern","187","1",""
"null","390685","HierDyqcfrozfy","sub23","11","02","feedback","test","null","","","na","","187","",""
"1288","391976","HierDyqcfrozfy","sub23","11","02","rl","test","74","img/o_s_diag.png","6","74","shape,color,pattern","188","1",""
"null","392980","HierDyqcfrozfy","sub23","11","02","feedback","test","null","","","na","","188","",""
"1322","394305","HierDyqcfrozfy","sub23","11","02","rl","test","68","img/p_c_dots.png","3","68","shape,color,pattern","189","1",""
"null","395309","HierDyqcfrozfy","sub23","11","02","feedback","test","null","","","na","","189","",""
"668","395980","HierDyqcfrozfy","sub23","11","02","rl","test","65","img/o_c_dots.png","1","65","shape,color,pattern","190","1",""
"null","396983","HierDyqcfrozfy","sub23","11","02","feedback","test","null","","","na","","190","",""
"1061.0000000000582","398047","HierDyqcfrozfy","sub23","11","02","rl","test","75","img/p_s_dots.png","7","75","shape,color,pattern","191","1",""
"null","399050","HierDyqcfrozfy","sub23","11","02","feedback","test","null","","","na","","191","",""
"647.9999999999418","399701","HierDyqcfrozfy","sub23","11","02","rl","test","76","img/p_s_diag.png","8","76","shape,color,pattern","192","1",""
"null","400705","HierDyqcfrozfy","sub23","11","02","feedback","test","null","","","na","","192","",""
"561","401268","HierDyqcfrozfy","sub23","11","02","rl","test","76","img/p_s_diag.png","8","76","shape,color,pattern","193","1",""
"null","402271","HierDyqcfrozfy","sub23","11","02","feedback","test","null","","","na","","193","",""
"667","402939","HierDyqcfrozfy","sub23","11","02","rl","test","75","img/p_s_dots.png","7","75","shape,color,pattern","194","1",""
"null","403943","HierDyqcfrozfy","sub23","11","02","feedback","test","null","","","na","","194","",""
"1146","405092","HierDyqcfrozfy","sub23","11","02","rl","test","68","img/p_c_dots.png","3","68","shape,color,pattern","195","1",""
"null","406095","HierDyqcfrozfy","sub23","11","02","feedback","test","null","","","na","","195","",""
"830","406927","HierDyqcfrozfy","sub23","11","02","rl","test","72","img/o_s_dots.png","5","72","shape,color,pattern","196","1",""
"null","407931","HierDyqcfrozfy","sub23","11","02","feedback","test","null","","","na","","196","",""
"703","408636","HierDyqcfrozfy","sub23","11","02","rl","test","70","img/p_c_diag.png","4","70","shape,color,pattern","197","1",""
"null","409640","HierDyqcfrozfy","sub23","11","02","feedback","test","null","","","na","","197","",""
"813.9999999999418","410458","HierDyqcfrozfy","sub23","11","02","rl","test","83","img/o_c_diag.png","2","83","shape,color,pattern","198","1",""
"null","411462","HierDyqcfrozfy","sub23","11","02","feedback","test","null","","","na","","198","",""
"545","412009","HierDyqcfrozfy","sub23","11","02","rl","test","83","img/o_c_dots.png","1","65","shape,color,pattern","199","0",""
"null","413013","HierDyqcfrozfy","sub23","11","02","feedback","test","null","","","na","","199","",""
"1073","414089","HierDyqcfrozfy","sub23","11","02","rl","test","74","img/o_s_diag.png","6","74","shape,color,pattern","200","1",""
"null","415093","HierDyqcfrozfy","sub23","11","02","feedback","test","null","","","na","","200","",""
"775","415870","HierDyqcfrozfy","sub23","11","02","rl","test","72","img/o_s_dots.png","5","72","shape,color,pattern","201","1",""
"null","416873","HierDyqcfrozfy","sub23","11","02","feedback","test","null","","","na","","201","",""
"772","417648","HierDyqcfrozfy","sub23","11","02","rl","test","75","img/p_s_dots.png","7","75","shape,color,pattern","202","1",""
"null","418651","HierDyqcfrozfy","sub23","11","02","feedback","test","null","","","na","","202","",""
"928","419582","HierDyqcfrozfy","sub23","11","02","rl","test","83","img/o_s_diag.png","6","74","shape,color,pattern","203","0",""
"null","420585","HierDyqcfrozfy","sub23","11","02","feedback","test","null","","","na","","203","",""
"874.0000000000582","421461","HierDyqcfrozfy","sub23","11","02","rl","test","65","img/o_c_dots.png","1","65","shape,color,pattern","204","1",""
"null","422463","HierDyqcfrozfy","sub23","11","02","feedback","test","null","","","na","","204","",""
"528","422996","HierDyqcfrozfy","sub23","11","02","rl","test","83","img/o_c_diag.png","2","83","shape,color,pattern","205","1",""
"null","424000","HierDyqcfrozfy","sub23","11","02","feedback","test","null","","","na","","205","",""
"956.9999999999418","424959","HierDyqcfrozfy","sub23","11","02","rl","test","75","img/p_s_diag.png","8","76","shape,color,pattern","206","0",""
"null","425964","HierDyqcfrozfy","sub23","11","02","feedback","test","null","","","na","","206","",""
"1444.9999999999418","427411","HierDyqcfrozfy","sub23","11","02","rl","test","83","img/o_c_diag.png","2","83","shape,color,pattern","207","1",""
"null","428415","HierDyqcfrozfy","sub23","11","02","feedback","test","null","","","na","","207","",""
"1042","429459","HierDyqcfrozfy","sub23","11","02","rl","test","76","img/p_c_diag.png","4","70","shape,color,pattern","208","0",""
"null","430462","HierDyqcfrozfy","sub23","11","02","feedback","test","null","","","na","","208","",""
"1279","431744","HierDyqcfrozfy","sub23","11","02","rl","test","68","img/p_c_dots.png","3","68","shape,color,pattern","209","1",""
"null","432748","HierDyqcfrozfy","sub23","11","02","feedback","test","null","","","na","","209","",""
"590","433341","HierDyqcfrozfy","sub23","11","02","rl","test","68","img/p_c_dots.png","3","68","shape,color,pattern","210","1",""
"null","434344","HierDyqcfrozfy","sub23","11","02","feedback","test","null","","","na","","210","",""
"572.0000000000582","434918","HierDyqcfrozfy","sub23","11","02","rl","test","83","img/o_c_diag.png","2","83","shape,color,pattern","211","1",""
"null","435920","HierDyqcfrozfy","sub23","11","02","feedback","test","null","","","na","","211","",""
"744","436667","HierDyqcfrozfy","sub23","11","02","rl","test","76","img/p_s_diag.png","8","76","shape,color,pattern","212","1",""
"null","437670","HierDyqcfrozfy","sub23","11","02","feedback","test","null","","","na","","212","",""
"805","438477","HierDyqcfrozfy","sub23","11","02","rl","test","65","img/o_c_dots.png","1","65","shape,color,pattern","213","1",""
"null","439480","HierDyqcfrozfy","sub23","11","02","feedback","test","null","","","na","","213","",""
"1392","440874","HierDyqcfrozfy","sub23","11","02","rl","test","75","img/p_s_dots.png","7","75","shape,color,pattern","214","1",""
"null","441877","HierDyqcfrozfy","sub23","11","02","feedback","test","null","","","na","","214","",""
"670","442550","HierDyqcfrozfy","sub23","11","02","rl","test","72","img/o_s_dots.png","5","72","shape,color,pattern","215","1",""
"null","443555","HierDyqcfrozfy","sub23","11","02","feedback","test","null","","","na","","215","",""
"720","444277","HierDyqcfrozfy","sub23","11","02","rl","test","76","img/p_s_diag.png","8","76","shape,color,pattern","216","1",""
"null","445280","HierDyqcfrozfy","sub23","11","02","feedback","test","null","","","na","","216","",""
"1086","446369","HierDyqcfrozfy","sub23","11","02","rl","test","70","img/p_c_diag.png","4","70","shape,color,pattern","217","1",""
"null","447373","HierDyqcfrozfy","sub23","11","02","feedback","test","null","","","na","","217","",""
"757","448132","HierDyqcfrozfy","sub23","11","02","rl","test","72","img/o_s_diag.png","6","74","shape,color,pattern","218","0",""
"null","449136","HierDyqcfrozfy","sub23","11","02","feedback","test","null","","","na","","218","",""
"551","449690","HierDyqcfrozfy","sub23","11","02","rl","test","74","img/o_s_diag.png","6","74","shape,color,pattern","219","1",""
"null","450693","HierDyqcfrozfy","sub23","11","02","feedback","test","null","","","na","","219","",""
"671.0000000000582","451365","HierDyqcfrozfy","sub23","11","02","rl","test","70","img/p_c_diag.png","4","70","shape,color,pattern","220","1",""
"null","452369","HierDyqcfrozfy","sub23","11","02","feedback","test","null","","","na","","220","",""
"626","452997","HierDyqcfrozfy","sub23","11","02","rl","test","72","img/o_c_dots.png","1","65","shape,color,pattern","221","0",""
"null","454001","HierDyqcfrozfy","sub23","11","02","feedback","test","null","","","na","","221","",""
"988","454991","HierDyqcfrozfy","sub23","11","02","rl","test","70","img/p_c_diag.png","4","70","shape,color,pattern","222","1",""
"null","455993","HierDyqcfrozfy","sub23","11","02","feedback","test","null","","","na","","222","",""
"824","456820","HierDyqcfrozfy","sub23","11","02","rl","test","68","img/p_c_dots.png","3","68","shape,color,pattern","223","1",""
"null","457823","HierDyqcfrozfy","sub23","11","02","feedback","test","null","","","na","","223","",""
"1157","458983","HierDyqcfrozfy","sub23","11","02","rl","test","75","img/p_s_dots.png","7","75","shape,color,pattern","224","1",""
"null","459987","HierDyqcfrozfy","sub23","11","02","feedback","test","null","","","na","","224","",""
"740","460729","HierDyqcfrozfy","sub23","11","02","rl","test","72","img/o_s_dots.png","5","72","shape,color,pattern","225","1",""
"null","461733","HierDyqcfrozfy","sub23","11","02","feedback","test","null","","","na","","225","",""
"986.9999999999418","462722","HierDyqcfrozfy","sub23","11","02","rl","test","83","img/o_c_diag.png","2","83","shape,color,pattern","226","1",""
"null","463725","HierDyqcfrozfy","sub23","11","02","feedback","test","null","","","na","","226","",""
"1039","464767","HierDyqcfrozfy","sub23","11","02","rl","test","68","img/p_c_dots.png","3","68","shape,color,pattern","227","1",""
"null","465771","HierDyqcfrozfy","sub23","11","02","feedback","test","null","","","na","","227","",""
"1080.0000000000582","466853","HierDyqcfrozfy","sub23","11","02","rl","test","76","img/p_s_diag.png","8","76","shape,color,pattern","228","1",""
"null","467856","HierDyqcfrozfy","sub23","11","02","feedback","test","null","","","na","","228","",""
"672","468531","HierDyqcfrozfy","sub23","11","02","rl","test","75","img/p_s_dots.png","7","75","shape,color,pattern","229","1",""
"null","469534","HierDyqcfrozfy","sub23","11","02","feedback","test","null","","","na","","229","",""
"777","470314","HierDyqcfrozfy","sub23","11","02","rl","test","83","img/o_s_diag.png","6","74","shape,color,pattern","230","0",""
"null","471318","HierDyqcfrozfy","sub23","11","02","feedback","test","null","","","na","","230","",""
"701","472022","HierDyqcfrozfy","sub23","11","02","rl","test","72","img/o_s_dots.png","5","72","shape,color,pattern","231","1",""
"null","473026","HierDyqcfrozfy","sub23","11","02","feedback","test","null","","","na","","231","",""
"1150","474178","HierDyqcfrozfy","sub23","11","02","rl","test","74","img/o_s_diag.png","6","74","shape,color,pattern","232","1",""
"null","475182","HierDyqcfrozfy","sub23","11","02","feedback","test","null","","","na","","232","",""
"1085.0000000000582","476269","HierDyqcfrozfy","sub23","11","02","rl","test","83","img/o_c_diag.png","2","83","shape,color,pattern","233","1",""
"null","477273","HierDyqcfrozfy","sub23","11","02","feedback","test","null","","","na","","233","",""
"611.9999999999418","477888","HierDyqcfrozfy","sub23","11","02","rl","test","65","img/o_c_dots.png","1","65","shape,color,pattern","234","1",""
"null","478892","HierDyqcfrozfy","sub23","11","02","feedback","test","null","","","na","","234","",""
"601","479496","HierDyqcfrozfy","sub23","11","02","rl","test","65","img/o_c_dots.png","1","65","shape,color,pattern","235","1",""
"null","480500","HierDyqcfrozfy","sub23","11","02","feedback","test","null","","","na","","235","",""
"1036.9999999999418","481539","HierDyqcfrozfy","sub23","11","02","rl","test","76","img/p_s_diag.png","8","76","shape,color,pattern","236","1",""
"null","482543","HierDyqcfrozfy","sub23","11","02","feedback","test","null","","","na","","236","",""
"580","483125","HierDyqcfrozfy","sub23","11","02","rl","test","70","img/p_c_diag.png","4","70","shape,color,pattern","237","1",""
"null","484128","HierDyqcfrozfy","sub23","11","02","feedback","test","null","","","na","","237","",""
"595","484725","HierDyqcfrozfy","sub23","11","02","rl","test","72","img/o_c_dots.png","1","65","shape,color,pattern","238","0",""
"null","485728","HierDyqcfrozfy","sub23","11","02","feedback","test","null","","","na","","238","",""
"966","486697","HierDyqcfrozfy","sub23","11","02","rl","test","75","img/p_s_dots.png","7","75","shape,color,pattern","239","1",""
"null","487701","HierDyqcfrozfy","sub23","11","02","feedback","test","null","","","na","","239","",""
"846","488548","HierDyqcfrozfy","sub23","11","02","rl","test","72","img/o_s_dots.png","5","72","shape,color,pattern","240","1",""
"null","489552","HierDyqcfrozfy","sub23","11","02","feedback","test","null","","","na","","240","",""
"1113","490669","HierDyqcfrozfy","sub23","11","02","rl","test","68","img/p_c_dots.png","3","68","shape,color,pattern","241","1",""
"null","491673","HierDyqcfrozfy","sub23","11","02","feedback","test","null","","","na","","241","",""
"680.9999999999418","492355","HierDyqcfrozfy","sub23","11","02","rl","test","76","img/p_s_diag.png","8","76","shape,color,pattern","242","1",""
"null","493358","HierDyqcfrozfy","sub23","11","02","feedback","test","null","","","na","","242","",""
"1131","494492","HierDyqcfrozfy","sub23","11","02","rl","test","68","img/p_c_dots.png","3","68","shape,color,pattern","243","1",""
"null","495496","HierDyqcfrozfy","sub23","11","02","feedback","test","null","","","na","","243","",""
"909","496408","HierDyqcfrozfy","sub23","11","02","rl","test","75","img/p_s_dots.png","7","75","shape,color,pattern","244","1",""
"null","497411","HierDyqcfrozfy","sub23","11","02","feedback","test","null","","","na","","244","",""
"734","498147","HierDyqcfrozfy","sub23","11","02","rl","test","70","img/p_c_diag.png","4","70","shape,color,pattern","245","1",""
"null","499151","HierDyqcfrozfy","sub23","11","02","feedback","test","null","","","na","","245","",""
"587","499741","HierDyqcfrozfy","sub23","11","02","rl","test","83","img/o_c_diag.png","2","83","shape,color,pattern","246","1",""
"null","500744","HierDyqcfrozfy","sub23","11","02","feedback","test","null","","","na","","246","",""
"1297.0000000000582","502043","HierDyqcfrozfy","sub23","11","02","rl","test","74","img/o_s_diag.png","6","74","shape,color,pattern","247","1",""
"null","503047","HierDyqcfrozfy","sub23","11","02","feedback","test","null","","","na","","247","",""
"857.0000000000582","503905","HierDyqcfrozfy","sub23","11","02","rl","test","75","img/p_s_dots.png","7","75","shape,color,pattern","248","1",""
"null","504908","HierDyqcfrozfy","sub23","11","02","feedback","test","null","","","na","","248","",""
"46370","551312","HierDyqcfrozfy","sub23","11","02","","","","","","","","","","{""Q0"":""8.75""}"
"49230","600545","HierDyqcfrozfy","sub23","11","02","","","","","","","","","","{""Q0"":""Since I frequently mixed up squares and circles, I tried to pay closer conscious attention to the shape - other than that, no conscious strategies""}"
"5075","605621","HierDyqcfrozfy","sub23","11","02","","","","","","","","","",""
