"rt","responses","time_elapsed","subject","prolificID","demoID","trialType","question_order","key_press","stim","corrresp","phase","stimNum","trialNum","corr","repeatTrial","motorSwitch","pracCounter","hierarchy"
"2887455","{""Q0"":""msl000325""}","2887504","HierDyb66rd6se","1ij4vuofd0","msl000325","","","","","","","","","","","","",""
"1425","","2888943","HierDyb66rd6se","1ij4vuofd0","msl000325","","","","","","","","","","","","",""
"","","2890618","HierDyb66rd6se","1ij4vuofd0","msl000325","fullscreen","","","","","","","","","","","",""
"9567","{""Vision"":""Yes"",""Handedness"":""Right"",""Gender"":""female""}","2900201","HierDyb66rd6se","1ij4vuofd0","msl000325","","[0,1,2]","","","","","","","","","","",""
"4016","{""Q0"":""22""}","2904237","HierDyb66rd6se","1ij4vuofd0","msl000325","","","","","","","","","","","","",""
"165522","","3069775","HierDyb66rd6se","1ij4vuofd0","msl000325","","","","","","","","","","","","",""
"1054","","3070843","HierDyb66rd6se","1ij4vuofd0","msl000325","motor","","70","img/motor_4.png","70","motor","4","1","1","0","0","",""
"null","","3070956","HierDyb66rd6se","1ij4vuofd0","msl000325","iti","","null","img/motor_4.png","70","motor","","","","","","",""
"1144","","3072112","HierDyb66rd6se","1ij4vuofd0","msl000325","motor","","72","img/motor_5.png","72","motor","5","2","1","0","0","",""
"null","","3072225","HierDyb66rd6se","1ij4vuofd0","msl000325","iti","","null","img/motor_5.png","72","motor","","","","","","",""
"699","","3072935","HierDyb66rd6se","1ij4vuofd0","msl000325","motor","","83","img/motor_2.png","83","motor","2","3","1","0","0","",""
"null","","3073047","HierDyb66rd6se","1ij4vuofd0","msl000325","iti","","null","img/motor_2.png","83","motor","","","","","","",""
"779","","3073838","HierDyb66rd6se","1ij4vuofd0","msl000325","motor","","75","img/motor_7.png","75","motor","7","4","1","0","0","",""
"null","","3073951","HierDyb66rd6se","1ij4vuofd0","msl000325","iti","","null","img/motor_7.png","75","motor","","","","","","",""
"720","","3074683","HierDyb66rd6se","1ij4vuofd0","msl000325","motor","","72","img/motor_5.png","72","motor","5","5","1","0","0","",""
"null","","3074794","HierDyb66rd6se","1ij4vuofd0","msl000325","iti","","null","img/motor_5.png","72","motor","","","","","","",""
"632","","3075437","HierDyb66rd6se","1ij4vuofd0","msl000325","motor","","65","img/motor_1.png","65","motor","1","6","1","0","0","",""
"null","","3075550","HierDyb66rd6se","1ij4vuofd0","msl000325","iti","","null","img/motor_1.png","65","motor","","","","","","",""
"757","","3076319","HierDyb66rd6se","1ij4vuofd0","msl000325","motor","","68","img/motor_3.png","68","motor","3","7","1","0","0","",""
"null","","3076431","HierDyb66rd6se","1ij4vuofd0","msl000325","iti","","null","img/motor_3.png","68","motor","","","","","","",""
"744","","3077185","HierDyb66rd6se","1ij4vuofd0","msl000325","motor","","74","img/motor_6.png","74","motor","6","8","1","0","0","",""
"null","","3077298","HierDyb66rd6se","1ij4vuofd0","msl000325","iti","","null","img/motor_6.png","74","motor","","","","","","",""
"580","","3077890","HierDyb66rd6se","1ij4vuofd0","msl000325","motor","","72","img/motor_5.png","72","motor","5","9","1","0","0","",""
"null","","3078002","HierDyb66rd6se","1ij4vuofd0","msl000325","iti","","null","img/motor_5.png","72","motor","","","","","","",""
"680","","3078693","HierDyb66rd6se","1ij4vuofd0","msl000325","motor","","83","img/motor_2.png","83","motor","2","10","1","0","0","",""
"null","","3078805","HierDyb66rd6se","1ij4vuofd0","msl000325","iti","","null","img/motor_2.png","83","motor","","","","","","",""
"566","","3079384","HierDyb66rd6se","1ij4vuofd0","msl000325","motor","","68","img/motor_3.png","68","motor","3","11","1","0","0","",""
"null","","3079497","HierDyb66rd6se","1ij4vuofd0","msl000325","iti","","null","img/motor_3.png","68","motor","","","","","","",""
"705","","3080214","HierDyb66rd6se","1ij4vuofd0","msl000325","motor","","76","img/motor_8.png","76","motor","8","12","1","0","0","",""
"null","","3080326","HierDyb66rd6se","1ij4vuofd0","msl000325","iti","","null","img/motor_8.png","76","motor","","","","","","",""
"578","","3080915","HierDyb66rd6se","1ij4vuofd0","msl000325","motor","","74","img/motor_6.png","74","motor","6","13","1","0","0","",""
"null","","3081027","HierDyb66rd6se","1ij4vuofd0","msl000325","iti","","null","img/motor_6.png","74","motor","","","","","","",""
"608","","3081647","HierDyb66rd6se","1ij4vuofd0","msl000325","motor","","83","img/motor_2.png","83","motor","2","14","1","0","0","",""
"null","","3081759","HierDyb66rd6se","1ij4vuofd0","msl000325","iti","","null","img/motor_2.png","83","motor","","","","","","",""
"625","","3082394","HierDyb66rd6se","1ij4vuofd0","msl000325","motor","","74","img/motor_6.png","74","motor","6","15","1","0","0","",""
"null","","3082508","HierDyb66rd6se","1ij4vuofd0","msl000325","iti","","null","img/motor_6.png","74","motor","","","","","","",""
"575","","3083094","HierDyb66rd6se","1ij4vuofd0","msl000325","motor","","70","img/motor_4.png","70","motor","4","16","1","0","0","",""
"null","","3083207","HierDyb66rd6se","1ij4vuofd0","msl000325","iti","","null","img/motor_4.png","70","motor","","","","","","",""
"589","","3083807","HierDyb66rd6se","1ij4vuofd0","msl000325","motor","","74","img/motor_6.png","74","motor","6","17","1","0","0","",""
"null","","3083920","HierDyb66rd6se","1ij4vuofd0","msl000325","iti","","null","img/motor_6.png","74","motor","","","","","","",""
"522","","3084452","HierDyb66rd6se","1ij4vuofd0","msl000325","motor","","75","img/motor_7.png","75","motor","7","18","1","0","0","",""
"null","","3084564","HierDyb66rd6se","1ij4vuofd0","msl000325","iti","","null","img/motor_7.png","75","motor","","","","","","",""
"494","","3085070","HierDyb66rd6se","1ij4vuofd0","msl000325","motor","","74","img/motor_6.png","74","motor","6","19","1","0","0","",""
"null","","3085182","HierDyb66rd6se","1ij4vuofd0","msl000325","iti","","null","img/motor_6.png","74","motor","","","","","","",""
"514","","3085707","HierDyb66rd6se","1ij4vuofd0","msl000325","motor","","70","img/motor_3.png","68","motor","3","20","0","1","0","",""
"852","","3086571","HierDyb66rd6se","1ij4vuofd0","msl000325","motorRepeat","","68","img/motor_3.png","68","motor","3","20","1","0","0","",""
"null","","3086684","HierDyb66rd6se","1ij4vuofd0","msl000325","iti","","null","img/motor_3.png","68","motor","","","","","","",""
"658","","3087354","HierDyb66rd6se","1ij4vuofd0","msl000325","motor","","72","img/motor_5.png","72","motor","5","21","1","0","0","",""
"null","","3087466","HierDyb66rd6se","1ij4vuofd0","msl000325","iti","","null","img/motor_5.png","72","motor","","","","","","",""
"630","","3088107","HierDyb66rd6se","1ij4vuofd0","msl000325","motor","","68","img/motor_3.png","68","motor","3","22","1","0","0","",""
"null","","3088219","HierDyb66rd6se","1ij4vuofd0","msl000325","iti","","null","img/motor_3.png","68","motor","","","","","","",""
"528","","3088759","HierDyb66rd6se","1ij4vuofd0","msl000325","motor","","65","img/motor_1.png","65","motor","1","23","1","0","0","",""
"null","","3088871","HierDyb66rd6se","1ij4vuofd0","msl000325","iti","","null","img/motor_1.png","65","motor","","","","","","",""
"464","","3089346","HierDyb66rd6se","1ij4vuofd0","msl000325","motor","","65","img/motor_1.png","65","motor","1","24","1","0","0","",""
"null","","3089459","HierDyb66rd6se","1ij4vuofd0","msl000325","iti","","null","img/motor_1.png","65","motor","","","","","","",""
"514","","3089987","HierDyb66rd6se","1ij4vuofd0","msl000325","motor","","68","img/motor_3.png","68","motor","3","25","1","0","0","",""
"null","","3090100","HierDyb66rd6se","1ij4vuofd0","msl000325","iti","","null","img/motor_3.png","68","motor","","","","","","",""
"1032","","3091145","HierDyb66rd6se","1ij4vuofd0","msl000325","motor","","72","img/motor_5.png","72","motor","5","26","1","0","0","",""
"null","","3091257","HierDyb66rd6se","1ij4vuofd0","msl000325","iti","","null","img/motor_5.png","72","motor","","","","","","",""
"399","","3091670","HierDyb66rd6se","1ij4vuofd0","msl000325","motor","","74","img/motor_6.png","74","motor","6","27","1","0","0","",""
"null","","3091782","HierDyb66rd6se","1ij4vuofd0","msl000325","iti","","null","img/motor_6.png","74","motor","","","","","","",""
"417","","3092213","HierDyb66rd6se","1ij4vuofd0","msl000325","motor","","74","img/motor_6.png","74","motor","6","28","1","0","0","",""
"null","","3092326","HierDyb66rd6se","1ij4vuofd0","msl000325","iti","","null","img/motor_6.png","74","motor","","","","","","",""
"662","","3092999","HierDyb66rd6se","1ij4vuofd0","msl000325","motor","","83","img/motor_2.png","83","motor","2","29","1","0","0","",""
"null","","3093112","HierDyb66rd6se","1ij4vuofd0","msl000325","iti","","null","img/motor_2.png","83","motor","","","","","","",""
"393","","3093516","HierDyb66rd6se","1ij4vuofd0","msl000325","motor","","68","img/motor_3.png","68","motor","3","30","1","0","0","",""
"null","","3093630","HierDyb66rd6se","1ij4vuofd0","msl000325","iti","","null","img/motor_3.png","68","motor","","","","","","",""
"434","","3094078","HierDyb66rd6se","1ij4vuofd0","msl000325","motor","","83","img/motor_2.png","83","motor","2","31","1","0","0","",""
"null","","3094191","HierDyb66rd6se","1ij4vuofd0","msl000325","iti","","null","img/motor_2.png","83","motor","","","","","","",""
"784","","3094988","HierDyb66rd6se","1ij4vuofd0","msl000325","motor","","76","img/motor_8.png","76","motor","8","32","1","0","0","",""
"null","","3095100","HierDyb66rd6se","1ij4vuofd0","msl000325","iti","","null","img/motor_8.png","76","motor","","","","","","",""
"539","","3095651","HierDyb66rd6se","1ij4vuofd0","msl000325","motor","","83","img/motor_2.png","83","motor","2","33","1","0","0","",""
"null","","3095764","HierDyb66rd6se","1ij4vuofd0","msl000325","iti","","null","img/motor_2.png","83","motor","","","","","","",""
"561","","3096337","HierDyb66rd6se","1ij4vuofd0","msl000325","motor","","75","img/motor_7.png","75","motor","7","34","1","0","0","",""
"null","","3096449","HierDyb66rd6se","1ij4vuofd0","msl000325","iti","","null","img/motor_7.png","75","motor","","","","","","",""
"855","","3097316","HierDyb66rd6se","1ij4vuofd0","msl000325","motor","","72","img/motor_5.png","72","motor","5","35","1","0","0","",""
"null","","3097430","HierDyb66rd6se","1ij4vuofd0","msl000325","iti","","null","img/motor_5.png","72","motor","","","","","","",""
"641","","3098083","HierDyb66rd6se","1ij4vuofd0","msl000325","motor","","65","img/motor_1.png","65","motor","1","36","1","0","0","",""
"null","","3098196","HierDyb66rd6se","1ij4vuofd0","msl000325","iti","","null","img/motor_1.png","65","motor","","","","","","",""
"452","","3098661","HierDyb66rd6se","1ij4vuofd0","msl000325","motor","","83","img/motor_2.png","83","motor","2","37","1","0","0","",""
"null","","3098773","HierDyb66rd6se","1ij4vuofd0","msl000325","iti","","null","img/motor_2.png","83","motor","","","","","","",""
"664","","3099448","HierDyb66rd6se","1ij4vuofd0","msl000325","motor","","76","img/motor_8.png","76","motor","8","38","1","0","0","",""
"null","","3099563","HierDyb66rd6se","1ij4vuofd0","msl000325","iti","","null","img/motor_8.png","76","motor","","","","","","",""
"520","","3100097","HierDyb66rd6se","1ij4vuofd0","msl000325","motor","","83","img/motor_2.png","83","motor","2","39","1","0","0","",""
"null","","3100210","HierDyb66rd6se","1ij4vuofd0","msl000325","iti","","null","img/motor_2.png","83","motor","","","","","","",""
"538","","3100759","HierDyb66rd6se","1ij4vuofd0","msl000325","motor","","70","img/motor_4.png","70","motor","4","40","1","0","0","",""
"null","","3100872","HierDyb66rd6se","1ij4vuofd0","msl000325","iti","","null","img/motor_4.png","70","motor","","","","","","",""
"482","","3101365","HierDyb66rd6se","1ij4vuofd0","msl000325","motor","","68","img/motor_3.png","68","motor","3","41","1","0","0","",""
"null","","3101478","HierDyb66rd6se","1ij4vuofd0","msl000325","iti","","null","img/motor_3.png","68","motor","","","","","","",""
"846","","3102337","HierDyb66rd6se","1ij4vuofd0","msl000325","motor","","74","img/motor_6.png","74","motor","6","42","1","0","0","",""
"null","","3102449","HierDyb66rd6se","1ij4vuofd0","msl000325","iti","","null","img/motor_6.png","74","motor","","","","","","",""
"480","","3102942","HierDyb66rd6se","1ij4vuofd0","msl000325","motor","","65","img/motor_1.png","65","motor","1","43","1","0","0","",""
"null","","3103053","HierDyb66rd6se","1ij4vuofd0","msl000325","iti","","null","img/motor_1.png","65","motor","","","","","","",""
"653","","3103718","HierDyb66rd6se","1ij4vuofd0","msl000325","motor","","74","img/motor_6.png","74","motor","6","44","1","0","0","",""
"null","","3103831","HierDyb66rd6se","1ij4vuofd0","msl000325","iti","","null","img/motor_6.png","74","motor","","","","","","",""
"614","","3104456","HierDyb66rd6se","1ij4vuofd0","msl000325","motor","","76","img/motor_8.png","76","motor","8","45","1","0","0","",""
"null","","3104569","HierDyb66rd6se","1ij4vuofd0","msl000325","iti","","null","img/motor_8.png","76","motor","","","","","","",""
"729","","3105308","HierDyb66rd6se","1ij4vuofd0","msl000325","motor","","68","img/motor_3.png","68","motor","3","46","1","0","0","",""
"null","","3105422","HierDyb66rd6se","1ij4vuofd0","msl000325","iti","","null","img/motor_3.png","68","motor","","","","","","",""
"428","","3105863","HierDyb66rd6se","1ij4vuofd0","msl000325","motor","","68","img/motor_3.png","68","motor","3","47","1","0","0","",""
"null","","3105974","HierDyb66rd6se","1ij4vuofd0","msl000325","iti","","null","img/motor_3.png","68","motor","","","","","","",""
"811","","3106797","HierDyb66rd6se","1ij4vuofd0","msl000325","motor","","75","img/motor_7.png","75","motor","7","48","1","0","0","",""
"null","","3106910","HierDyb66rd6se","1ij4vuofd0","msl000325","iti","","null","img/motor_7.png","75","motor","","","","","","",""
"421","","3107342","HierDyb66rd6se","1ij4vuofd0","msl000325","motor","","75","img/motor_7.png","75","motor","7","49","1","0","0","",""
"null","","3107454","HierDyb66rd6se","1ij4vuofd0","msl000325","iti","","null","img/motor_7.png","75","motor","","","","","","",""
"482","","3107949","HierDyb66rd6se","1ij4vuofd0","msl000325","motor","","76","img/motor_8.png","76","motor","8","50","1","0","0","",""
"null","","3108063","HierDyb66rd6se","1ij4vuofd0","msl000325","iti","","null","img/motor_8.png","76","motor","","","","","","",""
"805","","3108878","HierDyb66rd6se","1ij4vuofd0","msl000325","motor","","72","img/motor_5.png","72","motor","5","51","1","0","0","",""
"null","","3108990","HierDyb66rd6se","1ij4vuofd0","msl000325","iti","","null","img/motor_5.png","72","motor","","","","","","",""
"769","","3109770","HierDyb66rd6se","1ij4vuofd0","msl000325","motor","","83","img/motor_2.png","83","motor","2","52","1","0","0","",""
"null","","3109883","HierDyb66rd6se","1ij4vuofd0","msl000325","iti","","null","img/motor_2.png","83","motor","","","","","","",""
"543","","3110438","HierDyb66rd6se","1ij4vuofd0","msl000325","motor","","83","img/motor_2.png","83","motor","2","53","1","0","0","",""
"null","","3110552","HierDyb66rd6se","1ij4vuofd0","msl000325","iti","","null","img/motor_2.png","83","motor","","","","","","",""
"1393","","3111956","HierDyb66rd6se","1ij4vuofd0","msl000325","motor","","70","img/motor_4.png","70","motor","4","54","1","0","0","",""
"null","","3112069","HierDyb66rd6se","1ij4vuofd0","msl000325","iti","","null","img/motor_4.png","70","motor","","","","","","",""
"618","","3112699","HierDyb66rd6se","1ij4vuofd0","msl000325","motor","","76","img/motor_8.png","76","motor","8","55","1","0","0","",""
"null","","3112813","HierDyb66rd6se","1ij4vuofd0","msl000325","iti","","null","img/motor_8.png","76","motor","","","","","","",""
"631","","3113456","HierDyb66rd6se","1ij4vuofd0","msl000325","motor","","83","img/motor_2.png","83","motor","2","56","1","0","0","",""
"null","","3113568","HierDyb66rd6se","1ij4vuofd0","msl000325","iti","","null","img/motor_2.png","83","motor","","","","","","",""
"637","","3114217","HierDyb66rd6se","1ij4vuofd0","msl000325","motor","","72","img/motor_5.png","72","motor","5","57","1","0","0","",""
"null","","3114331","HierDyb66rd6se","1ij4vuofd0","msl000325","iti","","null","img/motor_5.png","72","motor","","","","","","",""
"594","","3114936","HierDyb66rd6se","1ij4vuofd0","msl000325","motor","","76","img/motor_8.png","76","motor","8","58","1","0","0","",""
"null","","3115048","HierDyb66rd6se","1ij4vuofd0","msl000325","iti","","null","img/motor_8.png","76","motor","","","","","","",""
"518","","3115578","HierDyb66rd6se","1ij4vuofd0","msl000325","motor","","75","img/motor_7.png","75","motor","7","59","1","0","0","",""
"null","","3115691","HierDyb66rd6se","1ij4vuofd0","msl000325","iti","","null","img/motor_7.png","75","motor","","","","","","",""
"548","","3116250","HierDyb66rd6se","1ij4vuofd0","msl000325","motor","","83","img/motor_2.png","83","motor","2","60","1","0","0","",""
"null","","3116364","HierDyb66rd6se","1ij4vuofd0","msl000325","iti","","null","img/motor_2.png","83","motor","","","","","","",""
"553","","3116927","HierDyb66rd6se","1ij4vuofd0","msl000325","motor","","75","img/motor_7.png","75","motor","7","61","1","0","0","",""
"null","","3117040","HierDyb66rd6se","1ij4vuofd0","msl000325","iti","","null","img/motor_7.png","75","motor","","","","","","",""
"502","","3117554","HierDyb66rd6se","1ij4vuofd0","msl000325","motor","","74","img/motor_6.png","74","motor","6","62","1","0","0","",""
"null","","3117667","HierDyb66rd6se","1ij4vuofd0","msl000325","iti","","null","img/motor_6.png","74","motor","","","","","","",""
"486","","3118163","HierDyb66rd6se","1ij4vuofd0","msl000325","motor","","76","img/motor_8.png","76","motor","8","63","1","0","0","",""
"null","","3118278","HierDyb66rd6se","1ij4vuofd0","msl000325","iti","","null","img/motor_8.png","76","motor","","","","","","",""
"477","","3118765","HierDyb66rd6se","1ij4vuofd0","msl000325","motor","","74","img/motor_6.png","74","motor","6","64","1","0","0","",""
"null","","3118879","HierDyb66rd6se","1ij4vuofd0","msl000325","iti","","null","img/motor_6.png","74","motor","","","","","","",""
"431","","3119321","HierDyb66rd6se","1ij4vuofd0","msl000325","motor","","74","img/motor_6.png","74","motor","6","65","1","0","0","",""
"null","","3119434","HierDyb66rd6se","1ij4vuofd0","msl000325","iti","","null","img/motor_6.png","74","motor","","","","","","",""
"564","","3120009","HierDyb66rd6se","1ij4vuofd0","msl000325","motor","","70","img/motor_4.png","70","motor","4","66","1","0","0","",""
"null","","3120122","HierDyb66rd6se","1ij4vuofd0","msl000325","iti","","null","img/motor_4.png","70","motor","","","","","","",""
"499","","3120631","HierDyb66rd6se","1ij4vuofd0","msl000325","motor","","65","img/motor_1.png","65","motor","1","67","1","0","0","",""
"null","","3120744","HierDyb66rd6se","1ij4vuofd0","msl000325","iti","","null","img/motor_1.png","65","motor","","","","","","",""
"529","","3121287","HierDyb66rd6se","1ij4vuofd0","msl000325","motor","","83","img/motor_2.png","83","motor","2","68","1","0","0","",""
"null","","3121400","HierDyb66rd6se","1ij4vuofd0","msl000325","iti","","null","img/motor_2.png","83","motor","","","","","","",""
"680","","3122092","HierDyb66rd6se","1ij4vuofd0","msl000325","motor","","75","img/motor_7.png","75","motor","7","69","1","0","0","",""
"null","","3122205","HierDyb66rd6se","1ij4vuofd0","msl000325","iti","","null","img/motor_7.png","75","motor","","","","","","",""
"401","","3122618","HierDyb66rd6se","1ij4vuofd0","msl000325","motor","","75","img/motor_7.png","75","motor","7","70","1","0","0","",""
"null","","3122732","HierDyb66rd6se","1ij4vuofd0","msl000325","iti","","null","img/motor_7.png","75","motor","","","","","","",""
"528","","3123271","HierDyb66rd6se","1ij4vuofd0","msl000325","motor","","70","img/motor_4.png","70","motor","4","71","1","0","0","",""
"null","","3123384","HierDyb66rd6se","1ij4vuofd0","msl000325","iti","","null","img/motor_4.png","70","motor","","","","","","",""
"545","","3123940","HierDyb66rd6se","1ij4vuofd0","msl000325","motor","","72","img/motor_5.png","72","motor","5","72","1","0","0","",""
"null","","3124053","HierDyb66rd6se","1ij4vuofd0","msl000325","iti","","null","img/motor_5.png","72","motor","","","","","","",""
"648","","3124713","HierDyb66rd6se","1ij4vuofd0","msl000325","motor","","83","img/motor_2.png","83","motor","2","73","1","0","0","",""
"null","","3124825","HierDyb66rd6se","1ij4vuofd0","msl000325","iti","","null","img/motor_2.png","83","motor","","","","","","",""
"472","","3125310","HierDyb66rd6se","1ij4vuofd0","msl000325","motor","","68","img/motor_3.png","68","motor","3","74","1","0","0","",""
"null","","3125422","HierDyb66rd6se","1ij4vuofd0","msl000325","iti","","null","img/motor_3.png","68","motor","","","","","","",""
"396","","3125830","HierDyb66rd6se","1ij4vuofd0","msl000325","motor","","68","img/motor_3.png","68","motor","3","75","1","0","0","",""
"null","","3125943","HierDyb66rd6se","1ij4vuofd0","msl000325","iti","","null","img/motor_3.png","68","motor","","","","","","",""
"700","","3126655","HierDyb66rd6se","1ij4vuofd0","msl000325","motor","","76","img/motor_8.png","76","motor","8","76","1","0","0","",""
"null","","3126768","HierDyb66rd6se","1ij4vuofd0","msl000325","iti","","null","img/motor_8.png","76","motor","","","","","","",""
"566","","3127346","HierDyb66rd6se","1ij4vuofd0","msl000325","motor","","72","img/motor_5.png","72","motor","5","77","1","0","0","",""
"null","","3127459","HierDyb66rd6se","1ij4vuofd0","msl000325","iti","","null","img/motor_5.png","72","motor","","","","","","",""
"504","","3127975","HierDyb66rd6se","1ij4vuofd0","msl000325","motor","","83","img/motor_2.png","83","motor","2","78","1","0","0","",""
"null","","3128089","HierDyb66rd6se","1ij4vuofd0","msl000325","iti","","null","img/motor_2.png","83","motor","","","","","","",""
"412","","3128511","HierDyb66rd6se","1ij4vuofd0","msl000325","motor","","65","img/motor_1.png","65","motor","1","79","1","0","0","",""
"null","","3128624","HierDyb66rd6se","1ij4vuofd0","msl000325","iti","","null","img/motor_1.png","65","motor","","","","","","",""
"733","","3129370","HierDyb66rd6se","1ij4vuofd0","msl000325","motor","","72","img/motor_5.png","72","motor","5","80","1","0","0","",""
"null","","3129482","HierDyb66rd6se","1ij4vuofd0","msl000325","iti","","null","img/motor_5.png","72","motor","","","","","","",""
"504","","3129997","HierDyb66rd6se","1ij4vuofd0","msl000325","motor","","70","img/motor_3.png","68","motor","3","81","0","1","0","",""
"351","","3130359","HierDyb66rd6se","1ij4vuofd0","msl000325","motorRepeat","","68","img/motor_3.png","68","motor","3","81","1","0","0","",""
"null","","3130471","HierDyb66rd6se","1ij4vuofd0","msl000325","iti","","null","img/motor_3.png","68","motor","","","","","","",""
"653","","3131137","HierDyb66rd6se","1ij4vuofd0","msl000325","motor","","74","img/motor_6.png","74","motor","6","82","1","0","0","",""
"null","","3131250","HierDyb66rd6se","1ij4vuofd0","msl000325","iti","","null","img/motor_6.png","74","motor","","","","","","",""
"492","","3131754","HierDyb66rd6se","1ij4vuofd0","msl000325","motor","","72","img/motor_5.png","72","motor","5","83","1","0","0","",""
"null","","3131866","HierDyb66rd6se","1ij4vuofd0","msl000325","iti","","null","img/motor_5.png","72","motor","","","","","","",""
"504","","3132380","HierDyb66rd6se","1ij4vuofd0","msl000325","motor","","76","img/motor_8.png","76","motor","8","84","1","0","0","",""
"null","","3132492","HierDyb66rd6se","1ij4vuofd0","msl000325","iti","","null","img/motor_8.png","76","motor","","","","","","",""
"455","","3132959","HierDyb66rd6se","1ij4vuofd0","msl000325","motor","","72","img/motor_5.png","72","motor","5","85","1","0","0","",""
"null","","3133071","HierDyb66rd6se","1ij4vuofd0","msl000325","iti","","null","img/motor_5.png","72","motor","","","","","","",""
"800","","3133882","HierDyb66rd6se","1ij4vuofd0","msl000325","motor","","75","img/motor_7.png","75","motor","7","86","1","0","0","",""
"null","","3133996","HierDyb66rd6se","1ij4vuofd0","msl000325","iti","","null","img/motor_7.png","75","motor","","","","","","",""
"466","","3134472","HierDyb66rd6se","1ij4vuofd0","msl000325","motor","","74","img/motor_6.png","74","motor","6","87","1","0","0","",""
"null","","3134585","HierDyb66rd6se","1ij4vuofd0","msl000325","iti","","null","img/motor_6.png","74","motor","","","","","","",""
"668","","3135265","HierDyb66rd6se","1ij4vuofd0","msl000325","motor","","70","img/motor_4.png","70","motor","4","88","1","0","0","",""
"null","","3135377","HierDyb66rd6se","1ij4vuofd0","msl000325","iti","","null","img/motor_4.png","70","motor","","","","","","",""
"540","","3135928","HierDyb66rd6se","1ij4vuofd0","msl000325","motor","","68","img/motor_3.png","68","motor","3","89","1","0","0","",""
"null","","3136041","HierDyb66rd6se","1ij4vuofd0","msl000325","iti","","null","img/motor_3.png","68","motor","","","","","","",""
"444","","3136497","HierDyb66rd6se","1ij4vuofd0","msl000325","motor","","65","img/motor_1.png","65","motor","1","90","1","0","0","",""
"null","","3136609","HierDyb66rd6se","1ij4vuofd0","msl000325","iti","","null","img/motor_1.png","65","motor","","","","","","",""
"727","","3137349","HierDyb66rd6se","1ij4vuofd0","msl000325","motor","","75","img/motor_7.png","75","motor","7","91","1","0","0","",""
"null","","3137461","HierDyb66rd6se","1ij4vuofd0","msl000325","iti","","null","img/motor_7.png","75","motor","","","","","","",""
"544","","3138016","HierDyb66rd6se","1ij4vuofd0","msl000325","motor","","68","img/motor_3.png","68","motor","3","92","1","0","0","",""
"null","","3138129","HierDyb66rd6se","1ij4vuofd0","msl000325","iti","","null","img/motor_3.png","68","motor","","","","","","",""
"584","","3138725","HierDyb66rd6se","1ij4vuofd0","msl000325","motor","","76","img/motor_8.png","76","motor","8","93","1","0","0","",""
"null","","3138839","HierDyb66rd6se","1ij4vuofd0","msl000325","iti","","null","img/motor_8.png","76","motor","","","","","","",""
"635","","3139486","HierDyb66rd6se","1ij4vuofd0","msl000325","motor","","68","img/motor_3.png","68","motor","3","94","1","0","0","",""
"null","","3139599","HierDyb66rd6se","1ij4vuofd0","msl000325","iti","","null","img/motor_3.png","68","motor","","","","","","",""
"463","","3140073","HierDyb66rd6se","1ij4vuofd0","msl000325","motor","","83","img/motor_2.png","83","motor","2","95","1","0","0","",""
"null","","3140187","HierDyb66rd6se","1ij4vuofd0","msl000325","iti","","null","img/motor_2.png","83","motor","","","","","","",""
"517","","3140715","HierDyb66rd6se","1ij4vuofd0","msl000325","motor","","76","img/motor_8.png","76","motor","8","96","1","0","0","",""
"null","","3140829","HierDyb66rd6se","1ij4vuofd0","msl000325","iti","","null","img/motor_8.png","76","motor","","","","","","",""
"697","","3141539","HierDyb66rd6se","1ij4vuofd0","msl000325","motor","","72","img/motor_5.png","72","motor","5","97","1","0","0","",""
"null","","3141651","HierDyb66rd6se","1ij4vuofd0","msl000325","iti","","null","img/motor_5.png","72","motor","","","","","","",""
"950","","3142614","HierDyb66rd6se","1ij4vuofd0","msl000325","motor","","76","img/motor_8.png","76","motor","8","98","1","0","0","",""
"null","","3142726","HierDyb66rd6se","1ij4vuofd0","msl000325","iti","","null","img/motor_8.png","76","motor","","","","","","",""
"472","","3143211","HierDyb66rd6se","1ij4vuofd0","msl000325","motor","","72","img/motor_5.png","72","motor","5","99","1","0","0","",""
"null","","3143325","HierDyb66rd6se","1ij4vuofd0","msl000325","iti","","null","img/motor_5.png","72","motor","","","","","","",""
"349","","3143687","HierDyb66rd6se","1ij4vuofd0","msl000325","motor","","72","img/motor_5.png","72","motor","5","100","1","0","0","",""
"null","","3143800","HierDyb66rd6se","1ij4vuofd0","msl000325","iti","","null","img/motor_5.png","72","motor","","","","","","",""
"487","","3144299","HierDyb66rd6se","1ij4vuofd0","msl000325","motor","","75","img/motor_7.png","75","motor","7","101","1","0","0","",""
"null","","3144412","HierDyb66rd6se","1ij4vuofd0","msl000325","iti","","null","img/motor_7.png","75","motor","","","","","","",""
"709","","3145132","HierDyb66rd6se","1ij4vuofd0","msl000325","motor","","68","img/motor_3.png","68","motor","3","102","1","0","0","",""
"null","","3145245","HierDyb66rd6se","1ij4vuofd0","msl000325","iti","","null","img/motor_3.png","68","motor","","","","","","",""
"442","","3145700","HierDyb66rd6se","1ij4vuofd0","msl000325","motor","","72","img/motor_5.png","72","motor","5","103","1","0","0","",""
"null","","3145812","HierDyb66rd6se","1ij4vuofd0","msl000325","iti","","null","img/motor_5.png","72","motor","","","","","","",""
"322","","3146147","HierDyb66rd6se","1ij4vuofd0","msl000325","motor","","72","img/motor_5.png","72","motor","5","104","1","0","0","",""
"null","","3146260","HierDyb66rd6se","1ij4vuofd0","msl000325","iti","","null","img/motor_5.png","72","motor","","","","","","",""
"482","","3146752","HierDyb66rd6se","1ij4vuofd0","msl000325","motor","","83","img/motor_2.png","83","motor","2","105","1","0","0","",""
"null","","3146865","HierDyb66rd6se","1ij4vuofd0","msl000325","iti","","null","img/motor_2.png","83","motor","","","","","","",""
"545","","3147422","HierDyb66rd6se","1ij4vuofd0","msl000325","motor","","75","img/motor_7.png","75","motor","7","106","1","0","0","",""
"null","","3147535","HierDyb66rd6se","1ij4vuofd0","msl000325","iti","","null","img/motor_7.png","75","motor","","","","","","",""
"540","","3148087","HierDyb66rd6se","1ij4vuofd0","msl000325","motor","","72","img/motor_4.png","70","motor","4","107","0","1","0","",""
"301","","3148399","HierDyb66rd6se","1ij4vuofd0","msl000325","motorRepeat","","70","img/motor_4.png","70","motor","4","107","1","0","0","",""
"null","","3148512","HierDyb66rd6se","1ij4vuofd0","msl000325","iti","","null","img/motor_4.png","70","motor","","","","","","",""
"585","","3149109","HierDyb66rd6se","1ij4vuofd0","msl000325","motor","","70","img/motor_4.png","70","motor","4","108","1","0","0","",""
"null","","3149222","HierDyb66rd6se","1ij4vuofd0","msl000325","iti","","null","img/motor_4.png","70","motor","","","","","","",""
"475","","3149709","HierDyb66rd6se","1ij4vuofd0","msl000325","motor","","83","img/motor_2.png","83","motor","2","109","1","0","0","",""
"null","","3149823","HierDyb66rd6se","1ij4vuofd0","msl000325","iti","","null","img/motor_2.png","83","motor","","","","","","",""
"428","","3150262","HierDyb66rd6se","1ij4vuofd0","msl000325","motor","","65","img/motor_1.png","65","motor","1","110","1","0","0","",""
"null","","3150376","HierDyb66rd6se","1ij4vuofd0","msl000325","iti","","null","img/motor_1.png","65","motor","","","","","","",""
"501","","3150888","HierDyb66rd6se","1ij4vuofd0","msl000325","motor","","76","img/motor_8.png","76","motor","8","111","1","0","0","",""
"null","","3151001","HierDyb66rd6se","1ij4vuofd0","msl000325","iti","","null","img/motor_8.png","76","motor","","","","","","",""
"528","","3151541","HierDyb66rd6se","1ij4vuofd0","msl000325","motor","","83","img/motor_2.png","83","motor","2","112","1","0","0","",""
"null","","3151653","HierDyb66rd6se","1ij4vuofd0","msl000325","iti","","null","img/motor_2.png","83","motor","","","","","","",""
"417","","3152083","HierDyb66rd6se","1ij4vuofd0","msl000325","motor","","65","img/motor_1.png","65","motor","1","113","1","0","0","",""
"null","","3152196","HierDyb66rd6se","1ij4vuofd0","msl000325","iti","","null","img/motor_1.png","65","motor","","","","","","",""
"536","","3152745","HierDyb66rd6se","1ij4vuofd0","msl000325","motor","","70","img/motor_5.png","72","motor","5","114","0","1","0","",""
"175","","3152932","HierDyb66rd6se","1ij4vuofd0","msl000325","motorRepeat","","72","img/motor_5.png","72","motor","5","114","1","0","0","",""
"null","","3153045","HierDyb66rd6se","1ij4vuofd0","msl000325","iti","","null","img/motor_5.png","72","motor","","","","","","",""
"511","","3153568","HierDyb66rd6se","1ij4vuofd0","msl000325","motor","","70","img/motor_4.png","70","motor","4","115","1","0","0","",""
"null","","3153680","HierDyb66rd6se","1ij4vuofd0","msl000325","iti","","null","img/motor_4.png","70","motor","","","","","","",""
"516","","3154210","HierDyb66rd6se","1ij4vuofd0","msl000325","motor","","75","img/motor_7.png","75","motor","7","116","1","0","0","",""
"null","","3154324","HierDyb66rd6se","1ij4vuofd0","msl000325","iti","","null","img/motor_7.png","75","motor","","","","","","",""
"433","","3154769","HierDyb66rd6se","1ij4vuofd0","msl000325","motor","","76","img/motor_8.png","76","motor","8","117","1","0","0","",""
"null","","3154882","HierDyb66rd6se","1ij4vuofd0","msl000325","iti","","null","img/motor_8.png","76","motor","","","","","","",""
"496","","3155390","HierDyb66rd6se","1ij4vuofd0","msl000325","motor","","83","img/motor_2.png","83","motor","2","118","1","0","0","",""
"null","","3155504","HierDyb66rd6se","1ij4vuofd0","msl000325","iti","","null","img/motor_2.png","83","motor","","","","","","",""
"492","","3156008","HierDyb66rd6se","1ij4vuofd0","msl000325","motor","","76","img/motor_8.png","76","motor","8","119","1","0","0","",""
"null","","3156122","HierDyb66rd6se","1ij4vuofd0","msl000325","iti","","null","img/motor_8.png","76","motor","","","","","","",""
"480","","3156614","HierDyb66rd6se","1ij4vuofd0","msl000325","motor","","83","img/motor_2.png","83","motor","2","120","1","0","0","",""
"null","","3156727","HierDyb66rd6se","1ij4vuofd0","msl000325","iti","","null","img/motor_2.png","83","motor","","","","","","",""
"472","","3157211","HierDyb66rd6se","1ij4vuofd0","msl000325","motor","","68","img/motor_3.png","68","motor","3","121","1","0","0","",""
"null","","3157324","HierDyb66rd6se","1ij4vuofd0","msl000325","iti","","null","img/motor_3.png","68","motor","","","","","","",""
"443","","3157781","HierDyb66rd6se","1ij4vuofd0","msl000325","motor","","83","img/motor_2.png","83","motor","2","122","1","0","0","",""
"null","","3157894","HierDyb66rd6se","1ij4vuofd0","msl000325","iti","","null","img/motor_2.png","83","motor","","","","","","",""
"520","","3158428","HierDyb66rd6se","1ij4vuofd0","msl000325","motor","","72","img/motor_5.png","72","motor","5","123","1","0","0","",""
"null","","3158542","HierDyb66rd6se","1ij4vuofd0","msl000325","iti","","null","img/motor_5.png","72","motor","","","","","","",""
"551","","3159105","HierDyb66rd6se","1ij4vuofd0","msl000325","motor","","70","img/motor_4.png","70","motor","4","124","1","0","0","",""
"null","","3159220","HierDyb66rd6se","1ij4vuofd0","msl000325","iti","","null","img/motor_4.png","70","motor","","","","","","",""
"439","","3159673","HierDyb66rd6se","1ij4vuofd0","msl000325","motor","","70","img/motor_4.png","70","motor","4","125","1","0","0","",""
"null","","3159788","HierDyb66rd6se","1ij4vuofd0","msl000325","iti","","null","img/motor_4.png","70","motor","","","","","","",""
"449","","3160248","HierDyb66rd6se","1ij4vuofd0","msl000325","motor","","65","img/motor_1.png","65","motor","1","126","1","0","0","",""
"null","","3160362","HierDyb66rd6se","1ij4vuofd0","msl000325","iti","","null","img/motor_1.png","65","motor","","","","","","",""
"467","","3160842","HierDyb66rd6se","1ij4vuofd0","msl000325","motor","","70","img/motor_4.png","70","motor","4","127","1","0","0","",""
"null","","3160954","HierDyb66rd6se","1ij4vuofd0","msl000325","iti","","null","img/motor_4.png","70","motor","","","","","","",""
"438","","3161404","HierDyb66rd6se","1ij4vuofd0","msl000325","motor","","65","img/motor_1.png","65","motor","1","128","1","0","0","",""
"null","","3161517","HierDyb66rd6se","1ij4vuofd0","msl000325","iti","","null","img/motor_1.png","65","motor","","","","","","",""
"517","","3162045","HierDyb66rd6se","1ij4vuofd0","msl000325","motor","","75","img/motor_7.png","75","motor","7","129","1","0","0","",""
"null","","3162158","HierDyb66rd6se","1ij4vuofd0","msl000325","iti","","null","img/motor_7.png","75","motor","","","","","","",""
"642","","3162812","HierDyb66rd6se","1ij4vuofd0","msl000325","motor","","83","img/motor_2.png","83","motor","2","130","1","0","0","",""
"null","","3162924","HierDyb66rd6se","1ij4vuofd0","msl000325","iti","","null","img/motor_2.png","83","motor","","","","","","",""
"456","","3163390","HierDyb66rd6se","1ij4vuofd0","msl000325","motor","","68","img/motor_4.png","70","motor","4","131","0","1","0","",""
"258","","3163661","HierDyb66rd6se","1ij4vuofd0","msl000325","motorRepeat","","70","img/motor_4.png","70","motor","4","131","1","0","0","",""
"null","","3163774","HierDyb66rd6se","1ij4vuofd0","msl000325","iti","","null","img/motor_4.png","70","motor","","","","","","",""
"610","","3164396","HierDyb66rd6se","1ij4vuofd0","msl000325","motor","","74","img/motor_6.png","74","motor","6","132","1","0","0","",""
"null","","3164509","HierDyb66rd6se","1ij4vuofd0","msl000325","iti","","null","img/motor_6.png","74","motor","","","","","","",""
"556","","3165076","HierDyb66rd6se","1ij4vuofd0","msl000325","motor","","70","img/motor_3.png","68","motor","3","133","0","1","0","",""
"469","","3165560","HierDyb66rd6se","1ij4vuofd0","msl000325","motorRepeat","","83","img/motor_3.png","68","motor","3","133","0","1","0","",""
"181","","3165754","HierDyb66rd6se","1ij4vuofd0","msl000325","motorRepeat","","68","img/motor_3.png","68","motor","3","133","1","0","0","",""
"null","","3165867","HierDyb66rd6se","1ij4vuofd0","msl000325","iti","","null","img/motor_3.png","68","motor","","","","","","",""
"595","","3166474","HierDyb66rd6se","1ij4vuofd0","msl000325","motor","","74","img/motor_6.png","74","motor","6","134","1","0","0","",""
"null","","3166586","HierDyb66rd6se","1ij4vuofd0","msl000325","iti","","null","img/motor_6.png","74","motor","","","","","","",""
"496","","3167094","HierDyb66rd6se","1ij4vuofd0","msl000325","motor","","72","img/motor_5.png","72","motor","5","135","1","0","0","",""
"null","","3167207","HierDyb66rd6se","1ij4vuofd0","msl000325","iti","","null","img/motor_5.png","72","motor","","","","","","",""
"501","","3167720","HierDyb66rd6se","1ij4vuofd0","msl000325","motor","","75","img/motor_7.png","75","motor","7","136","1","0","0","",""
"null","","3167834","HierDyb66rd6se","1ij4vuofd0","msl000325","iti","","null","img/motor_7.png","75","motor","","","","","","",""
"569","","3168413","HierDyb66rd6se","1ij4vuofd0","msl000325","motor","","68","img/motor_3.png","68","motor","3","137","1","0","0","",""
"null","","3168525","HierDyb66rd6se","1ij4vuofd0","msl000325","iti","","null","img/motor_3.png","68","motor","","","","","","",""
"447","","3168986","HierDyb66rd6se","1ij4vuofd0","msl000325","motor","","83","img/motor_2.png","83","motor","2","138","1","0","0","",""
"null","","3169098","HierDyb66rd6se","1ij4vuofd0","msl000325","iti","","null","img/motor_2.png","83","motor","","","","","","",""
"633","","3169743","HierDyb66rd6se","1ij4vuofd0","msl000325","motor","","72","img/motor_6.png","74","motor","6","139","0","1","0","",""
"537","","3170292","HierDyb66rd6se","1ij4vuofd0","msl000325","motorRepeat","","74","img/motor_6.png","74","motor","6","139","1","0","0","",""
"null","","3170405","HierDyb66rd6se","1ij4vuofd0","msl000325","iti","","null","img/motor_6.png","74","motor","","","","","","",""
"660","","3171078","HierDyb66rd6se","1ij4vuofd0","msl000325","motor","","72","img/motor_5.png","72","motor","5","140","1","0","0","",""
"null","","3171190","HierDyb66rd6se","1ij4vuofd0","msl000325","iti","","null","img/motor_5.png","72","motor","","","","","","",""
"1251","","3172453","HierDyb66rd6se","1ij4vuofd0","msl000325","motor","","68","img/motor_3.png","68","motor","3","141","1","0","0","",""
"null","","3172566","HierDyb66rd6se","1ij4vuofd0","msl000325","iti","","null","img/motor_3.png","68","motor","","","","","","",""
"779","","3173356","HierDyb66rd6se","1ij4vuofd0","msl000325","motor","","74","img/motor_6.png","74","motor","6","142","1","0","0","",""
"null","","3173469","HierDyb66rd6se","1ij4vuofd0","msl000325","iti","","null","img/motor_6.png","74","motor","","","","","","",""
"1195","","3174677","HierDyb66rd6se","1ij4vuofd0","msl000325","motor","","76","img/motor_8.png","76","motor","8","143","1","0","0","",""
"null","","3174788","HierDyb66rd6se","1ij4vuofd0","msl000325","iti","","null","img/motor_8.png","76","motor","","","","","","",""
"746","","3175546","HierDyb66rd6se","1ij4vuofd0","msl000325","motor","","70","img/motor_4.png","70","motor","4","144","1","0","0","",""
"null","","3175659","HierDyb66rd6se","1ij4vuofd0","msl000325","iti","","null","img/motor_4.png","70","motor","","","","","","",""
"576","","3176247","HierDyb66rd6se","1ij4vuofd0","msl000325","motor","","75","img/motor_7.png","75","motor","7","145","1","0","0","",""
"null","","3176359","HierDyb66rd6se","1ij4vuofd0","msl000325","iti","","null","img/motor_7.png","75","motor","","","","","","",""
"679","","3177050","HierDyb66rd6se","1ij4vuofd0","msl000325","motor","","68","img/motor_3.png","68","motor","3","146","1","0","0","",""
"null","","3177163","HierDyb66rd6se","1ij4vuofd0","msl000325","iti","","null","img/motor_3.png","68","motor","","","","","","",""
"597","","3177773","HierDyb66rd6se","1ij4vuofd0","msl000325","motor","","76","img/motor_8.png","76","motor","8","147","1","0","0","",""
"null","","3177886","HierDyb66rd6se","1ij4vuofd0","msl000325","iti","","null","img/motor_8.png","76","motor","","","","","","",""
"406","","3178304","HierDyb66rd6se","1ij4vuofd0","msl000325","motor","","76","img/motor_8.png","76","motor","8","148","1","0","0","",""
"null","","3178418","HierDyb66rd6se","1ij4vuofd0","msl000325","iti","","null","img/motor_8.png","76","motor","","","","","","",""
"529","","3178958","HierDyb66rd6se","1ij4vuofd0","msl000325","motor","","83","img/motor_2.png","83","motor","2","149","1","0","0","",""
"null","","3179071","HierDyb66rd6se","1ij4vuofd0","msl000325","iti","","null","img/motor_2.png","83","motor","","","","","","",""
"703","","3179787","HierDyb66rd6se","1ij4vuofd0","msl000325","motor","","74","img/motor_6.png","74","motor","6","150","1","0","0","",""
"null","","3179900","HierDyb66rd6se","1ij4vuofd0","msl000325","iti","","null","img/motor_6.png","74","motor","","","","","","",""
"516","","3180427","HierDyb66rd6se","1ij4vuofd0","msl000325","motor","","83","img/motor_2.png","83","motor","2","151","1","0","0","",""
"null","","3180540","HierDyb66rd6se","1ij4vuofd0","msl000325","iti","","null","img/motor_2.png","83","motor","","","","","","",""
"584","","3181136","HierDyb66rd6se","1ij4vuofd0","msl000325","motor","","70","img/motor_4.png","70","motor","4","152","1","0","0","",""
"null","","3181249","HierDyb66rd6se","1ij4vuofd0","msl000325","iti","","null","img/motor_4.png","70","motor","","","","","","",""
"767","","3182028","HierDyb66rd6se","1ij4vuofd0","msl000325","motor","","72","img/motor_5.png","72","motor","5","153","1","0","0","",""
"null","","3182141","HierDyb66rd6se","1ij4vuofd0","msl000325","iti","","null","img/motor_5.png","72","motor","","","","","","",""
"560","","3182712","HierDyb66rd6se","1ij4vuofd0","msl000325","motor","","75","img/motor_7.png","75","motor","7","154","1","0","0","",""
"null","","3182825","HierDyb66rd6se","1ij4vuofd0","msl000325","iti","","null","img/motor_7.png","75","motor","","","","","","",""
"619","","3183454","HierDyb66rd6se","1ij4vuofd0","msl000325","motor","","65","img/motor_1.png","65","motor","1","155","1","0","0","",""
"null","","3183568","HierDyb66rd6se","1ij4vuofd0","msl000325","iti","","null","img/motor_1.png","65","motor","","","","","","",""
"411","","3183990","HierDyb66rd6se","1ij4vuofd0","msl000325","motor","","65","img/motor_1.png","65","motor","1","156","1","0","0","",""
"null","","3184103","HierDyb66rd6se","1ij4vuofd0","msl000325","iti","","null","img/motor_1.png","65","motor","","","","","","",""
"588","","3184703","HierDyb66rd6se","1ij4vuofd0","msl000325","motor","","70","img/motor_4.png","70","motor","4","157","1","0","0","",""
"null","","3184816","HierDyb66rd6se","1ij4vuofd0","msl000325","iti","","null","img/motor_4.png","70","motor","","","","","","",""
"478","","3185305","HierDyb66rd6se","1ij4vuofd0","msl000325","motor","","83","img/motor_2.png","83","motor","2","158","1","0","0","",""
"null","","3185418","HierDyb66rd6se","1ij4vuofd0","msl000325","iti","","null","img/motor_2.png","83","motor","","","","","","",""
"427","","3185857","HierDyb66rd6se","1ij4vuofd0","msl000325","motor","","65","img/motor_1.png","65","motor","1","159","1","0","0","",""
"null","","3185970","HierDyb66rd6se","1ij4vuofd0","msl000325","iti","","null","img/motor_1.png","65","motor","","","","","","",""
"493","","3186475","HierDyb66rd6se","1ij4vuofd0","msl000325","motor","","83","img/motor_2.png","83","motor","2","160","1","0","0","",""
"null","","3186588","HierDyb66rd6se","1ij4vuofd0","msl000325","iti","","null","img/motor_2.png","83","motor","","","","","","",""
"558","","3187159","HierDyb66rd6se","1ij4vuofd0","msl000325","motor","","75","img/motor_7.png","75","motor","7","161","1","0","0","",""
"null","","3187272","HierDyb66rd6se","1ij4vuofd0","msl000325","iti","","null","img/motor_7.png","75","motor","","","","","","",""
"763","","3188047","HierDyb66rd6se","1ij4vuofd0","msl000325","motor","","68","img/motor_3.png","68","motor","3","162","1","0","0","",""
"null","","3188160","HierDyb66rd6se","1ij4vuofd0","msl000325","iti","","null","img/motor_3.png","68","motor","","","","","","",""
"507","","3188677","HierDyb66rd6se","1ij4vuofd0","msl000325","motor","","76","img/motor_8.png","76","motor","8","163","1","0","0","",""
"null","","3188790","HierDyb66rd6se","1ij4vuofd0","msl000325","iti","","null","img/motor_8.png","76","motor","","","","","","",""
"915","","3189718","HierDyb66rd6se","1ij4vuofd0","msl000325","motor","","68","img/motor_3.png","68","motor","3","164","1","0","0","",""
"null","","3189830","HierDyb66rd6se","1ij4vuofd0","msl000325","iti","","null","img/motor_3.png","68","motor","","","","","","",""
"900","","3190743","HierDyb66rd6se","1ij4vuofd0","msl000325","motor","","72","img/motor_5.png","72","motor","5","165","1","0","0","",""
"null","","3190855","HierDyb66rd6se","1ij4vuofd0","msl000325","iti","","null","img/motor_5.png","72","motor","","","","","","",""
"516","","3191384","HierDyb66rd6se","1ij4vuofd0","msl000325","motor","","70","img/motor_4.png","70","motor","4","166","1","0","0","",""
"null","","3191496","HierDyb66rd6se","1ij4vuofd0","msl000325","iti","","null","img/motor_4.png","70","motor","","","","","","",""
"440","","3191950","HierDyb66rd6se","1ij4vuofd0","msl000325","motor","","68","img/motor_3.png","68","motor","3","167","1","0","0","",""
"null","","3192062","HierDyb66rd6se","1ij4vuofd0","msl000325","iti","","null","img/motor_3.png","68","motor","","","","","","",""
"444","","3192519","HierDyb66rd6se","1ij4vuofd0","msl000325","motor","","65","img/motor_1.png","65","motor","1","168","1","0","0","",""
"null","","3192632","HierDyb66rd6se","1ij4vuofd0","msl000325","iti","","null","img/motor_1.png","65","motor","","","","","","",""
"422","","3193066","HierDyb66rd6se","1ij4vuofd0","msl000325","motor","","68","img/motor_3.png","68","motor","3","169","1","0","0","",""
"null","","3193179","HierDyb66rd6se","1ij4vuofd0","msl000325","iti","","null","img/motor_3.png","68","motor","","","","","","",""
"515","","3193707","HierDyb66rd6se","1ij4vuofd0","msl000325","motor","","76","img/motor_8.png","76","motor","8","170","1","0","0","",""
"null","","3193820","HierDyb66rd6se","1ij4vuofd0","msl000325","iti","","null","img/motor_8.png","76","motor","","","","","","",""
"567","","3194400","HierDyb66rd6se","1ij4vuofd0","msl000325","motor","","74","img/motor_6.png","74","motor","6","171","1","0","0","",""
"null","","3194513","HierDyb66rd6se","1ij4vuofd0","msl000325","iti","","null","img/motor_6.png","74","motor","","","","","","",""
"548","","3195073","HierDyb66rd6se","1ij4vuofd0","msl000325","motor","","68","img/motor_2.png","83","motor","2","172","0","1","0","",""
"259","","3195343","HierDyb66rd6se","1ij4vuofd0","msl000325","motorRepeat","","83","img/motor_2.png","83","motor","2","172","1","0","0","",""
"null","","3195456","HierDyb66rd6se","1ij4vuofd0","msl000325","iti","","null","img/motor_2.png","83","motor","","","","","","",""
"466","","3195935","HierDyb66rd6se","1ij4vuofd0","msl000325","motor","","83","img/motor_2.png","83","motor","2","173","1","0","0","",""
"null","","3196048","HierDyb66rd6se","1ij4vuofd0","msl000325","iti","","null","img/motor_2.png","83","motor","","","","","","",""
"394","","3196453","HierDyb66rd6se","1ij4vuofd0","msl000325","motor","","70","img/motor_4.png","70","motor","4","174","1","0","0","",""
"null","","3196566","HierDyb66rd6se","1ij4vuofd0","msl000325","iti","","null","img/motor_4.png","70","motor","","","","","","",""
"502","","3197080","HierDyb66rd6se","1ij4vuofd0","msl000325","motor","","65","img/motor_1.png","65","motor","1","175","1","0","0","",""
"null","","3197192","HierDyb66rd6se","1ij4vuofd0","msl000325","iti","","null","img/motor_1.png","65","motor","","","","","","",""
"527","","3197732","HierDyb66rd6se","1ij4vuofd0","msl000325","motor","","76","img/motor_8.png","76","motor","8","176","1","0","0","",""
"null","","3197845","HierDyb66rd6se","1ij4vuofd0","msl000325","iti","","null","img/motor_8.png","76","motor","","","","","","",""
"353","","3198210","HierDyb66rd6se","1ij4vuofd0","msl000325","motor","","76","img/motor_8.png","76","motor","8","177","1","0","0","",""
"null","","3198323","HierDyb66rd6se","1ij4vuofd0","msl000325","iti","","null","img/motor_8.png","76","motor","","","","","","",""
"463","","3198797","HierDyb66rd6se","1ij4vuofd0","msl000325","motor","","74","img/motor_6.png","74","motor","6","178","1","0","0","",""
"null","","3198910","HierDyb66rd6se","1ij4vuofd0","msl000325","iti","","null","img/motor_6.png","74","motor","","","","","","",""
"557","","3199479","HierDyb66rd6se","1ij4vuofd0","msl000325","motor","","70","img/motor_4.png","70","motor","4","179","1","0","0","",""
"null","","3199592","HierDyb66rd6se","1ij4vuofd0","msl000325","iti","","null","img/motor_4.png","70","motor","","","","","","",""
"552","","3200156","HierDyb66rd6se","1ij4vuofd0","msl000325","motor","","72","img/motor_5.png","72","motor","5","180","1","0","0","",""
"null","","3200269","HierDyb66rd6se","1ij4vuofd0","msl000325","iti","","null","img/motor_5.png","72","motor","","","","","","",""
"517","","3200799","HierDyb66rd6se","1ij4vuofd0","msl000325","motor","","65","img/motor_1.png","65","motor","1","181","1","0","0","",""
"null","","3200911","HierDyb66rd6se","1ij4vuofd0","msl000325","iti","","null","img/motor_1.png","65","motor","","","","","","",""
"638","","3201561","HierDyb66rd6se","1ij4vuofd0","msl000325","motor","","72","img/motor_5.png","72","motor","5","182","1","0","0","",""
"null","","3201673","HierDyb66rd6se","1ij4vuofd0","msl000325","iti","","null","img/motor_5.png","72","motor","","","","","","",""
"568","","3202254","HierDyb66rd6se","1ij4vuofd0","msl000325","motor","","68","img/motor_3.png","68","motor","3","183","1","0","0","",""
"null","","3202367","HierDyb66rd6se","1ij4vuofd0","msl000325","iti","","null","img/motor_3.png","68","motor","","","","","","",""
"669","","3203048","HierDyb66rd6se","1ij4vuofd0","msl000325","motor","","70","img/motor_4.png","70","motor","4","184","1","0","0","",""
"null","","3203162","HierDyb66rd6se","1ij4vuofd0","msl000325","iti","","null","img/motor_4.png","70","motor","","","","","","",""
"475","","3203649","HierDyb66rd6se","1ij4vuofd0","msl000325","motor","","76","img/motor_8.png","76","motor","8","185","1","0","0","",""
"null","","3203762","HierDyb66rd6se","1ij4vuofd0","msl000325","iti","","null","img/motor_8.png","76","motor","","","","","","",""
"613","","3204386","HierDyb66rd6se","1ij4vuofd0","msl000325","motor","","70","img/motor_3.png","68","motor","3","186","0","1","0","",""
"471","","3204868","HierDyb66rd6se","1ij4vuofd0","msl000325","motorRepeat","","68","img/motor_3.png","68","motor","3","186","1","0","0","",""
"null","","3204981","HierDyb66rd6se","1ij4vuofd0","msl000325","iti","","null","img/motor_3.png","68","motor","","","","","","",""
"603","","3205597","HierDyb66rd6se","1ij4vuofd0","msl000325","motor","","74","img/motor_6.png","74","motor","6","187","1","0","0","",""
"null","","3205710","HierDyb66rd6se","1ij4vuofd0","msl000325","iti","","null","img/motor_6.png","74","motor","","","","","","",""
"531","","3206254","HierDyb66rd6se","1ij4vuofd0","msl000325","motor","","75","img/motor_7.png","75","motor","7","188","1","0","0","",""
"null","","3206367","HierDyb66rd6se","1ij4vuofd0","msl000325","iti","","null","img/motor_7.png","75","motor","","","","","","",""
"573","","3206951","HierDyb66rd6se","1ij4vuofd0","msl000325","motor","","72","img/motor_5.png","72","motor","5","189","1","0","0","",""
"null","","3207065","HierDyb66rd6se","1ij4vuofd0","msl000325","iti","","null","img/motor_5.png","72","motor","","","","","","",""
"501","","3207577","HierDyb66rd6se","1ij4vuofd0","msl000325","motor","","68","img/motor_3.png","68","motor","3","190","1","0","0","",""
"null","","3207691","HierDyb66rd6se","1ij4vuofd0","msl000325","iti","","null","img/motor_3.png","68","motor","","","","","","",""
"478","","3208180","HierDyb66rd6se","1ij4vuofd0","msl000325","motor","","70","img/motor_4.png","70","motor","4","191","1","0","0","",""
"null","","3208293","HierDyb66rd6se","1ij4vuofd0","msl000325","iti","","null","img/motor_4.png","70","motor","","","","","","",""
"770","","3209075","HierDyb66rd6se","1ij4vuofd0","msl000325","motor","","72","img/motor_5.png","72","motor","5","192","1","0","0","",""
"null","","3209188","HierDyb66rd6se","1ij4vuofd0","msl000325","iti","","null","img/motor_5.png","72","motor","","","","","","",""
"447","","3209646","HierDyb66rd6se","1ij4vuofd0","msl000325","motor","","76","img/motor_8.png","76","motor","8","193","1","0","0","",""
"null","","3209759","HierDyb66rd6se","1ij4vuofd0","msl000325","iti","","null","img/motor_8.png","76","motor","","","","","","",""
"497","","3210268","HierDyb66rd6se","1ij4vuofd0","msl000325","motor","","68","img/motor_4.png","70","motor","4","194","0","1","0","",""
"240","","3210521","HierDyb66rd6se","1ij4vuofd0","msl000325","motorRepeat","","70","img/motor_4.png","70","motor","4","194","1","0","0","",""
"null","","3210634","HierDyb66rd6se","1ij4vuofd0","msl000325","iti","","null","img/motor_4.png","70","motor","","","","","","",""
"676","","3211322","HierDyb66rd6se","1ij4vuofd0","msl000325","motor","","72","img/motor_5.png","72","motor","5","195","1","0","0","",""
"null","","3211435","HierDyb66rd6se","1ij4vuofd0","msl000325","iti","","null","img/motor_5.png","72","motor","","","","","","",""
"670","","3212117","HierDyb66rd6se","1ij4vuofd0","msl000325","motor","","70","img/motor_4.png","70","motor","4","196","1","0","0","",""
"null","","3212231","HierDyb66rd6se","1ij4vuofd0","msl000325","iti","","null","img/motor_4.png","70","motor","","","","","","",""
"756","","3212998","HierDyb66rd6se","1ij4vuofd0","msl000325","motor","","75","img/motor_7.png","75","motor","7","197","1","0","0","",""
"null","","3213112","HierDyb66rd6se","1ij4vuofd0","msl000325","iti","","null","img/motor_7.png","75","motor","","","","","","",""
"503","","3213628","HierDyb66rd6se","1ij4vuofd0","msl000325","motor","","65","img/motor_1.png","65","motor","1","198","1","0","0","",""
"null","","3213741","HierDyb66rd6se","1ij4vuofd0","msl000325","iti","","null","img/motor_1.png","65","motor","","","","","","",""
"853","","3214605","HierDyb66rd6se","1ij4vuofd0","msl000325","motor","","75","img/motor_7.png","75","motor","7","199","1","0","0","",""
"null","","3214718","HierDyb66rd6se","1ij4vuofd0","msl000325","iti","","null","img/motor_7.png","75","motor","","","","","","",""
"673","","3215402","HierDyb66rd6se","1ij4vuofd0","msl000325","motor","","74","img/motor_6.png","74","motor","6","200","1","0","0","",""
"null","","3215516","HierDyb66rd6se","1ij4vuofd0","msl000325","iti","","null","img/motor_6.png","74","motor","","","","","","",""
"635","","3216163","HierDyb66rd6se","1ij4vuofd0","msl000325","motor","","68","img/motor_3.png","68","motor","3","201","1","0","0","",""
"null","","3216276","HierDyb66rd6se","1ij4vuofd0","msl000325","iti","","null","img/motor_3.png","68","motor","","","","","","",""
"500","","3216788","HierDyb66rd6se","1ij4vuofd0","msl000325","motor","","83","img/motor_2.png","83","motor","2","202","1","0","0","",""
"null","","3216901","HierDyb66rd6se","1ij4vuofd0","msl000325","iti","","null","img/motor_2.png","83","motor","","","","","","",""
"469","","3217382","HierDyb66rd6se","1ij4vuofd0","msl000325","motor","","65","img/motor_1.png","65","motor","1","203","1","0","0","",""
"null","","3217496","HierDyb66rd6se","1ij4vuofd0","msl000325","iti","","null","img/motor_1.png","65","motor","","","","","","",""
"606","","3218114","HierDyb66rd6se","1ij4vuofd0","msl000325","motor","","68","img/motor_3.png","68","motor","3","204","1","0","0","",""
"null","","3218227","HierDyb66rd6se","1ij4vuofd0","msl000325","iti","","null","img/motor_3.png","68","motor","","","","","","",""
"455","","3218698","HierDyb66rd6se","1ij4vuofd0","msl000325","motor","","65","img/motor_1.png","65","motor","1","205","1","0","0","",""
"null","","3218813","HierDyb66rd6se","1ij4vuofd0","msl000325","iti","","null","img/motor_1.png","65","motor","","","","","","",""
"735","","3219562","HierDyb66rd6se","1ij4vuofd0","msl000325","motor","","76","img/motor_8.png","76","motor","8","206","1","0","0","",""
"null","","3219675","HierDyb66rd6se","1ij4vuofd0","msl000325","iti","","null","img/motor_8.png","76","motor","","","","","","",""
"505","","3220193","HierDyb66rd6se","1ij4vuofd0","msl000325","motor","","68","img/motor_3.png","68","motor","3","207","1","0","0","",""
"null","","3220307","HierDyb66rd6se","1ij4vuofd0","msl000325","iti","","null","img/motor_3.png","68","motor","","","","","","",""
"1371","","3221689","HierDyb66rd6se","1ij4vuofd0","msl000325","motor","","74","img/motor_6.png","74","motor","6","208","1","0","0","",""
"null","","3221802","HierDyb66rd6se","1ij4vuofd0","msl000325","iti","","null","img/motor_6.png","74","motor","","","","","","",""
"454","","3222268","HierDyb66rd6se","1ij4vuofd0","msl000325","motor","","65","img/motor_1.png","65","motor","1","209","1","0","0","",""
"null","","3222382","HierDyb66rd6se","1ij4vuofd0","msl000325","iti","","null","img/motor_1.png","65","motor","","","","","","",""
"367","","3222763","HierDyb66rd6se","1ij4vuofd0","msl000325","motor","","83","img/motor_2.png","83","motor","2","210","1","0","0","",""
"null","","3222878","HierDyb66rd6se","1ij4vuofd0","msl000325","iti","","null","img/motor_2.png","83","motor","","","","","","",""
"342","","3223234","HierDyb66rd6se","1ij4vuofd0","msl000325","motor","","70","img/motor_4.png","70","motor","4","211","1","0","0","",""
"null","","3223348","HierDyb66rd6se","1ij4vuofd0","msl000325","iti","","null","img/motor_4.png","70","motor","","","","","","",""
"419","","3223779","HierDyb66rd6se","1ij4vuofd0","msl000325","motor","","68","img/motor_3.png","68","motor","3","212","1","0","0","",""
"null","","3223893","HierDyb66rd6se","1ij4vuofd0","msl000325","iti","","null","img/motor_3.png","68","motor","","","","","","",""
"390","","3224295","HierDyb66rd6se","1ij4vuofd0","msl000325","motor","","83","img/motor_2.png","83","motor","2","213","1","0","0","",""
"null","","3224408","HierDyb66rd6se","1ij4vuofd0","msl000325","iti","","null","img/motor_2.png","83","motor","","","","","","",""
"328","","3224748","HierDyb66rd6se","1ij4vuofd0","msl000325","motor","","65","img/motor_1.png","65","motor","1","214","1","0","0","",""
"null","","3224861","HierDyb66rd6se","1ij4vuofd0","msl000325","iti","","null","img/motor_1.png","65","motor","","","","","","",""
"335","","3225211","HierDyb66rd6se","1ij4vuofd0","msl000325","motor","","70","img/motor_4.png","70","motor","4","215","1","0","0","",""
"null","","3225324","HierDyb66rd6se","1ij4vuofd0","msl000325","iti","","null","img/motor_4.png","70","motor","","","","","","",""
"415","","3225752","HierDyb66rd6se","1ij4vuofd0","msl000325","motor","","83","img/motor_1.png","65","motor","1","216","0","1","0","",""
"333","","3226098","HierDyb66rd6se","1ij4vuofd0","msl000325","motorRepeat","","65","img/motor_1.png","65","motor","1","216","1","0","0","",""
"null","","3226212","HierDyb66rd6se","1ij4vuofd0","msl000325","iti","","null","img/motor_1.png","65","motor","","","","","","",""
"989","","3227213","HierDyb66rd6se","1ij4vuofd0","msl000325","motor","","72","img/motor_5.png","72","motor","5","217","1","0","0","",""
"null","","3227326","HierDyb66rd6se","1ij4vuofd0","msl000325","iti","","null","img/motor_5.png","72","motor","","","","","","",""
"507","","3227846","HierDyb66rd6se","1ij4vuofd0","msl000325","motor","","76","img/motor_8.png","76","motor","8","218","1","0","0","",""
"null","","3227959","HierDyb66rd6se","1ij4vuofd0","msl000325","iti","","null","img/motor_8.png","76","motor","","","","","","",""
"632","","3228603","HierDyb66rd6se","1ij4vuofd0","msl000325","motor","","72","img/motor_5.png","72","motor","5","219","1","0","0","",""
"null","","3228715","HierDyb66rd6se","1ij4vuofd0","msl000325","iti","","null","img/motor_5.png","72","motor","","","","","","",""
"568","","3229295","HierDyb66rd6se","1ij4vuofd0","msl000325","motor","","74","img/motor_6.png","74","motor","6","220","1","0","0","",""
"null","","3229409","HierDyb66rd6se","1ij4vuofd0","msl000325","iti","","null","img/motor_6.png","74","motor","","","","","","",""
"706","","3230128","HierDyb66rd6se","1ij4vuofd0","msl000325","motor","","68","img/motor_3.png","68","motor","3","221","1","0","0","",""
"null","","3230241","HierDyb66rd6se","1ij4vuofd0","msl000325","iti","","null","img/motor_3.png","68","motor","","","","","","",""
"628","","3230882","HierDyb66rd6se","1ij4vuofd0","msl000325","motor","","76","img/motor_8.png","76","motor","8","222","1","0","0","",""
"null","","3230995","HierDyb66rd6se","1ij4vuofd0","msl000325","iti","","null","img/motor_8.png","76","motor","","","","","","",""
"778","","3231784","HierDyb66rd6se","1ij4vuofd0","msl000325","motor","","83","img/motor_2.png","83","motor","2","223","1","0","0","",""
"null","","3231897","HierDyb66rd6se","1ij4vuofd0","msl000325","iti","","null","img/motor_2.png","83","motor","","","","","","",""
"453","","3232363","HierDyb66rd6se","1ij4vuofd0","msl000325","motor","","68","img/motor_3.png","68","motor","3","224","1","0","0","",""
"null","","3232476","HierDyb66rd6se","1ij4vuofd0","msl000325","iti","","null","img/motor_3.png","68","motor","","","","","","",""
"657","","3233145","HierDyb66rd6se","1ij4vuofd0","msl000325","motor","","75","img/motor_7.png","75","motor","7","225","1","0","0","",""
"null","","3233258","HierDyb66rd6se","1ij4vuofd0","msl000325","iti","","null","img/motor_7.png","75","motor","","","","","","",""
"441","","3233711","HierDyb66rd6se","1ij4vuofd0","msl000325","motor","","76","img/motor_8.png","76","motor","8","226","1","0","0","",""
"null","","3233824","HierDyb66rd6se","1ij4vuofd0","msl000325","iti","","null","img/motor_8.png","76","motor","","","","","","",""
"511","","3234348","HierDyb66rd6se","1ij4vuofd0","msl000325","motor","","65","img/motor_1.png","65","motor","1","227","1","0","0","",""
"null","","3234461","HierDyb66rd6se","1ij4vuofd0","msl000325","iti","","null","img/motor_1.png","65","motor","","","","","","",""
"786","","3235260","HierDyb66rd6se","1ij4vuofd0","msl000325","motor","","74","img/motor_6.png","74","motor","6","228","1","0","0","",""
"null","","3235374","HierDyb66rd6se","1ij4vuofd0","msl000325","iti","","null","img/motor_6.png","74","motor","","","","","","",""
"765","","3236150","HierDyb66rd6se","1ij4vuofd0","msl000325","motor","","70","img/motor_4.png","70","motor","4","229","1","0","0","",""
"null","","3236263","HierDyb66rd6se","1ij4vuofd0","msl000325","iti","","null","img/motor_4.png","70","motor","","","","","","",""
"672","","3236950","HierDyb66rd6se","1ij4vuofd0","msl000325","motor","","75","img/motor_7.png","75","motor","7","230","1","0","0","",""
"null","","3237063","HierDyb66rd6se","1ij4vuofd0","msl000325","iti","","null","img/motor_7.png","75","motor","","","","","","",""
"448","","3237522","HierDyb66rd6se","1ij4vuofd0","msl000325","motor","","75","img/motor_7.png","75","motor","7","231","1","0","0","",""
"null","","3237636","HierDyb66rd6se","1ij4vuofd0","msl000325","iti","","null","img/motor_7.png","75","motor","","","","","","",""
"611","","3238259","HierDyb66rd6se","1ij4vuofd0","msl000325","motor","","74","img/motor_6.png","74","motor","6","232","1","0","0","",""
"null","","3238372","HierDyb66rd6se","1ij4vuofd0","msl000325","iti","","null","img/motor_6.png","74","motor","","","","","","",""
"491","","3238875","HierDyb66rd6se","1ij4vuofd0","msl000325","motor","","76","img/motor_8.png","76","motor","8","233","1","0","0","",""
"null","","3238988","HierDyb66rd6se","1ij4vuofd0","msl000325","iti","","null","img/motor_8.png","76","motor","","","","","","",""
"523","","3239523","HierDyb66rd6se","1ij4vuofd0","msl000325","motor","","75","img/motor_7.png","75","motor","7","234","1","0","0","",""
"null","","3239637","HierDyb66rd6se","1ij4vuofd0","msl000325","iti","","null","img/motor_7.png","75","motor","","","","","","",""
"465","","3240115","HierDyb66rd6se","1ij4vuofd0","msl000325","motor","","65","img/motor_1.png","65","motor","1","235","1","0","0","",""
"null","","3240228","HierDyb66rd6se","1ij4vuofd0","msl000325","iti","","null","img/motor_1.png","65","motor","","","","","","",""
"502","","3240742","HierDyb66rd6se","1ij4vuofd0","msl000325","motor","","83","img/motor_2.png","83","motor","2","236","1","0","0","",""
"null","","3240855","HierDyb66rd6se","1ij4vuofd0","msl000325","iti","","null","img/motor_2.png","83","motor","","","","","","",""
"434","","3241299","HierDyb66rd6se","1ij4vuofd0","msl000325","motor","","83","img/motor_2.png","83","motor","2","237","1","0","0","",""
"null","","3241413","HierDyb66rd6se","1ij4vuofd0","msl000325","iti","","null","img/motor_2.png","83","motor","","","","","","",""
"660","","3242085","HierDyb66rd6se","1ij4vuofd0","msl000325","motor","","68","img/motor_3.png","68","motor","3","238","1","0","0","",""
"null","","3242198","HierDyb66rd6se","1ij4vuofd0","msl000325","iti","","null","img/motor_3.png","68","motor","","","","","","",""
"903","","3243112","HierDyb66rd6se","1ij4vuofd0","msl000325","motor","","72","img/motor_5.png","72","motor","5","239","1","0","0","",""
"null","","3243226","HierDyb66rd6se","1ij4vuofd0","msl000325","iti","","null","img/motor_5.png","72","motor","","","","","","",""
"461","","3243699","HierDyb66rd6se","1ij4vuofd0","msl000325","motor","","74","img/motor_6.png","74","motor","6","240","1","0","0","",""
"null","","3243811","HierDyb66rd6se","1ij4vuofd0","msl000325","iti","","null","img/motor_6.png","74","motor","","","","","","",""
"462","","3244286","HierDyb66rd6se","1ij4vuofd0","msl000325","motor","","75","img/motor_7.png","75","motor","7","241","1","0","0","",""
"null","","3244400","HierDyb66rd6se","1ij4vuofd0","msl000325","iti","","null","img/motor_7.png","75","motor","","","","","","",""
"466","","3244878","HierDyb66rd6se","1ij4vuofd0","msl000325","motor","","83","img/motor_2.png","83","motor","2","242","1","0","0","",""
"null","","3244990","HierDyb66rd6se","1ij4vuofd0","msl000325","iti","","null","img/motor_2.png","83","motor","","","","","","",""
"593","","3245597","HierDyb66rd6se","1ij4vuofd0","msl000325","motor","","72","img/motor_5.png","72","motor","5","243","1","0","0","",""
"null","","3245709","HierDyb66rd6se","1ij4vuofd0","msl000325","iti","","null","img/motor_5.png","72","motor","","","","","","",""
"467","","3246187","HierDyb66rd6se","1ij4vuofd0","msl000325","motor","","70","img/motor_4.png","70","motor","4","244","1","0","0","",""
"null","","3246300","HierDyb66rd6se","1ij4vuofd0","msl000325","iti","","null","img/motor_4.png","70","motor","","","","","","",""
"631","","3246946","HierDyb66rd6se","1ij4vuofd0","msl000325","motor","","76","img/motor_7.png","75","motor","7","245","0","1","0","",""
"99","","3247057","HierDyb66rd6se","1ij4vuofd0","msl000325","motorRepeat","","75","img/motor_7.png","75","motor","7","245","1","0","0","",""
"null","","3247170","HierDyb66rd6se","1ij4vuofd0","msl000325","iti","","null","img/motor_7.png","75","motor","","","","","","",""
"581","","3247763","HierDyb66rd6se","1ij4vuofd0","msl000325","motor","","70","img/motor_4.png","70","motor","4","246","1","0","0","",""
"null","","3247877","HierDyb66rd6se","1ij4vuofd0","msl000325","iti","","null","img/motor_4.png","70","motor","","","","","","",""
"483","","3248371","HierDyb66rd6se","1ij4vuofd0","msl000325","motor","","74","img/motor_6.png","74","motor","6","247","1","0","0","",""
"null","","3248484","HierDyb66rd6se","1ij4vuofd0","msl000325","iti","","null","img/motor_6.png","74","motor","","","","","","",""
"421","","3248917","HierDyb66rd6se","1ij4vuofd0","msl000325","motor","","75","img/motor_7.png","75","motor","7","248","1","0","0","",""
"null","","3249031","HierDyb66rd6se","1ij4vuofd0","msl000325","iti","","null","img/motor_7.png","75","motor","","","","","","",""
"472","","3249516","HierDyb66rd6se","1ij4vuofd0","msl000325","motor","","74","img/motor_6.png","74","motor","6","249","1","0","0","",""
"null","","3249629","HierDyb66rd6se","1ij4vuofd0","msl000325","iti","","null","img/motor_6.png","74","motor","","","","","","",""
"427","","3250069","HierDyb66rd6se","1ij4vuofd0","msl000325","motor","","70","img/motor_4.png","70","motor","4","250","1","0","0","",""
"null","","3250182","HierDyb66rd6se","1ij4vuofd0","msl000325","iti","","null","img/motor_4.png","70","motor","","","","","","",""
"596","","3250790","HierDyb66rd6se","1ij4vuofd0","msl000325","motor","","76","img/motor_8.png","76","motor","8","251","1","0","0","",""
"null","","3250902","HierDyb66rd6se","1ij4vuofd0","msl000325","iti","","null","img/motor_8.png","76","motor","","","","","","",""
"484","","3251399","HierDyb66rd6se","1ij4vuofd0","msl000325","motor","","75","img/motor_7.png","75","motor","7","252","1","0","0","",""
"null","","3251512","HierDyb66rd6se","1ij4vuofd0","msl000325","iti","","null","img/motor_7.png","75","motor","","","","","","",""
"486","","3252011","HierDyb66rd6se","1ij4vuofd0","msl000325","motor","","70","img/motor_4.png","70","motor","4","253","1","0","0","",""
"null","","3252124","HierDyb66rd6se","1ij4vuofd0","msl000325","iti","","null","img/motor_4.png","70","motor","","","","","","",""
"457","","3252594","HierDyb66rd6se","1ij4vuofd0","msl000325","motor","","68","img/motor_3.png","68","motor","3","254","1","0","0","",""
"null","","3252708","HierDyb66rd6se","1ij4vuofd0","msl000325","iti","","null","img/motor_3.png","68","motor","","","","","","",""
"580","","3253300","HierDyb66rd6se","1ij4vuofd0","msl000325","motor","","75","img/motor_7.png","75","motor","7","255","1","0","0","",""
"null","","3253413","HierDyb66rd6se","1ij4vuofd0","msl000325","iti","","null","img/motor_7.png","75","motor","","","","","","",""
"989","","3254414","HierDyb66rd6se","1ij4vuofd0","msl000325","motor","","72","img/motor_5.png","72","motor","5","256","1","0","0","",""
"null","","3254527","HierDyb66rd6se","1ij4vuofd0","msl000325","iti","","null","img/motor_5.png","72","motor","","","","","","",""
"440","","3254980","HierDyb66rd6se","1ij4vuofd0","msl000325","motor","","74","img/motor_6.png","74","motor","6","257","1","0","0","",""
"null","","3255095","HierDyb66rd6se","1ij4vuofd0","msl000325","iti","","null","img/motor_6.png","74","motor","","","","","","",""
"416","","3255524","HierDyb66rd6se","1ij4vuofd0","msl000325","motor","","74","img/motor_6.png","74","motor","6","258","1","0","0","",""
"null","","3255637","HierDyb66rd6se","1ij4vuofd0","msl000325","iti","","null","img/motor_6.png","74","motor","","","","","","",""
"662","","3256310","HierDyb66rd6se","1ij4vuofd0","msl000325","motor","","72","img/motor_5.png","72","motor","5","259","1","0","0","",""
"null","","3256424","HierDyb66rd6se","1ij4vuofd0","msl000325","iti","","null","img/motor_5.png","72","motor","","","","","","",""
"484","","3256920","HierDyb66rd6se","1ij4vuofd0","msl000325","motor","","70","img/motor_4.png","70","motor","4","260","1","0","0","",""
"null","","3257033","HierDyb66rd6se","1ij4vuofd0","msl000325","iti","","null","img/motor_4.png","70","motor","","","","","","",""
"641","","3257685","HierDyb66rd6se","1ij4vuofd0","msl000325","motor","","76","img/motor_8.png","76","motor","8","261","1","0","0","",""
"null","","3257798","HierDyb66rd6se","1ij4vuofd0","msl000325","iti","","null","img/motor_8.png","76","motor","","","","","","",""
"572","","3258382","HierDyb66rd6se","1ij4vuofd0","msl000325","motor","","75","img/motor_7.png","75","motor","7","262","1","0","0","",""
"null","","3258496","HierDyb66rd6se","1ij4vuofd0","msl000325","iti","","null","img/motor_7.png","75","motor","","","","","","",""
"615","","3259122","HierDyb66rd6se","1ij4vuofd0","msl000325","motor","","68","img/motor_3.png","68","motor","3","263","1","0","0","",""
"null","","3259235","HierDyb66rd6se","1ij4vuofd0","msl000325","iti","","null","img/motor_3.png","68","motor","","","","","","",""
"449","","3259697","HierDyb66rd6se","1ij4vuofd0","msl000325","motor","","68","img/motor_3.png","68","motor","3","264","1","0","0","",""
"null","","3259811","HierDyb66rd6se","1ij4vuofd0","msl000325","iti","","null","img/motor_3.png","68","motor","","","","","","",""
"477","","3260300","HierDyb66rd6se","1ij4vuofd0","msl000325","motor","","70","img/motor_5.png","72","motor","5","265","0","1","0","",""
"470","","3260782","HierDyb66rd6se","1ij4vuofd0","msl000325","motorRepeat","","72","img/motor_5.png","72","motor","5","265","1","0","0","",""
"null","","3260895","HierDyb66rd6se","1ij4vuofd0","msl000325","iti","","null","img/motor_5.png","72","motor","","","","","","",""
"643","","3261551","HierDyb66rd6se","1ij4vuofd0","msl000325","motor","","83","img/motor_2.png","83","motor","2","266","1","0","0","",""
"null","","3261666","HierDyb66rd6se","1ij4vuofd0","msl000325","iti","","null","img/motor_2.png","83","motor","","","","","","",""
"730","","3262408","HierDyb66rd6se","1ij4vuofd0","msl000325","motor","","70","img/motor_4.png","70","motor","4","267","1","0","0","",""
"null","","3262522","HierDyb66rd6se","1ij4vuofd0","msl000325","iti","","null","img/motor_4.png","70","motor","","","","","","",""
"653","","3263188","HierDyb66rd6se","1ij4vuofd0","msl000325","motor","","72","img/motor_5.png","72","motor","5","268","1","0","0","",""
"null","","3263301","HierDyb66rd6se","1ij4vuofd0","msl000325","iti","","null","img/motor_5.png","72","motor","","","","","","",""
"546","","3263860","HierDyb66rd6se","1ij4vuofd0","msl000325","motor","","65","img/motor_1.png","65","motor","1","269","1","0","0","",""
"null","","3263974","HierDyb66rd6se","1ij4vuofd0","msl000325","iti","","null","img/motor_1.png","65","motor","","","","","","",""
"537","","3264523","HierDyb66rd6se","1ij4vuofd0","msl000325","motor","","72","img/motor_5.png","72","motor","5","270","1","0","0","",""
"null","","3264637","HierDyb66rd6se","1ij4vuofd0","msl000325","iti","","null","img/motor_5.png","72","motor","","","","","","",""
"430","","3265077","HierDyb66rd6se","1ij4vuofd0","msl000325","motor","","74","img/motor_6.png","74","motor","6","271","1","0","0","",""
"null","","3265191","HierDyb66rd6se","1ij4vuofd0","msl000325","iti","","null","img/motor_6.png","74","motor","","","","","","",""
"427","","3265629","HierDyb66rd6se","1ij4vuofd0","msl000325","motor","","72","img/motor_5.png","72","motor","5","272","1","0","0","",""
"null","","3265742","HierDyb66rd6se","1ij4vuofd0","msl000325","iti","","null","img/motor_5.png","72","motor","","","","","","",""
"739","","3266496","HierDyb66rd6se","1ij4vuofd0","msl000325","motor","","68","img/motor_3.png","68","motor","3","273","1","0","0","",""
"null","","3266609","HierDyb66rd6se","1ij4vuofd0","msl000325","iti","","null","img/motor_3.png","68","motor","","","","","","",""
"506","","3267126","HierDyb66rd6se","1ij4vuofd0","msl000325","motor","","65","img/motor_1.png","65","motor","1","274","1","0","0","",""
"null","","3267238","HierDyb66rd6se","1ij4vuofd0","msl000325","iti","","null","img/motor_1.png","65","motor","","","","","","",""
"487","","3267739","HierDyb66rd6se","1ij4vuofd0","msl000325","motor","","74","img/motor_6.png","74","motor","6","275","1","0","0","",""
"null","","3267852","HierDyb66rd6se","1ij4vuofd0","msl000325","iti","","null","img/motor_6.png","74","motor","","","","","","",""
"421","","3268285","HierDyb66rd6se","1ij4vuofd0","msl000325","motor","","65","img/motor_1.png","65","motor","1","276","1","0","0","",""
"null","","3268398","HierDyb66rd6se","1ij4vuofd0","msl000325","iti","","null","img/motor_1.png","65","motor","","","","","","",""
"453","","3268865","HierDyb66rd6se","1ij4vuofd0","msl000325","motor","","72","img/motor_5.png","72","motor","5","277","1","0","0","",""
"null","","3268977","HierDyb66rd6se","1ij4vuofd0","msl000325","iti","","null","img/motor_5.png","72","motor","","","","","","",""
"414","","3269404","HierDyb66rd6se","1ij4vuofd0","msl000325","motor","","65","img/motor_1.png","65","motor","1","278","1","0","0","",""
"null","","3269518","HierDyb66rd6se","1ij4vuofd0","msl000325","iti","","null","img/motor_1.png","65","motor","","","","","","",""
"380","","3269910","HierDyb66rd6se","1ij4vuofd0","msl000325","motor","","65","img/motor_1.png","65","motor","1","279","1","0","0","",""
"null","","3270024","HierDyb66rd6se","1ij4vuofd0","msl000325","iti","","null","img/motor_1.png","65","motor","","","","","","",""
"647","","3270684","HierDyb66rd6se","1ij4vuofd0","msl000325","motor","","75","img/motor_7.png","75","motor","7","280","1","0","0","",""
"null","","3270797","HierDyb66rd6se","1ij4vuofd0","msl000325","iti","","null","img/motor_7.png","75","motor","","","","","","",""
"576","","3271387","HierDyb66rd6se","1ij4vuofd0","msl000325","motor","","72","img/motor_5.png","72","motor","5","281","1","0","0","",""
"null","","3271500","HierDyb66rd6se","1ij4vuofd0","msl000325","iti","","null","img/motor_5.png","72","motor","","","","","","",""
"472","","3271984","HierDyb66rd6se","1ij4vuofd0","msl000325","motor","","65","img/motor_1.png","65","motor","1","282","1","0","0","",""
"null","","3272097","HierDyb66rd6se","1ij4vuofd0","msl000325","iti","","null","img/motor_1.png","65","motor","","","","","","",""
"540","","3272651","HierDyb66rd6se","1ij4vuofd0","msl000325","motor","","83","img/motor_2.png","83","motor","2","283","1","0","0","",""
"null","","3272764","HierDyb66rd6se","1ij4vuofd0","msl000325","iti","","null","img/motor_2.png","83","motor","","","","","","",""
"819","","3273594","HierDyb66rd6se","1ij4vuofd0","msl000325","motor","","74","img/motor_6.png","74","motor","6","284","1","0","0","",""
"null","","3273708","HierDyb66rd6se","1ij4vuofd0","msl000325","iti","","null","img/motor_6.png","74","motor","","","","","","",""
"442","","3274163","HierDyb66rd6se","1ij4vuofd0","msl000325","motor","","65","img/motor_1.png","65","motor","1","285","1","0","0","",""
"null","","3274276","HierDyb66rd6se","1ij4vuofd0","msl000325","iti","","null","img/motor_1.png","65","motor","","","","","","",""
"470","","3274759","HierDyb66rd6se","1ij4vuofd0","msl000325","motor","","72","img/motor_5.png","72","motor","5","286","1","0","0","",""
"null","","3274872","HierDyb66rd6se","1ij4vuofd0","msl000325","iti","","null","img/motor_5.png","72","motor","","","","","","",""
"443","","3275326","HierDyb66rd6se","1ij4vuofd0","msl000325","motor","","65","img/motor_1.png","65","motor","1","287","1","0","0","",""
"null","","3275439","HierDyb66rd6se","1ij4vuofd0","msl000325","iti","","null","img/motor_1.png","65","motor","","","","","","",""
"627","","3276078","HierDyb66rd6se","1ij4vuofd0","msl000325","motor","","76","img/motor_8.png","76","motor","8","288","1","0","0","",""
"null","","3276193","HierDyb66rd6se","1ij4vuofd0","msl000325","iti","","null","img/motor_8.png","76","motor","","","","","","",""
"511","","3276716","HierDyb66rd6se","1ij4vuofd0","msl000325","motor","","74","img/motor_6.png","74","motor","6","289","1","0","0","",""
"null","","3276828","HierDyb66rd6se","1ij4vuofd0","msl000325","iti","","null","img/motor_6.png","74","motor","","","","","","",""
"427","","3277268","HierDyb66rd6se","1ij4vuofd0","msl000325","motor","","65","img/motor_1.png","65","motor","1","290","1","0","0","",""
"null","","3277381","HierDyb66rd6se","1ij4vuofd0","msl000325","iti","","null","img/motor_1.png","65","motor","","","","","","",""
"653","","3278047","HierDyb66rd6se","1ij4vuofd0","msl000325","motor","","68","img/motor_4.png","70","motor","4","291","0","1","0","",""
"586","","3278645","HierDyb66rd6se","1ij4vuofd0","msl000325","motorRepeat","","70","img/motor_4.png","70","motor","4","291","1","0","0","",""
"null","","3278757","HierDyb66rd6se","1ij4vuofd0","msl000325","iti","","null","img/motor_4.png","70","motor","","","","","","",""
"696","","3279467","HierDyb66rd6se","1ij4vuofd0","msl000325","motor","","83","img/motor_2.png","83","motor","2","292","1","0","0","",""
"null","","3279580","HierDyb66rd6se","1ij4vuofd0","msl000325","iti","","null","img/motor_2.png","83","motor","","","","","","",""
"788","","3280380","HierDyb66rd6se","1ij4vuofd0","msl000325","motor","","70","img/motor_6.png","74","motor","6","293","0","1","0","",""
"906","","3281298","HierDyb66rd6se","1ij4vuofd0","msl000325","motorRepeat","","72","img/motor_6.png","74","motor","6","293","0","1","0","",""
"365","","3281676","HierDyb66rd6se","1ij4vuofd0","msl000325","motorRepeat","","74","img/motor_6.png","74","motor","6","293","1","0","0","",""
"null","","3281790","HierDyb66rd6se","1ij4vuofd0","msl000325","iti","","null","img/motor_6.png","74","motor","","","","","","",""
"2392","","3284196","HierDyb66rd6se","1ij4vuofd0","msl000325","motor","","65","img/motor_1.png","65","motor","1","294","1","0","0","",""
"null","","3284311","HierDyb66rd6se","1ij4vuofd0","msl000325","iti","","null","img/motor_1.png","65","motor","","","","","","",""
"788","","3285112","HierDyb66rd6se","1ij4vuofd0","msl000325","motor","","72","img/motor_5.png","72","motor","5","295","1","0","0","",""
"null","","3285225","HierDyb66rd6se","1ij4vuofd0","msl000325","iti","","null","img/motor_5.png","72","motor","","","","","","",""
"638","","3285875","HierDyb66rd6se","1ij4vuofd0","msl000325","motor","","70","img/motor_4.png","70","motor","4","296","1","0","0","",""
"null","","3285989","HierDyb66rd6se","1ij4vuofd0","msl000325","iti","","null","img/motor_4.png","70","motor","","","","","","",""
"690","","3286692","HierDyb66rd6se","1ij4vuofd0","msl000325","motor","","76","img/motor_8.png","76","motor","8","297","1","0","0","",""
"null","","3286805","HierDyb66rd6se","1ij4vuofd0","msl000325","iti","","null","img/motor_8.png","76","motor","","","","","","",""
"493","","3287314","HierDyb66rd6se","1ij4vuofd0","msl000325","motor","","70","img/motor_4.png","70","motor","4","298","1","0","0","",""
"null","","3287427","HierDyb66rd6se","1ij4vuofd0","msl000325","iti","","null","img/motor_4.png","70","motor","","","","","","",""
"532","","3287973","HierDyb66rd6se","1ij4vuofd0","msl000325","motor","","83","img/motor_2.png","83","motor","2","299","1","0","0","",""
"null","","3288086","HierDyb66rd6se","1ij4vuofd0","msl000325","iti","","null","img/motor_2.png","83","motor","","","","","","",""
"524","","3288622","HierDyb66rd6se","1ij4vuofd0","msl000325","motor","","68","img/motor_3.png","68","motor","3","300","1","0","0","",""
"null","","3288736","HierDyb66rd6se","1ij4vuofd0","msl000325","iti","","null","img/motor_3.png","68","motor","","","","","","",""
"753","","3289502","HierDyb66rd6se","1ij4vuofd0","msl000325","motor","","75","img/motor_7.png","75","motor","7","301","1","0","0","",""
"null","","3289614","HierDyb66rd6se","1ij4vuofd0","msl000325","iti","","null","img/motor_7.png","75","motor","","","","","","",""
"499","","3290125","HierDyb66rd6se","1ij4vuofd0","msl000325","motor","","68","img/motor_4.png","70","motor","4","302","0","1","0","",""
"234","","3290372","HierDyb66rd6se","1ij4vuofd0","msl000325","motorRepeat","","70","img/motor_4.png","70","motor","4","302","1","0","0","",""
"null","","3290486","HierDyb66rd6se","1ij4vuofd0","msl000325","iti","","null","img/motor_4.png","70","motor","","","","","","",""
"682","","3291179","HierDyb66rd6se","1ij4vuofd0","msl000325","motor","","75","img/motor_7.png","75","motor","7","303","1","0","0","",""
"null","","3291292","HierDyb66rd6se","1ij4vuofd0","msl000325","iti","","null","img/motor_7.png","75","motor","","","","","","",""
"341","","3291648","HierDyb66rd6se","1ij4vuofd0","msl000325","motor","","75","img/motor_7.png","75","motor","7","304","1","0","0","",""
"null","","3291760","HierDyb66rd6se","1ij4vuofd0","msl000325","iti","","null","img/motor_7.png","75","motor","","","","","","",""
"403","","3292174","HierDyb66rd6se","1ij4vuofd0","msl000325","motor","","70","img/motor_4.png","70","motor","4","305","1","0","0","",""
"null","","3292288","HierDyb66rd6se","1ij4vuofd0","msl000325","iti","","null","img/motor_4.png","70","motor","","","","","","",""
"430","","3292730","HierDyb66rd6se","1ij4vuofd0","msl000325","motor","","65","img/motor_1.png","65","motor","1","306","1","0","0","",""
"null","","3292843","HierDyb66rd6se","1ij4vuofd0","msl000325","iti","","null","img/motor_1.png","65","motor","","","","","","",""
"573","","3293427","HierDyb66rd6se","1ij4vuofd0","msl000325","motor","","83","img/motor_2.png","83","motor","2","307","1","0","0","",""
"null","","3293541","HierDyb66rd6se","1ij4vuofd0","msl000325","iti","","null","img/motor_2.png","83","motor","","","","","","",""
"773","","3294326","HierDyb66rd6se","1ij4vuofd0","msl000325","motor","","70","img/motor_6.png","74","motor","6","308","0","1","0","",""
"4460","","3298799","HierDyb66rd6se","1ij4vuofd0","msl000325","motorRepeat","","74","img/motor_6.png","74","motor","6","308","1","0","0","",""
"null","","3298912","HierDyb66rd6se","1ij4vuofd0","msl000325","iti","","null","img/motor_6.png","74","motor","","","","","","",""
"794","","3299718","HierDyb66rd6se","1ij4vuofd0","msl000325","motor","","70","img/motor_3.png","68","motor","3","309","0","1","0","",""
"2608","","3302339","HierDyb66rd6se","1ij4vuofd0","msl000325","motorRepeat","","68","img/motor_3.png","68","motor","3","309","1","0","0","",""
"null","","3302452","HierDyb66rd6se","1ij4vuofd0","msl000325","iti","","null","img/motor_3.png","68","motor","","","","","","",""
"1089","","3303553","HierDyb66rd6se","1ij4vuofd0","msl000325","motor","","75","img/motor_7.png","75","motor","7","310","1","0","0","",""
"null","","3303666","HierDyb66rd6se","1ij4vuofd0","msl000325","iti","","null","img/motor_7.png","75","motor","","","","","","",""
"765","","3304445","HierDyb66rd6se","1ij4vuofd0","msl000325","motor","","76","img/motor_8.png","76","motor","8","311","1","0","0","",""
"null","","3304558","HierDyb66rd6se","1ij4vuofd0","msl000325","iti","","null","img/motor_8.png","76","motor","","","","","","",""
"6284","","3310855","HierDyb66rd6se","1ij4vuofd0","msl000325","motor","","70","img/motor_4.png","70","motor","4","312","1","0","0","",""
"null","","3310967","HierDyb66rd6se","1ij4vuofd0","msl000325","iti","","null","img/motor_4.png","70","motor","","","","","","",""
"437","","3311415","HierDyb66rd6se","1ij4vuofd0","msl000325","motor","","83","img/motor_2.png","83","motor","2","313","1","0","0","",""
"null","","3311529","HierDyb66rd6se","1ij4vuofd0","msl000325","iti","","null","img/motor_2.png","83","motor","","","","","","",""
"571","","3312114","HierDyb66rd6se","1ij4vuofd0","msl000325","motor","","72","img/motor_5.png","72","motor","5","314","1","0","0","",""
"null","","3312227","HierDyb66rd6se","1ij4vuofd0","msl000325","iti","","null","img/motor_5.png","72","motor","","","","","","",""
"493","","3312733","HierDyb66rd6se","1ij4vuofd0","msl000325","motor","","70","img/motor_4.png","70","motor","4","315","1","0","0","",""
"null","","3312846","HierDyb66rd6se","1ij4vuofd0","msl000325","iti","","null","img/motor_4.png","70","motor","","","","","","",""
"592","","3313450","HierDyb66rd6se","1ij4vuofd0","msl000325","motor","","74","img/motor_6.png","74","motor","6","316","1","0","0","",""
"null","","3313563","HierDyb66rd6se","1ij4vuofd0","msl000325","iti","","null","img/motor_6.png","74","motor","","","","","","",""
"675","","3314253","HierDyb66rd6se","1ij4vuofd0","msl000325","motor","","83","img/motor_2.png","83","motor","2","317","1","0","0","",""
"null","","3314366","HierDyb66rd6se","1ij4vuofd0","msl000325","iti","","null","img/motor_2.png","83","motor","","","","","","",""
"605","","3314984","HierDyb66rd6se","1ij4vuofd0","msl000325","motor","","76","img/motor_8.png","76","motor","8","318","1","0","0","",""
"null","","3315098","HierDyb66rd6se","1ij4vuofd0","msl000325","iti","","null","img/motor_8.png","76","motor","","","","","","",""
"527","","3315639","HierDyb66rd6se","1ij4vuofd0","msl000325","motor","","65","img/motor_1.png","65","motor","1","319","1","0","0","",""
"null","","3315753","HierDyb66rd6se","1ij4vuofd0","msl000325","iti","","null","img/motor_1.png","65","motor","","","","","","",""
"495","","3316260","HierDyb66rd6se","1ij4vuofd0","msl000325","motor","","70","img/motor_4.png","70","motor","4","320","1","0","0","",""
"null","","3316373","HierDyb66rd6se","1ij4vuofd0","msl000325","iti","","null","img/motor_4.png","70","motor","","","","","","",""
"401","","3316786","HierDyb66rd6se","1ij4vuofd0","msl000325","motor","","70","img/motor_4.png","70","motor","4","321","1","0","0","",""
"null","","3316900","HierDyb66rd6se","1ij4vuofd0","msl000325","iti","","null","img/motor_4.png","70","motor","","","","","","",""
"457","","3317369","HierDyb66rd6se","1ij4vuofd0","msl000325","motor","","83","img/motor_2.png","83","motor","2","322","1","0","0","",""
"null","","3317482","HierDyb66rd6se","1ij4vuofd0","msl000325","iti","","null","img/motor_2.png","83","motor","","","","","","",""
"467","","3317962","HierDyb66rd6se","1ij4vuofd0","msl000325","motor","","76","img/motor_8.png","76","motor","8","323","1","0","0","",""
"null","","3318076","HierDyb66rd6se","1ij4vuofd0","msl000325","iti","","null","img/motor_8.png","76","motor","","","","","","",""
"759","","3318845","HierDyb66rd6se","1ij4vuofd0","msl000325","motor","","75","img/motor_7.png","75","motor","7","324","1","0","0","",""
"null","","3318959","HierDyb66rd6se","1ij4vuofd0","msl000325","iti","","null","img/motor_7.png","75","motor","","","","","","",""
"532","","3319503","HierDyb66rd6se","1ij4vuofd0","msl000325","motor","","65","img/motor_1.png","65","motor","1","325","1","0","0","",""
"null","","3319616","HierDyb66rd6se","1ij4vuofd0","msl000325","iti","","null","img/motor_1.png","65","motor","","","","","","",""
"500","","3320130","HierDyb66rd6se","1ij4vuofd0","msl000325","motor","","75","img/motor_7.png","75","motor","7","326","1","0","0","",""
"null","","3320244","HierDyb66rd6se","1ij4vuofd0","msl000325","iti","","null","img/motor_7.png","75","motor","","","","","","",""
"492","","3320750","HierDyb66rd6se","1ij4vuofd0","msl000325","motor","","65","img/motor_1.png","65","motor","1","327","1","0","0","",""
"null","","3320863","HierDyb66rd6se","1ij4vuofd0","msl000325","iti","","null","img/motor_1.png","65","motor","","","","","","",""
"600","","3321475","HierDyb66rd6se","1ij4vuofd0","msl000325","motor","","74","img/motor_6.png","74","motor","6","328","1","0","0","",""
"null","","3321589","HierDyb66rd6se","1ij4vuofd0","msl000325","iti","","null","img/motor_6.png","74","motor","","","","","","",""
"529","","3322131","HierDyb66rd6se","1ij4vuofd0","msl000325","motor","","83","img/motor_2.png","83","motor","2","329","1","0","0","",""
"null","","3322247","HierDyb66rd6se","1ij4vuofd0","msl000325","iti","","null","img/motor_2.png","83","motor","","","","","","",""
"470","","3322728","HierDyb66rd6se","1ij4vuofd0","msl000325","motor","","65","img/motor_1.png","65","motor","1","330","1","0","0","",""
"null","","3322841","HierDyb66rd6se","1ij4vuofd0","msl000325","iti","","null","img/motor_1.png","65","motor","","","","","","",""
"690","","3323543","HierDyb66rd6se","1ij4vuofd0","msl000325","motor","","68","img/motor_3.png","68","motor","3","331","1","0","0","",""
"null","","3323657","HierDyb66rd6se","1ij4vuofd0","msl000325","iti","","null","img/motor_3.png","68","motor","","","","","","",""
"1455","","3325123","HierDyb66rd6se","1ij4vuofd0","msl000325","motor","","75","img/motor_7.png","75","motor","7","332","1","0","0","",""
"null","","3325236","HierDyb66rd6se","1ij4vuofd0","msl000325","iti","","null","img/motor_7.png","75","motor","","","","","","",""
"537","","3325786","HierDyb66rd6se","1ij4vuofd0","msl000325","motor","","68","img/motor_2.png","83","motor","2","333","0","1","0","",""
"552","","3326351","HierDyb66rd6se","1ij4vuofd0","msl000325","motorRepeat","","83","img/motor_2.png","83","motor","2","333","1","0","0","",""
"null","","3326464","HierDyb66rd6se","1ij4vuofd0","msl000325","iti","","null","img/motor_2.png","83","motor","","","","","","",""
"438","","3326914","HierDyb66rd6se","1ij4vuofd0","msl000325","motor","","65","img/motor_1.png","65","motor","1","334","1","0","0","",""
"null","","3327027","HierDyb66rd6se","1ij4vuofd0","msl000325","iti","","null","img/motor_1.png","65","motor","","","","","","",""
"523","","3327562","HierDyb66rd6se","1ij4vuofd0","msl000325","motor","","68","img/motor_3.png","68","motor","3","335","1","0","0","",""
"null","","3327675","HierDyb66rd6se","1ij4vuofd0","msl000325","iti","","null","img/motor_3.png","68","motor","","","","","","",""
"476","","3328166","HierDyb66rd6se","1ij4vuofd0","msl000325","motor","","83","img/motor_2.png","83","motor","2","336","1","0","0","",""
"null","","3328279","HierDyb66rd6se","1ij4vuofd0","msl000325","iti","","null","img/motor_2.png","83","motor","","","","","","",""
"972","","3329263","HierDyb66rd6se","1ij4vuofd0","msl000325","motor","","72","img/motor_5.png","72","motor","5","337","1","0","0","",""
"null","","3329375","HierDyb66rd6se","1ij4vuofd0","msl000325","iti","","null","img/motor_5.png","72","motor","","","","","","",""
"726","","3330114","HierDyb66rd6se","1ij4vuofd0","msl000325","motor","","75","img/motor_7.png","75","motor","7","338","1","0","0","",""
"null","","3330227","HierDyb66rd6se","1ij4vuofd0","msl000325","iti","","null","img/motor_7.png","75","motor","","","","","","",""
"751","","3330992","HierDyb66rd6se","1ij4vuofd0","msl000325","motor","","68","img/motor_4.png","70","motor","4","339","0","1","0","",""
"315","","3331318","HierDyb66rd6se","1ij4vuofd0","msl000325","motorRepeat","","70","img/motor_4.png","70","motor","4","339","1","0","0","",""
"null","","3331431","HierDyb66rd6se","1ij4vuofd0","msl000325","iti","","null","img/motor_4.png","70","motor","","","","","","",""
"539","","3331984","HierDyb66rd6se","1ij4vuofd0","msl000325","motor","","74","img/motor_6.png","74","motor","6","340","1","0","0","",""
"null","","3332099","HierDyb66rd6se","1ij4vuofd0","msl000325","iti","","null","img/motor_6.png","74","motor","","","","","","",""
"778","","3332888","HierDyb66rd6se","1ij4vuofd0","msl000325","motor","","68","img/motor_3.png","68","motor","3","341","1","0","0","",""
"null","","3333001","HierDyb66rd6se","1ij4vuofd0","msl000325","iti","","null","img/motor_3.png","68","motor","","","","","","",""
"472","","3333485","HierDyb66rd6se","1ij4vuofd0","msl000325","motor","","65","img/motor_1.png","65","motor","1","342","1","0","0","",""
"null","","3333598","HierDyb66rd6se","1ij4vuofd0","msl000325","iti","","null","img/motor_1.png","65","motor","","","","","","",""
"683","","3334293","HierDyb66rd6se","1ij4vuofd0","msl000325","motor","","83","img/motor_2.png","83","motor","2","343","1","0","0","",""
"null","","3334407","HierDyb66rd6se","1ij4vuofd0","msl000325","iti","","null","img/motor_2.png","83","motor","","","","","","",""
"663","","3335083","HierDyb66rd6se","1ij4vuofd0","msl000325","motor","","74","img/motor_6.png","74","motor","6","344","1","0","0","",""
"null","","3335197","HierDyb66rd6se","1ij4vuofd0","msl000325","iti","","null","img/motor_6.png","74","motor","","","","","","",""
"644","","3335854","HierDyb66rd6se","1ij4vuofd0","msl000325","motor","","76","img/motor_8.png","76","motor","8","345","1","0","0","",""
"null","","3335966","HierDyb66rd6se","1ij4vuofd0","msl000325","iti","","null","img/motor_8.png","76","motor","","","","","","",""
"854","","3336833","HierDyb66rd6se","1ij4vuofd0","msl000325","motor","","70","img/motor_4.png","70","motor","4","346","1","0","0","",""
"null","","3336945","HierDyb66rd6se","1ij4vuofd0","msl000325","iti","","null","img/motor_4.png","70","motor","","","","","","",""
"1086","","3338042","HierDyb66rd6se","1ij4vuofd0","msl000325","motor","","75","img/motor_7.png","75","motor","7","347","1","0","0","",""
"null","","3338156","HierDyb66rd6se","1ij4vuofd0","msl000325","iti","","null","img/motor_7.png","75","motor","","","","","","",""
"813","","3338981","HierDyb66rd6se","1ij4vuofd0","msl000325","motor","","83","img/motor_2.png","83","motor","2","348","1","0","0","",""
"null","","3339095","HierDyb66rd6se","1ij4vuofd0","msl000325","iti","","null","img/motor_2.png","83","motor","","","","","","",""
"692","","3339804","HierDyb66rd6se","1ij4vuofd0","msl000325","motor","","76","img/motor_8.png","76","motor","8","349","1","0","0","",""
"null","","3339918","HierDyb66rd6se","1ij4vuofd0","msl000325","iti","","null","img/motor_8.png","76","motor","","","","","","",""
"646","","3340578","HierDyb66rd6se","1ij4vuofd0","msl000325","motor","","65","img/motor_1.png","65","motor","1","350","1","0","0","",""
"null","","3340691","HierDyb66rd6se","1ij4vuofd0","msl000325","iti","","null","img/motor_1.png","65","motor","","","","","","",""
"485","","3341189","HierDyb66rd6se","1ij4vuofd0","msl000325","motor","","76","img/motor_8.png","76","motor","8","351","1","0","0","",""
"null","","3341302","HierDyb66rd6se","1ij4vuofd0","msl000325","iti","","null","img/motor_8.png","76","motor","","","","","","",""
"629","","3341943","HierDyb66rd6se","1ij4vuofd0","msl000325","motor","","68","img/motor_3.png","68","motor","3","352","1","0","0","",""
"null","","3342056","HierDyb66rd6se","1ij4vuofd0","msl000325","iti","","null","img/motor_3.png","68","motor","","","","","","",""
"425","","3342494","HierDyb66rd6se","1ij4vuofd0","msl000325","motor","","68","img/motor_3.png","68","motor","3","353","1","0","0","",""
"null","","3342607","HierDyb66rd6se","1ij4vuofd0","msl000325","iti","","null","img/motor_3.png","68","motor","","","","","","",""
"443","","3343063","HierDyb66rd6se","1ij4vuofd0","msl000325","motor","","65","img/motor_1.png","65","motor","1","354","1","0","0","",""
"null","","3343175","HierDyb66rd6se","1ij4vuofd0","msl000325","iti","","null","img/motor_1.png","65","motor","","","","","","",""
"783","","3343971","HierDyb66rd6se","1ij4vuofd0","msl000325","motor","","74","img/motor_6.png","74","motor","6","355","1","0","0","",""
"null","","3344086","HierDyb66rd6se","1ij4vuofd0","msl000325","iti","","null","img/motor_6.png","74","motor","","","","","","",""
"354","","3344453","HierDyb66rd6se","1ij4vuofd0","msl000325","motor","","74","img/motor_6.png","74","motor","6","356","1","0","0","",""
"null","","3344566","HierDyb66rd6se","1ij4vuofd0","msl000325","iti","","null","img/motor_6.png","74","motor","","","","","","",""
"690","","3345270","HierDyb66rd6se","1ij4vuofd0","msl000325","motor","","83","img/motor_2.png","83","motor","2","357","1","0","0","",""
"null","","3345384","HierDyb66rd6se","1ij4vuofd0","msl000325","iti","","null","img/motor_2.png","83","motor","","","","","","",""
"440","","3345836","HierDyb66rd6se","1ij4vuofd0","msl000325","motor","","70","img/motor_4.png","70","motor","4","358","1","0","0","",""
"null","","3345949","HierDyb66rd6se","1ij4vuofd0","msl000325","iti","","null","img/motor_4.png","70","motor","","","","","","",""
