rt,responses,time_elapsed,subject,prolificID,demoID,trialType,question_order,key_press,stim,corrresp,phase,stimNum,trialNum,corr,repeatTrial,motorSwitch,pracCounter,hierarchy
12431,"{""Q0"":""ms1000241""}",12468,HierDy98qxm27z,3eqkm6eej0,ms1000241,,,,,,,,,,,,,
17255,,29732,HierDy98qxm27z,3eqkm6eej0,ms1000241,,,,,,,,,,,,,
,,32088,HierDy98qxm27z,3eqkm6eej0,ms1000241,fullscreen,,,,,,,,,,,,
15302,"{""Vision"":""Yes"",""Handedness"":""Right"",""Gender"":""male""}",47403,HierDy98qxm27z,3eqkm6eej0,ms1000241,,"[0,1,2]",,,,,,,,,,,
3780,"{""Q0"":""19""}",51201,HierDy98qxm27z,3eqkm6eej0,ms1000241,,,,,,,,,,,,,
175886,,227098,HierDy98qxm27z,3eqkm6eej0,ms1000241,,,,,,,,,,,,,
908,,228014,HierDy98qxm27z,3eqkm6eej0,ms1000241,motor,,70,img/motor_4.png,70,motor,4,1,1,0,0,,
null,,228130,HierDy98qxm27z,3eqkm6eej0,ms1000241,iti,,null,img/motor_4.png,70,motor,,,,,,,
499,,228638,HierDy98qxm27z,3eqkm6eej0,ms1000241,motor,,72,img/motor_5.png,72,motor,5,2,1,0,0,,
null,,228752,HierDy98qxm27z,3eqkm6eej0,ms1000241,iti,,null,img/motor_5.png,72,motor,,,,,,,
598,,229358,HierDy98qxm27z,3eqkm6eej0,ms1000241,motor,,83,img/motor_2.png,83,motor,2,3,1,0,0,,
null,,229472,HierDy98qxm27z,3eqkm6eej0,ms1000241,iti,,null,img/motor_2.png,83,motor,,,,,,,
668,,230156,HierDy98qxm27z,3eqkm6eej0,ms1000241,motor,,75,img/motor_7.png,75,motor,7,4,1,0,0,,
null,,230264,HierDy98qxm27z,3eqkm6eej0,ms1000241,iti,,null,img/motor_7.png,75,motor,,,,,,,
581,,230853,HierDy98qxm27z,3eqkm6eej0,ms1000241,motor,,72,img/motor_5.png,72,motor,5,5,1,0,0,,
null,,230967,HierDy98qxm27z,3eqkm6eej0,ms1000241,iti,,null,img/motor_5.png,72,motor,,,,,,,
493,,231469,HierDy98qxm27z,3eqkm6eej0,ms1000241,motor,,83,img/motor_1.png,65,motor,1,6,0,1,0,,
1,,231474,HierDy98qxm27z,3eqkm6eej0,ms1000241,motorRepeat,,65,img/motor_1.png,65,motor,1,6,1,0,0,,
null,,231582,HierDy98qxm27z,3eqkm6eej0,ms1000241,iti,,null,img/motor_1.png,65,motor,,,,,,,
1512,,233102,HierDy98qxm27z,3eqkm6eej0,ms1000241,motor,,68,img/motor_3.png,68,motor,3,7,1,0,0,,
null,,233217,HierDy98qxm27z,3eqkm6eej0,ms1000241,iti,,null,img/motor_3.png,68,motor,,,,,,,
773,,234005,HierDy98qxm27z,3eqkm6eej0,ms1000241,motor,,74,img/motor_6.png,74,motor,6,8,1,0,0,,
null,,234120,HierDy98qxm27z,3eqkm6eej0,ms1000241,iti,,null,img/motor_6.png,74,motor,,,,,,,
415,,234548,HierDy98qxm27z,3eqkm6eej0,ms1000241,motor,,72,img/motor_5.png,72,motor,5,9,1,0,0,,
null,,234657,HierDy98qxm27z,3eqkm6eej0,ms1000241,iti,,null,img/motor_5.png,72,motor,,,,,,,
477,,235142,HierDy98qxm27z,3eqkm6eej0,ms1000241,motor,,83,img/motor_2.png,83,motor,2,10,1,0,0,,
null,,235249,HierDy98qxm27z,3eqkm6eej0,ms1000241,iti,,null,img/motor_2.png,83,motor,,,,,,,
420,,235678,HierDy98qxm27z,3eqkm6eej0,ms1000241,motor,,68,img/motor_3.png,68,motor,3,11,1,0,0,,
null,,235785,HierDy98qxm27z,3eqkm6eej0,ms1000241,iti,,null,img/motor_3.png,68,motor,,,,,,,
461,,236253,HierDy98qxm27z,3eqkm6eej0,ms1000241,motor,,76,img/motor_8.png,76,motor,8,12,1,0,0,,
null,,236362,HierDy98qxm27z,3eqkm6eej0,ms1000241,iti,,null,img/motor_8.png,76,motor,,,,,,,
604,,236974,HierDy98qxm27z,3eqkm6eej0,ms1000241,motor,,74,img/motor_6.png,74,motor,6,13,1,0,0,,
null,,237082,HierDy98qxm27z,3eqkm6eej0,ms1000241,iti,,null,img/motor_6.png,74,motor,,,,,,,
548,,237638,HierDy98qxm27z,3eqkm6eej0,ms1000241,motor,,83,img/motor_2.png,83,motor,2,14,1,0,0,,
null,,237746,HierDy98qxm27z,3eqkm6eej0,ms1000241,iti,,null,img/motor_2.png,83,motor,,,,,,,
724,,238476,HierDy98qxm27z,3eqkm6eej0,ms1000241,motor,,75,img/motor_6.png,74,motor,6,15,0,1,0,,
426,,238910,HierDy98qxm27z,3eqkm6eej0,ms1000241,motorRepeat,,74,img/motor_6.png,74,motor,6,15,1,0,0,,
null,,239018,HierDy98qxm27z,3eqkm6eej0,ms1000241,iti,,null,img/motor_6.png,74,motor,,,,,,,
539,,239572,HierDy98qxm27z,3eqkm6eej0,ms1000241,motor,,70,img/motor_4.png,70,motor,4,16,1,0,0,,
null,,239680,HierDy98qxm27z,3eqkm6eej0,ms1000241,iti,,null,img/motor_4.png,70,motor,,,,,,,
629,,240318,HierDy98qxm27z,3eqkm6eej0,ms1000241,motor,,74,img/motor_6.png,74,motor,6,17,1,0,0,,
null,,240425,HierDy98qxm27z,3eqkm6eej0,ms1000241,iti,,null,img/motor_6.png,74,motor,,,,,,,
437,,240870,HierDy98qxm27z,3eqkm6eej0,ms1000241,motor,,75,img/motor_7.png,75,motor,7,18,1,0,0,,
null,,240978,HierDy98qxm27z,3eqkm6eej0,ms1000241,iti,,null,img/motor_7.png,75,motor,,,,,,,
413,,241403,HierDy98qxm27z,3eqkm6eej0,ms1000241,motor,,74,img/motor_6.png,74,motor,6,19,1,0,0,,
null,,241518,HierDy98qxm27z,3eqkm6eej0,ms1000241,iti,,null,img/motor_6.png,74,motor,,,,,,,
487,,242020,HierDy98qxm27z,3eqkm6eej0,ms1000241,motor,,83,img/motor_3.png,68,motor,3,20,0,1,0,,
331,,242364,HierDy98qxm27z,3eqkm6eej0,ms1000241,motorRepeat,,68,img/motor_3.png,68,motor,3,20,1,0,0,,
null,,242473,HierDy98qxm27z,3eqkm6eej0,ms1000241,iti,,null,img/motor_3.png,68,motor,,,,,,,
589,,243070,HierDy98qxm27z,3eqkm6eej0,ms1000241,motor,,72,img/motor_5.png,72,motor,5,21,1,0,0,,
null,,243177,HierDy98qxm27z,3eqkm6eej0,ms1000241,iti,,null,img/motor_5.png,72,motor,,,,,,,
548,,243734,HierDy98qxm27z,3eqkm6eej0,ms1000241,motor,,68,img/motor_3.png,68,motor,3,22,1,0,0,,
null,,243848,HierDy98qxm27z,3eqkm6eej0,ms1000241,iti,,null,img/motor_3.png,68,motor,,,,,,,
518,,244374,HierDy98qxm27z,3eqkm6eej0,ms1000241,motor,,65,img/motor_1.png,65,motor,1,23,1,0,0,,
null,,244488,HierDy98qxm27z,3eqkm6eej0,ms1000241,iti,,null,img/motor_1.png,65,motor,,,,,,,
485,,244982,HierDy98qxm27z,3eqkm6eej0,ms1000241,motor,,65,img/motor_1.png,65,motor,1,24,1,0,0,,
null,,245095,HierDy98qxm27z,3eqkm6eej0,ms1000241,iti,,null,img/motor_1.png,65,motor,,,,,,,
630,,245734,HierDy98qxm27z,3eqkm6eej0,ms1000241,motor,,68,img/motor_3.png,68,motor,3,25,1,0,0,,
null,,245842,HierDy98qxm27z,3eqkm6eej0,ms1000241,iti,,null,img/motor_3.png,68,motor,,,,,,,
507,,246358,HierDy98qxm27z,3eqkm6eej0,ms1000241,motor,,74,img/motor_5.png,72,motor,5,26,0,1,0,,
288,,246654,HierDy98qxm27z,3eqkm6eej0,ms1000241,motorRepeat,,72,img/motor_5.png,72,motor,5,26,1,0,0,,
null,,246768,HierDy98qxm27z,3eqkm6eej0,ms1000241,iti,,null,img/motor_5.png,72,motor,,,,,,,
524,,247302,HierDy98qxm27z,3eqkm6eej0,ms1000241,motor,,74,img/motor_6.png,74,motor,6,27,1,0,0,,
null,,247415,HierDy98qxm27z,3eqkm6eej0,ms1000241,iti,,null,img/motor_6.png,74,motor,,,,,,,
479,,247902,HierDy98qxm27z,3eqkm6eej0,ms1000241,motor,,74,img/motor_6.png,74,motor,6,28,1,0,0,,
null,,248016,HierDy98qxm27z,3eqkm6eej0,ms1000241,iti,,null,img/motor_6.png,74,motor,,,,,,,
494,,248517,HierDy98qxm27z,3eqkm6eej0,ms1000241,motor,,68,img/motor_2.png,83,motor,2,29,0,1,0,,
55,,248587,HierDy98qxm27z,3eqkm6eej0,ms1000241,motorRepeat,,83,img/motor_2.png,83,motor,2,29,1,0,0,,
null,,248696,HierDy98qxm27z,3eqkm6eej0,ms1000241,iti,,null,img/motor_2.png,83,motor,,,,,,,
597,,249308,HierDy98qxm27z,3eqkm6eej0,ms1000241,motor,,68,img/motor_3.png,68,motor,3,30,1,0,0,,
null,,249423,HierDy98qxm27z,3eqkm6eej0,ms1000241,iti,,null,img/motor_3.png,68,motor,,,,,,,
543,,249980,HierDy98qxm27z,3eqkm6eej0,ms1000241,motor,,83,img/motor_2.png,83,motor,2,31,1,0,0,,
null,,250088,HierDy98qxm27z,3eqkm6eej0,ms1000241,iti,,null,img/motor_2.png,83,motor,,,,,,,
518,,250619,HierDy98qxm27z,3eqkm6eej0,ms1000241,motor,,76,img/motor_8.png,76,motor,8,32,1,0,0,,
null,,250729,HierDy98qxm27z,3eqkm6eej0,ms1000241,iti,,null,img/motor_8.png,76,motor,,,,,,,
709,,251446,HierDy98qxm27z,3eqkm6eej0,ms1000241,motor,,83,img/motor_2.png,83,motor,2,33,1,0,0,,
null,,251554,HierDy98qxm27z,3eqkm6eej0,ms1000241,iti,,null,img/motor_2.png,83,motor,,,,,,,
637,,252198,HierDy98qxm27z,3eqkm6eej0,ms1000241,motor,,75,img/motor_7.png,75,motor,7,34,1,0,0,,
null,,252306,HierDy98qxm27z,3eqkm6eej0,ms1000241,iti,,null,img/motor_7.png,75,motor,,,,,,,
564,,252877,HierDy98qxm27z,3eqkm6eej0,ms1000241,motor,,72,img/motor_5.png,72,motor,5,35,1,0,0,,
null,,252992,HierDy98qxm27z,3eqkm6eej0,ms1000241,iti,,null,img/motor_5.png,72,motor,,,,,,,
429,,253436,HierDy98qxm27z,3eqkm6eej0,ms1000241,motor,,65,img/motor_1.png,65,motor,1,36,1,0,0,,
null,,253545,HierDy98qxm27z,3eqkm6eej0,ms1000241,iti,,null,img/motor_1.png,65,motor,,,,,,,
501,,254060,HierDy98qxm27z,3eqkm6eej0,ms1000241,motor,,83,img/motor_2.png,83,motor,2,37,1,0,0,,
null,,254169,HierDy98qxm27z,3eqkm6eej0,ms1000241,iti,,null,img/motor_2.png,83,motor,,,,,,,
413,,254590,HierDy98qxm27z,3eqkm6eej0,ms1000241,motor,,76,img/motor_8.png,76,motor,8,38,1,0,0,,
null,,254704,HierDy98qxm27z,3eqkm6eej0,ms1000241,iti,,null,img/motor_8.png,76,motor,,,,,,,
565,,255284,HierDy98qxm27z,3eqkm6eej0,ms1000241,motor,,83,img/motor_2.png,83,motor,2,39,1,0,0,,
null,,255392,HierDy98qxm27z,3eqkm6eej0,ms1000241,iti,,null,img/motor_2.png,83,motor,,,,,,,
606,,256005,HierDy98qxm27z,3eqkm6eej0,ms1000241,motor,,70,img/motor_4.png,70,motor,4,40,1,0,0,,
null,,256114,HierDy98qxm27z,3eqkm6eej0,ms1000241,iti,,null,img/motor_4.png,70,motor,,,,,,,
476,,256605,HierDy98qxm27z,3eqkm6eej0,ms1000241,motor,,68,img/motor_3.png,68,motor,3,41,1,0,0,,
null,,256713,HierDy98qxm27z,3eqkm6eej0,ms1000241,iti,,null,img/motor_3.png,68,motor,,,,,,,
390,,257116,HierDy98qxm27z,3eqkm6eej0,ms1000241,motor,,74,img/motor_6.png,74,motor,6,42,1,0,0,,
null,,257224,HierDy98qxm27z,3eqkm6eej0,ms1000241,iti,,null,img/motor_6.png,74,motor,,,,,,,
630,,257862,HierDy98qxm27z,3eqkm6eej0,ms1000241,motor,,65,img/motor_1.png,65,motor,1,43,1,0,0,,
null,,257970,HierDy98qxm27z,3eqkm6eej0,ms1000241,iti,,null,img/motor_1.png,65,motor,,,,,,,
484,,258469,HierDy98qxm27z,3eqkm6eej0,ms1000241,motor,,74,img/motor_6.png,74,motor,6,44,1,0,0,,
null,,258583,HierDy98qxm27z,3eqkm6eej0,ms1000241,iti,,null,img/motor_6.png,74,motor,,,,,,,
397,,258990,HierDy98qxm27z,3eqkm6eej0,ms1000241,motor,,76,img/motor_8.png,76,motor,8,45,1,0,0,,
null,,259104,HierDy98qxm27z,3eqkm6eej0,ms1000241,iti,,null,img/motor_8.png,76,motor,,,,,,,
420,,259540,HierDy98qxm27z,3eqkm6eej0,ms1000241,motor,,83,img/motor_3.png,68,motor,3,46,0,1,0,,
49,,259604,HierDy98qxm27z,3eqkm6eej0,ms1000241,motorRepeat,,68,img/motor_3.png,68,motor,3,46,1,0,0,,
null,,259713,HierDy98qxm27z,3eqkm6eej0,ms1000241,iti,,null,img/motor_3.png,68,motor,,,,,,,
469,,260196,HierDy98qxm27z,3eqkm6eej0,ms1000241,motor,,68,img/motor_3.png,68,motor,3,47,1,0,0,,
null,,260305,HierDy98qxm27z,3eqkm6eej0,ms1000241,iti,,null,img/motor_3.png,68,motor,,,,,,,
8532,,268846,HierDy98qxm27z,3eqkm6eej0,ms1000241,motor,,75,img/motor_7.png,75,motor,7,48,1,0,0,,
null,,268954,HierDy98qxm27z,3eqkm6eej0,ms1000241,iti,,null,img/motor_7.png,75,motor,,,,,,,
435,,269404,HierDy98qxm27z,3eqkm6eej0,ms1000241,motor,,75,img/motor_7.png,75,motor,7,49,1,0,0,,
null,,269514,HierDy98qxm27z,3eqkm6eej0,ms1000241,iti,,null,img/motor_7.png,75,motor,,,,,,,
452,,269982,HierDy98qxm27z,3eqkm6eej0,ms1000241,motor,,76,img/motor_8.png,76,motor,8,50,1,0,0,,
null,,270090,HierDy98qxm27z,3eqkm6eej0,ms1000241,iti,,null,img/motor_8.png,76,motor,,,,,,,
476,,270574,HierDy98qxm27z,3eqkm6eej0,ms1000241,motor,,72,img/motor_5.png,72,motor,5,51,1,0,0,,
null,,270682,HierDy98qxm27z,3eqkm6eej0,ms1000241,iti,,null,img/motor_5.png,72,motor,,,,,,,
427,,271117,HierDy98qxm27z,3eqkm6eej0,ms1000241,motor,,83,img/motor_2.png,83,motor,2,52,1,0,0,,
null,,271225,HierDy98qxm27z,3eqkm6eej0,ms1000241,iti,,null,img/motor_2.png,83,motor,,,,,,,
389,,271629,HierDy98qxm27z,3eqkm6eej0,ms1000241,motor,,83,img/motor_2.png,83,motor,2,53,1,0,0,,
null,,271744,HierDy98qxm27z,3eqkm6eej0,ms1000241,iti,,null,img/motor_2.png,83,motor,,,,,,,
509,,272269,HierDy98qxm27z,3eqkm6eej0,ms1000241,motor,,70,img/motor_4.png,70,motor,4,54,1,0,0,,
null,,272383,HierDy98qxm27z,3eqkm6eej0,ms1000241,iti,,null,img/motor_4.png,70,motor,,,,,,,
414,,272813,HierDy98qxm27z,3eqkm6eej0,ms1000241,motor,,76,img/motor_8.png,76,motor,8,55,1,0,0,,
null,,272921,HierDy98qxm27z,3eqkm6eej0,ms1000241,iti,,null,img/motor_8.png,76,motor,,,,,,,
558,,273486,HierDy98qxm27z,3eqkm6eej0,ms1000241,motor,,83,img/motor_2.png,83,motor,2,56,1,0,0,,
null,,273600,HierDy98qxm27z,3eqkm6eej0,ms1000241,iti,,null,img/motor_2.png,83,motor,,,,,,,
509,,274124,HierDy98qxm27z,3eqkm6eej0,ms1000241,motor,,72,img/motor_5.png,72,motor,5,57,1,0,0,,
null,,274240,HierDy98qxm27z,3eqkm6eej0,ms1000241,iti,,null,img/motor_5.png,72,motor,,,,,,,
414,,274668,HierDy98qxm27z,3eqkm6eej0,ms1000241,motor,,76,img/motor_8.png,76,motor,8,58,1,0,0,,
null,,274784,HierDy98qxm27z,3eqkm6eej0,ms1000241,iti,,null,img/motor_8.png,76,motor,,,,,,,
501,,275300,HierDy98qxm27z,3eqkm6eej0,ms1000241,motor,,75,img/motor_7.png,75,motor,7,59,1,0,0,,
null,,275409,HierDy98qxm27z,3eqkm6eej0,ms1000241,iti,,null,img/motor_7.png,75,motor,,,,,,,
484,,275902,HierDy98qxm27z,3eqkm6eej0,ms1000241,motor,,83,img/motor_2.png,83,motor,2,60,1,0,0,,
null,,276016,HierDy98qxm27z,3eqkm6eej0,ms1000241,iti,,null,img/motor_2.png,83,motor,,,,,,,
437,,276462,HierDy98qxm27z,3eqkm6eej0,ms1000241,motor,,75,img/motor_7.png,75,motor,7,61,1,0,0,,
null,,276576,HierDy98qxm27z,3eqkm6eej0,ms1000241,iti,,null,img/motor_7.png,75,motor,,,,,,,
494,,277084,HierDy98qxm27z,3eqkm6eej0,ms1000241,motor,,74,img/motor_6.png,74,motor,6,62,1,0,0,,
null,,277193,HierDy98qxm27z,3eqkm6eej0,ms1000241,iti,,null,img/motor_6.png,74,motor,,,,,,,
413,,277614,HierDy98qxm27z,3eqkm6eej0,ms1000241,motor,,76,img/motor_8.png,76,motor,8,63,1,0,0,,
null,,277728,HierDy98qxm27z,3eqkm6eej0,ms1000241,iti,,null,img/motor_8.png,76,motor,,,,,,,
509,,278252,HierDy98qxm27z,3eqkm6eej0,ms1000241,motor,,74,img/motor_6.png,74,motor,6,64,1,0,0,,
null,,278367,HierDy98qxm27z,3eqkm6eej0,ms1000241,iti,,null,img/motor_6.png,74,motor,,,,,,,
406,,278789,HierDy98qxm27z,3eqkm6eej0,ms1000241,motor,,74,img/motor_6.png,74,motor,6,65,1,0,0,,
null,,278904,HierDy98qxm27z,3eqkm6eej0,ms1000241,iti,,null,img/motor_6.png,74,motor,,,,,,,
678,,279590,HierDy98qxm27z,3eqkm6eej0,ms1000241,motor,,70,img/motor_4.png,70,motor,4,66,1,0,0,,
null,,279704,HierDy98qxm27z,3eqkm6eej0,ms1000241,iti,,null,img/motor_4.png,70,motor,,,,,,,
669,,280389,HierDy98qxm27z,3eqkm6eej0,ms1000241,motor,,70,img/motor_1.png,65,motor,1,67,0,1,0,,
345,,280748,HierDy98qxm27z,3eqkm6eej0,ms1000241,motorRepeat,,65,img/motor_1.png,65,motor,1,67,1,0,0,,
null,,280863,HierDy98qxm27z,3eqkm6eej0,ms1000241,iti,,null,img/motor_1.png,65,motor,,,,,,,
567,,281444,HierDy98qxm27z,3eqkm6eej0,ms1000241,motor,,83,img/motor_2.png,83,motor,2,68,1,0,0,,
null,,281559,HierDy98qxm27z,3eqkm6eej0,ms1000241,iti,,null,img/motor_2.png,83,motor,,,,,,,
526,,282100,HierDy98qxm27z,3eqkm6eej0,ms1000241,motor,,75,img/motor_7.png,75,motor,7,69,1,0,0,,
null,,282215,HierDy98qxm27z,3eqkm6eej0,ms1000241,iti,,null,img/motor_7.png,75,motor,,,,,,,
422,,282646,HierDy98qxm27z,3eqkm6eej0,ms1000241,motor,,75,img/motor_7.png,75,motor,7,70,1,0,0,,
null,,282754,HierDy98qxm27z,3eqkm6eej0,ms1000241,iti,,null,img/motor_7.png,75,motor,,,,,,,
588,,283356,HierDy98qxm27z,3eqkm6eej0,ms1000241,motor,,70,img/motor_4.png,70,motor,4,71,1,0,0,,
null,,283471,HierDy98qxm27z,3eqkm6eej0,ms1000241,iti,,null,img/motor_4.png,70,motor,,,,,,,
502,,283988,HierDy98qxm27z,3eqkm6eej0,ms1000241,motor,,72,img/motor_5.png,72,motor,5,72,1,0,0,,
null,,284104,HierDy98qxm27z,3eqkm6eej0,ms1000241,iti,,null,img/motor_5.png,72,motor,,,,,,,
509,,284628,HierDy98qxm27z,3eqkm6eej0,ms1000241,motor,,83,img/motor_2.png,83,motor,2,73,1,0,0,,
null,,284737,HierDy98qxm27z,3eqkm6eej0,ms1000241,iti,,null,img/motor_2.png,83,motor,,,,,,,
597,,285341,HierDy98qxm27z,3eqkm6eej0,ms1000241,motor,,68,img/motor_3.png,68,motor,3,74,1,0,0,,
null,,285455,HierDy98qxm27z,3eqkm6eej0,ms1000241,iti,,null,img/motor_3.png,68,motor,,,,,,,
430,,285894,HierDy98qxm27z,3eqkm6eej0,ms1000241,motor,,68,img/motor_3.png,68,motor,3,75,1,0,0,,
null,,286002,HierDy98qxm27z,3eqkm6eej0,ms1000241,iti,,null,img/motor_3.png,68,motor,,,,,,,
596,,286606,HierDy98qxm27z,3eqkm6eej0,ms1000241,motor,,76,img/motor_8.png,76,motor,8,76,1,0,0,,
null,,286713,HierDy98qxm27z,3eqkm6eej0,ms1000241,iti,,null,img/motor_8.png,76,motor,,,,,,,
533,,287260,HierDy98qxm27z,3eqkm6eej0,ms1000241,motor,,72,img/motor_5.png,72,motor,5,77,1,0,0,,
null,,287368,HierDy98qxm27z,3eqkm6eej0,ms1000241,iti,,null,img/motor_5.png,72,motor,,,,,,,
869,,288252,HierDy98qxm27z,3eqkm6eej0,ms1000241,motor,,83,img/motor_2.png,83,motor,2,78,1,0,0,,
null,,288366,HierDy98qxm27z,3eqkm6eej0,ms1000241,iti,,null,img/motor_2.png,83,motor,,,,,,,
503,,288884,HierDy98qxm27z,3eqkm6eej0,ms1000241,motor,,65,img/motor_1.png,65,motor,1,79,1,0,0,,
null,,288991,HierDy98qxm27z,3eqkm6eej0,ms1000241,iti,,null,img/motor_1.png,65,motor,,,,,,,
599,,289598,HierDy98qxm27z,3eqkm6eej0,ms1000241,motor,,72,img/motor_5.png,72,motor,5,80,1,0,0,,
null,,289712,HierDy98qxm27z,3eqkm6eej0,ms1000241,iti,,null,img/motor_5.png,72,motor,,,,,,,
462,,290182,HierDy98qxm27z,3eqkm6eej0,ms1000241,motor,,83,img/motor_3.png,68,motor,3,81,0,1,0,,
296,,290485,HierDy98qxm27z,3eqkm6eej0,ms1000241,motorRepeat,,68,img/motor_3.png,68,motor,3,81,1,0,0,,
null,,290593,HierDy98qxm27z,3eqkm6eej0,ms1000241,iti,,null,img/motor_3.png,68,motor,,,,,,,
548,,291156,HierDy98qxm27z,3eqkm6eej0,ms1000241,motor,,75,img/motor_6.png,74,motor,6,82,0,1,0,,
289,,291454,HierDy98qxm27z,3eqkm6eej0,ms1000241,motorRepeat,,74,img/motor_6.png,74,motor,6,82,1,0,0,,
1,,291568,HierDy98qxm27z,3eqkm6eej0,ms1000241,iti,,72,img/motor_6.png,74,motor,,,,,,,
725,,292302,HierDy98qxm27z,3eqkm6eej0,ms1000241,motor,,72,img/motor_5.png,72,motor,5,83,1,0,0,,
null,,292410,HierDy98qxm27z,3eqkm6eej0,ms1000241,iti,,null,img/motor_5.png,72,motor,,,,,,,
468,,292886,HierDy98qxm27z,3eqkm6eej0,ms1000241,motor,,76,img/motor_8.png,76,motor,8,84,1,0,0,,
null,,292993,HierDy98qxm27z,3eqkm6eej0,ms1000241,iti,,null,img/motor_8.png,76,motor,,,,,,,
580,,293582,HierDy98qxm27z,3eqkm6eej0,ms1000241,motor,,72,img/motor_5.png,72,motor,5,85,1,0,0,,
null,,293690,HierDy98qxm27z,3eqkm6eej0,ms1000241,iti,,null,img/motor_5.png,72,motor,,,,,,,
564,,294262,HierDy98qxm27z,3eqkm6eej0,ms1000241,motor,,75,img/motor_7.png,75,motor,7,86,1,0,0,,
null,,294376,HierDy98qxm27z,3eqkm6eej0,ms1000241,iti,,null,img/motor_7.png,75,motor,,,,,,,
461,,294846,HierDy98qxm27z,3eqkm6eej0,ms1000241,motor,,74,img/motor_6.png,74,motor,6,87,1,0,0,,
null,,294954,HierDy98qxm27z,3eqkm6eej0,ms1000241,iti,,null,img/motor_6.png,74,motor,,,,,,,
493,,295454,HierDy98qxm27z,3eqkm6eej0,ms1000241,motor,,70,img/motor_4.png,70,motor,4,88,1,0,0,,
null,,295562,HierDy98qxm27z,3eqkm6eej0,ms1000241,iti,,null,img/motor_4.png,70,motor,,,,,,,
492,,296068,HierDy98qxm27z,3eqkm6eej0,ms1000241,motor,,68,img/motor_3.png,68,motor,3,89,1,0,0,,
null,,296183,HierDy98qxm27z,3eqkm6eej0,ms1000241,iti,,null,img/motor_3.png,68,motor,,,,,,,
446,,296644,HierDy98qxm27z,3eqkm6eej0,ms1000241,motor,,65,img/motor_1.png,65,motor,1,90,1,0,0,,
null,,296759,HierDy98qxm27z,3eqkm6eej0,ms1000241,iti,,null,img/motor_1.png,65,motor,,,,,,,
534,,297302,HierDy98qxm27z,3eqkm6eej0,ms1000241,motor,,75,img/motor_7.png,75,motor,7,91,1,0,0,,
null,,297417,HierDy98qxm27z,3eqkm6eej0,ms1000241,iti,,null,img/motor_7.png,75,motor,,,,,,,
581,,298006,HierDy98qxm27z,3eqkm6eej0,ms1000241,motor,,68,img/motor_3.png,68,motor,3,92,1,0,0,,
null,,298114,HierDy98qxm27z,3eqkm6eej0,ms1000241,iti,,null,img/motor_3.png,68,motor,,,,,,,
404,,298532,HierDy98qxm27z,3eqkm6eej0,ms1000241,motor,,76,img/motor_8.png,76,motor,8,93,1,0,0,,
null,,298641,HierDy98qxm27z,3eqkm6eej0,ms1000241,iti,,null,img/motor_8.png,76,motor,,,,,,,
564,,299214,HierDy98qxm27z,3eqkm6eej0,ms1000241,motor,,68,img/motor_3.png,68,motor,3,94,1,0,0,,
null,,299323,HierDy98qxm27z,3eqkm6eej0,ms1000241,iti,,null,img/motor_3.png,68,motor,,,,,,,
467,,299804,HierDy98qxm27z,3eqkm6eej0,ms1000241,motor,,83,img/motor_2.png,83,motor,2,95,1,0,0,,
null,,299919,HierDy98qxm27z,3eqkm6eej0,ms1000241,iti,,null,img/motor_2.png,83,motor,,,,,,,
422,,300351,HierDy98qxm27z,3eqkm6eej0,ms1000241,motor,,76,img/motor_8.png,76,motor,8,96,1,0,0,,
null,,300457,HierDy98qxm27z,3eqkm6eej0,ms1000241,iti,,null,img/motor_8.png,76,motor,,,,,,,
509,,300974,HierDy98qxm27z,3eqkm6eej0,ms1000241,motor,,72,img/motor_5.png,72,motor,5,97,1,0,0,,
null,,301082,HierDy98qxm27z,3eqkm6eej0,ms1000241,iti,,null,img/motor_5.png,72,motor,,,,,,,
420,,301516,HierDy98qxm27z,3eqkm6eej0,ms1000241,motor,,76,img/motor_8.png,76,motor,8,98,1,0,0,,
null,,301625,HierDy98qxm27z,3eqkm6eej0,ms1000241,iti,,null,img/motor_8.png,76,motor,,,,,,,
397,,302030,HierDy98qxm27z,3eqkm6eej0,ms1000241,motor,,72,img/motor_5.png,72,motor,5,99,1,0,0,,
null,,302139,HierDy98qxm27z,3eqkm6eej0,ms1000241,iti,,null,img/motor_5.png,72,motor,,,,,,,
476,,302622,HierDy98qxm27z,3eqkm6eej0,ms1000241,motor,,72,img/motor_5.png,72,motor,5,100,1,0,0,,
null,,302736,HierDy98qxm27z,3eqkm6eej0,ms1000241,iti,,null,img/motor_5.png,72,motor,,,,,,,
637,,303388,HierDy98qxm27z,3eqkm6eej0,ms1000241,motor,,75,img/motor_7.png,75,motor,7,101,1,0,0,,
null,,303503,HierDy98qxm27z,3eqkm6eej0,ms1000241,iti,,null,img/motor_7.png,75,motor,,,,,,,
646,,304164,HierDy98qxm27z,3eqkm6eej0,ms1000241,motor,,68,img/motor_3.png,68,motor,3,102,1,0,0,,
null,,304273,HierDy98qxm27z,3eqkm6eej0,ms1000241,iti,,null,img/motor_3.png,68,motor,,,,,,,
725,,305012,HierDy98qxm27z,3eqkm6eej0,ms1000241,motor,,72,img/motor_5.png,72,motor,5,103,1,0,0,,
null,,305127,HierDy98qxm27z,3eqkm6eej0,ms1000241,iti,,null,img/motor_5.png,72,motor,,,,,,,
422,,305557,HierDy98qxm27z,3eqkm6eej0,ms1000241,motor,,72,img/motor_5.png,72,motor,5,104,1,0,0,,
null,,305666,HierDy98qxm27z,3eqkm6eej0,ms1000241,iti,,null,img/motor_5.png,72,motor,,,,,,,
436,,306110,HierDy98qxm27z,3eqkm6eej0,ms1000241,motor,,83,img/motor_2.png,83,motor,2,105,1,0,0,,
null,,306224,HierDy98qxm27z,3eqkm6eej0,ms1000241,iti,,null,img/motor_2.png,83,motor,,,,,,,
438,,306670,HierDy98qxm27z,3eqkm6eej0,ms1000241,motor,,75,img/motor_7.png,75,motor,7,106,1,0,0,,
null,,306778,HierDy98qxm27z,3eqkm6eej0,ms1000241,iti,,null,img/motor_7.png,75,motor,,,,,,,
540,,307326,HierDy98qxm27z,3eqkm6eej0,ms1000241,motor,,70,img/motor_4.png,70,motor,4,107,1,0,0,,
null,,307434,HierDy98qxm27z,3eqkm6eej0,ms1000241,iti,,null,img/motor_4.png,70,motor,,,,,,,
508,,307957,HierDy98qxm27z,3eqkm6eej0,ms1000241,motor,,70,img/motor_4.png,70,motor,4,108,1,0,0,,
null,,308065,HierDy98qxm27z,3eqkm6eej0,ms1000241,iti,,null,img/motor_4.png,70,motor,,,,,,,
390,,308468,HierDy98qxm27z,3eqkm6eej0,ms1000241,motor,,83,img/motor_2.png,83,motor,2,109,1,0,0,,
null,,308583,HierDy98qxm27z,3eqkm6eej0,ms1000241,iti,,null,img/motor_2.png,83,motor,,,,,,,
398,,308990,HierDy98qxm27z,3eqkm6eej0,ms1000241,motor,,65,img/motor_1.png,65,motor,1,110,1,0,0,,
null,,309098,HierDy98qxm27z,3eqkm6eej0,ms1000241,iti,,null,img/motor_1.png,65,motor,,,,,,,
340,,309446,HierDy98qxm27z,3eqkm6eej0,ms1000241,motor,,76,img/motor_8.png,76,motor,8,111,1,0,0,,
null,,309561,HierDy98qxm27z,3eqkm6eej0,ms1000241,iti,,null,img/motor_8.png,76,motor,,,,,,,
429,,309998,HierDy98qxm27z,3eqkm6eej0,ms1000241,motor,,65,img/motor_2.png,83,motor,2,112,0,1,0,,
368,,310374,HierDy98qxm27z,3eqkm6eej0,ms1000241,motorRepeat,,83,img/motor_2.png,83,motor,2,112,1,0,0,,
null,,310488,HierDy98qxm27z,3eqkm6eej0,ms1000241,iti,,null,img/motor_2.png,83,motor,,,,,,,
541,,311044,HierDy98qxm27z,3eqkm6eej0,ms1000241,motor,,65,img/motor_1.png,65,motor,1,113,1,0,0,,
null,,311154,HierDy98qxm27z,3eqkm6eej0,ms1000241,iti,,null,img/motor_1.png,65,motor,,,,,,,
469,,311630,HierDy98qxm27z,3eqkm6eej0,ms1000241,motor,,72,img/motor_5.png,72,motor,5,114,1,0,0,,
null,,311737,HierDy98qxm27z,3eqkm6eej0,ms1000241,iti,,null,img/motor_5.png,72,motor,,,,,,,
500,,312246,HierDy98qxm27z,3eqkm6eej0,ms1000241,motor,,70,img/motor_4.png,70,motor,4,115,1,0,0,,
null,,312355,HierDy98qxm27z,3eqkm6eej0,ms1000241,iti,,null,img/motor_4.png,70,motor,,,,,,,
442,,312812,HierDy98qxm27z,3eqkm6eej0,ms1000241,motor,,75,img/motor_7.png,75,motor,7,116,1,0,0,,
null,,312921,HierDy98qxm27z,3eqkm6eej0,ms1000241,iti,,null,img/motor_7.png,75,motor,,,,,,,
381,,313316,HierDy98qxm27z,3eqkm6eej0,ms1000241,motor,,76,img/motor_8.png,76,motor,8,117,1,0,0,,
null,,313425,HierDy98qxm27z,3eqkm6eej0,ms1000241,iti,,null,img/motor_8.png,76,motor,,,,,,,
533,,313966,HierDy98qxm27z,3eqkm6eej0,ms1000241,motor,,83,img/motor_2.png,83,motor,2,118,1,0,0,,
null,,314074,HierDy98qxm27z,3eqkm6eej0,ms1000241,iti,,null,img/motor_2.png,83,motor,,,,,,,
453,,314541,HierDy98qxm27z,3eqkm6eej0,ms1000241,motor,,76,img/motor_8.png,76,motor,8,119,1,0,0,,
null,,314655,HierDy98qxm27z,3eqkm6eej0,ms1000241,iti,,null,img/motor_8.png,76,motor,,,,,,,
414,,315077,HierDy98qxm27z,3eqkm6eej0,ms1000241,motor,,83,img/motor_2.png,83,motor,2,120,1,0,0,,
null,,315191,HierDy98qxm27z,3eqkm6eej0,ms1000241,iti,,null,img/motor_2.png,83,motor,,,,,,,
366,,315567,HierDy98qxm27z,3eqkm6eej0,ms1000241,motor,,83,img/motor_3.png,68,motor,3,121,0,1,0,,
264,,315844,HierDy98qxm27z,3eqkm6eej0,ms1000241,motorRepeat,,68,img/motor_3.png,68,motor,3,121,1,0,0,,
null,,315960,HierDy98qxm27z,3eqkm6eej0,ms1000241,iti,,null,img/motor_3.png,68,motor,,,,,,,
430,,316397,HierDy98qxm27z,3eqkm6eej0,ms1000241,motor,,83,img/motor_2.png,83,motor,2,122,1,0,0,,
null,,316512,HierDy98qxm27z,3eqkm6eej0,ms1000241,iti,,null,img/motor_2.png,83,motor,,,,,,,
470,,316990,HierDy98qxm27z,3eqkm6eej0,ms1000241,motor,,72,img/motor_5.png,72,motor,5,123,1,0,0,,
null,,317104,HierDy98qxm27z,3eqkm6eej0,ms1000241,iti,,null,img/motor_5.png,72,motor,,,,,,,
645,,317764,HierDy98qxm27z,3eqkm6eej0,ms1000241,motor,,70,img/motor_4.png,70,motor,4,124,1,0,0,,
null,,317880,HierDy98qxm27z,3eqkm6eej0,ms1000241,iti,,null,img/motor_4.png,70,motor,,,,,,,
406,,318301,HierDy98qxm27z,3eqkm6eej0,ms1000241,motor,,70,img/motor_4.png,70,motor,4,125,1,0,0,,
null,,318409,HierDy98qxm27z,3eqkm6eej0,ms1000241,iti,,null,img/motor_4.png,70,motor,,,,,,,
437,,318854,HierDy98qxm27z,3eqkm6eej0,ms1000241,motor,,65,img/motor_1.png,65,motor,1,126,1,0,0,,
null,,318963,HierDy98qxm27z,3eqkm6eej0,ms1000241,iti,,null,img/motor_1.png,65,motor,,,,,,,
419,,319390,HierDy98qxm27z,3eqkm6eej0,ms1000241,motor,,70,img/motor_4.png,70,motor,4,127,1,0,0,,
null,,319505,HierDy98qxm27z,3eqkm6eej0,ms1000241,iti,,null,img/motor_4.png,70,motor,,,,,,,
366,,319884,HierDy98qxm27z,3eqkm6eej0,ms1000241,motor,,65,img/motor_1.png,65,motor,1,128,1,0,0,,
null,,319993,HierDy98qxm27z,3eqkm6eej0,ms1000241,iti,,null,img/motor_1.png,65,motor,,,,,,,
365,,320366,HierDy98qxm27z,3eqkm6eej0,ms1000241,motor,,76,img/motor_7.png,75,motor,7,129,0,1,0,,
313,,320692,HierDy98qxm27z,3eqkm6eej0,ms1000241,motorRepeat,,75,img/motor_7.png,75,motor,7,129,1,0,0,,
null,,320808,HierDy98qxm27z,3eqkm6eej0,ms1000241,iti,,null,img/motor_7.png,75,motor,,,,,,,
574,,321390,HierDy98qxm27z,3eqkm6eej0,ms1000241,motor,,83,img/motor_2.png,83,motor,2,130,1,0,0,,
null,,321504,HierDy98qxm27z,3eqkm6eej0,ms1000241,iti,,null,img/motor_2.png,83,motor,,,,,,,
446,,321957,HierDy98qxm27z,3eqkm6eej0,ms1000241,motor,,70,img/motor_4.png,70,motor,4,131,1,0,0,,
null,,322072,HierDy98qxm27z,3eqkm6eej0,ms1000241,iti,,null,img/motor_4.png,70,motor,,,,,,,
550,,322630,HierDy98qxm27z,3eqkm6eej0,ms1000241,motor,,74,img/motor_6.png,74,motor,6,132,1,0,0,,
null,,322737,HierDy98qxm27z,3eqkm6eej0,ms1000241,iti,,null,img/motor_6.png,74,motor,,,,,,,
581,,323326,HierDy98qxm27z,3eqkm6eej0,ms1000241,motor,,68,img/motor_3.png,68,motor,3,133,1,0,0,,
null,,323440,HierDy98qxm27z,3eqkm6eej0,ms1000241,iti,,null,img/motor_3.png,68,motor,,,,,,,
509,,323957,HierDy98qxm27z,3eqkm6eej0,ms1000241,motor,,74,img/motor_6.png,74,motor,6,134,1,0,0,,
null,,324072,HierDy98qxm27z,3eqkm6eej0,ms1000241,iti,,null,img/motor_6.png,74,motor,,,,,,,
453,,324534,HierDy98qxm27z,3eqkm6eej0,ms1000241,motor,,72,img/motor_5.png,72,motor,5,135,1,0,0,,
null,,324648,HierDy98qxm27z,3eqkm6eej0,ms1000241,iti,,null,img/motor_5.png,72,motor,,,,,,,
477,,325140,HierDy98qxm27z,3eqkm6eej0,ms1000241,motor,,75,img/motor_7.png,75,motor,7,136,1,0,0,,
null,,325256,HierDy98qxm27z,3eqkm6eej0,ms1000241,iti,,null,img/motor_7.png,75,motor,,,,,,,
534,,325798,HierDy98qxm27z,3eqkm6eej0,ms1000241,motor,,68,img/motor_3.png,68,motor,3,137,1,0,0,,
null,,325914,HierDy98qxm27z,3eqkm6eej0,ms1000241,iti,,null,img/motor_3.png,68,motor,,,,,,,
386,,326316,HierDy98qxm27z,3eqkm6eej0,ms1000241,motor,,83,img/motor_2.png,83,motor,2,138,1,0,0,,
null,,326426,HierDy98qxm27z,3eqkm6eej0,ms1000241,iti,,null,img/motor_2.png,83,motor,,,,,,,
563,,326998,HierDy98qxm27z,3eqkm6eej0,ms1000241,motor,,74,img/motor_6.png,74,motor,6,139,1,0,0,,
null,,327115,HierDy98qxm27z,3eqkm6eej0,ms1000241,iti,,null,img/motor_6.png,74,motor,,,,,,,
515,,327644,HierDy98qxm27z,3eqkm6eej0,ms1000241,motor,,72,img/motor_5.png,72,motor,5,140,1,0,0,,
null,,327754,HierDy98qxm27z,3eqkm6eej0,ms1000241,iti,,null,img/motor_5.png,72,motor,,,,,,,
548,,328316,HierDy98qxm27z,3eqkm6eej0,ms1000241,motor,,68,img/motor_3.png,68,motor,3,141,1,0,0,,
null,,328431,HierDy98qxm27z,3eqkm6eej0,ms1000241,iti,,null,img/motor_3.png,68,motor,,,,,,,
397,,328844,HierDy98qxm27z,3eqkm6eej0,ms1000241,motor,,74,img/motor_6.png,74,motor,6,142,1,0,0,,
null,,328960,HierDy98qxm27z,3eqkm6eej0,ms1000241,iti,,null,img/motor_6.png,74,motor,,,,,,,
437,,329412,HierDy98qxm27z,3eqkm6eej0,ms1000241,motor,,76,img/motor_8.png,76,motor,8,143,1,0,0,,
null,,329522,HierDy98qxm27z,3eqkm6eej0,ms1000241,iti,,null,img/motor_8.png,76,motor,,,,,,,
477,,330006,HierDy98qxm27z,3eqkm6eej0,ms1000241,motor,,70,img/motor_4.png,70,motor,4,144,1,0,0,,
null,,330114,HierDy98qxm27z,3eqkm6eej0,ms1000241,iti,,null,img/motor_4.png,70,motor,,,,,,,
500,,330622,HierDy98qxm27z,3eqkm6eej0,ms1000241,motor,,75,img/motor_7.png,75,motor,7,145,1,0,0,,
null,,330730,HierDy98qxm27z,3eqkm6eej0,ms1000241,iti,,null,img/motor_7.png,75,motor,,,,,,,
484,,331222,HierDy98qxm27z,3eqkm6eej0,ms1000241,motor,,83,img/motor_3.png,68,motor,3,146,0,1,0,,
296,,331532,HierDy98qxm27z,3eqkm6eej0,ms1000241,motorRepeat,,68,img/motor_3.png,68,motor,3,146,1,0,0,,
null,,331648,HierDy98qxm27z,3eqkm6eej0,ms1000241,iti,,null,img/motor_3.png,68,motor,,,,,,,
455,,332116,HierDy98qxm27z,3eqkm6eej0,ms1000241,motor,,76,img/motor_8.png,76,motor,8,147,1,0,0,,
null,,332231,HierDy98qxm27z,3eqkm6eej0,ms1000241,iti,,null,img/motor_8.png,76,motor,,,,,,,
414,,332660,HierDy98qxm27z,3eqkm6eej0,ms1000241,motor,,76,img/motor_8.png,76,motor,8,148,1,0,0,,
null,,332776,HierDy98qxm27z,3eqkm6eej0,ms1000241,iti,,null,img/motor_8.png,76,motor,,,,,,,
493,,333285,HierDy98qxm27z,3eqkm6eej0,ms1000241,motor,,83,img/motor_2.png,83,motor,2,149,1,0,0,,
null,,333400,HierDy98qxm27z,3eqkm6eej0,ms1000241,iti,,null,img/motor_2.png,83,motor,,,,,,,
558,,333972,HierDy98qxm27z,3eqkm6eej0,ms1000241,motor,,74,img/motor_6.png,74,motor,6,150,1,0,0,,
null,,334087,HierDy98qxm27z,3eqkm6eej0,ms1000241,iti,,null,img/motor_6.png,74,motor,,,,,,,
742,,334838,HierDy98qxm27z,3eqkm6eej0,ms1000241,motor,,70,img/motor_2.png,83,motor,2,151,0,1,0,,
400,,335246,HierDy98qxm27z,3eqkm6eej0,ms1000241,motorRepeat,,75,img/motor_2.png,83,motor,2,151,0,1,0,,
385,,335638,HierDy98qxm27z,3eqkm6eej0,ms1000241,motorRepeat,,83,img/motor_2.png,83,motor,2,151,1,0,0,,
null,,335747,HierDy98qxm27z,3eqkm6eej0,ms1000241,iti,,null,img/motor_2.png,83,motor,,,,,,,
1109,,336869,HierDy98qxm27z,3eqkm6eej0,ms1000241,motor,,70,img/motor_4.png,70,motor,4,152,1,0,0,,
null,,336977,HierDy98qxm27z,3eqkm6eej0,ms1000241,iti,,null,img/motor_4.png,70,motor,,,,,,,
500,,337486,HierDy98qxm27z,3eqkm6eej0,ms1000241,motor,,72,img/motor_5.png,72,motor,5,153,1,0,0,,
null,,337594,HierDy98qxm27z,3eqkm6eej0,ms1000241,iti,,null,img/motor_5.png,72,motor,,,,,,,
461,,338068,HierDy98qxm27z,3eqkm6eej0,ms1000241,motor,,75,img/motor_7.png,75,motor,7,154,1,0,0,,
null,,338177,HierDy98qxm27z,3eqkm6eej0,ms1000241,iti,,null,img/motor_7.png,75,motor,,,,,,,
430,,338614,HierDy98qxm27z,3eqkm6eej0,ms1000241,motor,,65,img/motor_1.png,65,motor,1,155,1,0,0,,
null,,338728,HierDy98qxm27z,3eqkm6eej0,ms1000241,iti,,null,img/motor_1.png,65,motor,,,,,,,
405,,339143,HierDy98qxm27z,3eqkm6eej0,ms1000241,motor,,65,img/motor_1.png,65,motor,1,156,1,0,0,,
null,,339256,HierDy98qxm27z,3eqkm6eej0,ms1000241,iti,,null,img/motor_1.png,65,motor,,,,,,,
493,,339764,HierDy98qxm27z,3eqkm6eej0,ms1000241,motor,,70,img/motor_4.png,70,motor,4,157,1,0,0,,
null,,339879,HierDy98qxm27z,3eqkm6eej0,ms1000241,iti,,null,img/motor_4.png,70,motor,,,,,,,
478,,340366,HierDy98qxm27z,3eqkm6eej0,ms1000241,motor,,83,img/motor_2.png,83,motor,2,158,1,0,0,,
null,,340474,HierDy98qxm27z,3eqkm6eej0,ms1000241,iti,,null,img/motor_2.png,83,motor,,,,,,,
405,,340886,HierDy98qxm27z,3eqkm6eej0,ms1000241,motor,,65,img/motor_1.png,65,motor,1,159,1,0,0,,
null,,340994,HierDy98qxm27z,3eqkm6eej0,ms1000241,iti,,null,img/motor_1.png,65,motor,,,,,,,
492,,341501,HierDy98qxm27z,3eqkm6eej0,ms1000241,motor,,68,img/motor_2.png,83,motor,2,160,0,1,0,,
8,,341518,HierDy98qxm27z,3eqkm6eej0,ms1000241,motorRepeat,,83,img/motor_2.png,83,motor,2,160,1,0,0,,
null,,341626,HierDy98qxm27z,3eqkm6eej0,ms1000241,iti,,null,img/motor_2.png,83,motor,,,,,,,
468,,342101,HierDy98qxm27z,3eqkm6eej0,ms1000241,motor,,75,img/motor_7.png,75,motor,7,161,1,0,0,,
null,,342210,HierDy98qxm27z,3eqkm6eej0,ms1000241,iti,,null,img/motor_7.png,75,motor,,,,,,,
525,,342742,HierDy98qxm27z,3eqkm6eej0,ms1000241,motor,,68,img/motor_3.png,68,motor,3,162,1,0,0,,
null,,342851,HierDy98qxm27z,3eqkm6eej0,ms1000241,iti,,null,img/motor_3.png,68,motor,,,,,,,
420,,343278,HierDy98qxm27z,3eqkm6eej0,ms1000241,motor,,76,img/motor_8.png,76,motor,8,163,1,0,0,,
null,,343386,HierDy98qxm27z,3eqkm6eej0,ms1000241,iti,,null,img/motor_8.png,76,motor,,,,,,,
572,,343973,HierDy98qxm27z,3eqkm6eej0,ms1000241,motor,,68,img/motor_3.png,68,motor,3,164,1,0,0,,
null,,344082,HierDy98qxm27z,3eqkm6eej0,ms1000241,iti,,null,img/motor_3.png,68,motor,,,,,,,
453,,344543,HierDy98qxm27z,3eqkm6eej0,ms1000241,motor,,72,img/motor_5.png,72,motor,5,165,1,0,0,,
null,,344650,HierDy98qxm27z,3eqkm6eej0,ms1000241,iti,,null,img/motor_5.png,72,motor,,,,,,,
397,,345060,HierDy98qxm27z,3eqkm6eej0,ms1000241,motor,,70,img/motor_4.png,70,motor,4,166,1,0,0,,
null,,345169,HierDy98qxm27z,3eqkm6eej0,ms1000241,iti,,null,img/motor_4.png,70,motor,,,,,,,
436,,345614,HierDy98qxm27z,3eqkm6eej0,ms1000241,motor,,68,img/motor_3.png,68,motor,3,167,1,0,0,,
null,,345729,HierDy98qxm27z,3eqkm6eej0,ms1000241,iti,,null,img/motor_3.png,68,motor,,,,,,,
478,,346213,HierDy98qxm27z,3eqkm6eej0,ms1000241,motor,,65,img/motor_1.png,65,motor,1,168,1,0,0,,
null,,346328,HierDy98qxm27z,3eqkm6eej0,ms1000241,iti,,null,img/motor_1.png,65,motor,,,,,,,
589,,346926,HierDy98qxm27z,3eqkm6eej0,ms1000241,motor,,68,img/motor_3.png,68,motor,3,169,1,0,0,,
null,,347041,HierDy98qxm27z,3eqkm6eej0,ms1000241,iti,,null,img/motor_3.png,68,motor,,,,,,,
549,,347598,HierDy98qxm27z,3eqkm6eej0,ms1000241,motor,,76,img/motor_8.png,76,motor,8,170,1,0,0,,
null,,347707,HierDy98qxm27z,3eqkm6eej0,ms1000241,iti,,null,img/motor_8.png,76,motor,,,,,,,
532,,348252,HierDy98qxm27z,3eqkm6eej0,ms1000241,motor,,74,img/motor_6.png,74,motor,6,171,1,0,0,,
null,,348368,HierDy98qxm27z,3eqkm6eej0,ms1000241,iti,,null,img/motor_6.png,74,motor,,,,,,,
550,,348933,HierDy98qxm27z,3eqkm6eej0,ms1000241,motor,,83,img/motor_2.png,83,motor,2,172,1,0,0,,
null,,349048,HierDy98qxm27z,3eqkm6eej0,ms1000241,iti,,null,img/motor_2.png,83,motor,,,,,,,
398,,349460,HierDy98qxm27z,3eqkm6eej0,ms1000241,motor,,83,img/motor_2.png,83,motor,2,173,1,0,0,,
null,,349570,HierDy98qxm27z,3eqkm6eej0,ms1000241,iti,,null,img/motor_2.png,83,motor,,,,,,,
478,,350054,HierDy98qxm27z,3eqkm6eej0,ms1000241,motor,,70,img/motor_4.png,70,motor,4,174,1,0,0,,
null,,350169,HierDy98qxm27z,3eqkm6eej0,ms1000241,iti,,null,img/motor_4.png,70,motor,,,,,,,
462,,350638,HierDy98qxm27z,3eqkm6eej0,ms1000241,motor,,65,img/motor_1.png,65,motor,1,175,1,0,0,,
null,,350747,HierDy98qxm27z,3eqkm6eej0,ms1000241,iti,,null,img/motor_1.png,65,motor,,,,,,,
363,,351125,HierDy98qxm27z,3eqkm6eej0,ms1000241,motor,,76,img/motor_8.png,76,motor,8,176,1,0,0,,
null,,351241,HierDy98qxm27z,3eqkm6eej0,ms1000241,iti,,null,img/motor_8.png,76,motor,,,,,,,
469,,351724,HierDy98qxm27z,3eqkm6eej0,ms1000241,motor,,76,img/motor_8.png,76,motor,8,177,1,0,0,,
null,,351840,HierDy98qxm27z,3eqkm6eej0,ms1000241,iti,,null,img/motor_8.png,76,motor,,,,,,,
477,,352332,HierDy98qxm27z,3eqkm6eej0,ms1000241,motor,,74,img/motor_6.png,74,motor,6,178,1,0,0,,
null,,352441,HierDy98qxm27z,3eqkm6eej0,ms1000241,iti,,null,img/motor_6.png,74,motor,,,,,,,
478,,352925,HierDy98qxm27z,3eqkm6eej0,ms1000241,motor,,70,img/motor_4.png,70,motor,4,179,1,0,0,,
null,,353040,HierDy98qxm27z,3eqkm6eej0,ms1000241,iti,,null,img/motor_4.png,70,motor,,,,,,,
478,,353526,HierDy98qxm27z,3eqkm6eej0,ms1000241,motor,,72,img/motor_5.png,72,motor,5,180,1,0,0,,
null,,353640,HierDy98qxm27z,3eqkm6eej0,ms1000241,iti,,null,img/motor_5.png,72,motor,,,,,,,
421,,354077,HierDy98qxm27z,3eqkm6eej0,ms1000241,motor,,65,img/motor_1.png,65,motor,1,181,1,0,0,,
null,,354186,HierDy98qxm27z,3eqkm6eej0,ms1000241,iti,,null,img/motor_1.png,65,motor,,,,,,,
453,,354652,HierDy98qxm27z,3eqkm6eej0,ms1000241,motor,,72,img/motor_5.png,72,motor,5,182,1,0,0,,
null,,354768,HierDy98qxm27z,3eqkm6eej0,ms1000241,iti,,null,img/motor_5.png,72,motor,,,,,,,
501,,355278,HierDy98qxm27z,3eqkm6eej0,ms1000241,motor,,83,img/motor_3.png,68,motor,3,183,0,1,0,,
56,,355342,HierDy98qxm27z,3eqkm6eej0,ms1000241,motorRepeat,,68,img/motor_3.png,68,motor,3,183,1,0,0,,
null,,355456,HierDy98qxm27z,3eqkm6eej0,ms1000241,iti,,null,img/motor_3.png,68,motor,,,,,,,
709,,356182,HierDy98qxm27z,3eqkm6eej0,ms1000241,motor,,70,img/motor_4.png,70,motor,4,184,1,0,0,,
null,,356297,HierDy98qxm27z,3eqkm6eej0,ms1000241,iti,,null,img/motor_4.png,70,motor,,,,,,,
453,,356765,HierDy98qxm27z,3eqkm6eej0,ms1000241,motor,,76,img/motor_8.png,76,motor,8,185,1,0,0,,
null,,356875,HierDy98qxm27z,3eqkm6eej0,ms1000241,iti,,null,img/motor_8.png,76,motor,,,,,,,
532,,357420,HierDy98qxm27z,3eqkm6eej0,ms1000241,motor,,83,img/motor_3.png,68,motor,3,186,0,1,0,,
281,,357717,HierDy98qxm27z,3eqkm6eej0,ms1000241,motorRepeat,,68,img/motor_3.png,68,motor,3,186,1,0,0,,
null,,357831,HierDy98qxm27z,3eqkm6eej0,ms1000241,iti,,null,img/motor_3.png,68,motor,,,,,,,
614,,358454,HierDy98qxm27z,3eqkm6eej0,ms1000241,motor,,74,img/motor_6.png,74,motor,6,187,1,0,0,,
null,,358569,HierDy98qxm27z,3eqkm6eej0,ms1000241,iti,,null,img/motor_6.png,74,motor,,,,,,,
469,,359052,HierDy98qxm27z,3eqkm6eej0,ms1000241,motor,,75,img/motor_7.png,75,motor,7,188,1,0,0,,
null,,359168,HierDy98qxm27z,3eqkm6eej0,ms1000241,iti,,null,img/motor_7.png,75,motor,,,,,,,
469,,359653,HierDy98qxm27z,3eqkm6eej0,ms1000241,motor,,72,img/motor_5.png,72,motor,5,189,1,0,0,,
null,,359768,HierDy98qxm27z,3eqkm6eej0,ms1000241,iti,,null,img/motor_5.png,72,motor,,,,,,,
493,,360270,HierDy98qxm27z,3eqkm6eej0,ms1000241,motor,,68,img/motor_3.png,68,motor,3,190,1,0,0,,
null,,360384,HierDy98qxm27z,3eqkm6eej0,ms1000241,iti,,null,img/motor_3.png,68,motor,,,,,,,
532,,360933,HierDy98qxm27z,3eqkm6eej0,ms1000241,motor,,70,img/motor_4.png,70,motor,4,191,1,0,0,,
null,,361048,HierDy98qxm27z,3eqkm6eej0,ms1000241,iti,,null,img/motor_4.png,70,motor,,,,,,,
477,,361541,HierDy98qxm27z,3eqkm6eej0,ms1000241,motor,,72,img/motor_5.png,72,motor,5,192,1,0,0,,
null,,361656,HierDy98qxm27z,3eqkm6eej0,ms1000241,iti,,null,img/motor_5.png,72,motor,,,,,,,
445,,362110,HierDy98qxm27z,3eqkm6eej0,ms1000241,motor,,76,img/motor_8.png,76,motor,8,193,1,0,0,,
null,,362224,HierDy98qxm27z,3eqkm6eej0,ms1000241,iti,,null,img/motor_8.png,76,motor,,,,,,,
510,,362742,HierDy98qxm27z,3eqkm6eej0,ms1000241,motor,,70,img/motor_4.png,70,motor,4,194,1,0,0,,
null,,362850,HierDy98qxm27z,3eqkm6eej0,ms1000241,iti,,null,img/motor_4.png,70,motor,,,,,,,
428,,363286,HierDy98qxm27z,3eqkm6eej0,ms1000241,motor,,72,img/motor_5.png,72,motor,5,195,1,0,0,,
null,,363394,HierDy98qxm27z,3eqkm6eej0,ms1000241,iti,,null,img/motor_5.png,72,motor,,,,,,,
412,,363814,HierDy98qxm27z,3eqkm6eej0,ms1000241,motor,,70,img/motor_4.png,70,motor,4,196,1,0,0,,
null,,363929,HierDy98qxm27z,3eqkm6eej0,ms1000241,iti,,null,img/motor_4.png,70,motor,,,,,,,
556,,364500,HierDy98qxm27z,3eqkm6eej0,ms1000241,motor,,75,img/motor_7.png,75,motor,7,197,1,0,0,,
null,,364616,HierDy98qxm27z,3eqkm6eej0,ms1000241,iti,,null,img/motor_7.png,75,motor,,,,,,,
461,,365086,HierDy98qxm27z,3eqkm6eej0,ms1000241,motor,,65,img/motor_1.png,65,motor,1,198,1,0,0,,
null,,365201,HierDy98qxm27z,3eqkm6eej0,ms1000241,iti,,null,img/motor_1.png,65,motor,,,,,,,
692,,365908,HierDy98qxm27z,3eqkm6eej0,ms1000241,motor,,75,img/motor_7.png,75,motor,7,199,1,0,0,,
null,,366024,HierDy98qxm27z,3eqkm6eej0,ms1000241,iti,,null,img/motor_7.png,75,motor,,,,,,,
525,,366558,HierDy98qxm27z,3eqkm6eej0,ms1000241,motor,,74,img/motor_6.png,74,motor,6,200,1,0,0,,
null,,366672,HierDy98qxm27z,3eqkm6eej0,ms1000241,iti,,null,img/motor_6.png,74,motor,,,,,,,
924,,367613,HierDy98qxm27z,3eqkm6eej0,ms1000241,motor,,68,img/motor_3.png,68,motor,3,201,1,0,0,,
null,,367728,HierDy98qxm27z,3eqkm6eej0,ms1000241,iti,,null,img/motor_3.png,68,motor,,,,,,,
550,,368293,HierDy98qxm27z,3eqkm6eej0,ms1000241,motor,,83,img/motor_2.png,83,motor,2,202,1,0,0,,
null,,368408,HierDy98qxm27z,3eqkm6eej0,ms1000241,iti,,null,img/motor_2.png,83,motor,,,,,,,
446,,368861,HierDy98qxm27z,3eqkm6eej0,ms1000241,motor,,65,img/motor_1.png,65,motor,1,203,1,0,0,,
null,,368976,HierDy98qxm27z,3eqkm6eej0,ms1000241,iti,,null,img/motor_1.png,65,motor,,,,,,,
607,,369596,HierDy98qxm27z,3eqkm6eej0,ms1000241,motor,,68,img/motor_3.png,68,motor,3,204,1,0,0,,
null,,369706,HierDy98qxm27z,3eqkm6eej0,ms1000241,iti,,null,img/motor_3.png,68,motor,,,,,,,
380,,370100,HierDy98qxm27z,3eqkm6eej0,ms1000241,motor,,65,img/motor_1.png,65,motor,1,205,1,0,0,,
null,,370209,HierDy98qxm27z,3eqkm6eej0,ms1000241,iti,,null,img/motor_1.png,65,motor,,,,,,,
437,,370660,HierDy98qxm27z,3eqkm6eej0,ms1000241,motor,,76,img/motor_8.png,76,motor,8,206,1,0,0,,
null,,370769,HierDy98qxm27z,3eqkm6eej0,ms1000241,iti,,null,img/motor_8.png,76,motor,,,,,,,
517,,371294,HierDy98qxm27z,3eqkm6eej0,ms1000241,motor,,68,img/motor_3.png,68,motor,3,207,1,0,0,,
null,,371402,HierDy98qxm27z,3eqkm6eej0,ms1000241,iti,,null,img/motor_3.png,68,motor,,,,,,,
500,,371910,HierDy98qxm27z,3eqkm6eej0,ms1000241,motor,,74,img/motor_6.png,74,motor,6,208,1,0,0,,
null,,372018,HierDy98qxm27z,3eqkm6eej0,ms1000241,iti,,null,img/motor_6.png,74,motor,,,,,,,
452,,372478,HierDy98qxm27z,3eqkm6eej0,ms1000241,motor,,65,img/motor_1.png,65,motor,1,209,1,0,0,,
null,,372586,HierDy98qxm27z,3eqkm6eej0,ms1000241,iti,,null,img/motor_1.png,65,motor,,,,,,,
412,,373007,HierDy98qxm27z,3eqkm6eej0,ms1000241,motor,,68,img/motor_2.png,83,motor,2,210,0,1,0,,
304,,373324,HierDy98qxm27z,3eqkm6eej0,ms1000241,motorRepeat,,83,img/motor_2.png,83,motor,2,210,1,0,0,,
null,,373434,HierDy98qxm27z,3eqkm6eej0,ms1000241,iti,,null,img/motor_2.png,83,motor,,,,,,,
437,,373878,HierDy98qxm27z,3eqkm6eej0,ms1000241,motor,,70,img/motor_4.png,70,motor,4,211,1,0,0,,
null,,373986,HierDy98qxm27z,3eqkm6eej0,ms1000241,iti,,null,img/motor_4.png,70,motor,,,,,,,
483,,374485,HierDy98qxm27z,3eqkm6eej0,ms1000241,motor,,68,img/motor_3.png,68,motor,3,212,1,0,0,,
null,,374600,HierDy98qxm27z,3eqkm6eej0,ms1000241,iti,,null,img/motor_3.png,68,motor,,,,,,,
557,,375172,HierDy98qxm27z,3eqkm6eej0,ms1000241,motor,,83,img/motor_2.png,83,motor,2,213,1,0,0,,
null,,375281,HierDy98qxm27z,3eqkm6eej0,ms1000241,iti,,null,img/motor_2.png,83,motor,,,,,,,
436,,375726,HierDy98qxm27z,3eqkm6eej0,ms1000241,motor,,65,img/motor_1.png,65,motor,1,214,1,0,0,,
null,,375840,HierDy98qxm27z,3eqkm6eej0,ms1000241,iti,,null,img/motor_1.png,65,motor,,,,,,,
444,,376300,HierDy98qxm27z,3eqkm6eej0,ms1000241,motor,,70,img/motor_4.png,70,motor,4,215,1,0,0,,
null,,376409,HierDy98qxm27z,3eqkm6eej0,ms1000241,iti,,null,img/motor_4.png,70,motor,,,,,,,
388,,376812,HierDy98qxm27z,3eqkm6eej0,ms1000241,motor,,65,img/motor_1.png,65,motor,1,216,1,0,0,,
null,,376927,HierDy98qxm27z,3eqkm6eej0,ms1000241,iti,,null,img/motor_1.png,65,motor,,,,,,,
406,,377342,HierDy98qxm27z,3eqkm6eej0,ms1000241,motor,,72,img/motor_5.png,72,motor,5,217,1,0,0,,
null,,377456,HierDy98qxm27z,3eqkm6eej0,ms1000241,iti,,null,img/motor_5.png,72,motor,,,,,,,
405,,377877,HierDy98qxm27z,3eqkm6eej0,ms1000241,motor,,76,img/motor_8.png,76,motor,8,218,1,0,0,,
null,,377985,HierDy98qxm27z,3eqkm6eej0,ms1000241,iti,,null,img/motor_8.png,76,motor,,,,,,,
485,,378484,HierDy98qxm27z,3eqkm6eej0,ms1000241,motor,,72,img/motor_5.png,72,motor,5,219,1,0,0,,
null,,378593,HierDy98qxm27z,3eqkm6eej0,ms1000241,iti,,null,img/motor_5.png,72,motor,,,,,,,
453,,379054,HierDy98qxm27z,3eqkm6eej0,ms1000241,motor,,75,img/motor_6.png,74,motor,6,220,0,1,0,,
343,,379406,HierDy98qxm27z,3eqkm6eej0,ms1000241,motorRepeat,,74,img/motor_6.png,74,motor,6,220,1,0,0,,
null,,379515,HierDy98qxm27z,3eqkm6eej0,ms1000241,iti,,null,img/motor_6.png,74,motor,,,,,,,
619,,380149,HierDy98qxm27z,3eqkm6eej0,ms1000241,motor,,68,img/motor_3.png,68,motor,3,221,1,0,0,,
null,,380264,HierDy98qxm27z,3eqkm6eej0,ms1000241,iti,,null,img/motor_3.png,68,motor,,,,,,,
486,,380765,HierDy98qxm27z,3eqkm6eej0,ms1000241,motor,,76,img/motor_8.png,76,motor,8,222,1,0,0,,
null,,380880,HierDy98qxm27z,3eqkm6eej0,ms1000241,iti,,null,img/motor_8.png,76,motor,,,,,,,
486,,381381,HierDy98qxm27z,3eqkm6eej0,ms1000241,motor,,83,img/motor_2.png,83,motor,2,223,1,0,0,,
null,,381496,HierDy98qxm27z,3eqkm6eej0,ms1000241,iti,,null,img/motor_2.png,83,motor,,,,,,,
542,,382046,HierDy98qxm27z,3eqkm6eej0,ms1000241,motor,,68,img/motor_3.png,68,motor,3,224,1,0,0,,
null,,382160,HierDy98qxm27z,3eqkm6eej0,ms1000241,iti,,null,img/motor_3.png,68,motor,,,,,,,
453,,382629,HierDy98qxm27z,3eqkm6eej0,ms1000241,motor,,74,img/motor_7.png,75,motor,7,225,0,1,0,,
249,,382893,HierDy98qxm27z,3eqkm6eej0,ms1000241,motorRepeat,,75,img/motor_7.png,75,motor,7,225,1,0,0,,
null,,383008,HierDy98qxm27z,3eqkm6eej0,ms1000241,iti,,null,img/motor_7.png,75,motor,,,,,,,
397,,383413,HierDy98qxm27z,3eqkm6eej0,ms1000241,motor,,76,img/motor_8.png,76,motor,8,226,1,0,0,,
null,,383528,HierDy98qxm27z,3eqkm6eej0,ms1000241,iti,,null,img/motor_8.png,76,motor,,,,,,,
358,,383894,HierDy98qxm27z,3eqkm6eej0,ms1000241,motor,,65,img/motor_1.png,65,motor,1,227,1,0,0,,
null,,384003,HierDy98qxm27z,3eqkm6eej0,ms1000241,iti,,null,img/motor_1.png,65,motor,,,,,,,
579,,384596,HierDy98qxm27z,3eqkm6eej0,ms1000241,motor,,74,img/motor_6.png,74,motor,6,228,1,0,0,,
null,,384706,HierDy98qxm27z,3eqkm6eej0,ms1000241,iti,,null,img/motor_6.png,74,motor,,,,,,,
532,,385247,HierDy98qxm27z,3eqkm6eej0,ms1000241,motor,,70,img/motor_4.png,70,motor,4,229,1,0,0,,
null,,385361,HierDy98qxm27z,3eqkm6eej0,ms1000241,iti,,null,img/motor_4.png,70,motor,,,,,,,
452,,385822,HierDy98qxm27z,3eqkm6eej0,ms1000241,motor,,75,img/motor_7.png,75,motor,7,230,1,0,0,,
null,,385931,HierDy98qxm27z,3eqkm6eej0,ms1000241,iti,,null,img/motor_7.png,75,motor,,,,,,,
427,,386366,HierDy98qxm27z,3eqkm6eej0,ms1000241,motor,,75,img/motor_7.png,75,motor,7,231,1,0,0,,
null,,386475,HierDy98qxm27z,3eqkm6eej0,ms1000241,iti,,null,img/motor_7.png,75,motor,,,,,,,
540,,387023,HierDy98qxm27z,3eqkm6eej0,ms1000241,motor,,74,img/motor_6.png,74,motor,6,232,1,0,0,,
null,,387137,HierDy98qxm27z,3eqkm6eej0,ms1000241,iti,,null,img/motor_6.png,74,motor,,,,,,,
357,,387502,HierDy98qxm27z,3eqkm6eej0,ms1000241,motor,,76,img/motor_8.png,76,motor,8,233,1,0,0,,
null,,387610,HierDy98qxm27z,3eqkm6eej0,ms1000241,iti,,null,img/motor_8.png,76,motor,,,,,,,
468,,388086,HierDy98qxm27z,3eqkm6eej0,ms1000241,motor,,75,img/motor_7.png,75,motor,7,234,1,0,0,,
null,,388195,HierDy98qxm27z,3eqkm6eej0,ms1000241,iti,,null,img/motor_7.png,75,motor,,,,,,,
484,,388692,HierDy98qxm27z,3eqkm6eej0,ms1000241,motor,,65,img/motor_1.png,65,motor,1,235,1,0,0,,
null,,388807,HierDy98qxm27z,3eqkm6eej0,ms1000241,iti,,null,img/motor_1.png,65,motor,,,,,,,
438,,389255,HierDy98qxm27z,3eqkm6eej0,ms1000241,motor,,83,img/motor_2.png,83,motor,2,236,1,0,0,,
null,,389362,HierDy98qxm27z,3eqkm6eej0,ms1000241,iti,,null,img/motor_2.png,83,motor,,,,,,,
507,,389875,HierDy98qxm27z,3eqkm6eej0,ms1000241,motor,,83,img/motor_2.png,83,motor,2,237,1,0,0,,
null,,389991,HierDy98qxm27z,3eqkm6eej0,ms1000241,iti,,null,img/motor_2.png,83,motor,,,,,,,
516,,390518,HierDy98qxm27z,3eqkm6eej0,ms1000241,motor,,68,img/motor_3.png,68,motor,3,238,1,0,0,,
null,,390633,HierDy98qxm27z,3eqkm6eej0,ms1000241,iti,,null,img/motor_3.png,68,motor,,,,,,,
476,,391125,HierDy98qxm27z,3eqkm6eej0,ms1000241,motor,,72,img/motor_5.png,72,motor,5,239,1,0,0,,
null,,391243,HierDy98qxm27z,3eqkm6eej0,ms1000241,iti,,null,img/motor_5.png,72,motor,,,,,,,
442,,391702,HierDy98qxm27z,3eqkm6eej0,ms1000241,motor,,74,img/motor_6.png,74,motor,6,240,1,0,0,,
null,,391811,HierDy98qxm27z,3eqkm6eej0,ms1000241,iti,,null,img/motor_6.png,74,motor,,,,,,,
331,,392157,HierDy98qxm27z,3eqkm6eej0,ms1000241,motor,,75,img/motor_7.png,75,motor,7,241,1,0,0,,
null,,392272,HierDy98qxm27z,3eqkm6eej0,ms1000241,iti,,null,img/motor_7.png,75,motor,,,,,,,
452,,392734,HierDy98qxm27z,3eqkm6eej0,ms1000241,motor,,83,img/motor_2.png,83,motor,2,242,1,0,0,,
null,,392844,HierDy98qxm27z,3eqkm6eej0,ms1000241,iti,,null,img/motor_2.png,83,motor,,,,,,,
378,,393237,HierDy98qxm27z,3eqkm6eej0,ms1000241,motor,,74,img/motor_5.png,72,motor,5,243,0,1,0,,
304,,393557,HierDy98qxm27z,3eqkm6eej0,ms1000241,motorRepeat,,72,img/motor_5.png,72,motor,5,243,1,0,0,,
null,,393666,HierDy98qxm27z,3eqkm6eej0,ms1000241,iti,,null,img/motor_5.png,72,motor,,,,,,,
444,,394118,HierDy98qxm27z,3eqkm6eej0,ms1000241,motor,,70,img/motor_4.png,70,motor,4,244,1,0,0,,
null,,394226,HierDy98qxm27z,3eqkm6eej0,ms1000241,iti,,null,img/motor_4.png,70,motor,,,,,,,
389,,394623,HierDy98qxm27z,3eqkm6eej0,ms1000241,motor,,75,img/motor_7.png,75,motor,7,245,1,0,0,,
null,,394737,HierDy98qxm27z,3eqkm6eej0,ms1000241,iti,,null,img/motor_7.png,75,motor,,,,,,,
476,,395222,HierDy98qxm27z,3eqkm6eej0,ms1000241,motor,,70,img/motor_4.png,70,motor,4,246,1,0,0,,
null,,395337,HierDy98qxm27z,3eqkm6eej0,ms1000241,iti,,null,img/motor_4.png,70,motor,,,,,,,
500,,395847,HierDy98qxm27z,3eqkm6eej0,ms1000241,motor,,74,img/motor_6.png,74,motor,6,247,1,0,0,,
null,,395955,HierDy98qxm27z,3eqkm6eej0,ms1000241,iti,,null,img/motor_6.png,74,motor,,,,,,,
435,,396398,HierDy98qxm27z,3eqkm6eej0,ms1000241,motor,,75,img/motor_7.png,75,motor,7,248,1,0,0,,
null,,396513,HierDy98qxm27z,3eqkm6eej0,ms1000241,iti,,null,img/motor_7.png,75,motor,,,,,,,
509,,397029,HierDy98qxm27z,3eqkm6eej0,ms1000241,motor,,74,img/motor_6.png,74,motor,6,249,1,0,0,,
null,,397137,HierDy98qxm27z,3eqkm6eej0,ms1000241,iti,,null,img/motor_6.png,74,motor,,,,,,,
533,,397685,HierDy98qxm27z,3eqkm6eej0,ms1000241,motor,,70,img/motor_4.png,70,motor,4,250,1,0,0,,
null,,397801,HierDy98qxm27z,3eqkm6eej0,ms1000241,iti,,null,img/motor_4.png,70,motor,,,,,,,
372,,398182,HierDy98qxm27z,3eqkm6eej0,ms1000241,motor,,76,img/motor_8.png,76,motor,8,251,1,0,0,,
null,,398291,HierDy98qxm27z,3eqkm6eej0,ms1000241,iti,,null,img/motor_8.png,76,motor,,,,,,,
459,,398758,HierDy98qxm27z,3eqkm6eej0,ms1000241,motor,,75,img/motor_7.png,75,motor,7,252,1,0,0,,
null,,398873,HierDy98qxm27z,3eqkm6eej0,ms1000241,iti,,null,img/motor_7.png,75,motor,,,,,,,
508,,399397,HierDy98qxm27z,3eqkm6eej0,ms1000241,motor,,70,img/motor_4.png,70,motor,4,253,1,0,0,,
null,,399513,HierDy98qxm27z,3eqkm6eej0,ms1000241,iti,,null,img/motor_4.png,70,motor,,,,,,,
685,,400212,HierDy98qxm27z,3eqkm6eej0,ms1000241,motor,,74,img/motor_3.png,68,motor,3,254,0,1,0,,
306,,400533,HierDy98qxm27z,3eqkm6eej0,ms1000241,motorRepeat,,68,img/motor_3.png,68,motor,3,254,1,0,0,,
null,,400649,HierDy98qxm27z,3eqkm6eej0,ms1000241,iti,,null,img/motor_3.png,68,motor,,,,,,,
533,,401197,HierDy98qxm27z,3eqkm6eej0,ms1000241,motor,,75,img/motor_7.png,75,motor,7,255,1,0,0,,
null,,401312,HierDy98qxm27z,3eqkm6eej0,ms1000241,iti,,null,img/motor_7.png,75,motor,,,,,,,
534,,401862,HierDy98qxm27z,3eqkm6eej0,ms1000241,motor,,72,img/motor_5.png,72,motor,5,256,1,0,0,,
null,,401970,HierDy98qxm27z,3eqkm6eej0,ms1000241,iti,,null,img/motor_5.png,72,motor,,,,,,,
468,,402453,HierDy98qxm27z,3eqkm6eej0,ms1000241,motor,,74,img/motor_6.png,74,motor,6,257,1,0,0,,
null,,402568,HierDy98qxm27z,3eqkm6eej0,ms1000241,iti,,null,img/motor_6.png,74,motor,,,,,,,
389,,402966,HierDy98qxm27z,3eqkm6eej0,ms1000241,motor,,74,img/motor_6.png,74,motor,6,258,1,0,0,,
null,,403080,HierDy98qxm27z,3eqkm6eej0,ms1000241,iti,,null,img/motor_6.png,74,motor,,,,,,,
437,,403527,HierDy98qxm27z,3eqkm6eej0,ms1000241,motor,,72,img/motor_5.png,72,motor,5,259,1,0,0,,
null,,403635,HierDy98qxm27z,3eqkm6eej0,ms1000241,iti,,null,img/motor_5.png,72,motor,,,,,,,
499,,404142,HierDy98qxm27z,3eqkm6eej0,ms1000241,motor,,70,img/motor_4.png,70,motor,4,260,1,0,0,,
null,,404251,HierDy98qxm27z,3eqkm6eej0,ms1000241,iti,,null,img/motor_4.png,70,motor,,,,,,,
381,,404638,HierDy98qxm27z,3eqkm6eej0,ms1000241,motor,,76,img/motor_8.png,76,motor,8,261,1,0,0,,
null,,404753,HierDy98qxm27z,3eqkm6eej0,ms1000241,iti,,null,img/motor_8.png,76,motor,,,,,,,
493,,405255,HierDy98qxm27z,3eqkm6eej0,ms1000241,motor,,75,img/motor_7.png,75,motor,7,262,1,0,0,,
null,,405369,HierDy98qxm27z,3eqkm6eej0,ms1000241,iti,,null,img/motor_7.png,75,motor,,,,,,,
692,,406070,HierDy98qxm27z,3eqkm6eej0,ms1000241,motor,,68,img/motor_3.png,68,motor,3,263,1,0,0,,
null,,406185,HierDy98qxm27z,3eqkm6eej0,ms1000241,iti,,null,img/motor_3.png,68,motor,,,,,,,
380,,406574,HierDy98qxm27z,3eqkm6eej0,ms1000241,motor,,68,img/motor_3.png,68,motor,3,264,1,0,0,,
null,,406689,HierDy98qxm27z,3eqkm6eej0,ms1000241,iti,,null,img/motor_3.png,68,motor,,,,,,,
412,,407116,HierDy98qxm27z,3eqkm6eej0,ms1000241,motor,,74,img/motor_5.png,72,motor,5,265,0,1,0,,
273,,407398,HierDy98qxm27z,3eqkm6eej0,ms1000241,motorRepeat,,72,img/motor_5.png,72,motor,5,265,1,0,0,,
null,,407512,HierDy98qxm27z,3eqkm6eej0,ms1000241,iti,,null,img/motor_5.png,72,motor,,,,,,,
588,,408110,HierDy98qxm27z,3eqkm6eej0,ms1000241,motor,,83,img/motor_2.png,83,motor,2,266,1,0,0,,
null,,408218,HierDy98qxm27z,3eqkm6eej0,ms1000241,iti,,null,img/motor_2.png,83,motor,,,,,,,
444,,408670,HierDy98qxm27z,3eqkm6eej0,ms1000241,motor,,72,img/motor_4.png,70,motor,4,267,0,1,0,,
400,,409078,HierDy98qxm27z,3eqkm6eej0,ms1000241,motorRepeat,,70,img/motor_4.png,70,motor,4,267,1,0,0,,
null,,409193,HierDy98qxm27z,3eqkm6eej0,ms1000241,iti,,null,img/motor_4.png,70,motor,,,,,,,
541,,409742,HierDy98qxm27z,3eqkm6eej0,ms1000241,motor,,72,img/motor_5.png,72,motor,5,268,1,0,0,,
null,,409851,HierDy98qxm27z,3eqkm6eej0,ms1000241,iti,,null,img/motor_5.png,72,motor,,,,,,,
427,,410293,HierDy98qxm27z,3eqkm6eej0,ms1000241,motor,,65,img/motor_1.png,65,motor,1,269,1,0,0,,
null,,410409,HierDy98qxm27z,3eqkm6eej0,ms1000241,iti,,null,img/motor_1.png,65,motor,,,,,,,
478,,410894,HierDy98qxm27z,3eqkm6eej0,ms1000241,motor,,72,img/motor_5.png,72,motor,5,270,1,0,0,,
null,,411002,HierDy98qxm27z,3eqkm6eej0,ms1000241,iti,,null,img/motor_5.png,72,motor,,,,,,,
579,,411597,HierDy98qxm27z,3eqkm6eej0,ms1000241,motor,,74,img/motor_6.png,74,motor,6,271,1,0,0,,
null,,411706,HierDy98qxm27z,3eqkm6eej0,ms1000241,iti,,null,img/motor_6.png,74,motor,,,,,,,
452,,412167,HierDy98qxm27z,3eqkm6eej0,ms1000241,motor,,72,img/motor_5.png,72,motor,5,272,1,0,0,,
null,,412282,HierDy98qxm27z,3eqkm6eej0,ms1000241,iti,,null,img/motor_5.png,72,motor,,,,,,,
539,,412830,HierDy98qxm27z,3eqkm6eej0,ms1000241,motor,,83,img/motor_3.png,68,motor,3,273,0,1,0,,
24,,412862,HierDy98qxm27z,3eqkm6eej0,ms1000241,motorRepeat,,68,img/motor_3.png,68,motor,3,273,1,0,0,,
null,,412976,HierDy98qxm27z,3eqkm6eej0,ms1000241,iti,,null,img/motor_3.png,68,motor,,,,,,,
509,,413494,HierDy98qxm27z,3eqkm6eej0,ms1000241,motor,,65,img/motor_1.png,65,motor,1,274,1,0,0,,
null,,413602,HierDy98qxm27z,3eqkm6eej0,ms1000241,iti,,null,img/motor_1.png,65,motor,,,,,,,
812,,414422,HierDy98qxm27z,3eqkm6eej0,ms1000241,motor,,72,img/motor_6.png,74,motor,6,275,0,1,0,,
376,,414807,HierDy98qxm27z,3eqkm6eej0,ms1000241,motorRepeat,,74,img/motor_6.png,74,motor,6,275,1,0,0,,
null,,414915,HierDy98qxm27z,3eqkm6eej0,ms1000241,iti,,null,img/motor_6.png,74,motor,,,,,,,
763,,415687,HierDy98qxm27z,3eqkm6eej0,ms1000241,motor,,65,img/motor_1.png,65,motor,1,276,1,0,0,,
null,,415795,HierDy98qxm27z,3eqkm6eej0,ms1000241,iti,,null,img/motor_1.png,65,motor,,,,,,,
539,,416348,HierDy98qxm27z,3eqkm6eej0,ms1000241,motor,,72,img/motor_5.png,72,motor,5,277,1,0,0,,
null,,416458,HierDy98qxm27z,3eqkm6eej0,ms1000241,iti,,null,img/motor_5.png,72,motor,,,,,,,
533,,417005,HierDy98qxm27z,3eqkm6eej0,ms1000241,motor,,65,img/motor_1.png,65,motor,1,278,1,0,0,,
null,,417114,HierDy98qxm27z,3eqkm6eej0,ms1000241,iti,,null,img/motor_1.png,65,motor,,,,,,,
851,,417974,HierDy98qxm27z,3eqkm6eej0,ms1000241,motor,,65,img/motor_1.png,65,motor,1,279,1,0,0,,
null,,418082,HierDy98qxm27z,3eqkm6eej0,ms1000241,iti,,null,img/motor_1.png,65,motor,,,,,,,
589,,418679,HierDy98qxm27z,3eqkm6eej0,ms1000241,motor,,75,img/motor_7.png,75,motor,7,280,1,0,0,,
null,,418794,HierDy98qxm27z,3eqkm6eej0,ms1000241,iti,,null,img/motor_7.png,75,motor,,,,,,,
532,,419334,HierDy98qxm27z,3eqkm6eej0,ms1000241,motor,,72,img/motor_5.png,72,motor,5,281,1,0,0,,
null,,419448,HierDy98qxm27z,3eqkm6eej0,ms1000241,iti,,null,img/motor_5.png,72,motor,,,,,,,
387,,419846,HierDy98qxm27z,3eqkm6eej0,ms1000241,motor,,65,img/motor_1.png,65,motor,1,282,1,0,0,,
null,,419955,HierDy98qxm27z,3eqkm6eej0,ms1000241,iti,,null,img/motor_1.png,65,motor,,,,,,,
771,,420733,HierDy98qxm27z,3eqkm6eej0,ms1000241,motor,,83,img/motor_2.png,83,motor,2,283,1,0,0,,
null,,420850,HierDy98qxm27z,3eqkm6eej0,ms1000241,iti,,null,img/motor_2.png,83,motor,,,,,,,
588,,421447,HierDy98qxm27z,3eqkm6eej0,ms1000241,motor,,74,img/motor_6.png,74,motor,6,284,1,0,0,,
null,,421562,HierDy98qxm27z,3eqkm6eej0,ms1000241,iti,,null,img/motor_6.png,74,motor,,,,,,,
444,,422014,HierDy98qxm27z,3eqkm6eej0,ms1000241,motor,,65,img/motor_1.png,65,motor,1,285,1,0,0,,
null,,422123,HierDy98qxm27z,3eqkm6eej0,ms1000241,iti,,null,img/motor_1.png,65,motor,,,,,,,
444,,422575,HierDy98qxm27z,3eqkm6eej0,ms1000241,motor,,72,img/motor_5.png,72,motor,5,286,1,0,0,,
null,,422683,HierDy98qxm27z,3eqkm6eej0,ms1000241,iti,,null,img/motor_5.png,72,motor,,,,,,,
419,,423117,HierDy98qxm27z,3eqkm6eej0,ms1000241,motor,,65,img/motor_1.png,65,motor,1,287,1,0,0,,
null,,423233,HierDy98qxm27z,3eqkm6eej0,ms1000241,iti,,null,img/motor_1.png,65,motor,,,,,,,
413,,423655,HierDy98qxm27z,3eqkm6eej0,ms1000241,motor,,76,img/motor_8.png,76,motor,8,288,1,0,0,,
null,,423769,HierDy98qxm27z,3eqkm6eej0,ms1000241,iti,,null,img/motor_8.png,76,motor,,,,,,,
588,,424367,HierDy98qxm27z,3eqkm6eej0,ms1000241,motor,,72,img/motor_6.png,74,motor,6,289,0,1,0,,
383,,424759,HierDy98qxm27z,3eqkm6eej0,ms1000241,motorRepeat,,74,img/motor_6.png,74,motor,6,289,1,0,0,,
null,,424867,HierDy98qxm27z,3eqkm6eej0,ms1000241,iti,,null,img/motor_6.png,74,motor,,,,,,,
428,,425309,HierDy98qxm27z,3eqkm6eej0,ms1000241,motor,,65,img/motor_1.png,65,motor,1,290,1,0,0,,
null,,425417,HierDy98qxm27z,3eqkm6eej0,ms1000241,iti,,null,img/motor_1.png,65,motor,,,,,,,
708,,426134,HierDy98qxm27z,3eqkm6eej0,ms1000241,motor,,70,img/motor_4.png,70,motor,4,291,1,0,0,,
null,,426243,HierDy98qxm27z,3eqkm6eej0,ms1000241,iti,,null,img/motor_4.png,70,motor,,,,,,,
459,,426717,HierDy98qxm27z,3eqkm6eej0,ms1000241,motor,,68,img/motor_2.png,83,motor,2,292,0,1,0,,
361,,427086,HierDy98qxm27z,3eqkm6eej0,ms1000241,motorRepeat,,83,img/motor_2.png,83,motor,2,292,1,0,0,,
null,,427194,HierDy98qxm27z,3eqkm6eej0,ms1000241,iti,,null,img/motor_2.png,83,motor,,,,,,,
677,,427877,HierDy98qxm27z,3eqkm6eej0,ms1000241,motor,,74,img/motor_6.png,74,motor,6,293,1,0,0,,
null,,427992,HierDy98qxm27z,3eqkm6eej0,ms1000241,iti,,null,img/motor_6.png,74,motor,,,,,,,
381,,428389,HierDy98qxm27z,3eqkm6eej0,ms1000241,motor,,65,img/motor_1.png,65,motor,1,294,1,0,0,,
null,,428505,HierDy98qxm27z,3eqkm6eej0,ms1000241,iti,,null,img/motor_1.png,65,motor,,,,,,,
581,,429101,HierDy98qxm27z,3eqkm6eej0,ms1000241,motor,,72,img/motor_5.png,72,motor,5,295,1,0,0,,
null,,429210,HierDy98qxm27z,3eqkm6eej0,ms1000241,iti,,null,img/motor_5.png,72,motor,,,,,,,
468,,429693,HierDy98qxm27z,3eqkm6eej0,ms1000241,motor,,70,img/motor_4.png,70,motor,4,296,1,0,0,,
null,,429808,HierDy98qxm27z,3eqkm6eej0,ms1000241,iti,,null,img/motor_4.png,70,motor,,,,,,,
382,,430198,HierDy98qxm27z,3eqkm6eej0,ms1000241,motor,,76,img/motor_8.png,76,motor,8,297,1,0,0,,
null,,430307,HierDy98qxm27z,3eqkm6eej0,ms1000241,iti,,null,img/motor_8.png,76,motor,,,,,,,
579,,430894,HierDy98qxm27z,3eqkm6eej0,ms1000241,motor,,70,img/motor_4.png,70,motor,4,298,1,0,0,,
null,,431003,HierDy98qxm27z,3eqkm6eej0,ms1000241,iti,,null,img/motor_4.png,70,motor,,,,,,,
484,,431495,HierDy98qxm27z,3eqkm6eej0,ms1000241,motor,,83,img/motor_2.png,83,motor,2,299,1,0,0,,
null,,431602,HierDy98qxm27z,3eqkm6eej0,ms1000241,iti,,null,img/motor_2.png,83,motor,,,,,,,
403,,432013,HierDy98qxm27z,3eqkm6eej0,ms1000241,motor,,68,img/motor_3.png,68,motor,3,300,1,0,0,,
null,,432122,HierDy98qxm27z,3eqkm6eej0,ms1000241,iti,,null,img/motor_3.png,68,motor,,,,,,,
485,,432614,HierDy98qxm27z,3eqkm6eej0,ms1000241,motor,,75,img/motor_7.png,75,motor,7,301,1,0,0,,
null,,432722,HierDy98qxm27z,3eqkm6eej0,ms1000241,iti,,null,img/motor_7.png,75,motor,,,,,,,
437,,433166,HierDy98qxm27z,3eqkm6eej0,ms1000241,motor,,70,img/motor_4.png,70,motor,4,302,1,0,0,,
null,,433281,HierDy98qxm27z,3eqkm6eej0,ms1000241,iti,,null,img/motor_4.png,70,motor,,,,,,,
757,,434053,HierDy98qxm27z,3eqkm6eej0,ms1000241,motor,,75,img/motor_7.png,75,motor,7,303,1,0,0,,
null,,434163,HierDy98qxm27z,3eqkm6eej0,ms1000241,iti,,null,img/motor_7.png,75,motor,,,,,,,
436,,434606,HierDy98qxm27z,3eqkm6eej0,ms1000241,motor,,75,img/motor_7.png,75,motor,7,304,1,0,0,,
null,,434715,HierDy98qxm27z,3eqkm6eej0,ms1000241,iti,,null,img/motor_7.png,75,motor,,,,,,,
564,,435286,HierDy98qxm27z,3eqkm6eej0,ms1000241,motor,,70,img/motor_4.png,70,motor,4,305,1,0,0,,
null,,435401,HierDy98qxm27z,3eqkm6eej0,ms1000241,iti,,null,img/motor_4.png,70,motor,,,,,,,
420,,435830,HierDy98qxm27z,3eqkm6eej0,ms1000241,motor,,65,img/motor_1.png,65,motor,1,306,1,0,0,,
null,,435945,HierDy98qxm27z,3eqkm6eej0,ms1000241,iti,,null,img/motor_1.png,65,motor,,,,,,,
420,,436381,HierDy98qxm27z,3eqkm6eej0,ms1000241,motor,,83,img/motor_2.png,83,motor,2,307,1,0,0,,
null,,436489,HierDy98qxm27z,3eqkm6eej0,ms1000241,iti,,null,img/motor_2.png,83,motor,,,,,,,
637,,437134,HierDy98qxm27z,3eqkm6eej0,ms1000241,motor,,74,img/motor_6.png,74,motor,6,308,1,0,0,,
null,,437243,HierDy98qxm27z,3eqkm6eej0,ms1000241,iti,,null,img/motor_6.png,74,motor,,,,,,,
715,,437966,HierDy98qxm27z,3eqkm6eej0,ms1000241,motor,,68,img/motor_3.png,68,motor,3,309,1,0,0,,
null,,438081,HierDy98qxm27z,3eqkm6eej0,ms1000241,iti,,null,img/motor_3.png,68,motor,,,,,,,
533,,438622,HierDy98qxm27z,3eqkm6eej0,ms1000241,motor,,75,img/motor_7.png,75,motor,7,310,1,0,0,,
null,,438730,HierDy98qxm27z,3eqkm6eej0,ms1000241,iti,,null,img/motor_7.png,75,motor,,,,,,,
443,,439189,HierDy98qxm27z,3eqkm6eej0,ms1000241,motor,,76,img/motor_8.png,76,motor,8,311,1,0,0,,
null,,439305,HierDy98qxm27z,3eqkm6eej0,ms1000241,iti,,null,img/motor_8.png,76,motor,,,,,,,
590,,439903,HierDy98qxm27z,3eqkm6eej0,ms1000241,motor,,70,img/motor_4.png,70,motor,4,312,1,0,0,,
null,,440017,HierDy98qxm27z,3eqkm6eej0,ms1000241,iti,,null,img/motor_4.png,70,motor,,,,,,,
524,,440550,HierDy98qxm27z,3eqkm6eej0,ms1000241,motor,,83,img/motor_2.png,83,motor,2,313,1,0,0,,
null,,440665,HierDy98qxm27z,3eqkm6eej0,ms1000241,iti,,null,img/motor_2.png,83,motor,,,,,,,
500,,441174,HierDy98qxm27z,3eqkm6eej0,ms1000241,motor,,72,img/motor_5.png,72,motor,5,314,1,0,0,,
null,,441288,HierDy98qxm27z,3eqkm6eej0,ms1000241,iti,,null,img/motor_5.png,72,motor,,,,,,,
454,,441757,HierDy98qxm27z,3eqkm6eej0,ms1000241,motor,,70,img/motor_4.png,70,motor,4,315,1,0,0,,
null,,441866,HierDy98qxm27z,3eqkm6eej0,ms1000241,iti,,null,img/motor_4.png,70,motor,,,,,,,
621,,442501,HierDy98qxm27z,3eqkm6eej0,ms1000241,motor,,74,img/motor_6.png,74,motor,6,316,1,0,0,,
null,,442617,HierDy98qxm27z,3eqkm6eej0,ms1000241,iti,,null,img/motor_6.png,74,motor,,,,,,,
541,,443173,HierDy98qxm27z,3eqkm6eej0,ms1000241,motor,,83,img/motor_2.png,83,motor,2,317,1,0,0,,
null,,443289,HierDy98qxm27z,3eqkm6eej0,ms1000241,iti,,null,img/motor_2.png,83,motor,,,,,,,
526,,443822,HierDy98qxm27z,3eqkm6eej0,ms1000241,motor,,76,img/motor_8.png,76,motor,8,318,1,0,0,,
null,,443937,HierDy98qxm27z,3eqkm6eej0,ms1000241,iti,,null,img/motor_8.png,76,motor,,,,,,,
405,,444349,HierDy98qxm27z,3eqkm6eej0,ms1000241,motor,,65,img/motor_1.png,65,motor,1,319,1,0,0,,
null,,444457,HierDy98qxm27z,3eqkm6eej0,ms1000241,iti,,null,img/motor_1.png,65,motor,,,,,,,
494,,444958,HierDy98qxm27z,3eqkm6eej0,ms1000241,motor,,70,img/motor_4.png,70,motor,4,320,1,0,0,,
null,,445073,HierDy98qxm27z,3eqkm6eej0,ms1000241,iti,,null,img/motor_4.png,70,motor,,,,,,,
429,,445511,HierDy98qxm27z,3eqkm6eej0,ms1000241,motor,,70,img/motor_4.png,70,motor,4,321,1,0,0,,
null,,445625,HierDy98qxm27z,3eqkm6eej0,ms1000241,iti,,null,img/motor_4.png,70,motor,,,,,,,
404,,446045,HierDy98qxm27z,3eqkm6eej0,ms1000241,motor,,83,img/motor_2.png,83,motor,2,322,1,0,0,,
null,,446161,HierDy98qxm27z,3eqkm6eej0,ms1000241,iti,,null,img/motor_2.png,83,motor,,,,,,,
413,,446583,HierDy98qxm27z,3eqkm6eej0,ms1000241,motor,,76,img/motor_8.png,76,motor,8,323,1,0,0,,
null,,446698,HierDy98qxm27z,3eqkm6eej0,ms1000241,iti,,null,img/motor_8.png,76,motor,,,,,,,
492,,447205,HierDy98qxm27z,3eqkm6eej0,ms1000241,motor,,75,img/motor_7.png,75,motor,7,324,1,0,0,,
null,,447315,HierDy98qxm27z,3eqkm6eej0,ms1000241,iti,,null,img/motor_7.png,75,motor,,,,,,,
428,,447757,HierDy98qxm27z,3eqkm6eej0,ms1000241,motor,,65,img/motor_1.png,65,motor,1,325,1,0,0,,
null,,447867,HierDy98qxm27z,3eqkm6eej0,ms1000241,iti,,null,img/motor_1.png,65,motor,,,,,,,
547,,448429,HierDy98qxm27z,3eqkm6eej0,ms1000241,motor,,75,img/motor_7.png,75,motor,7,326,1,0,0,,
null,,448545,HierDy98qxm27z,3eqkm6eej0,ms1000241,iti,,null,img/motor_7.png,75,motor,,,,,,,
469,,449029,HierDy98qxm27z,3eqkm6eej0,ms1000241,motor,,65,img/motor_1.png,65,motor,1,327,1,0,0,,
null,,449139,HierDy98qxm27z,3eqkm6eej0,ms1000241,iti,,null,img/motor_1.png,65,motor,,,,,,,
476,,449622,HierDy98qxm27z,3eqkm6eej0,ms1000241,motor,,74,img/motor_6.png,74,motor,6,328,1,0,0,,
null,,449730,HierDy98qxm27z,3eqkm6eej0,ms1000241,iti,,null,img/motor_6.png,74,motor,,,,,,,
412,,450150,HierDy98qxm27z,3eqkm6eej0,ms1000241,motor,,83,img/motor_2.png,83,motor,2,329,1,0,0,,
null,,450259,HierDy98qxm27z,3eqkm6eej0,ms1000241,iti,,null,img/motor_2.png,83,motor,,,,,,,
491,,450758,HierDy98qxm27z,3eqkm6eej0,ms1000241,motor,,65,img/motor_1.png,65,motor,1,330,1,0,0,,
null,,450866,HierDy98qxm27z,3eqkm6eej0,ms1000241,iti,,null,img/motor_1.png,65,motor,,,,,,,
603,,451485,HierDy98qxm27z,3eqkm6eej0,ms1000241,motor,,70,img/motor_3.png,68,motor,3,331,0,1,0,,
401,,451901,HierDy98qxm27z,3eqkm6eej0,ms1000241,motorRepeat,,68,img/motor_3.png,68,motor,3,331,1,0,0,,
null,,452017,HierDy98qxm27z,3eqkm6eej0,ms1000241,iti,,null,img/motor_3.png,68,motor,,,,,,,
564,,452597,HierDy98qxm27z,3eqkm6eej0,ms1000241,motor,,75,img/motor_7.png,75,motor,7,332,1,0,0,,
null,,452713,HierDy98qxm27z,3eqkm6eej0,ms1000241,iti,,null,img/motor_7.png,75,motor,,,,,,,
581,,453302,HierDy98qxm27z,3eqkm6eej0,ms1000241,motor,,83,img/motor_2.png,83,motor,2,333,1,0,0,,
null,,453411,HierDy98qxm27z,3eqkm6eej0,ms1000241,iti,,null,img/motor_2.png,83,motor,,,,,,,
419,,453838,HierDy98qxm27z,3eqkm6eej0,ms1000241,motor,,65,img/motor_1.png,65,motor,1,334,1,0,0,,
null,,453953,HierDy98qxm27z,3eqkm6eej0,ms1000241,iti,,null,img/motor_1.png,65,motor,,,,,,,
580,,454544,HierDy98qxm27z,3eqkm6eej0,ms1000241,motor,,68,img/motor_3.png,68,motor,3,335,1,0,0,,
null,,454659,HierDy98qxm27z,3eqkm6eej0,ms1000241,iti,,null,img/motor_3.png,68,motor,,,,,,,
417,,455085,HierDy98qxm27z,3eqkm6eej0,ms1000241,motor,,83,img/motor_2.png,83,motor,2,336,1,0,0,,
null,,455201,HierDy98qxm27z,3eqkm6eej0,ms1000241,iti,,null,img/motor_2.png,83,motor,,,,,,,
508,,455718,HierDy98qxm27z,3eqkm6eej0,ms1000241,motor,,72,img/motor_5.png,72,motor,5,337,1,0,0,,
null,,455827,HierDy98qxm27z,3eqkm6eej0,ms1000241,iti,,null,img/motor_5.png,72,motor,,,,,,,
499,,456334,HierDy98qxm27z,3eqkm6eej0,ms1000241,motor,,75,img/motor_7.png,75,motor,7,338,1,0,0,,
null,,456450,HierDy98qxm27z,3eqkm6eej0,ms1000241,iti,,null,img/motor_7.png,75,motor,,,,,,,
605,,457069,HierDy98qxm27z,3eqkm6eej0,ms1000241,motor,,70,img/motor_4.png,70,motor,4,339,1,0,0,,
null,,457179,HierDy98qxm27z,3eqkm6eej0,ms1000241,iti,,null,img/motor_4.png,70,motor,,,,,,,
563,,457751,HierDy98qxm27z,3eqkm6eej0,ms1000241,motor,,74,img/motor_6.png,74,motor,6,340,1,0,0,,
null,,457866,HierDy98qxm27z,3eqkm6eej0,ms1000241,iti,,null,img/motor_6.png,74,motor,,,,,,,
508,,458387,HierDy98qxm27z,3eqkm6eej0,ms1000241,motor,,68,img/motor_3.png,68,motor,3,341,1,0,0,,
null,,458502,HierDy98qxm27z,3eqkm6eej0,ms1000241,iti,,null,img/motor_3.png,68,motor,,,,,,,
423,,458941,HierDy98qxm27z,3eqkm6eej0,ms1000241,motor,,65,img/motor_1.png,65,motor,1,342,1,0,0,,
null,,459051,HierDy98qxm27z,3eqkm6eej0,ms1000241,iti,,null,img/motor_1.png,65,motor,,,,,,,
412,,459470,HierDy98qxm27z,3eqkm6eej0,ms1000241,motor,,83,img/motor_2.png,83,motor,2,343,1,0,0,,
null,,459585,HierDy98qxm27z,3eqkm6eej0,ms1000241,iti,,null,img/motor_2.png,83,motor,,,,,,,
557,,460158,HierDy98qxm27z,3eqkm6eej0,ms1000241,motor,,74,img/motor_6.png,74,motor,6,344,1,0,0,,
null,,460273,HierDy98qxm27z,3eqkm6eej0,ms1000241,iti,,null,img/motor_6.png,74,motor,,,,,,,
429,,460711,HierDy98qxm27z,3eqkm6eej0,ms1000241,motor,,76,img/motor_8.png,76,motor,8,345,1,0,0,,
null,,460819,HierDy98qxm27z,3eqkm6eej0,ms1000241,iti,,null,img/motor_8.png,76,motor,,,,,,,
491,,461318,HierDy98qxm27z,3eqkm6eej0,ms1000241,motor,,70,img/motor_4.png,70,motor,4,346,1,0,0,,
null,,461433,HierDy98qxm27z,3eqkm6eej0,ms1000241,iti,,null,img/motor_4.png,70,motor,,,,,,,
438,,461884,HierDy98qxm27z,3eqkm6eej0,ms1000241,motor,,75,img/motor_7.png,75,motor,7,347,1,0,0,,
null,,462000,HierDy98qxm27z,3eqkm6eej0,ms1000241,iti,,null,img/motor_7.png,75,motor,,,,,,,
469,,462485,HierDy98qxm27z,3eqkm6eej0,ms1000241,motor,,83,img/motor_2.png,83,motor,2,348,1,0,0,,
null,,462594,HierDy98qxm27z,3eqkm6eej0,ms1000241,iti,,null,img/motor_2.png,83,motor,,,,,,,
388,,462990,HierDy98qxm27z,3eqkm6eej0,ms1000241,motor,,75,img/motor_8.png,76,motor,8,349,0,1,0,,
257,,463261,HierDy98qxm27z,3eqkm6eej0,ms1000241,motorRepeat,,76,img/motor_8.png,76,motor,8,349,1,0,0,,
null,,463377,HierDy98qxm27z,3eqkm6eej0,ms1000241,iti,,null,img/motor_8.png,76,motor,,,,,,,
388,,463781,HierDy98qxm27z,3eqkm6eej0,ms1000241,motor,,65,img/motor_1.png,65,motor,1,350,1,0,0,,
null,,463897,HierDy98qxm27z,3eqkm6eej0,ms1000241,iti,,null,img/motor_1.png,65,motor,,,,,,,
348,,464260,HierDy98qxm27z,3eqkm6eej0,ms1000241,motor,,76,img/motor_8.png,76,motor,8,351,1,0,0,,
null,,464377,HierDy98qxm27z,3eqkm6eej0,ms1000241,iti,,null,img/motor_8.png,76,motor,,,,,,,
582,,464966,HierDy98qxm27z,3eqkm6eej0,ms1000241,motor,,83,img/motor_3.png,68,motor,3,352,0,1,0,,
369,,465342,HierDy98qxm27z,3eqkm6eej0,ms1000241,motorRepeat,,68,img/motor_3.png,68,motor,3,352,1,0,0,,
null,,465451,HierDy98qxm27z,3eqkm6eej0,ms1000241,iti,,null,img/motor_3.png,68,motor,,,,,,,
579,,466038,HierDy98qxm27z,3eqkm6eej0,ms1000241,motor,,68,img/motor_3.png,68,motor,3,353,1,0,0,,
null,,466146,HierDy98qxm27z,3eqkm6eej0,ms1000241,iti,,null,img/motor_3.png,68,motor,,,,,,,
492,,466646,HierDy98qxm27z,3eqkm6eej0,ms1000241,motor,,65,img/motor_1.png,65,motor,1,354,1,0,0,,
null,,466755,HierDy98qxm27z,3eqkm6eej0,ms1000241,iti,,null,img/motor_1.png,65,motor,,,,,,,
508,,467278,HierDy98qxm27z,3eqkm6eej0,ms1000241,motor,,74,img/motor_6.png,74,motor,6,355,1,0,0,,
null,,467393,HierDy98qxm27z,3eqkm6eej0,ms1000241,iti,,null,img/motor_6.png,74,motor,,,,,,,
397,,467799,HierDy98qxm27z,3eqkm6eej0,ms1000241,motor,,74,img/motor_6.png,74,motor,6,356,1,0,0,,
null,,467907,HierDy98qxm27z,3eqkm6eej0,ms1000241,iti,,null,img/motor_6.png,74,motor,,,,,,,
539,,468454,HierDy98qxm27z,3eqkm6eej0,ms1000241,motor,,83,img/motor_2.png,83,motor,2,357,1,0,0,,
null,,468563,HierDy98qxm27z,3eqkm6eej0,ms1000241,iti,,null,img/motor_2.png,83,motor,,,,,,,
508,,469078,HierDy98qxm27z,3eqkm6eej0,ms1000241,motor,,70,img/motor_4.png,70,motor,4,358,1,0,0,,
null,,469194,HierDy98qxm27z,3eqkm6eej0,ms1000241,iti,,null,img/motor_4.png,70,motor,,,,,,,
404,,469606,HierDy98qxm27z,3eqkm6eej0,ms1000241,motor,,65,img/motor_1.png,65,motor,1,359,1,0,0,,
null,,469714,HierDy98qxm27z,3eqkm6eej0,ms1000241,iti,,null,img/motor_1.png,65,motor,,,,,,,
828,,470557,HierDy98qxm27z,3eqkm6eej0,ms1000241,motor,,75,img/motor_7.png,75,motor,7,360,1,0,0,,
null,,470673,HierDy98qxm27z,3eqkm6eej0,ms1000241,iti,,null,img/motor_7.png,75,motor,,,,,,,
461,,471149,HierDy98qxm27z,3eqkm6eej0,ms1000241,motor,,83,img/motor_2.png,83,motor,2,361,1,0,0,,
null,,471264,HierDy98qxm27z,3eqkm6eej0,ms1000241,iti,,null,img/motor_2.png,83,motor,,,,,,,
349,,471629,HierDy98qxm27z,3eqkm6eej0,ms1000241,motor,,75,img/motor_7.png,75,motor,7,362,1,0,0,,
null,,471738,HierDy98qxm27z,3eqkm6eej0,ms1000241,iti,,null,img/motor_7.png,75,motor,,,,,,,
565,,472317,HierDy98qxm27z,3eqkm6eej0,ms1000241,motor,,72,img/motor_5.png,72,motor,5,363,1,0,0,,
null,,472433,HierDy98qxm27z,3eqkm6eej0,ms1000241,iti,,null,img/motor_5.png,72,motor,,,,,,,
406,,472845,HierDy98qxm27z,3eqkm6eej0,ms1000241,motor,,75,img/motor_7.png,75,motor,7,364,1,0,0,,
null,,472961,HierDy98qxm27z,3eqkm6eej0,ms1000241,iti,,null,img/motor_7.png,75,motor,,,,,,,
397,,473367,HierDy98qxm27z,3eqkm6eej0,ms1000241,motor,,76,img/motor_8.png,76,motor,8,365,1,0,0,,
null,,473481,HierDy98qxm27z,3eqkm6eej0,ms1000241,iti,,null,img/motor_8.png,76,motor,,,,,,,
428,,473918,HierDy98qxm27z,3eqkm6eej0,ms1000241,motor,,76,img/motor_8.png,76,motor,8,366,1,0,0,,
null,,474033,HierDy98qxm27z,3eqkm6eej0,ms1000241,iti,,null,img/motor_8.png,76,motor,,,,,,,
547,,474597,HierDy98qxm27z,3eqkm6eej0,ms1000241,motor,,83,img/motor_3.png,68,motor,3,367,0,1,0,,
280,,474893,HierDy98qxm27z,3eqkm6eej0,ms1000241,motorRepeat,,68,img/motor_3.png,68,motor,3,367,1,0,0,,
null,,475002,HierDy98qxm27z,3eqkm6eej0,ms1000241,iti,,null,img/motor_3.png,68,motor,,,,,,,
540,,475549,HierDy98qxm27z,3eqkm6eej0,ms1000241,motor,,70,img/motor_4.png,70,motor,4,368,1,0,0,,
null,,475664,HierDy98qxm27z,3eqkm6eej0,ms1000241,iti,,null,img/motor_4.png,70,motor,,,,,,,
501,,476173,HierDy98qxm27z,3eqkm6eej0,ms1000241,motor,,70,img/motor_4.png,70,motor,4,369,1,0,0,,
null,,476288,HierDy98qxm27z,3eqkm6eej0,ms1000241,iti,,null,img/motor_4.png,70,motor,,,,,,,
390,,476686,HierDy98qxm27z,3eqkm6eej0,ms1000241,motor,,74,img/motor_5.png,72,motor,5,370,0,1,0,,
401,,477101,HierDy98qxm27z,3eqkm6eej0,ms1000241,motorRepeat,,72,img/motor_5.png,72,motor,5,370,1,0,0,,
null,,477210,HierDy98qxm27z,3eqkm6eej0,ms1000241,iti,,null,img/motor_5.png,72,motor,,,,,,,
461,,477678,HierDy98qxm27z,3eqkm6eej0,ms1000241,motor,,75,img/motor_7.png,75,motor,7,371,1,0,0,,
null,,477794,HierDy98qxm27z,3eqkm6eej0,ms1000241,iti,,null,img/motor_7.png,75,motor,,,,,,,
453,,478255,HierDy98qxm27z,3eqkm6eej0,ms1000241,motor,,65,img/motor_1.png,65,motor,1,372,1,0,0,,
null,,478369,HierDy98qxm27z,3eqkm6eej0,ms1000241,iti,,null,img/motor_1.png,65,motor,,,,,,,
541,,478925,HierDy98qxm27z,3eqkm6eej0,ms1000241,motor,,74,img/motor_6.png,74,motor,6,373,1,0,0,,
null,,479040,HierDy98qxm27z,3eqkm6eej0,ms1000241,iti,,null,img/motor_6.png,74,motor,,,,,,,
437,,479493,HierDy98qxm27z,3eqkm6eej0,ms1000241,motor,,75,img/motor_7.png,75,motor,7,374,1,0,0,,
null,,479609,HierDy98qxm27z,3eqkm6eej0,ms1000241,iti,,null,img/motor_7.png,75,motor,,,,,,,
484,,480109,HierDy98qxm27z,3eqkm6eej0,ms1000241,motor,,83,img/motor_2.png,83,motor,2,375,1,0,0,,
null,,480225,HierDy98qxm27z,3eqkm6eej0,ms1000241,iti,,null,img/motor_2.png,83,motor,,,,,,,
484,,480718,HierDy98qxm27z,3eqkm6eej0,ms1000241,motor,,74,img/motor_6.png,74,motor,6,376,1,0,0,,
null,,480826,HierDy98qxm27z,3eqkm6eej0,ms1000241,iti,,null,img/motor_6.png,74,motor,,,,,,,
373,,481207,HierDy98qxm27z,3eqkm6eej0,ms1000241,motor,,76,img/motor_8.png,76,motor,8,377,1,0,0,,
null,,481315,HierDy98qxm27z,3eqkm6eej0,ms1000241,iti,,null,img/motor_8.png,76,motor,,,,,,,
381,,481710,HierDy98qxm27z,3eqkm6eej0,ms1000241,motor,,65,img/motor_1.png,65,motor,1,378,1,0,0,,
null,,481819,HierDy98qxm27z,3eqkm6eej0,ms1000241,iti,,null,img/motor_1.png,65,motor,,,,,,,
397,,482224,HierDy98qxm27z,3eqkm6eej0,ms1000241,motor,,65,img/motor_1.png,65,motor,1,379,1,0,0,,
null,,482332,HierDy98qxm27z,3eqkm6eej0,ms1000241,iti,,null,img/motor_1.png,65,motor,,,,,,,
627,,482973,HierDy98qxm27z,3eqkm6eej0,ms1000241,motor,,68,img/motor_3.png,68,motor,3,380,1,0,0,,
null,,483082,HierDy98qxm27z,3eqkm6eej0,ms1000241,iti,,null,img/motor_3.png,68,motor,,,,,,,
459,,483558,HierDy98qxm27z,3eqkm6eej0,ms1000241,motor,,72,img/motor_5.png,72,motor,5,381,1,0,0,,
null,,483672,HierDy98qxm27z,3eqkm6eej0,ms1000241,iti,,null,img/motor_5.png,72,motor,,,,,,,
437,,484125,HierDy98qxm27z,3eqkm6eej0,ms1000241,motor,,74,img/motor_6.png,74,motor,6,382,1,0,0,,
null,,484242,HierDy98qxm27z,3eqkm6eej0,ms1000241,iti,,null,img/motor_6.png,74,motor,,,,,,,
380,,484637,HierDy98qxm27z,3eqkm6eej0,ms1000241,motor,,75,img/motor_7.png,75,motor,7,383,1,0,0,,
55,,484753,HierDy98qxm27z,3eqkm6eej0,ms1000241,iti,,75,img/motor_7.png,75,motor,,,,,,,
469,,485237,HierDy98qxm27z,3eqkm6eej0,ms1000241,motor,,65,img/motor_1.png,65,motor,1,384,1,0,0,,
null,,485353,HierDy98qxm27z,3eqkm6eej0,ms1000241,iti,,null,img/motor_1.png,65,motor,,,,,,,
501,,485869,HierDy98qxm27z,3eqkm6eej0,ms1000241,motor,,70,img/motor_4.png,70,motor,4,385,1,0,0,,
null,,485979,HierDy98qxm27z,3eqkm6eej0,ms1000241,iti,,null,img/motor_4.png,70,motor,,,,,,,
365,,486350,HierDy98qxm27z,3eqkm6eej0,ms1000241,motor,,76,img/motor_8.png,76,motor,8,386,1,0,0,,
null,,486459,HierDy98qxm27z,3eqkm6eej0,ms1000241,iti,,null,img/motor_8.png,76,motor,,,,,,,
476,,486949,HierDy98qxm27z,3eqkm6eej0,ms1000241,motor,,74,img/motor_6.png,74,motor,6,387,1,0,0,,
null,,487058,HierDy98qxm27z,3eqkm6eej0,ms1000241,iti,,null,img/motor_6.png,74,motor,,,,,,,
452,,487522,HierDy98qxm27z,3eqkm6eej0,ms1000241,motor,,68,img/motor_3.png,68,motor,3,388,1,0,0,,
null,,487638,HierDy98qxm27z,3eqkm6eej0,ms1000241,iti,,null,img/motor_3.png,68,motor,,,,,,,
536,,488183,HierDy98qxm27z,3eqkm6eej0,ms1000241,motor,,70,img/motor_4.png,70,motor,4,389,1,0,0,,
null,,488292,HierDy98qxm27z,3eqkm6eej0,ms1000241,iti,,null,img/motor_4.png,70,motor,,,,,,,
404,,488703,HierDy98qxm27z,3eqkm6eej0,ms1000241,motor,,76,img/motor_8.png,76,motor,8,390,1,0,0,,
null,,488817,HierDy98qxm27z,3eqkm6eej0,ms1000241,iti,,null,img/motor_8.png,76,motor,,,,,,,
540,,489366,HierDy98qxm27z,3eqkm6eej0,ms1000241,motor,,65,img/motor_1.png,65,motor,1,391,1,0,0,,
null,,489475,HierDy98qxm27z,3eqkm6eej0,ms1000241,iti,,null,img/motor_1.png,65,motor,,,,,,,
523,,490007,HierDy98qxm27z,3eqkm6eej0,ms1000241,motor,,74,img/motor_6.png,74,motor,6,392,1,0,0,,
null,,490121,HierDy98qxm27z,3eqkm6eej0,ms1000241,iti,,null,img/motor_6.png,74,motor,,,,,,,
493,,490623,HierDy98qxm27z,3eqkm6eej0,ms1000241,motor,,70,img/motor_4.png,70,motor,4,393,1,0,0,,
null,,490737,HierDy98qxm27z,3eqkm6eej0,ms1000241,iti,,null,img/motor_4.png,70,motor,,,,,,,
467,,491221,HierDy98qxm27z,3eqkm6eej0,ms1000241,motor,,75,img/motor_6.png,74,motor,6,394,0,1,0,,
400,,491630,HierDy98qxm27z,3eqkm6eej0,ms1000241,motorRepeat,,74,img/motor_6.png,74,motor,6,394,1,0,0,,
null,,491745,HierDy98qxm27z,3eqkm6eej0,ms1000241,iti,,null,img/motor_6.png,74,motor,,,,,,,
404,,492158,HierDy98qxm27z,3eqkm6eej0,ms1000241,motor,,76,img/motor_8.png,76,motor,8,395,1,0,0,,
null,,492274,HierDy98qxm27z,3eqkm6eej0,ms1000241,iti,,null,img/motor_8.png,76,motor,,,,,,,
524,,492806,HierDy98qxm27z,3eqkm6eej0,ms1000241,motor,,70,img/motor_4.png,70,motor,4,396,1,0,0,,
null,,492921,HierDy98qxm27z,3eqkm6eej0,ms1000241,iti,,null,img/motor_4.png,70,motor,,,,,,,
581,,493518,HierDy98qxm27z,3eqkm6eej0,ms1000241,motor,,74,img/motor_6.png,74,motor,6,397,1,0,0,,
null,,493627,HierDy98qxm27z,3eqkm6eej0,ms1000241,iti,,null,img/motor_6.png,74,motor,,,,,,,
412,,494046,HierDy98qxm27z,3eqkm6eej0,ms1000241,motor,,74,img/motor_6.png,74,motor,6,398,1,0,0,,
null,,494155,HierDy98qxm27z,3eqkm6eej0,ms1000241,iti,,null,img/motor_6.png,74,motor,,,,,,,
379,,494549,HierDy98qxm27z,3eqkm6eej0,ms1000241,motor,,76,img/motor_8.png,76,motor,8,399,1,0,0,,
null,,494658,HierDy98qxm27z,3eqkm6eej0,ms1000241,iti,,null,img/motor_8.png,76,motor,,,,,,,
428,,495101,HierDy98qxm27z,3eqkm6eej0,ms1000241,motor,,76,img/motor_8.png,76,motor,8,400,1,0,0,,
null,,495217,HierDy98qxm27z,3eqkm6eej0,ms1000241,iti,,null,img/motor_8.png,76,motor,,,,,,,
541,,495773,HierDy98qxm27z,3eqkm6eej0,ms1000241,motor,,74,img/motor_6.png,74,motor,6,401,1,0,0,,
null,,495889,HierDy98qxm27z,3eqkm6eej0,ms1000241,iti,,null,img/motor_6.png,74,motor,,,,,,,
372,,496271,HierDy98qxm27z,3eqkm6eej0,ms1000241,motor,,65,img/motor_1.png,65,motor,1,402,1,0,0,,
null,,496385,HierDy98qxm27z,3eqkm6eej0,ms1000241,iti,,null,img/motor_1.png,65,motor,,,,,,,
564,,496965,HierDy98qxm27z,3eqkm6eej0,ms1000241,motor,,68,img/motor_3.png,68,motor,3,403,1,0,0,,
null,,497074,HierDy98qxm27z,3eqkm6eej0,ms1000241,iti,,null,img/motor_3.png,68,motor,,,,,,,
364,,497453,HierDy98qxm27z,3eqkm6eej0,ms1000241,motor,,68,img/motor_4.png,70,motor,4,404,0,1,0,,
265,,497726,HierDy98qxm27z,3eqkm6eej0,ms1000241,motorRepeat,,70,img/motor_4.png,70,motor,4,404,1,0,0,,
null,,497841,HierDy98qxm27z,3eqkm6eej0,ms1000241,iti,,null,img/motor_4.png,70,motor,,,,,,,
715,,498565,HierDy98qxm27z,3eqkm6eej0,ms1000241,motor,,74,img/motor_6.png,74,motor,6,405,1,0,0,,
null,,498673,HierDy98qxm27z,3eqkm6eej0,ms1000241,iti,,null,img/motor_6.png,74,motor,,,,,,,
452,,499141,HierDy98qxm27z,3eqkm6eej0,ms1000241,motor,,70,img/motor_4.png,70,motor,4,406,1,0,0,,
null,,499257,HierDy98qxm27z,3eqkm6eej0,ms1000241,iti,,null,img/motor_4.png,70,motor,,,,,,,
405,,499670,HierDy98qxm27z,3eqkm6eej0,ms1000241,motor,,70,img/motor_4.png,70,motor,4,407,1,0,0,,
null,,499786,HierDy98qxm27z,3eqkm6eej0,ms1000241,iti,,null,img/motor_4.png,70,motor,,,,,,,
411,,500213,HierDy98qxm27z,3eqkm6eej0,ms1000241,motor,,83,img/motor_2.png,83,motor,2,408,1,0,0,,
null,,500329,HierDy98qxm27z,3eqkm6eej0,ms1000241,iti,,null,img/motor_2.png,83,motor,,,,,,,
620,,500958,HierDy98qxm27z,3eqkm6eej0,ms1000241,motor,,72,img/motor_5.png,72,motor,5,409,1,0,0,,
null,,501067,HierDy98qxm27z,3eqkm6eej0,ms1000241,iti,,null,img/motor_5.png,72,motor,,,,,,,
395,,501478,HierDy98qxm27z,3eqkm6eej0,ms1000241,motor,,74,img/motor_6.png,74,motor,6,410,1,0,0,,
null,,501593,HierDy98qxm27z,3eqkm6eej0,ms1000241,iti,,null,img/motor_6.png,74,motor,,,,,,,
453,,502061,HierDy98qxm27z,3eqkm6eej0,ms1000241,motor,,68,img/motor_3.png,68,motor,3,411,1,0,0,,
null,,502177,HierDy98qxm27z,3eqkm6eej0,ms1000241,iti,,null,img/motor_3.png,68,motor,,,,,,,
452,,502645,HierDy98qxm27z,3eqkm6eej0,ms1000241,motor,,70,img/motor_4.png,70,motor,4,412,1,0,0,,
null,,502755,HierDy98qxm27z,3eqkm6eej0,ms1000241,iti,,null,img/motor_4.png,70,motor,,,,,,,
444,,503206,HierDy98qxm27z,3eqkm6eej0,ms1000241,motor,,75,img/motor_7.png,75,motor,7,413,1,0,0,,
null,,503315,HierDy98qxm27z,3eqkm6eej0,ms1000241,iti,,null,img/motor_7.png,75,motor,,,,,,,
379,,503702,HierDy98qxm27z,3eqkm6eej0,ms1000241,motor,,76,img/motor_8.png,76,motor,8,414,1,0,0,,
null,,503811,HierDy98qxm27z,3eqkm6eej0,ms1000241,iti,,null,img/motor_8.png,76,motor,,,,,,,
667,,504487,HierDy98qxm27z,3eqkm6eej0,ms1000241,motor,,76,img/motor_8.png,76,motor,8,415,1,0,0,,
null,,504595,HierDy98qxm27z,3eqkm6eej0,ms1000241,iti,,null,img/motor_8.png,76,motor,,,,,,,
467,,505070,HierDy98qxm27z,3eqkm6eej0,ms1000241,motor,,74,img/motor_6.png,74,motor,6,416,1,0,0,,
null,,505185,HierDy98qxm27z,3eqkm6eej0,ms1000241,iti,,null,img/motor_6.png,74,motor,,,,,,,
508,,505703,HierDy98qxm27z,3eqkm6eej0,ms1000241,motor,,83,img/motor_2.png,83,motor,2,417,1,0,0,,
null,,505811,HierDy98qxm27z,3eqkm6eej0,ms1000241,iti,,null,img/motor_2.png,83,motor,,,,,,,
362,,506182,HierDy98qxm27z,3eqkm6eej0,ms1000241,motor,,83,img/motor_2.png,83,motor,2,418,1,0,0,,
null,,506297,HierDy98qxm27z,3eqkm6eej0,ms1000241,iti,,null,img/motor_2.png,83,motor,,,,,,,
684,,506990,HierDy98qxm27z,3eqkm6eej0,ms1000241,motor,,72,img/motor_5.png,72,motor,5,419,1,0,0,,
null,,507098,HierDy98qxm27z,3eqkm6eej0,ms1000241,iti,,null,img/motor_5.png,72,motor,,,,,,,
556,,507662,HierDy98qxm27z,3eqkm6eej0,ms1000241,motor,,68,img/motor_3.png,68,motor,3,420,1,0,0,,
null,,507771,HierDy98qxm27z,3eqkm6eej0,ms1000241,iti,,null,img/motor_3.png,68,motor,,,,,,,
381,,508159,HierDy98qxm27z,3eqkm6eej0,ms1000241,motor,,76,img/motor_8.png,76,motor,8,421,1,0,0,,
null,,508274,HierDy98qxm27z,3eqkm6eej0,ms1000241,iti,,null,img/motor_8.png,76,motor,,,,,,,
691,,508974,HierDy98qxm27z,3eqkm6eej0,ms1000241,motor,,70,img/motor_4.png,70,motor,4,422,1,0,0,,
null,,509083,HierDy98qxm27z,3eqkm6eej0,ms1000241,iti,,null,img/motor_4.png,70,motor,,,,,,,
482,,509581,HierDy98qxm27z,3eqkm6eej0,ms1000241,motor,,68,img/motor_3.png,68,motor,3,423,1,0,0,,
null,,509698,HierDy98qxm27z,3eqkm6eej0,ms1000241,iti,,null,img/motor_3.png,68,motor,,,,,,,
429,,510135,HierDy98qxm27z,3eqkm6eej0,ms1000241,motor,,65,img/motor_1.png,65,motor,1,424,1,0,0,,
null,,510249,HierDy98qxm27z,3eqkm6eej0,ms1000241,iti,,null,img/motor_1.png,65,motor,,,,,,,
404,,510663,HierDy98qxm27z,3eqkm6eej0,ms1000241,motor,,65,img/motor_1.png,65,motor,1,425,1,0,0,,
null,,510777,HierDy98qxm27z,3eqkm6eej0,ms1000241,iti,,null,img/motor_1.png,65,motor,,,,,,,
731,,511518,HierDy98qxm27z,3eqkm6eej0,ms1000241,motor,,74,img/motor_6.png,74,motor,6,426,1,0,0,,
null,,511633,HierDy98qxm27z,3eqkm6eej0,ms1000241,iti,,null,img/motor_6.png,74,motor,,,,,,,
484,,512127,HierDy98qxm27z,3eqkm6eej0,ms1000241,motor,,65,img/motor_1.png,65,motor,1,427,1,0,0,,
null,,512241,HierDy98qxm27z,3eqkm6eej0,ms1000241,iti,,null,img/motor_1.png,65,motor,,,,,,,
452,,512703,HierDy98qxm27z,3eqkm6eej0,ms1000241,motor,,75,img/motor_7.png,75,motor,7,428,1,0,0,,
null,,512811,HierDy98qxm27z,3eqkm6eej0,ms1000241,iti,,null,img/motor_7.png,75,motor,,,,,,,
506,,513327,HierDy98qxm27z,3eqkm6eej0,ms1000241,motor,,68,img/motor_6.png,74,motor,6,429,0,1,0,,
23,,513358,HierDy98qxm27z,3eqkm6eej0,ms1000241,motorRepeat,,74,img/motor_6.png,74,motor,6,429,1,0,0,,
null,,513466,HierDy98qxm27z,3eqkm6eej0,ms1000241,iti,,null,img/motor_6.png,74,motor,,,,,,,
467,,513943,HierDy98qxm27z,3eqkm6eej0,ms1000241,motor,,72,img/motor_5.png,72,motor,5,430,1,0,0,,
null,,514051,HierDy98qxm27z,3eqkm6eej0,ms1000241,iti,,null,img/motor_5.png,72,motor,,,,,,,
411,,514471,HierDy98qxm27z,3eqkm6eej0,ms1000241,motor,,76,img/motor_8.png,76,motor,8,431,1,0,0,,
null,,514585,HierDy98qxm27z,3eqkm6eej0,ms1000241,iti,,null,img/motor_8.png,76,motor,,,,,,,
516,,515110,HierDy98qxm27z,3eqkm6eej0,ms1000241,motor,,75,img/motor_7.png,75,motor,7,432,1,0,0,,
null,,515224,HierDy98qxm27z,3eqkm6eej0,ms1000241,iti,,null,img/motor_7.png,75,motor,,,,,,,
317,,515551,HierDy98qxm27z,3eqkm6eej0,ms1000241,motor,,74,img/motor_6.png,74,motor,6,433,1,0,0,,
null,,515666,HierDy98qxm27z,3eqkm6eej0,ms1000241,iti,,null,img/motor_6.png,74,motor,,,,,,,
373,,516053,HierDy98qxm27z,3eqkm6eej0,ms1000241,motor,,75,img/motor_7.png,75,motor,7,434,1,0,0,,
null,,516169,HierDy98qxm27z,3eqkm6eej0,ms1000241,iti,,null,img/motor_7.png,75,motor,,,,,,,
348,,516527,HierDy98qxm27z,3eqkm6eej0,ms1000241,motor,,75,img/motor_7.png,75,motor,7,435,1,0,0,,
null,,516641,HierDy98qxm27z,3eqkm6eej0,ms1000241,iti,,null,img/motor_7.png,75,motor,,,,,,,
549,,517198,HierDy98qxm27z,3eqkm6eej0,ms1000241,motor,,70,img/motor_4.png,70,motor,4,436,1,0,0,,
null,,517307,HierDy98qxm27z,3eqkm6eej0,ms1000241,iti,,null,img/motor_4.png,70,motor,,,,,,,
380,,517701,HierDy98qxm27z,3eqkm6eej0,ms1000241,motor,,68,img/motor_3.png,68,motor,3,437,1,0,0,,
null,,517818,HierDy98qxm27z,3eqkm6eej0,ms1000241,iti,,null,img/motor_3.png,68,motor,,,,,,,
556,,518389,HierDy98qxm27z,3eqkm6eej0,ms1000241,motor,,74,img/motor_6.png,74,motor,6,438,1,0,0,,
null,,518498,HierDy98qxm27z,3eqkm6eej0,ms1000241,iti,,null,img/motor_6.png,74,motor,,,,,,,
411,,518920,HierDy98qxm27z,3eqkm6eej0,ms1000241,motor,,75,img/motor_7.png,75,motor,7,439,1,0,0,,
null,,519030,HierDy98qxm27z,3eqkm6eej0,ms1000241,iti,,null,img/motor_7.png,75,motor,,,,,,,
575,,519615,HierDy98qxm27z,3eqkm6eej0,ms1000241,motor,,72,img/motor_5.png,72,motor,5,440,1,0,0,,
null,,519731,HierDy98qxm27z,3eqkm6eej0,ms1000241,iti,,null,img/motor_5.png,72,motor,,,,,,,
379,,520119,HierDy98qxm27z,3eqkm6eej0,ms1000241,motor,,76,img/motor_8.png,76,motor,8,441,1,0,0,,
null,,520228,HierDy98qxm27z,3eqkm6eej0,ms1000241,iti,,null,img/motor_8.png,76,motor,,,,,,,
386,,520629,HierDy98qxm27z,3eqkm6eej0,ms1000241,motor,,76,img/motor_7.png,75,motor,7,442,0,1,0,,
31,,520677,HierDy98qxm27z,3eqkm6eej0,ms1000241,motorRepeat,,74,img/motor_7.png,75,motor,7,442,0,1,0,,
71,,520765,HierDy98qxm27z,3eqkm6eej0,ms1000241,motorRepeat,,75,img/motor_7.png,75,motor,7,442,1,0,0,,
null,,520882,HierDy98qxm27z,3eqkm6eej0,ms1000241,iti,,null,img/motor_7.png,75,motor,,,,,,,
436,,521335,HierDy98qxm27z,3eqkm6eej0,ms1000241,motor,,76,img/motor_8.png,76,motor,8,443,1,0,0,,
null,,521450,HierDy98qxm27z,3eqkm6eej0,ms1000241,iti,,null,img/motor_8.png,76,motor,,,,,,,
530,,521990,HierDy98qxm27z,3eqkm6eej0,ms1000241,motor,,72,img/motor_5.png,72,motor,5,444,1,0,0,,
null,,522106,HierDy98qxm27z,3eqkm6eej0,ms1000241,iti,,null,img/motor_5.png,72,motor,,,,,,,
435,,522551,HierDy98qxm27z,3eqkm6eej0,ms1000241,motor,,76,img/motor_8.png,76,motor,8,445,1,0,0,,
null,,522659,HierDy98qxm27z,3eqkm6eej0,ms1000241,iti,,null,img/motor_8.png,76,motor,,,,,,,
499,,523167,HierDy98qxm27z,3eqkm6eej0,ms1000241,motor,,65,img/motor_1.png,65,motor,1,446,1,0,0,,
null,,523276,HierDy98qxm27z,3eqkm6eej0,ms1000241,iti,,null,img/motor_1.png,65,motor,,,,,,,
490,,523781,HierDy98qxm27z,3eqkm6eej0,ms1000241,motor,,76,img/motor_8.png,76,motor,8,447,1,0,0,,
null,,523891,HierDy98qxm27z,3eqkm6eej0,ms1000241,iti,,null,img/motor_8.png,76,motor,,,,,,,
587,,524487,HierDy98qxm27z,3eqkm6eej0,ms1000241,motor,,70,img/motor_4.png,70,motor,4,448,1,0,0,,
null,,524596,HierDy98qxm27z,3eqkm6eej0,ms1000241,iti,,null,img/motor_4.png,70,motor,,,,,,,
418,,525023,HierDy98qxm27z,3eqkm6eej0,ms1000241,motor,,76,img/motor_8.png,76,motor,8,449,1,0,0,,
null,,525132,HierDy98qxm27z,3eqkm6eej0,ms1000241,iti,,null,img/motor_8.png,76,motor,,,,,,,
818,,525958,HierDy98qxm27z,3eqkm6eej0,ms1000241,motor,,72,img/motor_5.png,72,motor,5,450,1,0,0,,
null,,526073,HierDy98qxm27z,3eqkm6eej0,ms1000241,iti,,null,img/motor_5.png,72,motor,,,,,,,
493,,526574,HierDy98qxm27z,3eqkm6eej0,ms1000241,motor,,72,img/motor_5.png,72,motor,5,451,1,0,0,,
null,,526682,HierDy98qxm27z,3eqkm6eej0,ms1000241,iti,,null,img/motor_5.png,72,motor,,,,,,,
412,,527103,HierDy98qxm27z,3eqkm6eej0,ms1000241,motor,,83,img/motor_3.png,68,motor,3,452,0,1,0,,
417,,527527,HierDy98qxm27z,3eqkm6eej0,ms1000241,motorRepeat,,68,img/motor_3.png,68,motor,3,452,1,0,0,,
null,,527635,HierDy98qxm27z,3eqkm6eej0,ms1000241,iti,,null,img/motor_3.png,68,motor,,,,,,,
426,,528071,HierDy98qxm27z,3eqkm6eej0,ms1000241,motor,,74,img/motor_5.png,72,motor,5,453,0,1,0,,
327,,528407,HierDy98qxm27z,3eqkm6eej0,ms1000241,motorRepeat,,72,img/motor_5.png,72,motor,5,453,1,0,0,,
null,,528514,HierDy98qxm27z,3eqkm6eej0,ms1000241,iti,,null,img/motor_5.png,72,motor,,,,,,,
459,,528983,HierDy98qxm27z,3eqkm6eej0,ms1000241,motor,,65,img/motor_1.png,65,motor,1,454,1,0,0,,
null,,529098,HierDy98qxm27z,3eqkm6eej0,ms1000241,iti,,null,img/motor_1.png,65,motor,,,,,,,
380,,529487,HierDy98qxm27z,3eqkm6eej0,ms1000241,motor,,76,img/motor_7.png,75,motor,7,455,0,1,0,,
328,,529830,HierDy98qxm27z,3eqkm6eej0,ms1000241,motorRepeat,,75,img/motor_7.png,75,motor,7,455,1,0,0,,
null,,529946,HierDy98qxm27z,3eqkm6eej0,ms1000241,iti,,null,img/motor_7.png,75,motor,,,,,,,
371,,530328,HierDy98qxm27z,3eqkm6eej0,ms1000241,motor,,76,img/motor_8.png,76,motor,8,456,1,0,0,,
null,,530442,HierDy98qxm27z,3eqkm6eej0,ms1000241,iti,,null,img/motor_8.png,76,motor,,,,,,,
420,,530870,HierDy98qxm27z,3eqkm6eej0,ms1000241,motor,,75,img/motor_7.png,75,motor,7,457,1,0,0,,
null,,530986,HierDy98qxm27z,3eqkm6eej0,ms1000241,iti,,null,img/motor_7.png,75,motor,,,,,,,
540,,531535,HierDy98qxm27z,3eqkm6eej0,ms1000241,motor,,83,img/motor_2.png,83,motor,2,458,1,0,0,,
null,,531650,HierDy98qxm27z,3eqkm6eej0,ms1000241,iti,,null,img/motor_2.png,83,motor,,,,,,,
443,,532109,HierDy98qxm27z,3eqkm6eej0,ms1000241,motor,,68,img/motor_3.png,68,motor,3,459,1,0,0,,
null,,532218,HierDy98qxm27z,3eqkm6eej0,ms1000241,iti,,null,img/motor_3.png,68,motor,,,,,,,
388,,532615,HierDy98qxm27z,3eqkm6eej0,ms1000241,motor,,70,img/motor_4.png,70,motor,4,460,1,0,0,,
null,,532724,HierDy98qxm27z,3eqkm6eej0,ms1000241,iti,,null,img/motor_4.png,70,motor,,,,,,,
500,,533238,HierDy98qxm27z,3eqkm6eej0,ms1000241,motor,,83,img/motor_2.png,83,motor,2,461,1,0,0,,
null,,533347,HierDy98qxm27z,3eqkm6eej0,ms1000241,iti,,null,img/motor_2.png,83,motor,,,,,,,
396,,533750,HierDy98qxm27z,3eqkm6eej0,ms1000241,motor,,74,img/motor_5.png,72,motor,5,462,0,1,0,,
295,,534054,HierDy98qxm27z,3eqkm6eej0,ms1000241,motorRepeat,,72,img/motor_5.png,72,motor,5,462,1,0,0,,
null,,534169,HierDy98qxm27z,3eqkm6eej0,ms1000241,iti,,null,img/motor_5.png,72,motor,,,,,,,
516,,534695,HierDy98qxm27z,3eqkm6eej0,ms1000241,motor,,75,img/motor_7.png,75,motor,7,463,1,0,0,,
null,,534802,HierDy98qxm27z,3eqkm6eej0,ms1000241,iti,,null,img/motor_7.png,75,motor,,,,,,,
476,,535286,HierDy98qxm27z,3eqkm6eej0,ms1000241,motor,,65,img/motor_1.png,65,motor,1,464,1,0,0,,
null,,535402,HierDy98qxm27z,3eqkm6eej0,ms1000241,iti,,null,img/motor_1.png,65,motor,,,,,,,
468,,535885,HierDy98qxm27z,3eqkm6eej0,ms1000241,motor,,76,img/motor_8.png,76,motor,8,465,1,0,0,,
null,,536001,HierDy98qxm27z,3eqkm6eej0,ms1000241,iti,,null,img/motor_8.png,76,motor,,,,,,,
477,,536487,HierDy98qxm27z,3eqkm6eej0,ms1000241,motor,,65,img/motor_1.png,65,motor,1,466,1,0,0,,
null,,536602,HierDy98qxm27z,3eqkm6eej0,ms1000241,iti,,null,img/motor_1.png,65,motor,,,,,,,
395,,537006,HierDy98qxm27z,3eqkm6eej0,ms1000241,motor,,76,img/motor_8.png,76,motor,8,467,1,0,0,,
null,,537116,HierDy98qxm27z,3eqkm6eej0,ms1000241,iti,,null,img/motor_8.png,76,motor,,,,,,,
730,,537855,HierDy98qxm27z,3eqkm6eej0,ms1000241,motor,,68,img/motor_3.png,68,motor,3,468,1,0,0,,
null,,537970,HierDy98qxm27z,3eqkm6eej0,ms1000241,iti,,null,img/motor_3.png,68,motor,,,,,,,
530,,538511,HierDy98qxm27z,3eqkm6eej0,ms1000241,motor,,75,img/motor_7.png,75,motor,7,469,1,0,0,,
null,,538626,HierDy98qxm27z,3eqkm6eej0,ms1000241,iti,,null,img/motor_7.png,75,motor,,,,,,,
460,,539102,HierDy98qxm27z,3eqkm6eej0,ms1000241,motor,,68,img/motor_3.png,68,motor,3,470,1,0,0,,
null,,539211,HierDy98qxm27z,3eqkm6eej0,ms1000241,iti,,null,img/motor_3.png,68,motor,,,,,,,
420,,539645,HierDy98qxm27z,3eqkm6eej0,ms1000241,motor,,68,img/motor_3.png,68,motor,3,471,1,0,0,,
null,,539754,HierDy98qxm27z,3eqkm6eej0,ms1000241,iti,,null,img/motor_3.png,68,motor,,,,,,,
428,,540190,HierDy98qxm27z,3eqkm6eej0,ms1000241,motor,,83,img/motor_2.png,83,motor,2,472,1,0,0,,
null,,540300,HierDy98qxm27z,3eqkm6eej0,ms1000241,iti,,null,img/motor_2.png,83,motor,,,,,,,
371,,540679,HierDy98qxm27z,3eqkm6eej0,ms1000241,motor,,75,img/motor_8.png,76,motor,8,473,0,1,0,,
336,,541029,HierDy98qxm27z,3eqkm6eej0,ms1000241,motorRepeat,,76,img/motor_8.png,76,motor,8,473,1,0,0,,
null,,541146,HierDy98qxm27z,3eqkm6eej0,ms1000241,iti,,null,img/motor_8.png,76,motor,,,,,,,
443,,541605,HierDy98qxm27z,3eqkm6eej0,ms1000241,motor,,65,img/motor_1.png,65,motor,1,474,1,0,0,,
null,,541722,HierDy98qxm27z,3eqkm6eej0,ms1000241,iti,,null,img/motor_1.png,65,motor,,,,,,,
428,,542166,HierDy98qxm27z,3eqkm6eej0,ms1000241,motor,,70,img/motor_4.png,70,motor,4,475,1,0,0,,
null,,542281,HierDy98qxm27z,3eqkm6eej0,ms1000241,iti,,null,img/motor_4.png,70,motor,,,,,,,
365,,542654,HierDy98qxm27z,3eqkm6eej0,ms1000241,motor,,65,img/motor_1.png,65,motor,1,476,1,0,0,,
null,,542770,HierDy98qxm27z,3eqkm6eej0,ms1000241,iti,,null,img/motor_1.png,65,motor,,,,,,,
419,,543206,HierDy98qxm27z,3eqkm6eej0,ms1000241,motor,,83,img/motor_2.png,83,motor,2,477,1,0,0,,
null,,543315,HierDy98qxm27z,3eqkm6eej0,ms1000241,iti,,null,img/motor_2.png,83,motor,,,,,,,
435,,543759,HierDy98qxm27z,3eqkm6eej0,ms1000241,motor,,75,img/motor_7.png,75,motor,7,478,1,0,0,,
null,,543867,HierDy98qxm27z,3eqkm6eej0,ms1000241,iti,,null,img/motor_7.png,75,motor,,,,,,,
386,,544260,HierDy98qxm27z,3eqkm6eej0,ms1000241,motor,,68,img/motor_3.png,68,motor,3,479,1,0,0,,
null,,544377,HierDy98qxm27z,3eqkm6eej0,ms1000241,iti,,null,img/motor_3.png,68,motor,,,,,,,
429,,544815,HierDy98qxm27z,3eqkm6eej0,ms1000241,motor,,72,img/motor_4.png,70,motor,4,480,0,1,0,,
272,,545095,HierDy98qxm27z,3eqkm6eej0,ms1000241,motorRepeat,,70,img/motor_4.png,70,motor,4,480,1,0,0,,
null,,545210,HierDy98qxm27z,3eqkm6eej0,ms1000241,iti,,null,img/motor_4.png,70,motor,,,,,,,
466,,545687,HierDy98qxm27z,3eqkm6eej0,ms1000241,motor,,68,img/motor_3.png,68,motor,3,481,1,0,0,,
null,,545795,HierDy98qxm27z,3eqkm6eej0,ms1000241,iti,,null,img/motor_3.png,68,motor,,,,,,,
428,,546231,HierDy98qxm27z,3eqkm6eej0,ms1000241,motor,,75,img/motor_7.png,75,motor,7,482,1,0,0,,
null,,546339,HierDy98qxm27z,3eqkm6eej0,ms1000241,iti,,null,img/motor_7.png,75,motor,,,,,,,
651,,546998,HierDy98qxm27z,3eqkm6eej0,ms1000241,motor,,72,img/motor_5.png,72,motor,5,483,1,0,0,,
null,,547114,HierDy98qxm27z,3eqkm6eej0,ms1000241,iti,,null,img/motor_5.png,72,motor,,,,,,,
443,,547567,HierDy98qxm27z,3eqkm6eej0,ms1000241,motor,,74,img/motor_6.png,74,motor,6,484,1,0,0,,
null,,547675,HierDy98qxm27z,3eqkm6eej0,ms1000241,iti,,null,img/motor_6.png,74,motor,,,,,,,
547,,548231,HierDy98qxm27z,3eqkm6eej0,ms1000241,motor,,72,img/motor_5.png,72,motor,5,485,1,0,0,,
null,,548346,HierDy98qxm27z,3eqkm6eej0,ms1000241,iti,,null,img/motor_5.png,72,motor,,,,,,,
555,,548911,HierDy98qxm27z,3eqkm6eej0,ms1000241,motor,,83,img/motor_2.png,83,motor,2,486,1,0,0,,
null,,549025,HierDy98qxm27z,3eqkm6eej0,ms1000241,iti,,null,img/motor_2.png,83,motor,,,,,,,
516,,549550,HierDy98qxm27z,3eqkm6eej0,ms1000241,motor,,83,img/motor_2.png,83,motor,2,487,1,0,0,,
null,,549659,HierDy98qxm27z,3eqkm6eej0,ms1000241,iti,,null,img/motor_2.png,83,motor,,,,,,,
68397,,618066,HierDy98qxm27z,3eqkm6eej0,ms1000241,,,,,,,,,,,,,
null,,620582,HierDy98qxm27z,3eqkm6eej0,ms1000241,prac,,null,img/image3.bmp,74,prac,,,0,,,1,
null,,621343,HierDy98qxm27z,3eqkm6eej0,ms1000241,feedback,,null,,na,prac,,,,,,,
1943,,623295,HierDy98qxm27z,3eqkm6eej0,ms1000241,prac,,75,img/image4.bmp,72,prac,,,0,,,2,
null,,624060,HierDy98qxm27z,3eqkm6eej0,ms1000241,feedback,,null,,na,prac,,,,,,,
543,,624615,HierDy98qxm27z,3eqkm6eej0,ms1000241,prac,,74,img/image5.bmp,75,prac,,,0,,,3,
null,,625375,HierDy98qxm27z,3eqkm6eej0,ms1000241,feedback,,null,,na,prac,,,,,,,
1000,,626384,HierDy98qxm27z,3eqkm6eej0,ms1000241,prac,,75,img/image4.bmp,72,prac,,,0,,,4,
null,,627142,HierDy98qxm27z,3eqkm6eej0,ms1000241,feedback,,null,,na,prac,,,,,,,
665,,627822,HierDy98qxm27z,3eqkm6eej0,ms1000241,prac,,72,img/image4.bmp,72,prac,,,1,,,4,
null,,628582,HierDy98qxm27z,3eqkm6eej0,ms1000241,feedback,,null,,na,prac,,,,,,,
720,,629310,HierDy98qxm27z,3eqkm6eej0,ms1000241,prac,,74,img/image3.bmp,74,prac,,,1,,,4,
null,,630069,HierDy98qxm27z,3eqkm6eej0,ms1000241,feedback,,null,,na,prac,,,,,,,
544,,630629,HierDy98qxm27z,3eqkm6eej0,ms1000241,prac,,75,img/image5.bmp,75,prac,,,1,,,4,
null,,631389,HierDy98qxm27z,3eqkm6eej0,ms1000241,feedback,,null,,na,prac,,,,,,,
450,,631847,HierDy98qxm27z,3eqkm6eej0,ms1000241,prac,,72,img/image4.bmp,72,prac,,,1,,,4,
null,,632611,HierDy98qxm27z,3eqkm6eej0,ms1000241,feedback,,null,,na,prac,,,,,,,
19644,,652275,HierDy98qxm27z,3eqkm6eej0,ms1000241,,,,,,prac,,,,,,,
19001,,671288,HierDy98qxm27z,3eqkm6eej0,ms1000241,,,32,,,,,,,,,,
6742,,678047,HierDy98qxm27z,3eqkm6eej0,ms1000241,,,,,,prac,,,,,,,
783,,678839,HierDy98qxm27z,3eqkm6eej0,ms1000241,rl,,65,img/o_s_dots.png,65,test,1,1,1,,,,color;pattern;shape
null,,679848,HierDy98qxm27z,3eqkm6eej0,ms1000241,feedback,,null,,na,test,,,,,,,
694,,680551,HierDy98qxm27z,3eqkm6eej0,ms1000241,rl,,72,img/p_s_diag.png,75,test,7,NaN,0,,,,color;pattern;shape
null,,681560,HierDy98qxm27z,3eqkm6eej0,ms1000241,feedback,,null,,na,test,,,,,,,
1143,,682711,HierDy98qxm27z,3eqkm6eej0,ms1000241,rl,,72,img/p_s_dots.png,72,test,5,NaN,1,,,,color;pattern;shape
null,,683727,HierDy98qxm27z,3eqkm6eej0,ms1000241,feedback,,null,,na,test,,,,,,,
