"rt","responses","time_elapsed","subject","prolificID","demoID","trialType","question_order","key_press","stim","corrresp","phase","stimNum","trialNum","corr","repeatTrial","motorSwitch","pracCounter","hierarchy"
"9831","{""Q0"":""ms1000358""}","9868","HierDyjam8he5z","jvtive05zb","ms1000358","","","","","","","","","","","","",""
"5775","","15655","HierDyjam8he5z","jvtive05zb","ms1000358","","","","","","","","","","","","",""
"","","17580","HierDyjam8he5z","jvtive05zb","ms1000358","fullscreen","","","","","","","","","","","",""
"16016","{""Vision"":""Yes"",""Handedness"":""Right"",""Gender"":""female""}","33602","HierDyjam8he5z","jvtive05zb","ms1000358","","[0,1,2]","","","","","","","","","","",""
"4425","{""Q0"":""21""}","38043","HierDyjam8he5z","jvtive05zb","ms1000358","","","","","","","","","","","","",""
"119148","","157203","HierDyjam8he5z","jvtive05zb","ms1000358","","","","","","","","","","","","",""
"1092","","158310","HierDyjam8he5z","jvtive05zb","ms1000358","motor","","70","img/motor_4.png","70","motor","4","1","1","0","0","",""
"null","","158420","HierDyjam8he5z","jvtive05zb","ms1000358","iti","","null","img/motor_4.png","70","motor","","","","","","",""
"587","","159015","HierDyjam8he5z","jvtive05zb","ms1000358","motor","","74","img/motor_5.png","72","motor","5","2","0","1","0","",""
"2224","","161247","HierDyjam8he5z","jvtive05zb","ms1000358","motorRepeat","","72","img/motor_5.png","72","motor","5","2","1","0","0","",""
"null","","161355","HierDyjam8he5z","jvtive05zb","ms1000358","iti","","null","img/motor_5.png","72","motor","","","","","","",""
"1010","","162375","HierDyjam8he5z","jvtive05zb","ms1000358","motor","","83","img/motor_2.png","83","motor","2","3","1","0","0","",""
"null","","162484","HierDyjam8he5z","jvtive05zb","ms1000358","iti","","null","img/motor_2.png","83","motor","","","","","","",""
"602","","163095","HierDyjam8he5z","jvtive05zb","ms1000358","motor","","75","img/motor_7.png","75","motor","7","4","1","0","0","",""
"null","","163203","HierDyjam8he5z","jvtive05zb","ms1000358","iti","","null","img/motor_7.png","75","motor","","","","","","",""
"556","","163773","HierDyjam8he5z","jvtive05zb","ms1000358","motor","","72","img/motor_5.png","72","motor","5","5","1","0","0","",""
"null","","163889","HierDyjam8he5z","jvtive05zb","ms1000358","iti","","null","img/motor_5.png","72","motor","","","","","","",""
"630","","164527","HierDyjam8he5z","jvtive05zb","ms1000358","motor","","65","img/motor_1.png","65","motor","1","6","1","0","0","",""
"null","","164635","HierDyjam8he5z","jvtive05zb","ms1000358","iti","","null","img/motor_1.png","65","motor","","","","","","",""
"884","","165526","HierDyjam8he5z","jvtive05zb","ms1000358","motor","","68","img/motor_3.png","68","motor","3","7","1","0","0","",""
"null","","165634","HierDyjam8he5z","jvtive05zb","ms1000358","iti","","null","img/motor_3.png","68","motor","","","","","","",""
"749","","166391","HierDyjam8he5z","jvtive05zb","ms1000358","motor","","72","img/motor_6.png","74","motor","6","8","0","1","0","",""
"384","","166783","HierDyjam8he5z","jvtive05zb","ms1000358","motorRepeat","","74","img/motor_6.png","74","motor","6","8","1","0","0","",""
"null","","166897","HierDyjam8he5z","jvtive05zb","ms1000358","iti","","null","img/motor_6.png","74","motor","","","","","","",""
"581","","167488","HierDyjam8he5z","jvtive05zb","ms1000358","motor","","72","img/motor_5.png","72","motor","5","9","1","0","0","",""
"null","","167596","HierDyjam8he5z","jvtive05zb","ms1000358","iti","","null","img/motor_5.png","72","motor","","","","","","",""
"610","","168215","HierDyjam8he5z","jvtive05zb","ms1000358","motor","","83","img/motor_2.png","83","motor","2","10","1","0","0","",""
"null","","168324","HierDyjam8he5z","jvtive05zb","ms1000358","iti","","null","img/motor_2.png","83","motor","","","","","","",""
"579","","168910","HierDyjam8he5z","jvtive05zb","ms1000358","motor","","68","img/motor_3.png","68","motor","3","11","1","0","0","",""
"null","","169025","HierDyjam8he5z","jvtive05zb","ms1000358","iti","","null","img/motor_3.png","68","motor","","","","","","",""
"1462","","170496","HierDyjam8he5z","jvtive05zb","ms1000358","motor","","72","img/motor_8.png","76","motor","8","12","0","1","0","",""
"303","","170813","HierDyjam8he5z","jvtive05zb","ms1000358","motorRepeat","","76","img/motor_8.png","76","motor","8","12","1","0","0","",""
"null","","170928","HierDyjam8he5z","jvtive05zb","ms1000358","iti","","null","img/motor_8.png","76","motor","","","","","","",""
"766","","171703","HierDyjam8he5z","jvtive05zb","ms1000358","motor","","74","img/motor_6.png","74","motor","6","13","1","0","0","",""
"null","","171817","HierDyjam8he5z","jvtive05zb","ms1000358","iti","","null","img/motor_6.png","74","motor","","","","","","",""
"636","","172469","HierDyjam8he5z","jvtive05zb","ms1000358","motor","","83","img/motor_2.png","83","motor","2","14","1","0","0","",""
"null","","172585","HierDyjam8he5z","jvtive05zb","ms1000358","iti","","null","img/motor_2.png","83","motor","","","","","","",""
"590","","173182","HierDyjam8he5z","jvtive05zb","ms1000358","motor","","74","img/motor_6.png","74","motor","6","15","1","0","0","",""
"null","","173291","HierDyjam8he5z","jvtive05zb","ms1000358","iti","","null","img/motor_6.png","74","motor","","","","","","",""
"676","","173975","HierDyjam8he5z","jvtive05zb","ms1000358","motor","","70","img/motor_4.png","70","motor","4","16","1","0","0","",""
"null","","174089","HierDyjam8he5z","jvtive05zb","ms1000358","iti","","null","img/motor_4.png","70","motor","","","","","","",""
"502","","174598","HierDyjam8he5z","jvtive05zb","ms1000358","motor","","74","img/motor_6.png","74","motor","6","17","1","0","0","",""
"null","","174707","HierDyjam8he5z","jvtive05zb","ms1000358","iti","","null","img/motor_6.png","74","motor","","","","","","",""
"668","","175383","HierDyjam8he5z","jvtive05zb","ms1000358","motor","","75","img/motor_7.png","75","motor","7","18","1","0","0","",""
"null","","175492","HierDyjam8he5z","jvtive05zb","ms1000358","iti","","null","img/motor_7.png","75","motor","","","","","","",""
"468","","175967","HierDyjam8he5z","jvtive05zb","ms1000358","motor","","74","img/motor_6.png","74","motor","6","19","1","0","0","",""
"null","","176082","HierDyjam8he5z","jvtive05zb","ms1000358","iti","","null","img/motor_6.png","74","motor","","","","","","",""
"996","","177087","HierDyjam8he5z","jvtive05zb","ms1000358","motor","","68","img/motor_3.png","68","motor","3","20","1","0","0","",""
"null","","177195","HierDyjam8he5z","jvtive05zb","ms1000358","iti","","null","img/motor_3.png","68","motor","","","","","","",""
"755","","177958","HierDyjam8he5z","jvtive05zb","ms1000358","motor","","72","img/motor_5.png","72","motor","5","21","1","0","0","",""
"null","","178067","HierDyjam8he5z","jvtive05zb","ms1000358","iti","","null","img/motor_5.png","72","motor","","","","","","",""
"1316","","179391","HierDyjam8he5z","jvtive05zb","ms1000358","motor","","68","img/motor_3.png","68","motor","3","22","1","0","0","",""
"null","","179500","HierDyjam8he5z","jvtive05zb","ms1000358","iti","","null","img/motor_3.png","68","motor","","","","","","",""
"563","","180072","HierDyjam8he5z","jvtive05zb","ms1000358","motor","","65","img/motor_1.png","65","motor","1","23","1","0","0","",""
"null","","180185","HierDyjam8he5z","jvtive05zb","ms1000358","iti","","null","img/motor_1.png","65","motor","","","","","","",""
"628","","180822","HierDyjam8he5z","jvtive05zb","ms1000358","motor","","65","img/motor_1.png","65","motor","1","24","1","0","0","",""
"null","","180936","HierDyjam8he5z","jvtive05zb","ms1000358","iti","","null","img/motor_1.png","65","motor","","","","","","",""
"958","","181901","HierDyjam8he5z","jvtive05zb","ms1000358","motor","","68","img/motor_3.png","68","motor","3","25","1","0","0","",""
"null","","182009","HierDyjam8he5z","jvtive05zb","ms1000358","iti","","null","img/motor_3.png","68","motor","","","","","","",""
"590","","182608","HierDyjam8he5z","jvtive05zb","ms1000358","motor","","72","img/motor_5.png","72","motor","5","26","1","0","0","",""
"null","","182716","HierDyjam8he5z","jvtive05zb","ms1000358","iti","","null","img/motor_5.png","72","motor","","","","","","",""
"628","","183351","HierDyjam8he5z","jvtive05zb","ms1000358","motor","","74","img/motor_6.png","74","motor","6","27","1","0","0","",""
"null","","183466","HierDyjam8he5z","jvtive05zb","ms1000358","iti","","null","img/motor_6.png","74","motor","","","","","","",""
"516","","183998","HierDyjam8he5z","jvtive05zb","ms1000358","motor","","74","img/motor_6.png","74","motor","6","28","1","0","0","",""
"null","","184106","HierDyjam8he5z","jvtive05zb","ms1000358","iti","","null","img/motor_6.png","74","motor","","","","","","",""
"796","","184910","HierDyjam8he5z","jvtive05zb","ms1000358","motor","","83","img/motor_2.png","83","motor","2","29","1","0","0","",""
"null","","185019","HierDyjam8he5z","jvtive05zb","ms1000358","iti","","null","img/motor_2.png","83","motor","","","","","","",""
"644","","185678","HierDyjam8he5z","jvtive05zb","ms1000358","motor","","68","img/motor_3.png","68","motor","3","30","1","0","0","",""
"null","","185786","HierDyjam8he5z","jvtive05zb","ms1000358","iti","","null","img/motor_3.png","68","motor","","","","","","",""
"509","","186303","HierDyjam8he5z","jvtive05zb","ms1000358","motor","","83","img/motor_2.png","83","motor","2","31","1","0","0","",""
"null","","186411","HierDyjam8he5z","jvtive05zb","ms1000358","iti","","null","img/motor_2.png","83","motor","","","","","","",""
"636","","187055","HierDyjam8he5z","jvtive05zb","ms1000358","motor","","76","img/motor_8.png","76","motor","8","32","1","0","0","",""
"null","","187163","HierDyjam8he5z","jvtive05zb","ms1000358","iti","","null","img/motor_8.png","76","motor","","","","","","",""
"548","","187719","HierDyjam8he5z","jvtive05zb","ms1000358","motor","","65","img/motor_2.png","83","motor","2","33","0","1","0","",""
"359","","188087","HierDyjam8he5z","jvtive05zb","ms1000358","motorRepeat","","83","img/motor_2.png","83","motor","2","33","1","0","0","",""
"null","","188194","HierDyjam8he5z","jvtive05zb","ms1000358","iti","","null","img/motor_2.png","83","motor","","","","","","",""
"1005","","189208","HierDyjam8he5z","jvtive05zb","ms1000358","motor","","75","img/motor_7.png","75","motor","7","34","1","0","0","",""
"null","","189322","HierDyjam8he5z","jvtive05zb","ms1000358","iti","","null","img/motor_7.png","75","motor","","","","","","",""
"508","","189839","HierDyjam8he5z","jvtive05zb","ms1000358","motor","","72","img/motor_5.png","72","motor","5","35","1","0","0","",""
"null","","189954","HierDyjam8he5z","jvtive05zb","ms1000358","iti","","null","img/motor_5.png","72","motor","","","","","","",""
"517","","190479","HierDyjam8he5z","jvtive05zb","ms1000358","motor","","65","img/motor_1.png","65","motor","1","36","1","0","0","",""
"null","","190588","HierDyjam8he5z","jvtive05zb","ms1000358","iti","","null","img/motor_1.png","65","motor","","","","","","",""
"507","","191104","HierDyjam8he5z","jvtive05zb","ms1000358","motor","","83","img/motor_2.png","83","motor","2","37","1","0","0","",""
"null","","191218","HierDyjam8he5z","jvtive05zb","ms1000358","iti","","null","img/motor_2.png","83","motor","","","","","","",""
"494","","191719","HierDyjam8he5z","jvtive05zb","ms1000358","motor","","76","img/motor_8.png","76","motor","8","38","1","0","0","",""
"null","","191834","HierDyjam8he5z","jvtive05zb","ms1000358","iti","","null","img/motor_8.png","76","motor","","","","","","",""
"518","","192359","HierDyjam8he5z","jvtive05zb","ms1000358","motor","","83","img/motor_2.png","83","motor","2","39","1","0","0","",""
"null","","192467","HierDyjam8he5z","jvtive05zb","ms1000358","iti","","null","img/motor_2.png","83","motor","","","","","","",""
"972","","193447","HierDyjam8he5z","jvtive05zb","ms1000358","motor","","70","img/motor_4.png","70","motor","4","40","1","0","0","",""
"null","","193556","HierDyjam8he5z","jvtive05zb","ms1000358","iti","","null","img/motor_4.png","70","motor","","","","","","",""
"756","","194325","HierDyjam8he5z","jvtive05zb","ms1000358","motor","","68","img/motor_3.png","68","motor","3","41","1","0","0","",""
"null","","194440","HierDyjam8he5z","jvtive05zb","ms1000358","iti","","null","img/motor_3.png","68","motor","","","","","","",""
"742","","195191","HierDyjam8he5z","jvtive05zb","ms1000358","motor","","74","img/motor_6.png","74","motor","6","42","1","0","0","",""
"null","","195300","HierDyjam8he5z","jvtive05zb","ms1000358","iti","","null","img/motor_6.png","74","motor","","","","","","",""
"531","","195838","HierDyjam8he5z","jvtive05zb","ms1000358","motor","","65","img/motor_1.png","65","motor","1","43","1","0","0","",""
"null","","195947","HierDyjam8he5z","jvtive05zb","ms1000358","iti","","null","img/motor_1.png","65","motor","","","","","","",""
"845","","196811","HierDyjam8he5z","jvtive05zb","ms1000358","motor","","74","img/motor_6.png","74","motor","6","44","1","0","0","",""
"null","","196926","HierDyjam8he5z","jvtive05zb","ms1000358","iti","","null","img/motor_6.png","74","motor","","","","","","",""
"569","","197506","HierDyjam8he5z","jvtive05zb","ms1000358","motor","","76","img/motor_8.png","76","motor","8","45","1","0","0","",""
"null","","197614","HierDyjam8he5z","jvtive05zb","ms1000358","iti","","null","img/motor_8.png","76","motor","","","","","","",""
"840","","198464","HierDyjam8he5z","jvtive05zb","ms1000358","motor","","68","img/motor_3.png","68","motor","3","46","1","0","0","",""
"null","","198573","HierDyjam8he5z","jvtive05zb","ms1000358","iti","","null","img/motor_3.png","68","motor","","","","","","",""
"571","","199152","HierDyjam8he5z","jvtive05zb","ms1000358","motor","","68","img/motor_3.png","68","motor","3","47","1","0","0","",""
"null","","199266","HierDyjam8he5z","jvtive05zb","ms1000358","iti","","null","img/motor_3.png","68","motor","","","","","","",""
"916","","200190","HierDyjam8he5z","jvtive05zb","ms1000358","motor","","75","img/motor_7.png","75","motor","7","48","1","0","0","",""
"null","","200305","HierDyjam8he5z","jvtive05zb","ms1000358","iti","","null","img/motor_7.png","75","motor","","","","","","",""
"541","","200855","HierDyjam8he5z","jvtive05zb","ms1000358","motor","","75","img/motor_7.png","75","motor","7","49","1","0","0","",""
"null","","200963","HierDyjam8he5z","jvtive05zb","ms1000358","iti","","null","img/motor_7.png","75","motor","","","","","","",""
"589","","201560","HierDyjam8he5z","jvtive05zb","ms1000358","motor","","76","img/motor_8.png","76","motor","8","50","1","0","0","",""
"null","","201668","HierDyjam8he5z","jvtive05zb","ms1000358","iti","","null","img/motor_8.png","76","motor","","","","","","",""
"619","","202294","HierDyjam8he5z","jvtive05zb","ms1000358","motor","","72","img/motor_5.png","72","motor","5","51","1","0","0","",""
"null","","202408","HierDyjam8he5z","jvtive05zb","ms1000358","iti","","null","img/motor_5.png","72","motor","","","","","","",""
"790","","203206","HierDyjam8he5z","jvtive05zb","ms1000358","motor","","83","img/motor_2.png","83","motor","2","52","1","0","0","",""
"null","","203321","HierDyjam8he5z","jvtive05zb","ms1000358","iti","","null","img/motor_2.png","83","motor","","","","","","",""
"502","","203837","HierDyjam8he5z","jvtive05zb","ms1000358","motor","","83","img/motor_2.png","83","motor","2","53","1","0","0","",""
"null","","203947","HierDyjam8he5z","jvtive05zb","ms1000358","iti","","null","img/motor_2.png","83","motor","","","","","","",""
"957","","204911","HierDyjam8he5z","jvtive05zb","ms1000358","motor","","70","img/motor_4.png","70","motor","4","54","1","0","0","",""
"null","","205025","HierDyjam8he5z","jvtive05zb","ms1000358","iti","","null","img/motor_4.png","70","motor","","","","","","",""
"556","","205591","HierDyjam8he5z","jvtive05zb","ms1000358","motor","","76","img/motor_8.png","76","motor","8","55","1","0","0","",""
"null","","205699","HierDyjam8he5z","jvtive05zb","ms1000358","iti","","null","img/motor_8.png","76","motor","","","","","","",""
"588","","206295","HierDyjam8he5z","jvtive05zb","ms1000358","motor","","83","img/motor_2.png","83","motor","2","56","1","0","0","",""
"null","","206410","HierDyjam8he5z","jvtive05zb","ms1000358","iti","","null","img/motor_2.png","83","motor","","","","","","",""
"548","","206967","HierDyjam8he5z","jvtive05zb","ms1000358","motor","","72","img/motor_5.png","72","motor","5","57","1","0","0","",""
"null","","207075","HierDyjam8he5z","jvtive05zb","ms1000358","iti","","null","img/motor_5.png","72","motor","","","","","","",""
"485","","207567","HierDyjam8he5z","jvtive05zb","ms1000358","motor","","76","img/motor_8.png","76","motor","8","58","1","0","0","",""
"null","","207682","HierDyjam8he5z","jvtive05zb","ms1000358","iti","","null","img/motor_8.png","76","motor","","","","","","",""
"677","","208367","HierDyjam8he5z","jvtive05zb","ms1000358","motor","","75","img/motor_7.png","75","motor","7","59","1","0","0","",""
"null","","208476","HierDyjam8he5z","jvtive05zb","ms1000358","iti","","null","img/motor_7.png","75","motor","","","","","","",""
"636","","209125","HierDyjam8he5z","jvtive05zb","ms1000358","motor","","83","img/motor_2.png","83","motor","2","60","1","0","0","",""
"null","","209241","HierDyjam8he5z","jvtive05zb","ms1000358","iti","","null","img/motor_2.png","83","motor","","","","","","",""
"543","","209791","HierDyjam8he5z","jvtive05zb","ms1000358","motor","","75","img/motor_7.png","75","motor","7","61","1","0","0","",""
"null","","209900","HierDyjam8he5z","jvtive05zb","ms1000358","iti","","null","img/motor_7.png","75","motor","","","","","","",""
"636","","210543","HierDyjam8he5z","jvtive05zb","ms1000358","motor","","74","img/motor_6.png","74","motor","6","62","1","0","0","",""
"null","","210652","HierDyjam8he5z","jvtive05zb","ms1000358","iti","","null","img/motor_6.png","74","motor","","","","","","",""
"651","","211311","HierDyjam8he5z","jvtive05zb","ms1000358","motor","","76","img/motor_8.png","76","motor","8","63","1","0","0","",""
"null","","211420","HierDyjam8he5z","jvtive05zb","ms1000358","iti","","null","img/motor_8.png","76","motor","","","","","","",""
"571","","212006","HierDyjam8he5z","jvtive05zb","ms1000358","motor","","74","img/motor_6.png","74","motor","6","64","1","0","0","",""
"null","","212115","HierDyjam8he5z","jvtive05zb","ms1000358","iti","","null","img/motor_6.png","74","motor","","","","","","",""
"515","","212639","HierDyjam8he5z","jvtive05zb","ms1000358","motor","","74","img/motor_6.png","74","motor","6","65","1","0","0","",""
"null","","212753","HierDyjam8he5z","jvtive05zb","ms1000358","iti","","null","img/motor_6.png","74","motor","","","","","","",""
"678","","213439","HierDyjam8he5z","jvtive05zb","ms1000358","motor","","70","img/motor_4.png","70","motor","4","66","1","0","0","",""
"null","","213553","HierDyjam8he5z","jvtive05zb","ms1000358","iti","","null","img/motor_4.png","70","motor","","","","","","",""
"469","","214038","HierDyjam8he5z","jvtive05zb","ms1000358","motor","","65","img/motor_1.png","65","motor","1","67","1","0","0","",""
"null","","214147","HierDyjam8he5z","jvtive05zb","ms1000358","iti","","null","img/motor_1.png","65","motor","","","","","","",""
"524","","214679","HierDyjam8he5z","jvtive05zb","ms1000358","motor","","83","img/motor_2.png","83","motor","2","68","1","0","0","",""
"null","","214794","HierDyjam8he5z","jvtive05zb","ms1000358","iti","","null","img/motor_2.png","83","motor","","","","","","",""
"508","","215317","HierDyjam8he5z","jvtive05zb","ms1000358","motor","","75","img/motor_7.png","75","motor","7","69","1","0","0","",""
"null","","215427","HierDyjam8he5z","jvtive05zb","ms1000358","iti","","null","img/motor_7.png","75","motor","","","","","","",""
"444","","215879","HierDyjam8he5z","jvtive05zb","ms1000358","motor","","75","img/motor_7.png","75","motor","7","70","1","0","0","",""
"null","","215988","HierDyjam8he5z","jvtive05zb","ms1000358","iti","","null","img/motor_7.png","75","motor","","","","","","",""
"675","","216671","HierDyjam8he5z","jvtive05zb","ms1000358","motor","","70","img/motor_4.png","70","motor","4","71","1","0","0","",""
"null","","216780","HierDyjam8he5z","jvtive05zb","ms1000358","iti","","null","img/motor_4.png","70","motor","","","","","","",""
"619","","217407","HierDyjam8he5z","jvtive05zb","ms1000358","motor","","72","img/motor_5.png","72","motor","5","72","1","0","0","",""
"null","","217515","HierDyjam8he5z","jvtive05zb","ms1000358","iti","","null","img/motor_5.png","72","motor","","","","","","",""
"516","","218040","HierDyjam8he5z","jvtive05zb","ms1000358","motor","","83","img/motor_2.png","83","motor","2","73","1","0","0","",""
"null","","218149","HierDyjam8he5z","jvtive05zb","ms1000358","iti","","null","img/motor_2.png","83","motor","","","","","","",""
"692","","218854","HierDyjam8he5z","jvtive05zb","ms1000358","motor","","68","img/motor_3.png","68","motor","3","74","1","0","0","",""
"null","","218963","HierDyjam8he5z","jvtive05zb","ms1000358","iti","","null","img/motor_3.png","68","motor","","","","","","",""
"501","","219478","HierDyjam8he5z","jvtive05zb","ms1000358","motor","","68","img/motor_3.png","68","motor","3","75","1","0","0","",""
"null","","219587","HierDyjam8he5z","jvtive05zb","ms1000358","iti","","null","img/motor_3.png","68","motor","","","","","","",""
"629","","220223","HierDyjam8he5z","jvtive05zb","ms1000358","motor","","76","img/motor_8.png","76","motor","8","76","1","0","0","",""
"null","","220332","HierDyjam8he5z","jvtive05zb","ms1000358","iti","","null","img/motor_8.png","76","motor","","","","","","",""
"467","","220808","HierDyjam8he5z","jvtive05zb","ms1000358","motor","","72","img/motor_5.png","72","motor","5","77","1","0","0","",""
"null","","220922","HierDyjam8he5z","jvtive05zb","ms1000358","iti","","null","img/motor_5.png","72","motor","","","","","","",""
"492","","221423","HierDyjam8he5z","jvtive05zb","ms1000358","motor","","83","img/motor_2.png","83","motor","2","78","1","0","0","",""
"null","","221531","HierDyjam8he5z","jvtive05zb","ms1000358","iti","","null","img/motor_2.png","83","motor","","","","","","",""
"484","","222024","HierDyjam8he5z","jvtive05zb","ms1000358","motor","","65","img/motor_1.png","65","motor","1","79","1","0","0","",""
"null","","222132","HierDyjam8he5z","jvtive05zb","ms1000358","iti","","null","img/motor_1.png","65","motor","","","","","","",""
"436","","222575","HierDyjam8he5z","jvtive05zb","ms1000358","motor","","72","img/motor_5.png","72","motor","5","80","1","0","0","",""
"null","","222684","HierDyjam8he5z","jvtive05zb","ms1000358","iti","","null","img/motor_5.png","72","motor","","","","","","",""
"436","","223128","HierDyjam8he5z","jvtive05zb","ms1000358","motor","","72","img/motor_3.png","68","motor","3","81","0","1","0","",""
"335","","223471","HierDyjam8he5z","jvtive05zb","ms1000358","motorRepeat","","68","img/motor_3.png","68","motor","3","81","1","0","0","",""
"null","","223579","HierDyjam8he5z","jvtive05zb","ms1000358","iti","","null","img/motor_3.png","68","motor","","","","","","",""
"587","","224175","HierDyjam8he5z","jvtive05zb","ms1000358","motor","","72","img/motor_6.png","74","motor","6","82","0","1","0","",""
"408","","224592","HierDyjam8he5z","jvtive05zb","ms1000358","motorRepeat","","74","img/motor_6.png","74","motor","6","82","1","0","0","",""
"null","","224700","HierDyjam8he5z","jvtive05zb","ms1000358","iti","","null","img/motor_6.png","74","motor","","","","","","",""
"603","","225317","HierDyjam8he5z","jvtive05zb","ms1000358","motor","","72","img/motor_5.png","72","motor","5","83","1","0","0","",""
"null","","225433","HierDyjam8he5z","jvtive05zb","ms1000358","iti","","null","img/motor_5.png","72","motor","","","","","","",""
"479","","225926","HierDyjam8he5z","jvtive05zb","ms1000358","motor","","76","img/motor_8.png","76","motor","8","84","1","0","0","",""
"null","","226041","HierDyjam8he5z","jvtive05zb","ms1000358","iti","","null","img/motor_8.png","76","motor","","","","","","",""
"493","","226543","HierDyjam8he5z","jvtive05zb","ms1000358","motor","","72","img/motor_5.png","72","motor","5","85","1","0","0","",""
"null","","226652","HierDyjam8he5z","jvtive05zb","ms1000358","iti","","null","img/motor_5.png","72","motor","","","","","","",""
"533","","227192","HierDyjam8he5z","jvtive05zb","ms1000358","motor","","75","img/motor_7.png","75","motor","7","86","1","0","0","",""
"null","","227300","HierDyjam8he5z","jvtive05zb","ms1000358","iti","","null","img/motor_7.png","75","motor","","","","","","",""
"516","","227829","HierDyjam8he5z","jvtive05zb","ms1000358","motor","","74","img/motor_6.png","74","motor","6","87","1","0","0","",""
"null","","227938","HierDyjam8he5z","jvtive05zb","ms1000358","iti","","null","img/motor_6.png","74","motor","","","","","","",""
"557","","228510","HierDyjam8he5z","jvtive05zb","ms1000358","motor","","70","img/motor_4.png","70","motor","4","88","1","0","0","",""
"null","","228619","HierDyjam8he5z","jvtive05zb","ms1000358","iti","","null","img/motor_4.png","70","motor","","","","","","",""
"635","","229263","HierDyjam8he5z","jvtive05zb","ms1000358","motor","","68","img/motor_3.png","68","motor","3","89","1","0","0","",""
"null","","229371","HierDyjam8he5z","jvtive05zb","ms1000358","iti","","null","img/motor_3.png","68","motor","","","","","","",""
"396","","229775","HierDyjam8he5z","jvtive05zb","ms1000358","motor","","65","img/motor_1.png","65","motor","1","90","1","0","0","",""
"null","","229884","HierDyjam8he5z","jvtive05zb","ms1000358","iti","","null","img/motor_1.png","65","motor","","","","","","",""
"724","","230615","HierDyjam8he5z","jvtive05zb","ms1000358","motor","","75","img/motor_7.png","75","motor","7","91","1","0","0","",""
"null","","230730","HierDyjam8he5z","jvtive05zb","ms1000358","iti","","null","img/motor_7.png","75","motor","","","","","","",""
"755","","231502","HierDyjam8he5z","jvtive05zb","ms1000358","motor","","68","img/motor_3.png","68","motor","3","92","1","0","0","",""
"null","","231611","HierDyjam8he5z","jvtive05zb","ms1000358","iti","","null","img/motor_3.png","68","motor","","","","","","",""
"476","","232095","HierDyjam8he5z","jvtive05zb","ms1000358","motor","","76","img/motor_8.png","76","motor","8","93","1","0","0","",""
"null","","232203","HierDyjam8he5z","jvtive05zb","ms1000358","iti","","null","img/motor_8.png","76","motor","","","","","","",""
"605","","232816","HierDyjam8he5z","jvtive05zb","ms1000358","motor","","68","img/motor_3.png","68","motor","3","94","1","0","0","",""
"null","","232924","HierDyjam8he5z","jvtive05zb","ms1000358","iti","","null","img/motor_3.png","68","motor","","","","","","",""
"973","","233903","HierDyjam8he5z","jvtive05zb","ms1000358","motor","","68","img/motor_2.png","83","motor","2","95","0","1","0","",""
"128","","234045","HierDyjam8he5z","jvtive05zb","ms1000358","motorRepeat","","83","img/motor_2.png","83","motor","2","95","1","0","0","",""
"null","","234155","HierDyjam8he5z","jvtive05zb","ms1000358","iti","","null","img/motor_2.png","83","motor","","","","","","",""
"77","","234245","HierDyjam8he5z","jvtive05zb","ms1000358","motor","","83","img/motor_8.png","76","motor","8","96","0","1","0","",""
"1402","","235662","HierDyjam8he5z","jvtive05zb","ms1000358","motorRepeat","","76","img/motor_8.png","76","motor","8","96","1","0","0","",""
"null","","235772","HierDyjam8he5z","jvtive05zb","ms1000358","iti","","null","img/motor_8.png","76","motor","","","","","","",""
"420","","236199","HierDyjam8he5z","jvtive05zb","ms1000358","motor","","72","img/motor_5.png","72","motor","5","97","1","0","0","",""
"null","","236308","HierDyjam8he5z","jvtive05zb","ms1000358","iti","","null","img/motor_5.png","72","motor","","","","","","",""
"453","","236768","HierDyjam8he5z","jvtive05zb","ms1000358","motor","","76","img/motor_8.png","76","motor","8","98","1","0","0","",""
"null","","236876","HierDyjam8he5z","jvtive05zb","ms1000358","iti","","null","img/motor_8.png","76","motor","","","","","","",""
"477","","237359","HierDyjam8he5z","jvtive05zb","ms1000358","motor","","72","img/motor_5.png","72","motor","5","99","1","0","0","",""
"null","","237473","HierDyjam8he5z","jvtive05zb","ms1000358","iti","","null","img/motor_5.png","72","motor","","","","","","",""
"405","","237888","HierDyjam8he5z","jvtive05zb","ms1000358","motor","","72","img/motor_5.png","72","motor","5","100","1","0","0","",""
"null","","237996","HierDyjam8he5z","jvtive05zb","ms1000358","iti","","null","img/motor_5.png","72","motor","","","","","","",""
"540","","238543","HierDyjam8he5z","jvtive05zb","ms1000358","motor","","75","img/motor_7.png","75","motor","7","101","1","0","0","",""
"null","","238658","HierDyjam8he5z","jvtive05zb","ms1000358","iti","","null","img/motor_7.png","75","motor","","","","","","",""
"749","","239416","HierDyjam8he5z","jvtive05zb","ms1000358","motor","","68","img/motor_3.png","68","motor","3","102","1","0","0","",""
"null","","239524","HierDyjam8he5z","jvtive05zb","ms1000358","iti","","null","img/motor_3.png","68","motor","","","","","","",""
"579","","240112","HierDyjam8he5z","jvtive05zb","ms1000358","motor","","72","img/motor_5.png","72","motor","5","103","1","0","0","",""
"null","","240220","HierDyjam8he5z","jvtive05zb","ms1000358","iti","","null","img/motor_5.png","72","motor","","","","","","",""
"421","","240647","HierDyjam8he5z","jvtive05zb","ms1000358","motor","","72","img/motor_5.png","72","motor","5","104","1","0","0","",""
"null","","240756","HierDyjam8he5z","jvtive05zb","ms1000358","iti","","null","img/motor_5.png","72","motor","","","","","","",""
"611","","241375","HierDyjam8he5z","jvtive05zb","ms1000358","motor","","83","img/motor_2.png","83","motor","2","105","1","0","0","",""
"null","","241484","HierDyjam8he5z","jvtive05zb","ms1000358","iti","","null","img/motor_2.png","83","motor","","","","","","",""
"517","","242014","HierDyjam8he5z","jvtive05zb","ms1000358","motor","","75","img/motor_7.png","75","motor","7","106","1","0","0","",""
"null","","242123","HierDyjam8he5z","jvtive05zb","ms1000358","iti","","null","img/motor_7.png","75","motor","","","","","","",""
"669","","242800","HierDyjam8he5z","jvtive05zb","ms1000358","motor","","70","img/motor_4.png","70","motor","4","107","1","0","0","",""
"null","","242914","HierDyjam8he5z","jvtive05zb","ms1000358","iti","","null","img/motor_4.png","70","motor","","","","","","",""
"428","","243352","HierDyjam8he5z","jvtive05zb","ms1000358","motor","","70","img/motor_4.png","70","motor","4","108","1","0","0","",""
"null","","243466","HierDyjam8he5z","jvtive05zb","ms1000358","iti","","null","img/motor_4.png","70","motor","","","","","","",""
"804","","244280","HierDyjam8he5z","jvtive05zb","ms1000358","motor","","83","img/motor_2.png","83","motor","2","109","1","0","0","",""
"null","","244395","HierDyjam8he5z","jvtive05zb","ms1000358","iti","","null","img/motor_2.png","83","motor","","","","","","",""
"645","","245047","HierDyjam8he5z","jvtive05zb","ms1000358","motor","","65","img/motor_1.png","65","motor","1","110","1","0","0","",""
"null","","245155","HierDyjam8he5z","jvtive05zb","ms1000358","iti","","null","img/motor_1.png","65","motor","","","","","","",""
"460","","245624","HierDyjam8he5z","jvtive05zb","ms1000358","motor","","76","img/motor_8.png","76","motor","8","111","1","0","0","",""
"null","","245739","HierDyjam8he5z","jvtive05zb","ms1000358","iti","","null","img/motor_8.png","76","motor","","","","","","",""
"717","","246464","HierDyjam8he5z","jvtive05zb","ms1000358","motor","","83","img/motor_2.png","83","motor","2","112","1","0","0","",""
"null","","246579","HierDyjam8he5z","jvtive05zb","ms1000358","iti","","null","img/motor_2.png","83","motor","","","","","","",""
"435","","247023","HierDyjam8he5z","jvtive05zb","ms1000358","motor","","65","img/motor_1.png","65","motor","1","113","1","0","0","",""
"null","","247132","HierDyjam8he5z","jvtive05zb","ms1000358","iti","","null","img/motor_1.png","65","motor","","","","","","",""
"667","","247807","HierDyjam8he5z","jvtive05zb","ms1000358","motor","","72","img/motor_5.png","72","motor","5","114","1","0","0","",""
"null","","247915","HierDyjam8he5z","jvtive05zb","ms1000358","iti","","null","img/motor_5.png","72","motor","","","","","","",""
"708","","248632","HierDyjam8he5z","jvtive05zb","ms1000358","motor","","70","img/motor_4.png","70","motor","4","115","1","0","0","",""
"null","","248746","HierDyjam8he5z","jvtive05zb","ms1000358","iti","","null","img/motor_4.png","70","motor","","","","","","",""
"652","","249407","HierDyjam8he5z","jvtive05zb","ms1000358","motor","","75","img/motor_7.png","75","motor","7","116","1","0","0","",""
"null","","249516","HierDyjam8he5z","jvtive05zb","ms1000358","iti","","null","img/motor_7.png","75","motor","","","","","","",""
"597","","250120","HierDyjam8he5z","jvtive05zb","ms1000358","motor","","76","img/motor_8.png","76","motor","8","117","1","0","0","",""
"null","","250229","HierDyjam8he5z","jvtive05zb","ms1000358","iti","","null","img/motor_8.png","76","motor","","","","","","",""
"595","","250838","HierDyjam8he5z","jvtive05zb","ms1000358","motor","","83","img/motor_2.png","83","motor","2","118","1","0","0","",""
"null","","250948","HierDyjam8he5z","jvtive05zb","ms1000358","iti","","null","img/motor_2.png","83","motor","","","","","","",""
"507","","251463","HierDyjam8he5z","jvtive05zb","ms1000358","motor","","76","img/motor_8.png","76","motor","8","119","1","0","0","",""
"null","","251571","HierDyjam8he5z","jvtive05zb","ms1000358","iti","","null","img/motor_8.png","76","motor","","","","","","",""
"740","","252319","HierDyjam8he5z","jvtive05zb","ms1000358","motor","","83","img/motor_2.png","83","motor","2","120","1","0","0","",""
"null","","252428","HierDyjam8he5z","jvtive05zb","ms1000358","iti","","null","img/motor_2.png","83","motor","","","","","","",""
"547","","252983","HierDyjam8he5z","jvtive05zb","ms1000358","motor","","68","img/motor_3.png","68","motor","3","121","1","0","0","",""
"null","","253092","HierDyjam8he5z","jvtive05zb","ms1000358","iti","","null","img/motor_3.png","68","motor","","","","","","",""
"531","","253631","HierDyjam8he5z","jvtive05zb","ms1000358","motor","","83","img/motor_2.png","83","motor","2","122","1","0","0","",""
"null","","253740","HierDyjam8he5z","jvtive05zb","ms1000358","iti","","null","img/motor_2.png","83","motor","","","","","","",""
"460","","254208","HierDyjam8he5z","jvtive05zb","ms1000358","motor","","72","img/motor_5.png","72","motor","5","123","1","0","0","",""
"null","","254316","HierDyjam8he5z","jvtive05zb","ms1000358","iti","","null","img/motor_5.png","72","motor","","","","","","",""
"684","","255015","HierDyjam8he5z","jvtive05zb","ms1000358","motor","","70","img/motor_4.png","70","motor","4","124","1","0","0","",""
"null","","255124","HierDyjam8he5z","jvtive05zb","ms1000358","iti","","null","img/motor_4.png","70","motor","","","","","","",""
"460","","255593","HierDyjam8he5z","jvtive05zb","ms1000358","motor","","70","img/motor_4.png","70","motor","4","125","1","0","0","",""
"null","","255700","HierDyjam8he5z","jvtive05zb","ms1000358","iti","","null","img/motor_4.png","70","motor","","","","","","",""
"507","","256216","HierDyjam8he5z","jvtive05zb","ms1000358","motor","","65","img/motor_1.png","65","motor","1","126","1","0","0","",""
"null","","256324","HierDyjam8he5z","jvtive05zb","ms1000358","iti","","null","img/motor_1.png","65","motor","","","","","","",""
"420","","256752","HierDyjam8he5z","jvtive05zb","ms1000358","motor","","70","img/motor_4.png","70","motor","4","127","1","0","0","",""
"null","","256861","HierDyjam8he5z","jvtive05zb","ms1000358","iti","","null","img/motor_4.png","70","motor","","","","","","",""
"443","","257312","HierDyjam8he5z","jvtive05zb","ms1000358","motor","","65","img/motor_1.png","65","motor","1","128","1","0","0","",""
"null","","257421","HierDyjam8he5z","jvtive05zb","ms1000358","iti","","null","img/motor_1.png","65","motor","","","","","","",""
"740","","258168","HierDyjam8he5z","jvtive05zb","ms1000358","motor","","75","img/motor_7.png","75","motor","7","129","1","0","0","",""
"null","","258277","HierDyjam8he5z","jvtive05zb","ms1000358","iti","","null","img/motor_7.png","75","motor","","","","","","",""
"548","","258838","HierDyjam8he5z","jvtive05zb","ms1000358","motor","","83","img/motor_2.png","83","motor","2","130","1","0","0","",""
"null","","258947","HierDyjam8he5z","jvtive05zb","ms1000358","iti","","null","img/motor_2.png","83","motor","","","","","","",""
"460","","259416","HierDyjam8he5z","jvtive05zb","ms1000358","motor","","70","img/motor_4.png","70","motor","4","131","1","0","0","",""
"null","","259525","HierDyjam8he5z","jvtive05zb","ms1000358","iti","","null","img/motor_4.png","70","motor","","","","","","",""
"795","","260328","HierDyjam8he5z","jvtive05zb","ms1000358","motor","","74","img/motor_6.png","74","motor","6","132","1","0","0","",""
"null","","260437","HierDyjam8he5z","jvtive05zb","ms1000358","iti","","null","img/motor_6.png","74","motor","","","","","","",""
"539","","260984","HierDyjam8he5z","jvtive05zb","ms1000358","motor","","70","img/motor_3.png","68","motor","3","133","0","1","0","",""
"336","","261330","HierDyjam8he5z","jvtive05zb","ms1000358","motorRepeat","","68","img/motor_3.png","68","motor","3","133","1","0","0","",""
"null","","261442","HierDyjam8he5z","jvtive05zb","ms1000358","iti","","null","img/motor_3.png","68","motor","","","","","","",""
"932","","262386","HierDyjam8he5z","jvtive05zb","ms1000358","motor","","74","img/motor_6.png","74","motor","6","134","1","0","0","",""
"null","","262495","HierDyjam8he5z","jvtive05zb","ms1000358","iti","","null","img/motor_6.png","74","motor","","","","","","",""
"512","","263017","HierDyjam8he5z","jvtive05zb","ms1000358","motor","","72","img/motor_5.png","72","motor","5","135","1","0","0","",""
"null","","263132","HierDyjam8he5z","jvtive05zb","ms1000358","iti","","null","img/motor_5.png","72","motor","","","","","","",""
"411","","263552","HierDyjam8he5z","jvtive05zb","ms1000358","motor","","75","img/motor_7.png","75","motor","7","136","1","0","0","",""
"null","","263667","HierDyjam8he5z","jvtive05zb","ms1000358","iti","","null","img/motor_7.png","75","motor","","","","","","",""
"716","","264391","HierDyjam8he5z","jvtive05zb","ms1000358","motor","","68","img/motor_3.png","68","motor","3","137","1","0","0","",""
"null","","264500","HierDyjam8he5z","jvtive05zb","ms1000358","iti","","null","img/motor_3.png","68","motor","","","","","","",""
"572","","265080","HierDyjam8he5z","jvtive05zb","ms1000358","motor","","83","img/motor_2.png","83","motor","2","138","1","0","0","",""
"null","","265189","HierDyjam8he5z","jvtive05zb","ms1000358","iti","","null","img/motor_2.png","83","motor","","","","","","",""
"563","","265760","HierDyjam8he5z","jvtive05zb","ms1000358","motor","","72","img/motor_6.png","74","motor","6","139","0","1","0","",""
"342","","266111","HierDyjam8he5z","jvtive05zb","ms1000358","motorRepeat","","74","img/motor_6.png","74","motor","6","139","1","0","0","",""
"null","","266226","HierDyjam8he5z","jvtive05zb","ms1000358","iti","","null","img/motor_6.png","74","motor","","","","","","",""
"525","","266760","HierDyjam8he5z","jvtive05zb","ms1000358","motor","","72","img/motor_5.png","72","motor","5","140","1","0","0","",""
"null","","266869","HierDyjam8he5z","jvtive05zb","ms1000358","iti","","null","img/motor_5.png","72","motor","","","","","","",""
"1003","","267880","HierDyjam8he5z","jvtive05zb","ms1000358","motor","","68","img/motor_3.png","68","motor","3","141","1","0","0","",""
"null","","267988","HierDyjam8he5z","jvtive05zb","ms1000358","iti","","null","img/motor_3.png","68","motor","","","","","","",""
"644","","268640","HierDyjam8he5z","jvtive05zb","ms1000358","motor","","74","img/motor_6.png","74","motor","6","142","1","0","0","",""
"null","","268755","HierDyjam8he5z","jvtive05zb","ms1000358","iti","","null","img/motor_6.png","74","motor","","","","","","",""
"572","","269337","HierDyjam8he5z","jvtive05zb","ms1000358","motor","","76","img/motor_8.png","76","motor","8","143","1","0","0","",""
"null","","269451","HierDyjam8he5z","jvtive05zb","ms1000358","iti","","null","img/motor_8.png","76","motor","","","","","","",""
"627","","270088","HierDyjam8he5z","jvtive05zb","ms1000358","motor","","68","img/motor_4.png","70","motor","4","144","0","1","0","",""
"505","","270600","HierDyjam8he5z","jvtive05zb","ms1000358","motorRepeat","","70","img/motor_4.png","70","motor","4","144","1","0","0","",""
"null","","270715","HierDyjam8he5z","jvtive05zb","ms1000358","iti","","null","img/motor_4.png","70","motor","","","","","","",""
"877","","271600","HierDyjam8he5z","jvtive05zb","ms1000358","motor","","75","img/motor_7.png","75","motor","7","145","1","0","0","",""
"null","","271709","HierDyjam8he5z","jvtive05zb","ms1000358","iti","","null","img/motor_7.png","75","motor","","","","","","",""
"1275","","272991","HierDyjam8he5z","jvtive05zb","ms1000358","motor","","68","img/motor_3.png","68","motor","3","146","1","0","0","",""
"null","","273107","HierDyjam8he5z","jvtive05zb","ms1000358","iti","","null","img/motor_3.png","68","motor","","","","","","",""
"621","","273735","HierDyjam8he5z","jvtive05zb","ms1000358","motor","","76","img/motor_8.png","76","motor","8","147","1","0","0","",""
"null","","273844","HierDyjam8he5z","jvtive05zb","ms1000358","iti","","null","img/motor_8.png","76","motor","","","","","","",""
"468","","274320","HierDyjam8he5z","jvtive05zb","ms1000358","motor","","76","img/motor_8.png","76","motor","8","148","1","0","0","",""
"null","","274428","HierDyjam8he5z","jvtive05zb","ms1000358","iti","","null","img/motor_8.png","76","motor","","","","","","",""
"595","","275032","HierDyjam8he5z","jvtive05zb","ms1000358","motor","","83","img/motor_2.png","83","motor","2","149","1","0","0","",""
"null","","275140","HierDyjam8he5z","jvtive05zb","ms1000358","iti","","null","img/motor_2.png","83","motor","","","","","","",""
"644","","275791","HierDyjam8he5z","jvtive05zb","ms1000358","motor","","74","img/motor_6.png","74","motor","6","150","1","0","0","",""
"null","","275905","HierDyjam8he5z","jvtive05zb","ms1000358","iti","","null","img/motor_6.png","74","motor","","","","","","",""
"477","","276393","HierDyjam8he5z","jvtive05zb","ms1000358","motor","","83","img/motor_2.png","83","motor","2","151","1","0","0","",""
"null","","276502","HierDyjam8he5z","jvtive05zb","ms1000358","iti","","null","img/motor_2.png","83","motor","","","","","","",""
"523","","277031","HierDyjam8he5z","jvtive05zb","ms1000358","motor","","70","img/motor_4.png","70","motor","4","152","1","0","0","",""
"null","","277140","HierDyjam8he5z","jvtive05zb","ms1000358","iti","","null","img/motor_4.png","70","motor","","","","","","",""
"756","","277904","HierDyjam8he5z","jvtive05zb","ms1000358","motor","","72","img/motor_5.png","72","motor","5","153","1","0","0","",""
"null","","278012","HierDyjam8he5z","jvtive05zb","ms1000358","iti","","null","img/motor_5.png","72","motor","","","","","","",""
"604","","278624","HierDyjam8he5z","jvtive05zb","ms1000358","motor","","75","img/motor_7.png","75","motor","7","154","1","0","0","",""
"null","","278732","HierDyjam8he5z","jvtive05zb","ms1000358","iti","","null","img/motor_7.png","75","motor","","","","","","",""
"532","","279272","HierDyjam8he5z","jvtive05zb","ms1000358","motor","","65","img/motor_1.png","65","motor","1","155","1","0","0","",""
"null","","279381","HierDyjam8he5z","jvtive05zb","ms1000358","iti","","null","img/motor_1.png","65","motor","","","","","","",""
"459","","279855","HierDyjam8he5z","jvtive05zb","ms1000358","motor","","65","img/motor_1.png","65","motor","1","156","1","0","0","",""
"null","","279964","HierDyjam8he5z","jvtive05zb","ms1000358","iti","","null","img/motor_1.png","65","motor","","","","","","",""
"828","","280800","HierDyjam8he5z","jvtive05zb","ms1000358","motor","","68","img/motor_4.png","70","motor","4","157","0","1","0","",""
"351","","281160","HierDyjam8he5z","jvtive05zb","ms1000358","motorRepeat","","70","img/motor_4.png","70","motor","4","157","1","0","0","",""
"null","","281275","HierDyjam8he5z","jvtive05zb","ms1000358","iti","","null","img/motor_4.png","70","motor","","","","","","",""
"789","","282072","HierDyjam8he5z","jvtive05zb","ms1000358","motor","","83","img/motor_2.png","83","motor","2","158","1","0","0","",""
"null","","282180","HierDyjam8he5z","jvtive05zb","ms1000358","iti","","null","img/motor_2.png","83","motor","","","","","","",""
"466","","282656","HierDyjam8he5z","jvtive05zb","ms1000358","motor","","65","img/motor_1.png","65","motor","1","159","1","0","0","",""
"null","","282764","HierDyjam8he5z","jvtive05zb","ms1000358","iti","","null","img/motor_1.png","65","motor","","","","","","",""
"539","","283311","HierDyjam8he5z","jvtive05zb","ms1000358","motor","","83","img/motor_2.png","83","motor","2","160","1","0","0","",""
"null","","283426","HierDyjam8he5z","jvtive05zb","ms1000358","iti","","null","img/motor_2.png","83","motor","","","","","","",""
"620","","284055","HierDyjam8he5z","jvtive05zb","ms1000358","motor","","75","img/motor_7.png","75","motor","7","161","1","0","0","",""
"null","","284164","HierDyjam8he5z","jvtive05zb","ms1000358","iti","","null","img/motor_7.png","75","motor","","","","","","",""
"818","","284991","HierDyjam8he5z","jvtive05zb","ms1000358","motor","","68","img/motor_3.png","68","motor","3","162","1","0","0","",""
"null","","285100","HierDyjam8he5z","jvtive05zb","ms1000358","iti","","null","img/motor_3.png","68","motor","","","","","","",""
"676","","285784","HierDyjam8he5z","jvtive05zb","ms1000358","motor","","76","img/motor_8.png","76","motor","8","163","1","0","0","",""
"null","","285899","HierDyjam8he5z","jvtive05zb","ms1000358","iti","","null","img/motor_8.png","76","motor","","","","","","",""
"699","","286608","HierDyjam8he5z","jvtive05zb","ms1000358","motor","","68","img/motor_3.png","68","motor","3","164","1","0","0","",""
"null","","286716","HierDyjam8he5z","jvtive05zb","ms1000358","iti","","null","img/motor_3.png","68","motor","","","","","","",""
"628","","287352","HierDyjam8he5z","jvtive05zb","ms1000358","motor","","72","img/motor_5.png","72","motor","5","165","1","0","0","",""
"null","","287467","HierDyjam8he5z","jvtive05zb","ms1000358","iti","","null","img/motor_5.png","72","motor","","","","","","",""
"740","","288216","HierDyjam8he5z","jvtive05zb","ms1000358","motor","","70","img/motor_4.png","70","motor","4","166","1","0","0","",""
"null","","288325","HierDyjam8he5z","jvtive05zb","ms1000358","iti","","null","img/motor_4.png","70","motor","","","","","","",""
"890","","289224","HierDyjam8he5z","jvtive05zb","ms1000358","motor","","68","img/motor_3.png","68","motor","3","167","1","0","0","",""
"null","","289333","HierDyjam8he5z","jvtive05zb","ms1000358","iti","","null","img/motor_3.png","68","motor","","","","","","",""
"419","","289760","HierDyjam8he5z","jvtive05zb","ms1000358","motor","","65","img/motor_1.png","65","motor","1","168","1","0","0","",""
"null","","289869","HierDyjam8he5z","jvtive05zb","ms1000358","iti","","null","img/motor_1.png","65","motor","","","","","","",""
"603","","290480","HierDyjam8he5z","jvtive05zb","ms1000358","motor","","68","img/motor_3.png","68","motor","3","169","1","0","0","",""
"null","","290589","HierDyjam8he5z","jvtive05zb","ms1000358","iti","","null","img/motor_3.png","68","motor","","","","","","",""
"571","","291168","HierDyjam8he5z","jvtive05zb","ms1000358","motor","","76","img/motor_8.png","76","motor","8","170","1","0","0","",""
"null","","291277","HierDyjam8he5z","jvtive05zb","ms1000358","iti","","null","img/motor_8.png","76","motor","","","","","","",""
"691","","291976","HierDyjam8he5z","jvtive05zb","ms1000358","motor","","74","img/motor_6.png","74","motor","6","171","1","0","0","",""
"null","","292085","HierDyjam8he5z","jvtive05zb","ms1000358","iti","","null","img/motor_6.png","74","motor","","","","","","",""
"572","","292663","HierDyjam8he5z","jvtive05zb","ms1000358","motor","","83","img/motor_2.png","83","motor","2","172","1","0","0","",""
"null","","292772","HierDyjam8he5z","jvtive05zb","ms1000358","iti","","null","img/motor_2.png","83","motor","","","","","","",""
"660","","293446","HierDyjam8he5z","jvtive05zb","ms1000358","motor","","83","img/motor_2.png","83","motor","2","173","1","0","0","",""
"null","","293562","HierDyjam8he5z","jvtive05zb","ms1000358","iti","","null","img/motor_2.png","83","motor","","","","","","",""
"589","","294167","HierDyjam8he5z","jvtive05zb","ms1000358","motor","","70","img/motor_4.png","70","motor","4","174","1","0","0","",""
"null","","294282","HierDyjam8he5z","jvtive05zb","ms1000358","iti","","null","img/motor_4.png","70","motor","","","","","","",""
"422","","294713","HierDyjam8he5z","jvtive05zb","ms1000358","motor","","65","img/motor_1.png","65","motor","1","175","1","0","0","",""
"null","","294821","HierDyjam8he5z","jvtive05zb","ms1000358","iti","","null","img/motor_1.png","65","motor","","","","","","",""
"595","","295425","HierDyjam8he5z","jvtive05zb","ms1000358","motor","","76","img/motor_8.png","76","motor","8","176","1","0","0","",""
"null","","295533","HierDyjam8he5z","jvtive05zb","ms1000358","iti","","null","img/motor_8.png","76","motor","","","","","","",""
"474","","296016","HierDyjam8he5z","jvtive05zb","ms1000358","motor","","76","img/motor_8.png","76","motor","8","177","1","0","0","",""
"null","","296124","HierDyjam8he5z","jvtive05zb","ms1000358","iti","","null","img/motor_8.png","76","motor","","","","","","",""
"563","","296696","HierDyjam8he5z","jvtive05zb","ms1000358","motor","","74","img/motor_6.png","74","motor","6","178","1","0","0","",""
"null","","296812","HierDyjam8he5z","jvtive05zb","ms1000358","iti","","null","img/motor_6.png","74","motor","","","","","","",""
"564","","297390","HierDyjam8he5z","jvtive05zb","ms1000358","motor","","70","img/motor_4.png","70","motor","4","179","1","0","0","",""
"null","","297500","HierDyjam8he5z","jvtive05zb","ms1000358","iti","","null","img/motor_4.png","70","motor","","","","","","",""
"524","","298032","HierDyjam8he5z","jvtive05zb","ms1000358","motor","","72","img/motor_5.png","72","motor","5","180","1","0","0","",""
"null","","298140","HierDyjam8he5z","jvtive05zb","ms1000358","iti","","null","img/motor_5.png","72","motor","","","","","","",""
"540","","298687","HierDyjam8he5z","jvtive05zb","ms1000358","motor","","65","img/motor_1.png","65","motor","1","181","1","0","0","",""
"null","","298796","HierDyjam8he5z","jvtive05zb","ms1000358","iti","","null","img/motor_1.png","65","motor","","","","","","",""
"556","","299360","HierDyjam8he5z","jvtive05zb","ms1000358","motor","","72","img/motor_5.png","72","motor","5","182","1","0","0","",""
"null","","299475","HierDyjam8he5z","jvtive05zb","ms1000358","iti","","null","img/motor_5.png","72","motor","","","","","","",""
"501","","299985","HierDyjam8he5z","jvtive05zb","ms1000358","motor","","70","img/motor_3.png","68","motor","3","183","0","1","0","",""
"406","","300400","HierDyjam8he5z","jvtive05zb","ms1000358","motorRepeat","","68","img/motor_3.png","68","motor","3","183","1","0","0","",""
"null","","300516","HierDyjam8he5z","jvtive05zb","ms1000358","iti","","null","img/motor_3.png","68","motor","","","","","","",""
"100","","300624","HierDyjam8he5z","jvtive05zb","ms1000358","motor","","68","img/motor_4.png","70","motor","4","184","0","1","0","",""
"400","","301032","HierDyjam8he5z","jvtive05zb","ms1000358","motorRepeat","","70","img/motor_4.png","70","motor","4","184","1","0","0","",""
"null","","301141","HierDyjam8he5z","jvtive05zb","ms1000358","iti","","null","img/motor_4.png","70","motor","","","","","","",""
"523","","301672","HierDyjam8he5z","jvtive05zb","ms1000358","motor","","76","img/motor_8.png","76","motor","8","185","1","0","0","",""
"null","","301788","HierDyjam8he5z","jvtive05zb","ms1000358","iti","","null","img/motor_8.png","76","motor","","","","","","",""
"668","","302464","HierDyjam8he5z","jvtive05zb","ms1000358","motor","","68","img/motor_3.png","68","motor","3","186","1","0","0","",""
"null","","302573","HierDyjam8he5z","jvtive05zb","ms1000358","iti","","null","img/motor_3.png","68","motor","","","","","","",""
"771","","303351","HierDyjam8he5z","jvtive05zb","ms1000358","motor","","74","img/motor_6.png","74","motor","6","187","1","0","0","",""
"null","","303460","HierDyjam8he5z","jvtive05zb","ms1000358","iti","","null","img/motor_6.png","74","motor","","","","","","",""
"643","","304111","HierDyjam8he5z","jvtive05zb","ms1000358","motor","","75","img/motor_7.png","75","motor","7","188","1","0","0","",""
"null","","304220","HierDyjam8he5z","jvtive05zb","ms1000358","iti","","null","img/motor_7.png","75","motor","","","","","","",""
"483","","304712","HierDyjam8he5z","jvtive05zb","ms1000358","motor","","72","img/motor_5.png","72","motor","5","189","1","0","0","",""
"null","","304828","HierDyjam8he5z","jvtive05zb","ms1000358","iti","","null","img/motor_5.png","72","motor","","","","","","",""
"676","","305519","HierDyjam8he5z","jvtive05zb","ms1000358","motor","","68","img/motor_3.png","68","motor","3","190","1","0","0","",""
"null","","305628","HierDyjam8he5z","jvtive05zb","ms1000358","iti","","null","img/motor_3.png","68","motor","","","","","","",""
"979","","306616","HierDyjam8he5z","jvtive05zb","ms1000358","motor","","70","img/motor_4.png","70","motor","4","191","1","0","0","",""
"null","","306725","HierDyjam8he5z","jvtive05zb","ms1000358","iti","","null","img/motor_4.png","70","motor","","","","","","",""
"427","","307160","HierDyjam8he5z","jvtive05zb","ms1000358","motor","","72","img/motor_5.png","72","motor","5","192","1","0","0","",""
"null","","307276","HierDyjam8he5z","jvtive05zb","ms1000358","iti","","null","img/motor_5.png","72","motor","","","","","","",""
"443","","307735","HierDyjam8he5z","jvtive05zb","ms1000358","motor","","76","img/motor_8.png","76","motor","8","193","1","0","0","",""
"null","","307844","HierDyjam8he5z","jvtive05zb","ms1000358","iti","","null","img/motor_8.png","76","motor","","","","","","",""
"787","","308646","HierDyjam8he5z","jvtive05zb","ms1000358","motor","","70","img/motor_4.png","70","motor","4","194","1","0","0","",""
"null","","308762","HierDyjam8he5z","jvtive05zb","ms1000358","iti","","null","img/motor_4.png","70","motor","","","","","","",""
"469","","309241","HierDyjam8he5z","jvtive05zb","ms1000358","motor","","72","img/motor_5.png","72","motor","5","195","1","0","0","",""
"null","","309349","HierDyjam8he5z","jvtive05zb","ms1000358","iti","","null","img/motor_5.png","72","motor","","","","","","",""
"651","","310008","HierDyjam8he5z","jvtive05zb","ms1000358","motor","","70","img/motor_4.png","70","motor","4","196","1","0","0","",""
"null","","310124","HierDyjam8he5z","jvtive05zb","ms1000358","iti","","null","img/motor_4.png","70","motor","","","","","","",""
"651","","310784","HierDyjam8he5z","jvtive05zb","ms1000358","motor","","75","img/motor_7.png","75","motor","7","197","1","0","0","",""
"null","","310893","HierDyjam8he5z","jvtive05zb","ms1000358","iti","","null","img/motor_7.png","75","motor","","","","","","",""
"493","","311392","HierDyjam8he5z","jvtive05zb","ms1000358","motor","","65","img/motor_1.png","65","motor","1","198","1","0","0","",""
"null","","311500","HierDyjam8he5z","jvtive05zb","ms1000358","iti","","null","img/motor_1.png","65","motor","","","","","","",""
"628","","312137","HierDyjam8he5z","jvtive05zb","ms1000358","motor","","75","img/motor_7.png","75","motor","7","199","1","0","0","",""
"null","","312245","HierDyjam8he5z","jvtive05zb","ms1000358","iti","","null","img/motor_7.png","75","motor","","","","","","",""
"683","","312936","HierDyjam8he5z","jvtive05zb","ms1000358","motor","","74","img/motor_6.png","74","motor","6","200","1","0","0","",""
"null","","313045","HierDyjam8he5z","jvtive05zb","ms1000358","iti","","null","img/motor_6.png","74","motor","","","","","","",""
"779","","313839","HierDyjam8he5z","jvtive05zb","ms1000358","motor","","68","img/motor_3.png","68","motor","3","201","1","0","0","",""
"null","","313955","HierDyjam8he5z","jvtive05zb","ms1000358","iti","","null","img/motor_3.png","68","motor","","","","","","",""
"517","","314480","HierDyjam8he5z","jvtive05zb","ms1000358","motor","","83","img/motor_2.png","83","motor","2","202","1","0","0","",""
"null","","314588","HierDyjam8he5z","jvtive05zb","ms1000358","iti","","null","img/motor_2.png","83","motor","","","","","","",""
"451","","315054","HierDyjam8he5z","jvtive05zb","ms1000358","motor","","65","img/motor_1.png","65","motor","1","203","1","0","0","",""
"null","","315163","HierDyjam8he5z","jvtive05zb","ms1000358","iti","","null","img/motor_1.png","65","motor","","","","","","",""
"580","","315753","HierDyjam8he5z","jvtive05zb","ms1000358","motor","","68","img/motor_3.png","68","motor","3","204","1","0","0","",""
"null","","315862","HierDyjam8he5z","jvtive05zb","ms1000358","iti","","null","img/motor_3.png","68","motor","","","","","","",""
"419","","316289","HierDyjam8he5z","jvtive05zb","ms1000358","motor","","65","img/motor_1.png","65","motor","1","205","1","0","0","",""
"null","","316397","HierDyjam8he5z","jvtive05zb","ms1000358","iti","","null","img/motor_1.png","65","motor","","","","","","",""
"619","","317031","HierDyjam8he5z","jvtive05zb","ms1000358","motor","","76","img/motor_8.png","76","motor","8","206","1","0","0","",""
"null","","317140","HierDyjam8he5z","jvtive05zb","ms1000358","iti","","null","img/motor_8.png","76","motor","","","","","","",""
"924","","318073","HierDyjam8he5z","jvtive05zb","ms1000358","motor","","68","img/motor_3.png","68","motor","3","207","1","0","0","",""
"null","","318182","HierDyjam8he5z","jvtive05zb","ms1000358","iti","","null","img/motor_3.png","68","motor","","","","","","",""
"538","","318728","HierDyjam8he5z","jvtive05zb","ms1000358","motor","","74","img/motor_6.png","74","motor","6","208","1","0","0","",""
"null","","318836","HierDyjam8he5z","jvtive05zb","ms1000358","iti","","null","img/motor_6.png","74","motor","","","","","","",""
"539","","319391","HierDyjam8he5z","jvtive05zb","ms1000358","motor","","65","img/motor_1.png","65","motor","1","209","1","0","0","",""
"null","","319506","HierDyjam8he5z","jvtive05zb","ms1000358","iti","","null","img/motor_1.png","65","motor","","","","","","",""
"597","","320119","HierDyjam8he5z","jvtive05zb","ms1000358","motor","","83","img/motor_2.png","83","motor","2","210","1","0","0","",""
"null","","320228","HierDyjam8he5z","jvtive05zb","ms1000358","iti","","null","img/motor_2.png","83","motor","","","","","","",""
"580","","320823","HierDyjam8he5z","jvtive05zb","ms1000358","motor","","68","img/motor_4.png","70","motor","4","211","0","1","0","",""
"289","","321121","HierDyjam8he5z","jvtive05zb","ms1000358","motorRepeat","","70","img/motor_4.png","70","motor","4","211","1","0","0","",""
"null","","321229","HierDyjam8he5z","jvtive05zb","ms1000358","iti","","null","img/motor_4.png","70","motor","","","","","","",""
"579","","321816","HierDyjam8he5z","jvtive05zb","ms1000358","motor","","68","img/motor_3.png","68","motor","3","212","1","0","0","",""
"null","","321925","HierDyjam8he5z","jvtive05zb","ms1000358","iti","","null","img/motor_3.png","68","motor","","","","","","",""
"595","","322529","HierDyjam8he5z","jvtive05zb","ms1000358","motor","","83","img/motor_2.png","83","motor","2","213","1","0","0","",""
"null","","322644","HierDyjam8he5z","jvtive05zb","ms1000358","iti","","null","img/motor_2.png","83","motor","","","","","","",""
"516","","323175","HierDyjam8he5z","jvtive05zb","ms1000358","motor","","65","img/motor_1.png","65","motor","1","214","1","0","0","",""
"null","","323290","HierDyjam8he5z","jvtive05zb","ms1000358","iti","","null","img/motor_1.png","65","motor","","","","","","",""
"564","","323864","HierDyjam8he5z","jvtive05zb","ms1000358","motor","","70","img/motor_4.png","70","motor","4","215","1","0","0","",""
"null","","323974","HierDyjam8he5z","jvtive05zb","ms1000358","iti","","null","img/motor_4.png","70","motor","","","","","","",""
"434","","324416","HierDyjam8he5z","jvtive05zb","ms1000358","motor","","65","img/motor_1.png","65","motor","1","216","1","0","0","",""
"null","","324525","HierDyjam8he5z","jvtive05zb","ms1000358","iti","","null","img/motor_1.png","65","motor","","","","","","",""
"580","","325113","HierDyjam8he5z","jvtive05zb","ms1000358","motor","","72","img/motor_5.png","72","motor","5","217","1","0","0","",""
"null","","325228","HierDyjam8he5z","jvtive05zb","ms1000358","iti","","null","img/motor_5.png","72","motor","","","","","","",""
"522","","325770","HierDyjam8he5z","jvtive05zb","ms1000358","motor","","76","img/motor_8.png","76","motor","8","218","1","0","0","",""
"null","","325880","HierDyjam8he5z","jvtive05zb","ms1000358","iti","","null","img/motor_8.png","76","motor","","","","","","",""
"513","","326400","HierDyjam8he5z","jvtive05zb","ms1000358","motor","","72","img/motor_5.png","72","motor","5","219","1","0","0","",""
"null","","326508","HierDyjam8he5z","jvtive05zb","ms1000358","iti","","null","img/motor_5.png","72","motor","","","","","","",""
"507","","327024","HierDyjam8he5z","jvtive05zb","ms1000358","motor","","74","img/motor_6.png","74","motor","6","220","1","0","0","",""
"null","","327133","HierDyjam8he5z","jvtive05zb","ms1000358","iti","","null","img/motor_6.png","74","motor","","","","","","",""
"523","","327665","HierDyjam8he5z","jvtive05zb","ms1000358","motor","","68","img/motor_3.png","68","motor","3","221","1","0","0","",""
"null","","327774","HierDyjam8he5z","jvtive05zb","ms1000358","iti","","null","img/motor_3.png","68","motor","","","","","","",""
"546","","328329","HierDyjam8he5z","jvtive05zb","ms1000358","motor","","76","img/motor_8.png","76","motor","8","222","1","0","0","",""
"null","","328437","HierDyjam8he5z","jvtive05zb","ms1000358","iti","","null","img/motor_8.png","76","motor","","","","","","",""
"547","","328991","HierDyjam8he5z","jvtive05zb","ms1000358","motor","","83","img/motor_2.png","83","motor","2","223","1","0","0","",""
"null","","329101","HierDyjam8he5z","jvtive05zb","ms1000358","iti","","null","img/motor_2.png","83","motor","","","","","","",""
"604","","329712","HierDyjam8he5z","jvtive05zb","ms1000358","motor","","68","img/motor_3.png","68","motor","3","224","1","0","0","",""
"null","","329827","HierDyjam8he5z","jvtive05zb","ms1000358","iti","","null","img/motor_3.png","68","motor","","","","","","",""
"596","","330433","HierDyjam8he5z","jvtive05zb","ms1000358","motor","","76","img/motor_7.png","75","motor","7","225","0","1","0","",""
"295","","330737","HierDyjam8he5z","jvtive05zb","ms1000358","motorRepeat","","74","img/motor_7.png","75","motor","7","225","0","1","0","",""
"367","","331113","HierDyjam8he5z","jvtive05zb","ms1000358","motorRepeat","","75","img/motor_7.png","75","motor","7","225","1","0","0","",""
"null","","331222","HierDyjam8he5z","jvtive05zb","ms1000358","iti","","null","img/motor_7.png","75","motor","","","","","","",""
"996","","332224","HierDyjam8he5z","jvtive05zb","ms1000358","motor","","76","img/motor_8.png","76","motor","8","226","1","0","0","",""
"null","","332333","HierDyjam8he5z","jvtive05zb","ms1000358","iti","","null","img/motor_8.png","76","motor","","","","","","",""
"747","","333089","HierDyjam8he5z","jvtive05zb","ms1000358","motor","","65","img/motor_1.png","65","motor","1","227","1","0","0","",""
"null","","333204","HierDyjam8he5z","jvtive05zb","ms1000358","iti","","null","img/motor_1.png","65","motor","","","","","","",""
"588","","333800","HierDyjam8he5z","jvtive05zb","ms1000358","motor","","74","img/motor_6.png","74","motor","6","228","1","0","0","",""
"null","","333909","HierDyjam8he5z","jvtive05zb","ms1000358","iti","","null","img/motor_6.png","74","motor","","","","","","",""
"667","","334585","HierDyjam8he5z","jvtive05zb","ms1000358","motor","","70","img/motor_4.png","70","motor","4","229","1","0","0","",""
"null","","334693","HierDyjam8he5z","jvtive05zb","ms1000358","iti","","null","img/motor_4.png","70","motor","","","","","","",""
"467","","335169","HierDyjam8he5z","jvtive05zb","ms1000358","motor","","74","img/motor_7.png","75","motor","7","230","0","1","0","",""
"304","","335480","HierDyjam8he5z","jvtive05zb","ms1000358","motorRepeat","","75","img/motor_7.png","75","motor","7","230","1","0","0","",""
"null","","335596","HierDyjam8he5z","jvtive05zb","ms1000358","iti","","null","img/motor_7.png","75","motor","","","","","","",""
"492","","336096","HierDyjam8he5z","jvtive05zb","ms1000358","motor","","75","img/motor_7.png","75","motor","7","231","1","0","0","",""
"null","","336205","HierDyjam8he5z","jvtive05zb","ms1000358","iti","","null","img/motor_7.png","75","motor","","","","","","",""
"475","","336695","HierDyjam8he5z","jvtive05zb","ms1000358","motor","","74","img/motor_6.png","74","motor","6","232","1","0","0","",""
"null","","336803","HierDyjam8he5z","jvtive05zb","ms1000358","iti","","null","img/motor_6.png","74","motor","","","","","","",""
"476","","337288","HierDyjam8he5z","jvtive05zb","ms1000358","motor","","76","img/motor_8.png","76","motor","8","233","1","0","0","",""
"null","","337396","HierDyjam8he5z","jvtive05zb","ms1000358","iti","","null","img/motor_8.png","76","motor","","","","","","",""
"436","","337841","HierDyjam8he5z","jvtive05zb","ms1000358","motor","","74","img/motor_7.png","75","motor","7","234","0","1","0","",""
"79","","337934","HierDyjam8he5z","jvtive05zb","ms1000358","motorRepeat","","75","img/motor_7.png","75","motor","7","234","1","0","0","",""
"null","","338044","HierDyjam8he5z","jvtive05zb","ms1000358","iti","","null","img/motor_7.png","75","motor","","","","","","",""
"564","","338616","HierDyjam8he5z","jvtive05zb","ms1000358","motor","","65","img/motor_1.png","65","motor","1","235","1","0","0","",""
"null","","338725","HierDyjam8he5z","jvtive05zb","ms1000358","iti","","null","img/motor_1.png","65","motor","","","","","","",""
"611","","339345","HierDyjam8he5z","jvtive05zb","ms1000358","motor","","83","img/motor_2.png","83","motor","2","236","1","0","0","",""
"null","","339453","HierDyjam8he5z","jvtive05zb","ms1000358","iti","","null","img/motor_2.png","83","motor","","","","","","",""
"523","","339985","HierDyjam8he5z","jvtive05zb","ms1000358","motor","","83","img/motor_2.png","83","motor","2","237","1","0","0","",""
"null","","340093","HierDyjam8he5z","jvtive05zb","ms1000358","iti","","null","img/motor_2.png","83","motor","","","","","","",""
"643","","340744","HierDyjam8he5z","jvtive05zb","ms1000358","motor","","68","img/motor_3.png","68","motor","3","238","1","0","0","",""
"null","","340853","HierDyjam8he5z","jvtive05zb","ms1000358","iti","","null","img/motor_3.png","68","motor","","","","","","",""
"539","","341408","HierDyjam8he5z","jvtive05zb","ms1000358","motor","","72","img/motor_5.png","72","motor","5","239","1","0","0","",""
"null","","341517","HierDyjam8he5z","jvtive05zb","ms1000358","iti","","null","img/motor_5.png","72","motor","","","","","","",""
"508","","342032","HierDyjam8he5z","jvtive05zb","ms1000358","motor","","72","img/motor_6.png","74","motor","6","240","0","1","0","",""
"264","","342304","HierDyjam8he5z","jvtive05zb","ms1000358","motorRepeat","","74","img/motor_6.png","74","motor","6","240","1","0","0","",""
"null","","342413","HierDyjam8he5z","jvtive05zb","ms1000358","iti","","null","img/motor_6.png","74","motor","","","","","","",""
"532","","342960","HierDyjam8he5z","jvtive05zb","ms1000358","motor","","75","img/motor_7.png","75","motor","7","241","1","0","0","",""
"null","","343075","HierDyjam8he5z","jvtive05zb","ms1000358","iti","","null","img/motor_7.png","75","motor","","","","","","",""
"588","","343671","HierDyjam8he5z","jvtive05zb","ms1000358","motor","","83","img/motor_2.png","83","motor","2","242","1","0","0","",""
"null","","343787","HierDyjam8he5z","jvtive05zb","ms1000358","iti","","null","img/motor_2.png","83","motor","","","","","","",""
"542","","344335","HierDyjam8he5z","jvtive05zb","ms1000358","motor","","72","img/motor_5.png","72","motor","5","243","1","0","0","",""
"null","","344444","HierDyjam8he5z","jvtive05zb","ms1000358","iti","","null","img/motor_5.png","72","motor","","","","","","",""
"700","","345152","HierDyjam8he5z","jvtive05zb","ms1000358","motor","","70","img/motor_4.png","70","motor","4","244","1","0","0","",""
"null","","345260","HierDyjam8he5z","jvtive05zb","ms1000358","iti","","null","img/motor_4.png","70","motor","","","","","","",""
"533","","345800","HierDyjam8he5z","jvtive05zb","ms1000358","motor","","75","img/motor_7.png","75","motor","7","245","1","0","0","",""
"null","","345909","HierDyjam8he5z","jvtive05zb","ms1000358","iti","","null","img/motor_7.png","75","motor","","","","","","",""
"659","","346577","HierDyjam8he5z","jvtive05zb","ms1000358","motor","","70","img/motor_4.png","70","motor","4","246","1","0","0","",""
"null","","346685","HierDyjam8he5z","jvtive05zb","ms1000358","iti","","null","img/motor_4.png","70","motor","","","","","","",""
"635","","347335","HierDyjam8he5z","jvtive05zb","ms1000358","motor","","74","img/motor_6.png","74","motor","6","247","1","0","0","",""
"null","","347444","HierDyjam8he5z","jvtive05zb","ms1000358","iti","","null","img/motor_6.png","74","motor","","","","","","",""
"533","","347991","HierDyjam8he5z","jvtive05zb","ms1000358","motor","","75","img/motor_7.png","75","motor","7","248","1","0","0","",""
"null","","348100","HierDyjam8he5z","jvtive05zb","ms1000358","iti","","null","img/motor_7.png","75","motor","","","","","","",""
"556","","348665","HierDyjam8he5z","jvtive05zb","ms1000358","motor","","74","img/motor_6.png","74","motor","6","249","1","0","0","",""
"null","","348779","HierDyjam8he5z","jvtive05zb","ms1000358","iti","","null","img/motor_6.png","74","motor","","","","","","",""
"812","","349608","HierDyjam8he5z","jvtive05zb","ms1000358","motor","","70","img/motor_4.png","70","motor","4","250","1","0","0","",""
"null","","349723","HierDyjam8he5z","jvtive05zb","ms1000358","iti","","null","img/motor_4.png","70","motor","","","","","","",""
"692","","350424","HierDyjam8he5z","jvtive05zb","ms1000358","motor","","76","img/motor_8.png","76","motor","8","251","1","0","0","",""
"null","","350540","HierDyjam8he5z","jvtive05zb","ms1000358","iti","","null","img/motor_8.png","76","motor","","","","","","",""
"652","","351201","HierDyjam8he5z","jvtive05zb","ms1000358","motor","","75","img/motor_7.png","75","motor","7","252","1","0","0","",""
"null","","351316","HierDyjam8he5z","jvtive05zb","ms1000358","iti","","null","img/motor_7.png","75","motor","","","","","","",""
"795","","352127","HierDyjam8he5z","jvtive05zb","ms1000358","motor","","70","img/motor_4.png","70","motor","4","253","1","0","0","",""
"null","","352243","HierDyjam8he5z","jvtive05zb","ms1000358","iti","","null","img/motor_4.png","70","motor","","","","","","",""
"605","","352855","HierDyjam8he5z","jvtive05zb","ms1000358","motor","","68","img/motor_3.png","68","motor","3","254","1","0","0","",""
"null","","352970","HierDyjam8he5z","jvtive05zb","ms1000358","iti","","null","img/motor_3.png","68","motor","","","","","","",""
"614","","353599","HierDyjam8he5z","jvtive05zb","ms1000358","motor","","75","img/motor_7.png","75","motor","7","255","1","0","0","",""
"null","","353709","HierDyjam8he5z","jvtive05zb","ms1000358","iti","","null","img/motor_7.png","75","motor","","","","","","",""
"555","","354273","HierDyjam8he5z","jvtive05zb","ms1000358","motor","","72","img/motor_5.png","72","motor","5","256","1","0","0","",""
"null","","354388","HierDyjam8he5z","jvtive05zb","ms1000358","iti","","null","img/motor_5.png","72","motor","","","","","","",""
"596","","354993","HierDyjam8he5z","jvtive05zb","ms1000358","motor","","74","img/motor_6.png","74","motor","6","257","1","0","0","",""
"null","","355108","HierDyjam8he5z","jvtive05zb","ms1000358","iti","","null","img/motor_6.png","74","motor","","","","","","",""
"460","","355576","HierDyjam8he5z","jvtive05zb","ms1000358","motor","","74","img/motor_6.png","74","motor","6","258","1","0","0","",""
"null","","355686","HierDyjam8he5z","jvtive05zb","ms1000358","iti","","null","img/motor_6.png","74","motor","","","","","","",""
"738","","356433","HierDyjam8he5z","jvtive05zb","ms1000358","motor","","72","img/motor_5.png","72","motor","5","259","1","0","0","",""
"null","","356541","HierDyjam8he5z","jvtive05zb","ms1000358","iti","","null","img/motor_5.png","72","motor","","","","","","",""
"548","","357097","HierDyjam8he5z","jvtive05zb","ms1000358","motor","","70","img/motor_4.png","70","motor","4","260","1","0","0","",""
"null","","357212","HierDyjam8he5z","jvtive05zb","ms1000358","iti","","null","img/motor_4.png","70","motor","","","","","","",""
"443","","357664","HierDyjam8he5z","jvtive05zb","ms1000358","motor","","76","img/motor_8.png","76","motor","8","261","1","0","0","",""
"null","","357780","HierDyjam8he5z","jvtive05zb","ms1000358","iti","","null","img/motor_8.png","76","motor","","","","","","",""
"443","","358232","HierDyjam8he5z","jvtive05zb","ms1000358","motor","","74","img/motor_7.png","75","motor","7","262","0","1","0","",""
"335","","358577","HierDyjam8he5z","jvtive05zb","ms1000358","motorRepeat","","75","img/motor_7.png","75","motor","7","262","1","0","0","",""
"null","","358685","HierDyjam8he5z","jvtive05zb","ms1000358","iti","","null","img/motor_7.png","75","motor","","","","","","",""
"866","","359560","HierDyjam8he5z","jvtive05zb","ms1000358","motor","","68","img/motor_3.png","68","motor","3","263","1","0","0","",""
"null","","359669","HierDyjam8he5z","jvtive05zb","ms1000358","iti","","null","img/motor_3.png","68","motor","","","","","","",""
"419","","360097","HierDyjam8he5z","jvtive05zb","ms1000358","motor","","68","img/motor_3.png","68","motor","3","264","1","0","0","",""
"null","","360204","HierDyjam8he5z","jvtive05zb","ms1000358","iti","","null","img/motor_3.png","68","motor","","","","","","",""
"676","","360889","HierDyjam8he5z","jvtive05zb","ms1000358","motor","","72","img/motor_5.png","72","motor","5","265","1","0","0","",""
"null","","361004","HierDyjam8he5z","jvtive05zb","ms1000358","iti","","null","img/motor_5.png","72","motor","","","","","","",""
"645","","361664","HierDyjam8he5z","jvtive05zb","ms1000358","motor","","83","img/motor_2.png","83","motor","2","266","1","0","0","",""
"null","","361773","HierDyjam8he5z","jvtive05zb","ms1000358","iti","","null","img/motor_2.png","83","motor","","","","","","",""
"509","","362289","HierDyjam8he5z","jvtive05zb","ms1000358","motor","","70","img/motor_4.png","70","motor","4","267","1","0","0","",""
"null","","362398","HierDyjam8he5z","jvtive05zb","ms1000358","iti","","null","img/motor_4.png","70","motor","","","","","","",""
"659","","363072","HierDyjam8he5z","jvtive05zb","ms1000358","motor","","72","img/motor_5.png","72","motor","5","268","1","0","0","",""
"null","","363180","HierDyjam8he5z","jvtive05zb","ms1000358","iti","","null","img/motor_5.png","72","motor","","","","","","",""
"404","","363592","HierDyjam8he5z","jvtive05zb","ms1000358","motor","","83","img/motor_1.png","65","motor","1","269","0","1","0","",""
"351","","363953","HierDyjam8he5z","jvtive05zb","ms1000358","motorRepeat","","65","img/motor_1.png","65","motor","1","269","1","0","0","",""
"null","","364068","HierDyjam8he5z","jvtive05zb","ms1000358","iti","","null","img/motor_1.png","65","motor","","","","","","",""
"460","","364537","HierDyjam8he5z","jvtive05zb","ms1000358","motor","","72","img/motor_5.png","72","motor","5","270","1","0","0","",""
"null","","364645","HierDyjam8he5z","jvtive05zb","ms1000358","iti","","null","img/motor_5.png","72","motor","","","","","","",""
"532","","365192","HierDyjam8he5z","jvtive05zb","ms1000358","motor","","75","img/motor_6.png","74","motor","6","271","0","1","0","",""
"312","","365513","HierDyjam8he5z","jvtive05zb","ms1000358","motorRepeat","","74","img/motor_6.png","74","motor","6","271","1","0","0","",""
"null","","365622","HierDyjam8he5z","jvtive05zb","ms1000358","iti","","null","img/motor_6.png","74","motor","","","","","","",""
"530","","366161","HierDyjam8he5z","jvtive05zb","ms1000358","motor","","72","img/motor_5.png","72","motor","5","272","1","0","0","",""
"null","","366276","HierDyjam8he5z","jvtive05zb","ms1000358","iti","","null","img/motor_5.png","72","motor","","","","","","",""
"715","","367001","HierDyjam8he5z","jvtive05zb","ms1000358","motor","","68","img/motor_3.png","68","motor","3","273","1","0","0","",""
"null","","367116","HierDyjam8he5z","jvtive05zb","ms1000358","iti","","null","img/motor_3.png","68","motor","","","","","","",""
"459","","367584","HierDyjam8he5z","jvtive05zb","ms1000358","motor","","65","img/motor_1.png","65","motor","1","274","1","0","0","",""
"null","","367694","HierDyjam8he5z","jvtive05zb","ms1000358","iti","","null","img/motor_1.png","65","motor","","","","","","",""
"554","","368256","HierDyjam8he5z","jvtive05zb","ms1000358","motor","","74","img/motor_6.png","74","motor","6","275","1","0","0","",""
"null","","368365","HierDyjam8he5z","jvtive05zb","ms1000358","iti","","null","img/motor_6.png","74","motor","","","","","","",""
"435","","368809","HierDyjam8he5z","jvtive05zb","ms1000358","motor","","65","img/motor_1.png","65","motor","1","276","1","0","0","",""
"null","","368918","HierDyjam8he5z","jvtive05zb","ms1000358","iti","","null","img/motor_1.png","65","motor","","","","","","",""
"652","","369584","HierDyjam8he5z","jvtive05zb","ms1000358","motor","","72","img/motor_5.png","72","motor","5","277","1","0","0","",""
"null","","369699","HierDyjam8he5z","jvtive05zb","ms1000358","iti","","null","img/motor_5.png","72","motor","","","","","","",""
"453","","370167","HierDyjam8he5z","jvtive05zb","ms1000358","motor","","65","img/motor_1.png","65","motor","1","278","1","0","0","",""
"null","","370283","HierDyjam8he5z","jvtive05zb","ms1000358","iti","","null","img/motor_1.png","65","motor","","","","","","",""
"789","","371081","HierDyjam8he5z","jvtive05zb","ms1000358","motor","","65","img/motor_1.png","65","motor","1","279","1","0","0","",""
"null","","371196","HierDyjam8he5z","jvtive05zb","ms1000358","iti","","null","img/motor_1.png","65","motor","","","","","","",""
"796","","371999","HierDyjam8he5z","jvtive05zb","ms1000358","motor","","75","img/motor_7.png","75","motor","7","280","1","0","0","",""
"null","","372108","HierDyjam8he5z","jvtive05zb","ms1000358","iti","","null","img/motor_7.png","75","motor","","","","","","",""
"492","","372609","HierDyjam8he5z","jvtive05zb","ms1000358","motor","","72","img/motor_5.png","72","motor","5","281","1","0","0","",""
"null","","372723","HierDyjam8he5z","jvtive05zb","ms1000358","iti","","null","img/motor_5.png","72","motor","","","","","","",""
"452","","373185","HierDyjam8he5z","jvtive05zb","ms1000358","motor","","65","img/motor_1.png","65","motor","1","282","1","0","0","",""
"null","","373300","HierDyjam8he5z","jvtive05zb","ms1000358","iti","","null","img/motor_1.png","65","motor","","","","","","",""
"556","","373866","HierDyjam8he5z","jvtive05zb","ms1000358","motor","","74","img/motor_2.png","83","motor","2","283","0","1","0","",""
"343","","374216","HierDyjam8he5z","jvtive05zb","ms1000358","motorRepeat","","83","img/motor_2.png","83","motor","2","283","1","0","0","",""
"null","","374332","HierDyjam8he5z","jvtive05zb","ms1000358","iti","","null","img/motor_2.png","83","motor","","","","","","",""
"715","","375057","HierDyjam8he5z","jvtive05zb","ms1000358","motor","","74","img/motor_6.png","74","motor","6","284","1","0","0","",""
"null","","375166","HierDyjam8he5z","jvtive05zb","ms1000358","iti","","null","img/motor_6.png","74","motor","","","","","","",""
"842","","376017","HierDyjam8he5z","jvtive05zb","ms1000358","motor","","65","img/motor_1.png","65","motor","1","285","1","0","0","",""
"null","","376126","HierDyjam8he5z","jvtive05zb","ms1000358","iti","","null","img/motor_1.png","65","motor","","","","","","",""
"587","","376728","HierDyjam8he5z","jvtive05zb","ms1000358","motor","","72","img/motor_5.png","72","motor","5","286","1","0","0","",""
"null","","376837","HierDyjam8he5z","jvtive05zb","ms1000358","iti","","null","img/motor_5.png","72","motor","","","","","","",""
"603","","377449","HierDyjam8he5z","jvtive05zb","ms1000358","motor","","65","img/motor_1.png","65","motor","1","287","1","0","0","",""
"null","","377558","HierDyjam8he5z","jvtive05zb","ms1000358","iti","","null","img/motor_1.png","65","motor","","","","","","",""
"851","","378416","HierDyjam8he5z","jvtive05zb","ms1000358","motor","","76","img/motor_8.png","76","motor","8","288","1","0","0","",""
"null","","378532","HierDyjam8he5z","jvtive05zb","ms1000358","iti","","null","img/motor_8.png","76","motor","","","","","","",""
"548","","379089","HierDyjam8he5z","jvtive05zb","ms1000358","motor","","74","img/motor_6.png","74","motor","6","289","1","0","0","",""
"null","","379198","HierDyjam8he5z","jvtive05zb","ms1000358","iti","","null","img/motor_6.png","74","motor","","","","","","",""
"403","","379609","HierDyjam8he5z","jvtive05zb","ms1000358","motor","","65","img/motor_1.png","65","motor","1","290","1","0","0","",""
"null","","379718","HierDyjam8he5z","jvtive05zb","ms1000358","iti","","null","img/motor_1.png","65","motor","","","","","","",""
"579","","380305","HierDyjam8he5z","jvtive05zb","ms1000358","motor","","70","img/motor_4.png","70","motor","4","291","1","0","0","",""
"null","","380419","HierDyjam8he5z","jvtive05zb","ms1000358","iti","","null","img/motor_4.png","70","motor","","","","","","",""
"588","","381017","HierDyjam8he5z","jvtive05zb","ms1000358","motor","","83","img/motor_2.png","83","motor","2","292","1","0","0","",""
"null","","381126","HierDyjam8he5z","jvtive05zb","ms1000358","iti","","null","img/motor_2.png","83","motor","","","","","","",""
"635","","381769","HierDyjam8he5z","jvtive05zb","ms1000358","motor","","74","img/motor_6.png","74","motor","6","293","1","0","0","",""
"null","","381877","HierDyjam8he5z","jvtive05zb","ms1000358","iti","","null","img/motor_6.png","74","motor","","","","","","",""
"564","","382449","HierDyjam8he5z","jvtive05zb","ms1000358","motor","","65","img/motor_1.png","65","motor","1","294","1","0","0","",""
"null","","382557","HierDyjam8he5z","jvtive05zb","ms1000358","iti","","null","img/motor_1.png","65","motor","","","","","","",""
"667","","383232","HierDyjam8he5z","jvtive05zb","ms1000358","motor","","72","img/motor_5.png","72","motor","5","295","1","0","0","",""
"null","","383340","HierDyjam8he5z","jvtive05zb","ms1000358","iti","","null","img/motor_5.png","72","motor","","","","","","",""
"549","","383897","HierDyjam8he5z","jvtive05zb","ms1000358","motor","","70","img/motor_4.png","70","motor","4","296","1","0","0","",""
"null","","384012","HierDyjam8he5z","jvtive05zb","ms1000358","iti","","null","img/motor_4.png","70","motor","","","","","","",""
"619","","384642","HierDyjam8he5z","jvtive05zb","ms1000358","motor","","76","img/motor_8.png","76","motor","8","297","1","0","0","",""
"null","","384750","HierDyjam8he5z","jvtive05zb","ms1000358","iti","","null","img/motor_8.png","76","motor","","","","","","",""
"898","","385657","HierDyjam8he5z","jvtive05zb","ms1000358","motor","","70","img/motor_4.png","70","motor","4","298","1","0","0","",""
"null","","385773","HierDyjam8he5z","jvtive05zb","ms1000358","iti","","null","img/motor_4.png","70","motor","","","","","","",""
"579","","386362","HierDyjam8he5z","jvtive05zb","ms1000358","motor","","83","img/motor_2.png","83","motor","2","299","1","0","0","",""
"null","","386470","HierDyjam8he5z","jvtive05zb","ms1000358","iti","","null","img/motor_2.png","83","motor","","","","","","",""
"595","","387073","HierDyjam8he5z","jvtive05zb","ms1000358","motor","","68","img/motor_3.png","68","motor","3","300","1","0","0","",""
"null","","387182","HierDyjam8he5z","jvtive05zb","ms1000358","iti","","null","img/motor_3.png","68","motor","","","","","","",""
"556","","387744","HierDyjam8he5z","jvtive05zb","ms1000358","motor","","75","img/motor_7.png","75","motor","7","301","1","0","0","",""
"null","","387859","HierDyjam8he5z","jvtive05zb","ms1000358","iti","","null","img/motor_7.png","75","motor","","","","","","",""
"581","","388448","HierDyjam8he5z","jvtive05zb","ms1000358","motor","","70","img/motor_4.png","70","motor","4","302","1","0","0","",""
"null","","388558","HierDyjam8he5z","jvtive05zb","ms1000358","iti","","null","img/motor_4.png","70","motor","","","","","","",""
"451","","389024","HierDyjam8he5z","jvtive05zb","ms1000358","motor","","75","img/motor_7.png","75","motor","7","303","1","0","0","",""
"null","","389133","HierDyjam8he5z","jvtive05zb","ms1000358","iti","","null","img/motor_7.png","75","motor","","","","","","",""
"491","","389633","HierDyjam8he5z","jvtive05zb","ms1000358","motor","","75","img/motor_7.png","75","motor","7","304","1","0","0","",""
"null","","389748","HierDyjam8he5z","jvtive05zb","ms1000358","iti","","null","img/motor_7.png","75","motor","","","","","","",""
"548","","390307","HierDyjam8he5z","jvtive05zb","ms1000358","motor","","70","img/motor_4.png","70","motor","4","305","1","0","0","",""
"null","","390416","HierDyjam8he5z","jvtive05zb","ms1000358","iti","","null","img/motor_4.png","70","motor","","","","","","",""
"441","","390865","HierDyjam8he5z","jvtive05zb","ms1000358","motor","","65","img/motor_1.png","65","motor","1","306","1","0","0","",""
"null","","390981","HierDyjam8he5z","jvtive05zb","ms1000358","iti","","null","img/motor_1.png","65","motor","","","","","","",""
"523","","391512","HierDyjam8he5z","jvtive05zb","ms1000358","motor","","83","img/motor_2.png","83","motor","2","307","1","0","0","",""
"null","","391630","HierDyjam8he5z","jvtive05zb","ms1000358","iti","","null","img/motor_2.png","83","motor","","","","","","",""
"499","","392137","HierDyjam8he5z","jvtive05zb","ms1000358","motor","","72","img/motor_6.png","74","motor","6","308","0","1","0","",""
"376","","392528","HierDyjam8he5z","jvtive05zb","ms1000358","motorRepeat","","74","img/motor_6.png","74","motor","6","308","1","0","0","",""
"null","","392644","HierDyjam8he5z","jvtive05zb","ms1000358","iti","","null","img/motor_6.png","74","motor","","","","","","",""
"1012","","393672","HierDyjam8he5z","jvtive05zb","ms1000358","motor","","68","img/motor_3.png","68","motor","3","309","1","0","0","",""
"null","","393789","HierDyjam8he5z","jvtive05zb","ms1000358","iti","","null","img/motor_3.png","68","motor","","","","","","",""
"507","","394312","HierDyjam8he5z","jvtive05zb","ms1000358","motor","","74","img/motor_7.png","75","motor","7","310","0","1","0","",""
"304","","394625","HierDyjam8he5z","jvtive05zb","ms1000358","motorRepeat","","75","img/motor_7.png","75","motor","7","310","1","0","0","",""
"null","","394733","HierDyjam8he5z","jvtive05zb","ms1000358","iti","","null","img/motor_7.png","75","motor","","","","","","",""
"634","","395376","HierDyjam8he5z","jvtive05zb","ms1000358","motor","","76","img/motor_8.png","76","motor","8","311","1","0","0","",""
"null","","395492","HierDyjam8he5z","jvtive05zb","ms1000358","iti","","null","img/motor_8.png","76","motor","","","","","","",""
"1044","","396545","HierDyjam8he5z","jvtive05zb","ms1000358","motor","","70","img/motor_4.png","70","motor","4","312","1","0","0","",""
"null","","396654","HierDyjam8he5z","jvtive05zb","ms1000358","iti","","null","img/motor_4.png","70","motor","","","","","","",""
"668","","397328","HierDyjam8he5z","jvtive05zb","ms1000358","motor","","68","img/motor_2.png","83","motor","2","313","0","1","0","",""
"553","","397896","HierDyjam8he5z","jvtive05zb","ms1000358","motorRepeat","","83","img/motor_2.png","83","motor","2","313","1","0","0","",""
"null","","398005","HierDyjam8he5z","jvtive05zb","ms1000358","iti","","null","img/motor_2.png","83","motor","","","","","","",""
"628","","398641","HierDyjam8he5z","jvtive05zb","ms1000358","motor","","72","img/motor_5.png","72","motor","5","314","1","0","0","",""
"null","","398749","HierDyjam8he5z","jvtive05zb","ms1000358","iti","","null","img/motor_5.png","72","motor","","","","","","",""
"1275","","400034","HierDyjam8he5z","jvtive05zb","ms1000358","motor","","70","img/motor_4.png","70","motor","4","315","1","0","0","",""
"null","","400143","HierDyjam8he5z","jvtive05zb","ms1000358","iti","","null","img/motor_4.png","70","motor","","","","","","",""
"595","","400752","HierDyjam8he5z","jvtive05zb","ms1000358","motor","","74","img/motor_6.png","74","motor","6","316","1","0","0","",""
"null","","400861","HierDyjam8he5z","jvtive05zb","ms1000358","iti","","null","img/motor_6.png","74","motor","","","","","","",""
"683","","401552","HierDyjam8he5z","jvtive05zb","ms1000358","motor","","83","img/motor_2.png","83","motor","2","317","1","0","0","",""
"null","","401662","HierDyjam8he5z","jvtive05zb","ms1000358","iti","","null","img/motor_2.png","83","motor","","","","","","",""
"643","","402313","HierDyjam8he5z","jvtive05zb","ms1000358","motor","","76","img/motor_8.png","76","motor","8","318","1","0","0","",""
"null","","402422","HierDyjam8he5z","jvtive05zb","ms1000358","iti","","null","img/motor_8.png","76","motor","","","","","","",""
"475","","402905","HierDyjam8he5z","jvtive05zb","ms1000358","motor","","65","img/motor_1.png","65","motor","1","319","1","0","0","",""
"null","","403013","HierDyjam8he5z","jvtive05zb","ms1000358","iti","","null","img/motor_1.png","65","motor","","","","","","",""
"508","","403529","HierDyjam8he5z","jvtive05zb","ms1000358","motor","","70","img/motor_4.png","70","motor","4","320","1","0","0","",""
"null","","403644","HierDyjam8he5z","jvtive05zb","ms1000358","iti","","null","img/motor_4.png","70","motor","","","","","","",""
"436","","404089","HierDyjam8he5z","jvtive05zb","ms1000358","motor","","70","img/motor_4.png","70","motor","4","321","1","0","0","",""
"null","","404198","HierDyjam8he5z","jvtive05zb","ms1000358","iti","","null","img/motor_4.png","70","motor","","","","","","",""
"571","","404778","HierDyjam8he5z","jvtive05zb","ms1000358","motor","","83","img/motor_2.png","83","motor","2","322","1","0","0","",""
"null","","404893","HierDyjam8he5z","jvtive05zb","ms1000358","iti","","null","img/motor_2.png","83","motor","","","","","","",""
"492","","405394","HierDyjam8he5z","jvtive05zb","ms1000358","motor","","76","img/motor_8.png","76","motor","8","323","1","0","0","",""
"null","","405502","HierDyjam8he5z","jvtive05zb","ms1000358","iti","","null","img/motor_8.png","76","motor","","","","","","",""
"643","","406154","HierDyjam8he5z","jvtive05zb","ms1000358","motor","","75","img/motor_7.png","75","motor","7","324","1","0","0","",""
"null","","406262","HierDyjam8he5z","jvtive05zb","ms1000358","iti","","null","img/motor_7.png","75","motor","","","","","","",""
"514","","406785","HierDyjam8he5z","jvtive05zb","ms1000358","motor","","65","img/motor_1.png","65","motor","1","325","1","0","0","",""
"null","","406894","HierDyjam8he5z","jvtive05zb","ms1000358","iti","","null","img/motor_1.png","65","motor","","","","","","",""
"634","","407537","HierDyjam8he5z","jvtive05zb","ms1000358","motor","","75","img/motor_7.png","75","motor","7","326","1","0","0","",""
"null","","407652","HierDyjam8he5z","jvtive05zb","ms1000358","iti","","null","img/motor_7.png","75","motor","","","","","","",""
"500","","408161","HierDyjam8he5z","jvtive05zb","ms1000358","motor","","65","img/motor_1.png","65","motor","1","327","1","0","0","",""
"null","","408276","HierDyjam8he5z","jvtive05zb","ms1000358","iti","","null","img/motor_1.png","65","motor","","","","","","",""
"491","","408777","HierDyjam8he5z","jvtive05zb","ms1000358","motor","","75","img/motor_6.png","74","motor","6","328","0","1","0","",""
"320","","409105","HierDyjam8he5z","jvtive05zb","ms1000358","motorRepeat","","74","img/motor_6.png","74","motor","6","328","1","0","0","",""
"null","","409221","HierDyjam8he5z","jvtive05zb","ms1000358","iti","","null","img/motor_6.png","74","motor","","","","","","",""
"643","","409873","HierDyjam8he5z","jvtive05zb","ms1000358","motor","","83","img/motor_2.png","83","motor","2","329","1","0","0","",""
"null","","409981","HierDyjam8he5z","jvtive05zb","ms1000358","iti","","null","img/motor_2.png","83","motor","","","","","","",""
"619","","410610","HierDyjam8he5z","jvtive05zb","ms1000358","motor","","65","img/motor_1.png","65","motor","1","330","1","0","0","",""
"null","","410725","HierDyjam8he5z","jvtive05zb","ms1000358","iti","","null","img/motor_1.png","65","motor","","","","","","",""
"627","","411361","HierDyjam8he5z","jvtive05zb","ms1000358","motor","","70","img/motor_3.png","68","motor","3","331","0","1","0","",""
"320","","411690","HierDyjam8he5z","jvtive05zb","ms1000358","motorRepeat","","68","img/motor_3.png","68","motor","3","331","1","0","0","",""
"null","","411798","HierDyjam8he5z","jvtive05zb","ms1000358","iti","","null","img/motor_3.png","68","motor","","","","","","",""
"827","","412640","HierDyjam8he5z","jvtive05zb","ms1000358","motor","","75","img/motor_7.png","75","motor","7","332","1","0","0","",""
"null","","412750","HierDyjam8he5z","jvtive05zb","ms1000358","iti","","null","img/motor_7.png","75","motor","","","","","","",""
"507","","413265","HierDyjam8he5z","jvtive05zb","ms1000358","motor","","83","img/motor_2.png","83","motor","2","333","1","0","0","",""
"null","","413381","HierDyjam8he5z","jvtive05zb","ms1000358","iti","","null","img/motor_2.png","83","motor","","","","","","",""
"419","","413810","HierDyjam8he5z","jvtive05zb","ms1000358","motor","","65","img/motor_1.png","65","motor","1","334","1","0","0","",""
"null","","413925","HierDyjam8he5z","jvtive05zb","ms1000358","iti","","null","img/motor_1.png","65","motor","","","","","","",""
"1186","","415128","HierDyjam8he5z","jvtive05zb","ms1000358","motor","","68","img/motor_3.png","68","motor","3","335","1","0","0","",""
"null","","415238","HierDyjam8he5z","jvtive05zb","ms1000358","iti","","null","img/motor_3.png","68","motor","","","","","","",""
"563","","415809","HierDyjam8he5z","jvtive05zb","ms1000358","motor","","83","img/motor_2.png","83","motor","2","336","1","0","0","",""
"null","","415918","HierDyjam8he5z","jvtive05zb","ms1000358","iti","","null","img/motor_2.png","83","motor","","","","","","",""
"588","","416514","HierDyjam8he5z","jvtive05zb","ms1000358","motor","","72","img/motor_5.png","72","motor","5","337","1","0","0","",""
"null","","416622","HierDyjam8he5z","jvtive05zb","ms1000358","iti","","null","img/motor_5.png","72","motor","","","","","","",""
"539","","417169","HierDyjam8he5z","jvtive05zb","ms1000358","motor","","75","img/motor_7.png","75","motor","7","338","1","0","0","",""
"null","","417278","HierDyjam8he5z","jvtive05zb","ms1000358","iti","","null","img/motor_7.png","75","motor","","","","","","",""
"1212","","418498","HierDyjam8he5z","jvtive05zb","ms1000358","motor","","70","img/motor_4.png","70","motor","4","339","1","0","0","",""
"null","","418606","HierDyjam8he5z","jvtive05zb","ms1000358","iti","","null","img/motor_4.png","70","motor","","","","","","",""
"539","","419160","HierDyjam8he5z","jvtive05zb","ms1000358","motor","","74","img/motor_6.png","74","motor","6","340","1","0","0","",""
"null","","419269","HierDyjam8he5z","jvtive05zb","ms1000358","iti","","null","img/motor_6.png","74","motor","","","","","","",""
"1092","","420370","HierDyjam8he5z","jvtive05zb","ms1000358","motor","","68","img/motor_3.png","68","motor","3","341","1","0","0","",""
"null","","420478","HierDyjam8he5z","jvtive05zb","ms1000358","iti","","null","img/motor_3.png","68","motor","","","","","","",""
"580","","421065","HierDyjam8he5z","jvtive05zb","ms1000358","motor","","65","img/motor_1.png","65","motor","1","342","1","0","0","",""
"null","","421181","HierDyjam8he5z","jvtive05zb","ms1000358","iti","","null","img/motor_1.png","65","motor","","","","","","",""
"515","","421706","HierDyjam8he5z","jvtive05zb","ms1000358","motor","","83","img/motor_2.png","83","motor","2","343","1","0","0","",""
"null","","421821","HierDyjam8he5z","jvtive05zb","ms1000358","iti","","null","img/motor_2.png","83","motor","","","","","","",""
"500","","422330","HierDyjam8he5z","jvtive05zb","ms1000358","motor","","75","img/motor_6.png","74","motor","6","344","0","1","0","",""
"302","","422641","HierDyjam8he5z","jvtive05zb","ms1000358","motorRepeat","","74","img/motor_6.png","74","motor","6","344","1","0","0","",""
"null","","422750","HierDyjam8he5z","jvtive05zb","ms1000358","iti","","null","img/motor_6.png","74","motor","","","","","","",""
"579","","423337","HierDyjam8he5z","jvtive05zb","ms1000358","motor","","76","img/motor_8.png","76","motor","8","345","1","0","0","",""
"null","","423446","HierDyjam8he5z","jvtive05zb","ms1000358","iti","","null","img/motor_8.png","76","motor","","","","","","",""
"612","","424065","HierDyjam8he5z","jvtive05zb","ms1000358","motor","","70","img/motor_4.png","70","motor","4","346","1","0","0","",""
"null","","424181","HierDyjam8he5z","jvtive05zb","ms1000358","iti","","null","img/motor_4.png","70","motor","","","","","","",""
"724","","424913","HierDyjam8he5z","jvtive05zb","ms1000358","motor","","75","img/motor_7.png","75","motor","7","347","1","0","0","",""
"null","","425022","HierDyjam8he5z","jvtive05zb","ms1000358","iti","","null","img/motor_7.png","75","motor","","","","","","",""
"644","","425674","HierDyjam8he5z","jvtive05zb","ms1000358","motor","","83","img/motor_2.png","83","motor","2","348","1","0","0","",""
"null","","425783","HierDyjam8he5z","jvtive05zb","ms1000358","iti","","null","img/motor_2.png","83","motor","","","","","","",""
"755","","426546","HierDyjam8he5z","jvtive05zb","ms1000358","motor","","76","img/motor_8.png","76","motor","8","349","1","0","0","",""
"null","","426655","HierDyjam8he5z","jvtive05zb","ms1000358","iti","","null","img/motor_8.png","76","motor","","","","","","",""
"442","","427112","HierDyjam8he5z","jvtive05zb","ms1000358","motor","","65","img/motor_1.png","65","motor","1","350","1","0","0","",""
"null","","427223","HierDyjam8he5z","jvtive05zb","ms1000358","iti","","null","img/motor_1.png","65","motor","","","","","","",""
"538","","427770","HierDyjam8he5z","jvtive05zb","ms1000358","motor","","76","img/motor_8.png","76","motor","8","351","1","0","0","",""
"null","","427886","HierDyjam8he5z","jvtive05zb","ms1000358","iti","","null","img/motor_8.png","76","motor","","","","","","",""
"1122","","429017","HierDyjam8he5z","jvtive05zb","ms1000358","motor","","68","img/motor_3.png","68","motor","3","352","1","0","0","",""
"null","","429125","HierDyjam8he5z","jvtive05zb","ms1000358","iti","","null","img/motor_3.png","68","motor","","","","","","",""
"491","","429625","HierDyjam8he5z","jvtive05zb","ms1000358","motor","","68","img/motor_3.png","68","motor","3","353","1","0","0","",""
"null","","429734","HierDyjam8he5z","jvtive05zb","ms1000358","iti","","null","img/motor_3.png","68","motor","","","","","","",""
"428","","430169","HierDyjam8he5z","jvtive05zb","ms1000358","motor","","65","img/motor_1.png","65","motor","1","354","1","0","0","",""
"null","","430278","HierDyjam8he5z","jvtive05zb","ms1000358","iti","","null","img/motor_1.png","65","motor","","","","","","",""
"1067","","431353","HierDyjam8he5z","jvtive05zb","ms1000358","motor","","74","img/motor_6.png","74","motor","6","355","1","0","0","",""
"null","","431462","HierDyjam8he5z","jvtive05zb","ms1000358","iti","","null","img/motor_6.png","74","motor","","","","","","",""
"499","","431976","HierDyjam8he5z","jvtive05zb","ms1000358","motor","","74","img/motor_6.png","74","motor","6","356","1","0","0","",""
"null","","432086","HierDyjam8he5z","jvtive05zb","ms1000358","iti","","null","img/motor_6.png","74","motor","","","","","","",""
"499","","432594","HierDyjam8he5z","jvtive05zb","ms1000358","motor","","83","img/motor_2.png","83","motor","2","357","1","0","0","",""
