rt,responses,time_elapsed,subject,prolificID,demoID,trialType,question_order,key_press,stim,corrresp,phase,stimNum,trialNum,corr,repeatTrial,motorSwitch,pracCounter,hierarchy
970922,"{""Q0"":""ms1000199""}",970956,HierDy8l8wvsyu,xz0wvylm2u,ms1000199,,,,,,,,,,,,,
1884,,972849,HierDy8l8wvsyu,xz0wvylm2u,ms1000199,,,,,,,,,,,,,
,,975059,HierDy8l8wvsyu,xz0wvylm2u,ms1000199,fullscreen,,,,,,,,,,,,
12965,"{""Vision"":""Yes"",""Handedness"":""Right"",""Gender"":""male""}",988034,HierDy8l8wvsyu,xz0wvylm2u,ms1000199,,"[0,1,2]",,,,,,,,,,,
4248,"{""Q0"":""21""}",992295,HierDy8l8wvsyu,xz0wvylm2u,ms1000199,,,,,,,,,,,,,
128631,,1120936,HierDy8l8wvsyu,xz0wvylm2u,ms1000199,,,,,,,,,,,,,
627,,1121572,HierDy8l8wvsyu,xz0wvylm2u,ms1000199,motor,,83,img/motor_2.png,83,motor,2,1,1,0,0,,
null,,1121682,HierDy8l8wvsyu,xz0wvylm2u,ms1000199,iti,,null,img/motor_2.png,83,motor,,,,,,,
879,,1122572,HierDy8l8wvsyu,xz0wvylm2u,ms1000199,motor,,72,img/motor_5.png,72,motor,5,2,1,0,0,,
null,,1122682,HierDy8l8wvsyu,xz0wvylm2u,ms1000199,iti,,null,img/motor_5.png,72,motor,,,,,,,
780,,1123471,HierDy8l8wvsyu,xz0wvylm2u,ms1000199,motor,,74,img/motor_6.png,74,motor,6,3,1,0,0,,
null,,1123582,HierDy8l8wvsyu,xz0wvylm2u,ms1000199,iti,,null,img/motor_6.png,74,motor,,,,,,,
621,,1124213,HierDy8l8wvsyu,xz0wvylm2u,ms1000199,motor,,83,img/motor_2.png,83,motor,2,4,1,0,0,,
null,,1124324,HierDy8l8wvsyu,xz0wvylm2u,ms1000199,iti,,null,img/motor_2.png,83,motor,,,,,,,
650,,1124983,HierDy8l8wvsyu,xz0wvylm2u,ms1000199,motor,,68,img/motor_3.png,68,motor,3,5,1,0,0,,
null,,1125093,HierDy8l8wvsyu,xz0wvylm2u,ms1000199,iti,,null,img/motor_3.png,68,motor,,,,,,,
647,,1125750,HierDy8l8wvsyu,xz0wvylm2u,ms1000199,motor,,74,img/motor_6.png,74,motor,6,6,1,0,0,,
null,,1125860,HierDy8l8wvsyu,xz0wvylm2u,ms1000199,iti,,null,img/motor_6.png,74,motor,,,,,,,
510,,1126380,HierDy8l8wvsyu,xz0wvylm2u,ms1000199,motor,,72,img/motor_5.png,72,motor,5,7,1,0,0,,
null,,1126490,HierDy8l8wvsyu,xz0wvylm2u,ms1000199,iti,,null,img/motor_5.png,72,motor,,,,,,,
586,,1127086,HierDy8l8wvsyu,xz0wvylm2u,ms1000199,motor,,83,img/motor_2.png,83,motor,2,8,1,0,0,,
null,,1127196,HierDy8l8wvsyu,xz0wvylm2u,ms1000199,iti,,null,img/motor_2.png,83,motor,,,,,,,
591,,1127797,HierDy8l8wvsyu,xz0wvylm2u,ms1000199,motor,,70,img/motor_4.png,70,motor,4,9,1,0,0,,
null,,1127907,HierDy8l8wvsyu,xz0wvylm2u,ms1000199,iti,,null,img/motor_4.png,70,motor,,,,,,,
677,,1128593,HierDy8l8wvsyu,xz0wvylm2u,ms1000199,motor,,75,img/motor_7.png,75,motor,7,10,1,0,0,,
null,,1128703,HierDy8l8wvsyu,xz0wvylm2u,ms1000199,iti,,null,img/motor_7.png,75,motor,,,,,,,
1496,,1130209,HierDy8l8wvsyu,xz0wvylm2u,ms1000199,motor,,75,img/motor_7.png,75,motor,7,11,1,0,0,,
null,,1130320,HierDy8l8wvsyu,xz0wvylm2u,ms1000199,iti,,null,img/motor_7.png,75,motor,,,,,,,
994,,1131324,HierDy8l8wvsyu,xz0wvylm2u,ms1000199,motor,,83,img/motor_2.png,83,motor,2,12,1,0,0,,
null,,1131435,HierDy8l8wvsyu,xz0wvylm2u,ms1000199,iti,,null,img/motor_2.png,83,motor,,,,,,,
593,,1132036,HierDy8l8wvsyu,xz0wvylm2u,ms1000199,motor,,75,img/motor_7.png,75,motor,7,13,1,0,0,,
null,,1132146,HierDy8l8wvsyu,xz0wvylm2u,ms1000199,iti,,null,img/motor_7.png,75,motor,,,,,,,
650,,1132806,HierDy8l8wvsyu,xz0wvylm2u,ms1000199,motor,,72,img/motor_5.png,72,motor,5,14,1,0,0,,
null,,1132917,HierDy8l8wvsyu,xz0wvylm2u,ms1000199,iti,,null,img/motor_5.png,72,motor,,,,,,,
547,,1133473,HierDy8l8wvsyu,xz0wvylm2u,ms1000199,motor,,65,img/motor_1.png,65,motor,1,15,1,0,0,,
null,,1133583,HierDy8l8wvsyu,xz0wvylm2u,ms1000199,iti,,null,img/motor_1.png,65,motor,,,,,,,
487,,1134080,HierDy8l8wvsyu,xz0wvylm2u,ms1000199,motor,,65,img/motor_1.png,65,motor,1,16,1,0,0,,
null,,1134191,HierDy8l8wvsyu,xz0wvylm2u,ms1000199,iti,,null,img/motor_1.png,65,motor,,,,,,,
788,,1134990,HierDy8l8wvsyu,xz0wvylm2u,ms1000199,motor,,74,img/motor_6.png,74,motor,6,17,1,0,0,,
null,,1135100,HierDy8l8wvsyu,xz0wvylm2u,ms1000199,iti,,null,img/motor_6.png,74,motor,,,,,,,
427,,1135537,HierDy8l8wvsyu,xz0wvylm2u,ms1000199,motor,,74,img/motor_6.png,74,motor,6,18,1,0,0,,
null,,1135646,HierDy8l8wvsyu,xz0wvylm2u,ms1000199,iti,,null,img/motor_6.png,74,motor,,,,,,,
479,,1136136,HierDy8l8wvsyu,xz0wvylm2u,ms1000199,motor,,83,img/motor_2.png,83,motor,2,19,1,0,0,,
null,,1136246,HierDy8l8wvsyu,xz0wvylm2u,ms1000199,iti,,null,img/motor_2.png,83,motor,,,,,,,
486,,1136741,HierDy8l8wvsyu,xz0wvylm2u,ms1000199,motor,,74,img/motor_6.png,74,motor,6,20,1,0,0,,
null,,1136851,HierDy8l8wvsyu,xz0wvylm2u,ms1000199,iti,,null,img/motor_6.png,74,motor,,,,,,,
570,,1137431,HierDy8l8wvsyu,xz0wvylm2u,ms1000199,motor,,70,img/motor_4.png,70,motor,4,21,1,0,0,,
null,,1137541,HierDy8l8wvsyu,xz0wvylm2u,ms1000199,iti,,null,img/motor_4.png,70,motor,,,,,,,
498,,1138048,HierDy8l8wvsyu,xz0wvylm2u,ms1000199,motor,,76,img/motor_8.png,76,motor,8,22,1,0,0,,
null,,1138159,HierDy8l8wvsyu,xz0wvylm2u,ms1000199,iti,,null,img/motor_8.png,76,motor,,,,,,,
552,,1138720,HierDy8l8wvsyu,xz0wvylm2u,ms1000199,motor,,70,img/motor_4.png,70,motor,4,23,1,0,0,,
null,,1138830,HierDy8l8wvsyu,xz0wvylm2u,ms1000199,iti,,null,img/motor_4.png,70,motor,,,,,,,
447,,1139288,HierDy8l8wvsyu,xz0wvylm2u,ms1000199,motor,,72,img/motor_5.png,72,motor,5,24,1,0,0,,
null,,1139398,HierDy8l8wvsyu,xz0wvylm2u,ms1000199,iti,,null,img/motor_5.png,72,motor,,,,,,,
443,,1139850,HierDy8l8wvsyu,xz0wvylm2u,ms1000199,motor,,76,img/motor_8.png,76,motor,8,25,1,0,0,,
null,,1139959,HierDy8l8wvsyu,xz0wvylm2u,ms1000199,iti,,null,img/motor_8.png,76,motor,,,,,,,
508,,1140476,HierDy8l8wvsyu,xz0wvylm2u,ms1000199,motor,,74,img/motor_6.png,74,motor,6,26,1,0,0,,
null,,1140586,HierDy8l8wvsyu,xz0wvylm2u,ms1000199,iti,,null,img/motor_6.png,74,motor,,,,,,,
443,,1141039,HierDy8l8wvsyu,xz0wvylm2u,ms1000199,motor,,76,img/motor_8.png,76,motor,8,27,1,0,0,,
null,,1141149,HierDy8l8wvsyu,xz0wvylm2u,ms1000199,iti,,null,img/motor_8.png,76,motor,,,,,,,
438,,1141598,HierDy8l8wvsyu,xz0wvylm2u,ms1000199,motor,,83,img/motor_3.png,68,motor,3,28,0,1,0,,
364,,1141970,HierDy8l8wvsyu,xz0wvylm2u,ms1000199,motorRepeat,,68,img/motor_3.png,68,motor,3,28,1,0,0,,
null,,1142080,HierDy8l8wvsyu,xz0wvylm2u,ms1000199,iti,,null,img/motor_3.png,68,motor,,,,,,,
656,,1142747,HierDy8l8wvsyu,xz0wvylm2u,ms1000199,motor,,76,img/motor_8.png,76,motor,8,29,1,0,0,,
null,,1142856,HierDy8l8wvsyu,xz0wvylm2u,ms1000199,iti,,null,img/motor_8.png,76,motor,,,,,,,
847,,1143712,HierDy8l8wvsyu,xz0wvylm2u,ms1000199,motor,,74,img/motor_6.png,74,motor,6,30,1,0,0,,
null,,1143823,HierDy8l8wvsyu,xz0wvylm2u,ms1000199,iti,,null,img/motor_6.png,74,motor,,,,,,,
446,,1144279,HierDy8l8wvsyu,xz0wvylm2u,ms1000199,motor,,75,img/motor_7.png,75,motor,7,31,1,0,0,,
null,,1144390,HierDy8l8wvsyu,xz0wvylm2u,ms1000199,iti,,null,img/motor_7.png,75,motor,,,,,,,
623,,1145022,HierDy8l8wvsyu,xz0wvylm2u,ms1000199,motor,,83,img/motor_2.png,83,motor,2,32,1,0,0,,
null,,1145132,HierDy8l8wvsyu,xz0wvylm2u,ms1000199,iti,,null,img/motor_2.png,83,motor,,,,,,,
517,,1145657,HierDy8l8wvsyu,xz0wvylm2u,ms1000199,motor,,72,img/motor_5.png,72,motor,5,33,1,0,0,,
null,,1145768,HierDy8l8wvsyu,xz0wvylm2u,ms1000199,iti,,null,img/motor_5.png,72,motor,,,,,,,
635,,1146412,HierDy8l8wvsyu,xz0wvylm2u,ms1000199,motor,,70,img/motor_4.png,70,motor,4,34,1,0,0,,
null,,1146523,HierDy8l8wvsyu,xz0wvylm2u,ms1000199,iti,,null,img/motor_4.png,70,motor,,,,,,,
517,,1147050,HierDy8l8wvsyu,xz0wvylm2u,ms1000199,motor,,76,img/motor_8.png,76,motor,8,35,1,0,0,,
null,,1147161,HierDy8l8wvsyu,xz0wvylm2u,ms1000199,iti,,null,img/motor_8.png,76,motor,,,,,,,
511,,1147681,HierDy8l8wvsyu,xz0wvylm2u,ms1000199,motor,,72,img/motor_5.png,72,motor,5,36,1,0,0,,
null,,1147792,HierDy8l8wvsyu,xz0wvylm2u,ms1000199,iti,,null,img/motor_5.png,72,motor,,,,,,,
419,,1148222,HierDy8l8wvsyu,xz0wvylm2u,ms1000199,motor,,76,img/motor_8.png,76,motor,8,37,1,0,0,,
null,,1148332,HierDy8l8wvsyu,xz0wvylm2u,ms1000199,iti,,null,img/motor_8.png,76,motor,,,,,,,
471,,1148813,HierDy8l8wvsyu,xz0wvylm2u,ms1000199,motor,,75,img/motor_7.png,75,motor,7,38,1,0,0,,
null,,1148923,HierDy8l8wvsyu,xz0wvylm2u,ms1000199,iti,,null,img/motor_7.png,75,motor,,,,,,,
708,,1149641,HierDy8l8wvsyu,xz0wvylm2u,ms1000199,motor,,68,img/motor_3.png,68,motor,3,39,1,0,0,,
null,,1149751,HierDy8l8wvsyu,xz0wvylm2u,ms1000199,iti,,null,img/motor_3.png,68,motor,,,,,,,
418,,1150178,HierDy8l8wvsyu,xz0wvylm2u,ms1000199,motor,,83,img/motor_2.png,83,motor,2,40,1,0,0,,
null,,1150289,HierDy8l8wvsyu,xz0wvylm2u,ms1000199,iti,,null,img/motor_2.png,83,motor,,,,,,,
618,,1150916,HierDy8l8wvsyu,xz0wvylm2u,ms1000199,motor,,74,img/motor_6.png,74,motor,6,41,1,0,0,,
null,,1151026,HierDy8l8wvsyu,xz0wvylm2u,ms1000199,iti,,null,img/motor_6.png,74,motor,,,,,,,
464,,1151498,HierDy8l8wvsyu,xz0wvylm2u,ms1000199,motor,,65,img/motor_1.png,65,motor,1,42,1,0,0,,
null,,1151609,HierDy8l8wvsyu,xz0wvylm2u,ms1000199,iti,,null,img/motor_1.png,65,motor,,,,,,,
473,,1152090,HierDy8l8wvsyu,xz0wvylm2u,ms1000199,motor,,76,img/motor_8.png,76,motor,8,43,1,0,0,,
null,,1152201,HierDy8l8wvsyu,xz0wvylm2u,ms1000199,iti,,null,img/motor_8.png,76,motor,,,,,,,
629,,1152840,HierDy8l8wvsyu,xz0wvylm2u,ms1000199,motor,,70,img/motor_4.png,70,motor,4,44,1,0,0,,
null,,1152949,HierDy8l8wvsyu,xz0wvylm2u,ms1000199,iti,,null,img/motor_4.png,70,motor,,,,,,,
483,,1153440,HierDy8l8wvsyu,xz0wvylm2u,ms1000199,motor,,83,img/motor_2.png,83,motor,2,45,1,0,0,,
null,,1153550,HierDy8l8wvsyu,xz0wvylm2u,ms1000199,iti,,null,img/motor_2.png,83,motor,,,,,,,
749,,1154309,HierDy8l8wvsyu,xz0wvylm2u,ms1000199,motor,,74,img/motor_6.png,74,motor,6,46,1,0,0,,
null,,1154420,HierDy8l8wvsyu,xz0wvylm2u,ms1000199,iti,,null,img/motor_6.png,74,motor,,,,,,,
418,,1154848,HierDy8l8wvsyu,xz0wvylm2u,ms1000199,motor,,72,img/motor_5.png,72,motor,5,47,1,0,0,,
null,,1154957,HierDy8l8wvsyu,xz0wvylm2u,ms1000199,iti,,null,img/motor_5.png,72,motor,,,,,,,
484,,1155450,HierDy8l8wvsyu,xz0wvylm2u,ms1000199,motor,,70,img/motor_4.png,70,motor,4,48,1,0,0,,
null,,1155561,HierDy8l8wvsyu,xz0wvylm2u,ms1000199,iti,,null,img/motor_4.png,70,motor,,,,,,,
588,,1156158,HierDy8l8wvsyu,xz0wvylm2u,ms1000199,motor,,75,img/motor_7.png,75,motor,7,49,1,0,0,,
null,,1156269,HierDy8l8wvsyu,xz0wvylm2u,ms1000199,iti,,null,img/motor_7.png,75,motor,,,,,,,
343,,1156622,HierDy8l8wvsyu,xz0wvylm2u,ms1000199,motor,,76,img/motor_8.png,76,motor,8,50,1,0,0,,
null,,1156734,HierDy8l8wvsyu,xz0wvylm2u,ms1000199,iti,,null,img/motor_8.png,76,motor,,,,,,,
811,,1157554,HierDy8l8wvsyu,xz0wvylm2u,ms1000199,motor,,70,img/motor_3.png,68,motor,3,51,0,1,0,,
1712,,1159277,HierDy8l8wvsyu,xz0wvylm2u,ms1000199,motorRepeat,,70,img/motor_3.png,68,motor,3,51,0,1,0,,
1002,,1160290,HierDy8l8wvsyu,xz0wvylm2u,ms1000199,motorRepeat,,68,img/motor_3.png,68,motor,3,51,1,0,0,,
null,,1160400,HierDy8l8wvsyu,xz0wvylm2u,ms1000199,iti,,null,img/motor_3.png,68,motor,,,,,,,
630,,1161038,HierDy8l8wvsyu,xz0wvylm2u,ms1000199,motor,,74,img/motor_6.png,74,motor,6,52,1,0,0,,
null,,1161149,HierDy8l8wvsyu,xz0wvylm2u,ms1000199,iti,,null,img/motor_6.png,74,motor,,,,,,,
915,,1162073,HierDy8l8wvsyu,xz0wvylm2u,ms1000199,motor,,68,img/motor_3.png,68,motor,3,53,1,0,0,,
null,,1162184,HierDy8l8wvsyu,xz0wvylm2u,ms1000199,iti,,null,img/motor_3.png,68,motor,,,,,,,
581,,1162774,HierDy8l8wvsyu,xz0wvylm2u,ms1000199,motor,,74,img/motor_6.png,74,motor,6,54,1,0,0,,
null,,1162885,HierDy8l8wvsyu,xz0wvylm2u,ms1000199,iti,,null,img/motor_6.png,74,motor,,,,,,,
578,,1163474,HierDy8l8wvsyu,xz0wvylm2u,ms1000199,motor,,65,img/motor_1.png,65,motor,1,55,1,0,0,,
null,,1163583,HierDy8l8wvsyu,xz0wvylm2u,ms1000199,iti,,null,img/motor_1.png,65,motor,,,,,,,
625,,1164217,HierDy8l8wvsyu,xz0wvylm2u,ms1000199,motor,,70,img/motor_4.png,70,motor,4,56,1,0,0,,
null,,1164327,HierDy8l8wvsyu,xz0wvylm2u,ms1000199,iti,,null,img/motor_4.png,70,motor,,,,,,,
519,,1164856,HierDy8l8wvsyu,xz0wvylm2u,ms1000199,motor,,68,img/motor_3.png,68,motor,3,57,1,0,0,,
null,,1164967,HierDy8l8wvsyu,xz0wvylm2u,ms1000199,iti,,null,img/motor_3.png,68,motor,,,,,,,
455,,1165432,HierDy8l8wvsyu,xz0wvylm2u,ms1000199,motor,,68,img/motor_3.png,68,motor,3,58,1,0,0,,
null,,1165542,HierDy8l8wvsyu,xz0wvylm2u,ms1000199,iti,,null,img/motor_3.png,68,motor,,,,,,,
451,,1166003,HierDy8l8wvsyu,xz0wvylm2u,ms1000199,motor,,70,img/motor_4.png,70,motor,4,59,1,0,0,,
null,,1166114,HierDy8l8wvsyu,xz0wvylm2u,ms1000199,iti,,null,img/motor_4.png,70,motor,,,,,,,
629,,1166753,HierDy8l8wvsyu,xz0wvylm2u,ms1000199,motor,,72,img/motor_5.png,72,motor,5,60,1,0,0,,
null,,1166862,HierDy8l8wvsyu,xz0wvylm2u,ms1000199,iti,,null,img/motor_5.png,72,motor,,,,,,,
688,,1167561,HierDy8l8wvsyu,xz0wvylm2u,ms1000199,motor,,75,img/motor_7.png,75,motor,7,61,1,0,0,,
null,,1167671,HierDy8l8wvsyu,xz0wvylm2u,ms1000199,iti,,null,img/motor_7.png,75,motor,,,,,,,
503,,1168184,HierDy8l8wvsyu,xz0wvylm2u,ms1000199,motor,,75,img/motor_7.png,75,motor,7,62,1,0,0,,
null,,1168294,HierDy8l8wvsyu,xz0wvylm2u,ms1000199,iti,,null,img/motor_7.png,75,motor,,,,,,,
909,,1169211,HierDy8l8wvsyu,xz0wvylm2u,ms1000199,motor,,68,img/motor_3.png,68,motor,3,63,1,0,0,,
null,,1169322,HierDy8l8wvsyu,xz0wvylm2u,ms1000199,iti,,null,img/motor_3.png,68,motor,,,,,,,
554,,1169885,HierDy8l8wvsyu,xz0wvylm2u,ms1000199,motor,,72,img/motor_5.png,72,motor,5,64,1,0,0,,
null,,1169996,HierDy8l8wvsyu,xz0wvylm2u,ms1000199,iti,,null,img/motor_5.png,72,motor,,,,,,,
575,,1170579,HierDy8l8wvsyu,xz0wvylm2u,ms1000199,motor,,75,img/motor_7.png,75,motor,7,65,1,0,0,,
null,,1170690,HierDy8l8wvsyu,xz0wvylm2u,ms1000199,iti,,null,img/motor_7.png,75,motor,,,,,,,
513,,1171212,HierDy8l8wvsyu,xz0wvylm2u,ms1000199,motor,,74,img/motor_6.png,74,motor,6,66,1,0,0,,
null,,1171323,HierDy8l8wvsyu,xz0wvylm2u,ms1000199,iti,,null,img/motor_6.png,74,motor,,,,,,,
737,,1172070,HierDy8l8wvsyu,xz0wvylm2u,ms1000199,motor,,68,img/motor_3.png,68,motor,3,67,1,0,0,,
null,,1172180,HierDy8l8wvsyu,xz0wvylm2u,ms1000199,iti,,null,img/motor_3.png,68,motor,,,,,,,
426,,1172616,HierDy8l8wvsyu,xz0wvylm2u,ms1000199,motor,,83,img/motor_2.png,83,motor,2,68,1,0,0,,
null,,1172727,HierDy8l8wvsyu,xz0wvylm2u,ms1000199,iti,,null,img/motor_2.png,83,motor,,,,,,,
448,,1173183,HierDy8l8wvsyu,xz0wvylm2u,ms1000199,motor,,70,img/motor_4.png,70,motor,4,69,1,0,0,,
null,,1173293,HierDy8l8wvsyu,xz0wvylm2u,ms1000199,iti,,null,img/motor_4.png,70,motor,,,,,,,
509,,1173812,HierDy8l8wvsyu,xz0wvylm2u,ms1000199,motor,,76,img/motor_8.png,76,motor,8,70,1,0,0,,
null,,1173922,HierDy8l8wvsyu,xz0wvylm2u,ms1000199,iti,,null,img/motor_8.png,76,motor,,,,,,,
525,,1174456,HierDy8l8wvsyu,xz0wvylm2u,ms1000199,motor,,70,img/motor_4.png,70,motor,4,71,1,0,0,,
null,,1174565,HierDy8l8wvsyu,xz0wvylm2u,ms1000199,iti,,null,img/motor_4.png,70,motor,,,,,,,
562,,1175137,HierDy8l8wvsyu,xz0wvylm2u,ms1000199,motor,,83,img/motor_2.png,83,motor,2,72,1,0,0,,
null,,1175246,HierDy8l8wvsyu,xz0wvylm2u,ms1000199,iti,,null,img/motor_2.png,83,motor,,,,,,,
434,,1175690,HierDy8l8wvsyu,xz0wvylm2u,ms1000199,motor,,68,img/motor_3.png,68,motor,3,73,1,0,0,,
null,,1175800,HierDy8l8wvsyu,xz0wvylm2u,ms1000199,iti,,null,img/motor_3.png,68,motor,,,,,,,
342,,1176151,HierDy8l8wvsyu,xz0wvylm2u,ms1000199,motor,,68,img/motor_3.png,68,motor,3,74,1,0,0,,
null,,1176261,HierDy8l8wvsyu,xz0wvylm2u,ms1000199,iti,,null,img/motor_3.png,68,motor,,,,,,,
535,,1176805,HierDy8l8wvsyu,xz0wvylm2u,ms1000199,motor,,72,img/motor_5.png,72,motor,5,75,1,0,0,,
null,,1176916,HierDy8l8wvsyu,xz0wvylm2u,ms1000199,iti,,null,img/motor_5.png,72,motor,,,,,,,
473,,1177398,HierDy8l8wvsyu,xz0wvylm2u,ms1000199,motor,,83,img/motor_2.png,83,motor,2,76,1,0,0,,
null,,1177509,HierDy8l8wvsyu,xz0wvylm2u,ms1000199,iti,,null,img/motor_2.png,83,motor,,,,,,,
370,,1177891,HierDy8l8wvsyu,xz0wvylm2u,ms1000199,motor,,70,img/motor_4.png,70,motor,4,77,1,0,0,,
null,,1178001,HierDy8l8wvsyu,xz0wvylm2u,ms1000199,iti,,null,img/motor_4.png,70,motor,,,,,,,
525,,1178537,HierDy8l8wvsyu,xz0wvylm2u,ms1000199,motor,,74,img/motor_5.png,72,motor,5,78,0,1,0,,
319,,1178865,HierDy8l8wvsyu,xz0wvylm2u,ms1000199,motorRepeat,,72,img/motor_5.png,72,motor,5,78,1,0,0,,
null,,1178976,HierDy8l8wvsyu,xz0wvylm2u,ms1000199,iti,,null,img/motor_5.png,72,motor,,,,,,,
507,,1179491,HierDy8l8wvsyu,xz0wvylm2u,ms1000199,motor,,83,img/motor_2.png,83,motor,2,79,1,0,0,,
null,,1179601,HierDy8l8wvsyu,xz0wvylm2u,ms1000199,iti,,null,img/motor_2.png,83,motor,,,,,,,
451,,1180063,HierDy8l8wvsyu,xz0wvylm2u,ms1000199,motor,,65,img/motor_1.png,65,motor,1,80,1,0,0,,
null,,1180174,HierDy8l8wvsyu,xz0wvylm2u,ms1000199,iti,,null,img/motor_1.png,65,motor,,,,,,,
477,,1180661,HierDy8l8wvsyu,xz0wvylm2u,ms1000199,motor,,76,img/motor_8.png,76,motor,8,81,1,0,0,,
null,,1180771,HierDy8l8wvsyu,xz0wvylm2u,ms1000199,iti,,null,img/motor_8.png,76,motor,,,,,,,
590,,1181372,HierDy8l8wvsyu,xz0wvylm2u,ms1000199,motor,,70,img/motor_4.png,70,motor,4,82,1,0,0,,
null,,1181481,HierDy8l8wvsyu,xz0wvylm2u,ms1000199,iti,,null,img/motor_4.png,70,motor,,,,,,,
313,,1181804,HierDy8l8wvsyu,xz0wvylm2u,ms1000199,motor,,70,img/motor_4.png,70,motor,4,83,1,0,0,,
null,,1181914,HierDy8l8wvsyu,xz0wvylm2u,ms1000199,iti,,null,img/motor_4.png,70,motor,,,,,,,
495,,1182420,HierDy8l8wvsyu,xz0wvylm2u,ms1000199,motor,,83,img/motor_2.png,83,motor,2,84,1,0,0,,
null,,1182530,HierDy8l8wvsyu,xz0wvylm2u,ms1000199,iti,,null,img/motor_2.png,83,motor,,,,,,,
540,,1183081,HierDy8l8wvsyu,xz0wvylm2u,ms1000199,motor,,75,img/motor_7.png,75,motor,7,85,1,0,0,,
null,,1183193,HierDy8l8wvsyu,xz0wvylm2u,ms1000199,iti,,null,img/motor_7.png,75,motor,,,,,,,
342,,1183543,HierDy8l8wvsyu,xz0wvylm2u,ms1000199,motor,,74,img/motor_6.png,74,motor,6,86,1,0,0,,
null,,1183654,HierDy8l8wvsyu,xz0wvylm2u,ms1000199,iti,,null,img/motor_6.png,74,motor,,,,,,,
468,,1184132,HierDy8l8wvsyu,xz0wvylm2u,ms1000199,motor,,65,img/motor_1.png,65,motor,1,87,1,0,0,,
null,,1184243,HierDy8l8wvsyu,xz0wvylm2u,ms1000199,iti,,null,img/motor_1.png,65,motor,,,,,,,
491,,1184745,HierDy8l8wvsyu,xz0wvylm2u,ms1000199,motor,,76,img/motor_8.png,76,motor,8,88,1,0,0,,
null,,1184855,HierDy8l8wvsyu,xz0wvylm2u,ms1000199,iti,,null,img/motor_8.png,76,motor,,,,,,,
347,,1185211,HierDy8l8wvsyu,xz0wvylm2u,ms1000199,motor,,76,img/motor_8.png,76,motor,8,89,1,0,0,,
null,,1185321,HierDy8l8wvsyu,xz0wvylm2u,ms1000199,iti,,null,img/motor_8.png,76,motor,,,,,,,
465,,1185797,HierDy8l8wvsyu,xz0wvylm2u,ms1000199,motor,,83,img/motor_2.png,83,motor,2,90,1,0,0,,
null,,1185906,HierDy8l8wvsyu,xz0wvylm2u,ms1000199,iti,,null,img/motor_2.png,83,motor,,,,,,,
383,,1186300,HierDy8l8wvsyu,xz0wvylm2u,ms1000199,motor,,76,img/motor_8.png,76,motor,8,91,1,0,0,,
null,,1186411,HierDy8l8wvsyu,xz0wvylm2u,ms1000199,iti,,null,img/motor_8.png,76,motor,,,,,,,
355,,1186777,HierDy8l8wvsyu,xz0wvylm2u,ms1000199,motor,,83,img/motor_3.png,68,motor,3,92,0,1,0,,
256,,1187043,HierDy8l8wvsyu,xz0wvylm2u,ms1000199,motorRepeat,,68,img/motor_3.png,68,motor,3,92,1,0,0,,
null,,1187154,HierDy8l8wvsyu,xz0wvylm2u,ms1000199,iti,,null,img/motor_3.png,68,motor,,,,,,,
475,,1187640,HierDy8l8wvsyu,xz0wvylm2u,ms1000199,motor,,83,img/motor_2.png,83,motor,2,93,1,0,0,,
null,,1187750,HierDy8l8wvsyu,xz0wvylm2u,ms1000199,iti,,null,img/motor_2.png,83,motor,,,,,,,
761,,1188520,HierDy8l8wvsyu,xz0wvylm2u,ms1000199,motor,,75,img/motor_7.png,75,motor,7,94,1,0,0,,
null,,1188631,HierDy8l8wvsyu,xz0wvylm2u,ms1000199,iti,,null,img/motor_7.png,75,motor,,,,,,,
458,,1189099,HierDy8l8wvsyu,xz0wvylm2u,ms1000199,motor,,83,img/motor_2.png,83,motor,2,95,1,0,0,,
null,,1189209,HierDy8l8wvsyu,xz0wvylm2u,ms1000199,iti,,null,img/motor_2.png,83,motor,,,,,,,
354,,1189573,HierDy8l8wvsyu,xz0wvylm2u,ms1000199,motor,,83,img/motor_2.png,83,motor,2,96,1,0,0,,
null,,1189683,HierDy8l8wvsyu,xz0wvylm2u,ms1000199,iti,,null,img/motor_2.png,83,motor,,,,,,,
701,,1190392,HierDy8l8wvsyu,xz0wvylm2u,ms1000199,motor,,74,img/motor_6.png,74,motor,6,97,1,0,0,,
null,,1190502,HierDy8l8wvsyu,xz0wvylm2u,ms1000199,iti,,null,img/motor_6.png,74,motor,,,,,,,
437,,1190949,HierDy8l8wvsyu,xz0wvylm2u,ms1000199,motor,,72,img/motor_5.png,72,motor,5,98,1,0,0,,
null,,1191059,HierDy8l8wvsyu,xz0wvylm2u,ms1000199,iti,,null,img/motor_5.png,72,motor,,,,,,,
462,,1191533,HierDy8l8wvsyu,xz0wvylm2u,ms1000199,motor,,76,img/motor_8.png,76,motor,8,99,1,0,0,,
null,,1191642,HierDy8l8wvsyu,xz0wvylm2u,ms1000199,iti,,null,img/motor_8.png,76,motor,,,,,,,
838,,1192490,HierDy8l8wvsyu,xz0wvylm2u,ms1000199,motor,,70,img/motor_3.png,68,motor,3,100,0,1,0,,
206,,1192705,HierDy8l8wvsyu,xz0wvylm2u,ms1000199,motorRepeat,,68,img/motor_3.png,68,motor,3,100,1,0,0,,
null,,1192815,HierDy8l8wvsyu,xz0wvylm2u,ms1000199,iti,,null,img/motor_3.png,68,motor,,,,,,,
767,,1193592,HierDy8l8wvsyu,xz0wvylm2u,ms1000199,motor,,75,img/motor_7.png,75,motor,7,101,1,0,0,,
null,,1193702,HierDy8l8wvsyu,xz0wvylm2u,ms1000199,iti,,null,img/motor_7.png,75,motor,,,,,,,
724,,1194436,HierDy8l8wvsyu,xz0wvylm2u,ms1000199,motor,,72,img/motor_5.png,72,motor,5,102,1,0,0,,
null,,1194546,HierDy8l8wvsyu,xz0wvylm2u,ms1000199,iti,,null,img/motor_5.png,72,motor,,,,,,,
525,,1195081,HierDy8l8wvsyu,xz0wvylm2u,ms1000199,motor,,74,img/motor_6.png,74,motor,6,103,1,0,0,,
null,,1195192,HierDy8l8wvsyu,xz0wvylm2u,ms1000199,iti,,null,img/motor_6.png,74,motor,,,,,,,
548,,1195747,HierDy8l8wvsyu,xz0wvylm2u,ms1000199,motor,,65,img/motor_1.png,65,motor,1,104,1,0,0,,
null,,1195858,HierDy8l8wvsyu,xz0wvylm2u,ms1000199,iti,,null,img/motor_1.png,65,motor,,,,,,,
433,,1196301,HierDy8l8wvsyu,xz0wvylm2u,ms1000199,motor,,83,img/motor_2.png,83,motor,2,105,1,0,0,,
null,,1196411,HierDy8l8wvsyu,xz0wvylm2u,ms1000199,iti,,null,img/motor_2.png,83,motor,,,,,,,
358,,1196779,HierDy8l8wvsyu,xz0wvylm2u,ms1000199,motor,,68,img/motor_3.png,68,motor,3,106,1,0,0,,
null,,1196889,HierDy8l8wvsyu,xz0wvylm2u,ms1000199,iti,,null,img/motor_3.png,68,motor,,,,,,,
407,,1197306,HierDy8l8wvsyu,xz0wvylm2u,ms1000199,motor,,65,img/motor_1.png,65,motor,1,107,1,0,0,,
null,,1197416,HierDy8l8wvsyu,xz0wvylm2u,ms1000199,iti,,null,img/motor_1.png,65,motor,,,,,,,
499,,1197924,HierDy8l8wvsyu,xz0wvylm2u,ms1000199,motor,,72,img/motor_5.png,72,motor,5,108,1,0,0,,
null,,1198034,HierDy8l8wvsyu,xz0wvylm2u,ms1000199,iti,,null,img/motor_5.png,72,motor,,,,,,,
703,,1198746,HierDy8l8wvsyu,xz0wvylm2u,ms1000199,motor,,68,img/motor_3.png,68,motor,3,109,1,0,0,,
null,,1198856,HierDy8l8wvsyu,xz0wvylm2u,ms1000199,iti,,null,img/motor_3.png,68,motor,,,,,,,
439,,1199305,HierDy8l8wvsyu,xz0wvylm2u,ms1000199,motor,,65,img/motor_1.png,65,motor,1,110,1,0,0,,
null,,1199416,HierDy8l8wvsyu,xz0wvylm2u,ms1000199,iti,,null,img/motor_1.png,65,motor,,,,,,,
517,,1199941,HierDy8l8wvsyu,xz0wvylm2u,ms1000199,motor,,72,img/motor_5.png,72,motor,5,111,1,0,0,,
null,,1200051,HierDy8l8wvsyu,xz0wvylm2u,ms1000199,iti,,null,img/motor_5.png,72,motor,,,,,,,
604,,1200665,HierDy8l8wvsyu,xz0wvylm2u,ms1000199,motor,,75,img/motor_7.png,75,motor,7,112,1,0,0,,
null,,1200776,HierDy8l8wvsyu,xz0wvylm2u,ms1000199,iti,,null,img/motor_7.png,75,motor,,,,,,,
546,,1201332,HierDy8l8wvsyu,xz0wvylm2u,ms1000199,motor,,70,img/motor_4.png,70,motor,4,113,1,0,0,,
null,,1201442,HierDy8l8wvsyu,xz0wvylm2u,ms1000199,iti,,null,img/motor_4.png,70,motor,,,,,,,
358,,1201809,HierDy8l8wvsyu,xz0wvylm2u,ms1000199,motor,,70,img/motor_4.png,70,motor,4,114,1,0,0,,
null,,1201919,HierDy8l8wvsyu,xz0wvylm2u,ms1000199,iti,,null,img/motor_4.png,70,motor,,,,,,,
548,,1202476,HierDy8l8wvsyu,xz0wvylm2u,ms1000199,motor,,74,img/motor_6.png,74,motor,6,115,1,0,0,,
null,,1202588,HierDy8l8wvsyu,xz0wvylm2u,ms1000199,iti,,null,img/motor_6.png,74,motor,,,,,,,
502,,1203100,HierDy8l8wvsyu,xz0wvylm2u,ms1000199,motor,,70,img/motor_4.png,70,motor,4,116,1,0,0,,
null,,1203210,HierDy8l8wvsyu,xz0wvylm2u,ms1000199,iti,,null,img/motor_4.png,70,motor,,,,,,,
430,,1203649,HierDy8l8wvsyu,xz0wvylm2u,ms1000199,motor,,68,img/motor_3.png,68,motor,3,117,1,0,0,,
null,,1203758,HierDy8l8wvsyu,xz0wvylm2u,ms1000199,iti,,null,img/motor_3.png,68,motor,,,,,,,
477,,1204245,HierDy8l8wvsyu,xz0wvylm2u,ms1000199,motor,,76,img/motor_8.png,76,motor,8,118,1,0,0,,
null,,1204355,HierDy8l8wvsyu,xz0wvylm2u,ms1000199,iti,,null,img/motor_8.png,76,motor,,,,,,,
1000,,1205364,HierDy8l8wvsyu,xz0wvylm2u,ms1000199,motor,,74,img/motor_6.png,74,motor,6,119,1,0,0,,
null,,1205475,HierDy8l8wvsyu,xz0wvylm2u,ms1000199,iti,,null,img/motor_6.png,74,motor,,,,,,,
456,,1205942,HierDy8l8wvsyu,xz0wvylm2u,ms1000199,motor,,74,img/motor_6.png,74,motor,6,120,1,0,0,,
null,,1206052,HierDy8l8wvsyu,xz0wvylm2u,ms1000199,iti,,null,img/motor_6.png,74,motor,,,,,,,
730,,1206792,HierDy8l8wvsyu,xz0wvylm2u,ms1000199,motor,,83,img/motor_2.png,83,motor,2,121,1,0,0,,
null,,1206902,HierDy8l8wvsyu,xz0wvylm2u,ms1000199,iti,,null,img/motor_2.png,83,motor,,,,,,,
518,,1207429,HierDy8l8wvsyu,xz0wvylm2u,ms1000199,motor,,72,img/motor_5.png,72,motor,5,122,1,0,0,,
null,,1207539,HierDy8l8wvsyu,xz0wvylm2u,ms1000199,iti,,null,img/motor_5.png,72,motor,,,,,,,
549,,1208098,HierDy8l8wvsyu,xz0wvylm2u,ms1000199,motor,,75,img/motor_7.png,75,motor,7,123,1,0,0,,
null,,1208208,HierDy8l8wvsyu,xz0wvylm2u,ms1000199,iti,,null,img/motor_7.png,75,motor,,,,,,,
380,,1208598,HierDy8l8wvsyu,xz0wvylm2u,ms1000199,motor,,74,img/motor_6.png,74,motor,6,124,1,0,0,,
null,,1208708,HierDy8l8wvsyu,xz0wvylm2u,ms1000199,iti,,null,img/motor_6.png,74,motor,,,,,,,
394,,1209111,HierDy8l8wvsyu,xz0wvylm2u,ms1000199,motor,,76,img/motor_8.png,76,motor,8,125,1,0,0,,
null,,1209222,HierDy8l8wvsyu,xz0wvylm2u,ms1000199,iti,,null,img/motor_8.png,76,motor,,,,,,,
411,,1209643,HierDy8l8wvsyu,xz0wvylm2u,ms1000199,motor,,75,img/motor_7.png,75,motor,7,126,1,0,0,,
null,,1209753,HierDy8l8wvsyu,xz0wvylm2u,ms1000199,iti,,null,img/motor_7.png,75,motor,,,,,,,
348,,1210110,HierDy8l8wvsyu,xz0wvylm2u,ms1000199,motor,,76,img/motor_8.png,76,motor,8,127,1,0,0,,
null,,1210220,HierDy8l8wvsyu,xz0wvylm2u,ms1000199,iti,,null,img/motor_8.png,76,motor,,,,,,,
323,,1210552,HierDy8l8wvsyu,xz0wvylm2u,ms1000199,motor,,75,img/motor_7.png,75,motor,7,128,1,0,0,,
null,,1210663,HierDy8l8wvsyu,xz0wvylm2u,ms1000199,iti,,null,img/motor_7.png,75,motor,,,,,,,
301,,1210975,HierDy8l8wvsyu,xz0wvylm2u,ms1000199,motor,,76,img/motor_8.png,76,motor,8,129,1,0,0,,
null,,1211085,HierDy8l8wvsyu,xz0wvylm2u,ms1000199,iti,,null,img/motor_8.png,76,motor,,,,,,,
346,,1211440,HierDy8l8wvsyu,xz0wvylm2u,ms1000199,motor,,76,img/motor_8.png,76,motor,8,130,1,0,0,,
null,,1211549,HierDy8l8wvsyu,xz0wvylm2u,ms1000199,iti,,null,img/motor_8.png,76,motor,,,,,,,
463,,1212023,HierDy8l8wvsyu,xz0wvylm2u,ms1000199,motor,,65,img/motor_1.png,65,motor,1,131,1,0,0,,
null,,1212133,HierDy8l8wvsyu,xz0wvylm2u,ms1000199,iti,,null,img/motor_1.png,65,motor,,,,,,,
418,,1212561,HierDy8l8wvsyu,xz0wvylm2u,ms1000199,motor,,76,img/motor_8.png,76,motor,8,132,1,0,0,,
null,,1212671,HierDy8l8wvsyu,xz0wvylm2u,ms1000199,iti,,null,img/motor_8.png,76,motor,,,,,,,
558,,1213239,HierDy8l8wvsyu,xz0wvylm2u,ms1000199,motor,,70,img/motor_4.png,70,motor,4,133,1,0,0,,
null,,1213349,HierDy8l8wvsyu,xz0wvylm2u,ms1000199,iti,,null,img/motor_4.png,70,motor,,,,,,,
394,,1213752,HierDy8l8wvsyu,xz0wvylm2u,ms1000199,motor,,65,img/motor_1.png,65,motor,1,134,1,0,0,,
null,,1213862,HierDy8l8wvsyu,xz0wvylm2u,ms1000199,iti,,null,img/motor_1.png,65,motor,,,,,,,
451,,1214323,HierDy8l8wvsyu,xz0wvylm2u,ms1000199,motor,,68,img/motor_3.png,68,motor,3,135,1,0,0,,
null,,1214433,HierDy8l8wvsyu,xz0wvylm2u,ms1000199,iti,,null,img/motor_3.png,68,motor,,,,,,,
706,,1215148,HierDy8l8wvsyu,xz0wvylm2u,ms1000199,motor,,74,img/motor_6.png,74,motor,6,136,1,0,0,,
null,,1215258,HierDy8l8wvsyu,xz0wvylm2u,ms1000199,iti,,null,img/motor_6.png,74,motor,,,,,,,
430,,1215699,HierDy8l8wvsyu,xz0wvylm2u,ms1000199,motor,,83,img/motor_2.png,83,motor,2,137,1,0,0,,
null,,1215809,HierDy8l8wvsyu,xz0wvylm2u,ms1000199,iti,,null,img/motor_2.png,83,motor,,,,,,,
417,,1216236,HierDy8l8wvsyu,xz0wvylm2u,ms1000199,motor,,65,img/motor_1.png,65,motor,1,138,1,0,0,,
null,,1216346,HierDy8l8wvsyu,xz0wvylm2u,ms1000199,iti,,null,img/motor_1.png,65,motor,,,,,,,
484,,1216839,HierDy8l8wvsyu,xz0wvylm2u,ms1000199,motor,,68,img/motor_3.png,68,motor,3,139,1,0,0,,
null,,1216950,HierDy8l8wvsyu,xz0wvylm2u,ms1000199,iti,,null,img/motor_3.png,68,motor,,,,,,,
334,,1217296,HierDy8l8wvsyu,xz0wvylm2u,ms1000199,motor,,83,img/motor_2.png,83,motor,2,140,1,0,0,,
null,,1217406,HierDy8l8wvsyu,xz0wvylm2u,ms1000199,iti,,null,img/motor_2.png,83,motor,,,,,,,
493,,1217908,HierDy8l8wvsyu,xz0wvylm2u,ms1000199,motor,,72,img/motor_5.png,72,motor,5,141,1,0,0,,
null,,1218018,HierDy8l8wvsyu,xz0wvylm2u,ms1000199,iti,,null,img/motor_5.png,72,motor,,,,,,,
455,,1218483,HierDy8l8wvsyu,xz0wvylm2u,ms1000199,motor,,75,img/motor_7.png,75,motor,7,142,1,0,0,,
null,,1218593,HierDy8l8wvsyu,xz0wvylm2u,ms1000199,iti,,null,img/motor_7.png,75,motor,,,,,,,
384,,1218986,HierDy8l8wvsyu,xz0wvylm2u,ms1000199,motor,,76,img/motor_8.png,76,motor,8,143,1,0,0,,
null,,1219098,HierDy8l8wvsyu,xz0wvylm2u,ms1000199,iti,,null,img/motor_8.png,76,motor,,,,,,,
520,,1219629,HierDy8l8wvsyu,xz0wvylm2u,ms1000199,motor,,70,img/motor_4.png,70,motor,4,144,1,0,0,,
null,,1219738,HierDy8l8wvsyu,xz0wvylm2u,ms1000199,iti,,null,img/motor_4.png,70,motor,,,,,,,
442,,1220190,HierDy8l8wvsyu,xz0wvylm2u,ms1000199,motor,,65,img/motor_1.png,65,motor,1,145,1,0,0,,
null,,1220300,HierDy8l8wvsyu,xz0wvylm2u,ms1000199,iti,,null,img/motor_1.png,65,motor,,,,,,,
445,,1220754,HierDy8l8wvsyu,xz0wvylm2u,ms1000199,motor,,72,img/motor_5.png,72,motor,5,146,1,0,0,,
null,,1220864,HierDy8l8wvsyu,xz0wvylm2u,ms1000199,iti,,null,img/motor_5.png,72,motor,,,,,,,
639,,1221513,HierDy8l8wvsyu,xz0wvylm2u,ms1000199,motor,,68,img/motor_3.png,68,motor,3,147,1,0,0,,
null,,1221623,HierDy8l8wvsyu,xz0wvylm2u,ms1000199,iti,,null,img/motor_3.png,68,motor,,,,,,,
407,,1222041,HierDy8l8wvsyu,xz0wvylm2u,ms1000199,motor,,65,img/motor_1.png,65,motor,1,148,1,0,0,,
null,,1222150,HierDy8l8wvsyu,xz0wvylm2u,ms1000199,iti,,null,img/motor_1.png,65,motor,,,,,,,
414,,1222574,HierDy8l8wvsyu,xz0wvylm2u,ms1000199,motor,,83,img/motor_2.png,83,motor,2,149,1,0,0,,
null,,1222686,HierDy8l8wvsyu,xz0wvylm2u,ms1000199,iti,,null,img/motor_2.png,83,motor,,,,,,,
421,,1223115,HierDy8l8wvsyu,xz0wvylm2u,ms1000199,motor,,70,img/motor_4.png,70,motor,4,150,1,0,0,,
null,,1223227,HierDy8l8wvsyu,xz0wvylm2u,ms1000199,iti,,null,img/motor_4.png,70,motor,,,,,,,
648,,1223883,HierDy8l8wvsyu,xz0wvylm2u,ms1000199,motor,,74,img/motor_6.png,74,motor,6,151,1,0,0,,
null,,1223993,HierDy8l8wvsyu,xz0wvylm2u,ms1000199,iti,,null,img/motor_6.png,74,motor,,,,,,,
515,,1224517,HierDy8l8wvsyu,xz0wvylm2u,ms1000199,motor,,83,img/motor_2.png,83,motor,2,152,1,0,0,,
null,,1224628,HierDy8l8wvsyu,xz0wvylm2u,ms1000199,iti,,null,img/motor_2.png,83,motor,,,,,,,
561,,1225200,HierDy8l8wvsyu,xz0wvylm2u,ms1000199,motor,,74,img/motor_6.png,74,motor,6,153,1,0,0,,
80,,1225309,HierDy8l8wvsyu,xz0wvylm2u,ms1000199,iti,,70,img/motor_6.png,74,motor,,,,,,,
683,,1226003,HierDy8l8wvsyu,xz0wvylm2u,ms1000199,motor,,75,img/motor_7.png,75,motor,7,154,1,0,0,,
null,,1226114,HierDy8l8wvsyu,xz0wvylm2u,ms1000199,iti,,null,img/motor_7.png,75,motor,,,,,,,
462,,1226584,HierDy8l8wvsyu,xz0wvylm2u,ms1000199,motor,,65,img/motor_1.png,65,motor,1,155,1,0,0,,
null,,1226695,HierDy8l8wvsyu,xz0wvylm2u,ms1000199,iti,,null,img/motor_1.png,65,motor,,,,,,,
462,,1227168,HierDy8l8wvsyu,xz0wvylm2u,ms1000199,motor,,76,img/motor_8.png,76,motor,8,156,1,0,0,,
null,,1227279,HierDy8l8wvsyu,xz0wvylm2u,ms1000199,iti,,null,img/motor_8.png,76,motor,,,,,,,
796,,1228085,HierDy8l8wvsyu,xz0wvylm2u,ms1000199,motor,,70,img/motor_3.png,68,motor,3,157,0,1,0,,
303,,1228398,HierDy8l8wvsyu,xz0wvylm2u,ms1000199,motorRepeat,,68,img/motor_3.png,68,motor,3,157,1,0,0,,
null,,1228508,HierDy8l8wvsyu,xz0wvylm2u,ms1000199,iti,,null,img/motor_3.png,68,motor,,,,,,,
386,,1228904,HierDy8l8wvsyu,xz0wvylm2u,ms1000199,motor,,83,img/motor_2.png,83,motor,2,158,1,0,0,,
null,,1229014,HierDy8l8wvsyu,xz0wvylm2u,ms1000199,iti,,null,img/motor_2.png,83,motor,,,,,,,
492,,1229516,HierDy8l8wvsyu,xz0wvylm2u,ms1000199,motor,,65,img/motor_1.png,65,motor,1,159,1,0,0,,
null,,1229626,HierDy8l8wvsyu,xz0wvylm2u,ms1000199,iti,,null,img/motor_1.png,65,motor,,,,,,,
738,,1230374,HierDy8l8wvsyu,xz0wvylm2u,ms1000199,motor,,72,img/motor_5.png,72,motor,5,160,1,0,0,,
null,,1230485,HierDy8l8wvsyu,xz0wvylm2u,ms1000199,iti,,null,img/motor_5.png,72,motor,,,,,,,
492,,1230987,HierDy8l8wvsyu,xz0wvylm2u,ms1000199,motor,,83,img/motor_2.png,83,motor,2,161,1,0,0,,
null,,1231097,HierDy8l8wvsyu,xz0wvylm2u,ms1000199,iti,,null,img/motor_2.png,83,motor,,,,,,,
307,,1231414,HierDy8l8wvsyu,xz0wvylm2u,ms1000199,motor,,83,img/motor_2.png,83,motor,2,162,1,0,0,,
null,,1231524,HierDy8l8wvsyu,xz0wvylm2u,ms1000199,iti,,null,img/motor_2.png,83,motor,,,,,,,
655,,1232190,HierDy8l8wvsyu,xz0wvylm2u,ms1000199,motor,,75,img/motor_7.png,75,motor,7,163,1,0,0,,
null,,1232300,HierDy8l8wvsyu,xz0wvylm2u,ms1000199,iti,,null,img/motor_7.png,75,motor,,,,,,,
420,,1232731,HierDy8l8wvsyu,xz0wvylm2u,ms1000199,motor,,74,img/motor_6.png,74,motor,6,164,1,0,0,,
null,,1232841,HierDy8l8wvsyu,xz0wvylm2u,ms1000199,iti,,null,img/motor_6.png,74,motor,,,,,,,
3098,,1235949,HierDy8l8wvsyu,xz0wvylm2u,ms1000199,motor,,70,img/motor_4.png,70,motor,4,165,1,0,0,,
null,,1236060,HierDy8l8wvsyu,xz0wvylm2u,ms1000199,iti,,null,img/motor_4.png,70,motor,,,,,,,
537,,1236605,HierDy8l8wvsyu,xz0wvylm2u,ms1000199,motor,,72,img/motor_5.png,72,motor,5,166,1,0,0,,
null,,1236716,HierDy8l8wvsyu,xz0wvylm2u,ms1000199,iti,,null,img/motor_5.png,72,motor,,,,,,,
516,,1237242,HierDy8l8wvsyu,xz0wvylm2u,ms1000199,motor,,76,img/motor_8.png,76,motor,8,167,1,0,0,,
null,,1237352,HierDy8l8wvsyu,xz0wvylm2u,ms1000199,iti,,null,img/motor_8.png,76,motor,,,,,,,
549,,1237912,HierDy8l8wvsyu,xz0wvylm2u,ms1000199,motor,,75,img/motor_7.png,75,motor,7,168,1,0,0,,
null,,1238022,HierDy8l8wvsyu,xz0wvylm2u,ms1000199,iti,,null,img/motor_7.png,75,motor,,,,,,,
526,,1238559,HierDy8l8wvsyu,xz0wvylm2u,ms1000199,motor,,70,img/motor_4.png,70,motor,4,169,1,0,0,,
null,,1238669,HierDy8l8wvsyu,xz0wvylm2u,ms1000199,iti,,null,img/motor_4.png,70,motor,,,,,,,
367,,1239047,HierDy8l8wvsyu,xz0wvylm2u,ms1000199,motor,,70,img/motor_4.png,70,motor,4,170,1,0,0,,
null,,1239156,HierDy8l8wvsyu,xz0wvylm2u,ms1000199,iti,,null,img/motor_4.png,70,motor,,,,,,,
550,,1239717,HierDy8l8wvsyu,xz0wvylm2u,ms1000199,motor,,68,img/motor_3.png,68,motor,3,171,1,0,0,,
null,,1239828,HierDy8l8wvsyu,xz0wvylm2u,ms1000199,iti,,null,img/motor_3.png,68,motor,,,,,,,
597,,1240435,HierDy8l8wvsyu,xz0wvylm2u,ms1000199,motor,,74,img/motor_6.png,74,motor,6,172,1,0,0,,
null,,1240546,HierDy8l8wvsyu,xz0wvylm2u,ms1000199,iti,,null,img/motor_6.png,74,motor,,,,,,,
434,,1240989,HierDy8l8wvsyu,xz0wvylm2u,ms1000199,motor,,72,img/motor_5.png,72,motor,5,173,1,0,0,,
null,,1241100,HierDy8l8wvsyu,xz0wvylm2u,ms1000199,iti,,null,img/motor_5.png,72,motor,,,,,,,
396,,1241505,HierDy8l8wvsyu,xz0wvylm2u,ms1000199,motor,,76,img/motor_8.png,76,motor,8,174,1,0,0,,
null,,1241616,HierDy8l8wvsyu,xz0wvylm2u,ms1000199,iti,,null,img/motor_8.png,76,motor,,,,,,,
372,,1241997,HierDy8l8wvsyu,xz0wvylm2u,ms1000199,motor,,75,img/motor_7.png,75,motor,7,175,1,0,0,,
null,,1242108,HierDy8l8wvsyu,xz0wvylm2u,ms1000199,iti,,null,img/motor_7.png,75,motor,,,,,,,
497,,1242615,HierDy8l8wvsyu,xz0wvylm2u,ms1000199,motor,,70,img/motor_4.png,70,motor,4,176,1,0,0,,
null,,1242726,HierDy8l8wvsyu,xz0wvylm2u,ms1000199,iti,,null,img/motor_4.png,70,motor,,,,,,,
366,,1243102,HierDy8l8wvsyu,xz0wvylm2u,ms1000199,motor,,68,img/motor_3.png,68,motor,3,177,1,0,0,,
null,,1243212,HierDy8l8wvsyu,xz0wvylm2u,ms1000199,iti,,null,img/motor_3.png,68,motor,,,,,,,
327,,1243548,HierDy8l8wvsyu,xz0wvylm2u,ms1000199,motor,,83,img/motor_2.png,83,motor,2,178,1,0,0,,
null,,1243659,HierDy8l8wvsyu,xz0wvylm2u,ms1000199,iti,,null,img/motor_2.png,83,motor,,,,,,,
477,,1244146,HierDy8l8wvsyu,xz0wvylm2u,ms1000199,motor,,76,img/motor_8.png,76,motor,8,179,1,0,0,,
null,,1244256,HierDy8l8wvsyu,xz0wvylm2u,ms1000199,iti,,null,img/motor_8.png,76,motor,,,,,,,
852,,1245120,HierDy8l8wvsyu,xz0wvylm2u,ms1000199,motor,,74,img/motor_6.png,74,motor,6,180,1,0,0,,
null,,1245230,HierDy8l8wvsyu,xz0wvylm2u,ms1000199,iti,,null,img/motor_6.png,74,motor,,,,,,,
408,,1245648,HierDy8l8wvsyu,xz0wvylm2u,ms1000199,motor,,72,img/motor_5.png,72,motor,5,181,1,0,0,,
null,,1245758,HierDy8l8wvsyu,xz0wvylm2u,ms1000199,iti,,null,img/motor_5.png,72,motor,,,,,,,
411,,1246180,HierDy8l8wvsyu,xz0wvylm2u,ms1000199,motor,,75,img/motor_7.png,75,motor,7,182,1,0,0,,
null,,1246290,HierDy8l8wvsyu,xz0wvylm2u,ms1000199,iti,,null,img/motor_7.png,75,motor,,,,,,,
437,,1246738,HierDy8l8wvsyu,xz0wvylm2u,ms1000199,motor,,72,img/motor_5.png,72,motor,5,183,1,0,0,,
null,,1246848,HierDy8l8wvsyu,xz0wvylm2u,ms1000199,iti,,null,img/motor_5.png,72,motor,,,,,,,
462,,1247319,HierDy8l8wvsyu,xz0wvylm2u,ms1000199,motor,,70,img/motor_4.png,70,motor,4,184,1,0,0,,
null,,1247429,HierDy8l8wvsyu,xz0wvylm2u,ms1000199,iti,,null,img/motor_4.png,70,motor,,,,,,,
519,,1247958,HierDy8l8wvsyu,xz0wvylm2u,ms1000199,motor,,72,img/motor_5.png,72,motor,5,185,1,0,0,,
null,,1248068,HierDy8l8wvsyu,xz0wvylm2u,ms1000199,iti,,null,img/motor_5.png,72,motor,,,,,,,
456,,1248536,HierDy8l8wvsyu,xz0wvylm2u,ms1000199,motor,,65,img/motor_1.png,65,motor,1,186,1,0,0,,
null,,1248645,HierDy8l8wvsyu,xz0wvylm2u,ms1000199,iti,,null,img/motor_1.png,65,motor,,,,,,,
411,,1249066,HierDy8l8wvsyu,xz0wvylm2u,ms1000199,motor,,70,img/motor_3.png,68,motor,3,187,0,1,0,,
444,,1249519,HierDy8l8wvsyu,xz0wvylm2u,ms1000199,motorRepeat,,68,img/motor_3.png,68,motor,3,187,1,0,0,,
null,,1249631,HierDy8l8wvsyu,xz0wvylm2u,ms1000199,iti,,null,img/motor_3.png,68,motor,,,,,,,
440,,1250081,HierDy8l8wvsyu,xz0wvylm2u,ms1000199,motor,,68,img/motor_3.png,68,motor,3,188,1,0,0,,
null,,1250191,HierDy8l8wvsyu,xz0wvylm2u,ms1000199,iti,,null,img/motor_3.png,68,motor,,,,,,,
452,,1250652,HierDy8l8wvsyu,xz0wvylm2u,ms1000199,motor,,76,img/motor_8.png,76,motor,8,189,1,0,0,,
null,,1250763,HierDy8l8wvsyu,xz0wvylm2u,ms1000199,iti,,null,img/motor_8.png,76,motor,,,,,,,
372,,1251144,HierDy8l8wvsyu,xz0wvylm2u,ms1000199,motor,,75,img/motor_7.png,75,motor,7,190,1,0,0,,
null,,1251254,HierDy8l8wvsyu,xz0wvylm2u,ms1000199,iti,,null,img/motor_7.png,75,motor,,,,,,,
402,,1251667,HierDy8l8wvsyu,xz0wvylm2u,ms1000199,motor,,65,img/motor_1.png,65,motor,1,191,1,0,0,,
null,,1251777,HierDy8l8wvsyu,xz0wvylm2u,ms1000199,iti,,null,img/motor_1.png,65,motor,,,,,,,
433,,1252218,HierDy8l8wvsyu,xz0wvylm2u,ms1000199,motor,,70,img/motor_4.png,70,motor,4,192,1,0,0,,
null,,1252330,HierDy8l8wvsyu,xz0wvylm2u,ms1000199,iti,,null,img/motor_4.png,70,motor,,,,,,,
583,,1252923,HierDy8l8wvsyu,xz0wvylm2u,ms1000199,motor,,74,img/motor_6.png,74,motor,6,193,1,0,0,,
null,,1253032,HierDy8l8wvsyu,xz0wvylm2u,ms1000199,iti,,null,img/motor_6.png,74,motor,,,,,,,
471,,1253514,HierDy8l8wvsyu,xz0wvylm2u,ms1000199,motor,,70,img/motor_4.png,70,motor,4,194,1,0,0,,
null,,1253624,HierDy8l8wvsyu,xz0wvylm2u,ms1000199,iti,,null,img/motor_4.png,70,motor,,,,,,,
460,,1254093,HierDy8l8wvsyu,xz0wvylm2u,ms1000199,motor,,65,img/motor_1.png,65,motor,1,195,1,0,0,,
null,,1254203,HierDy8l8wvsyu,xz0wvylm2u,ms1000199,iti,,null,img/motor_1.png,65,motor,,,,,,,
357,,1254570,HierDy8l8wvsyu,xz0wvylm2u,ms1000199,motor,,65,img/motor_1.png,65,motor,1,196,1,0,0,,
null,,1254681,HierDy8l8wvsyu,xz0wvylm2u,ms1000199,iti,,null,img/motor_1.png,65,motor,,,,,,,
655,,1255344,HierDy8l8wvsyu,xz0wvylm2u,ms1000199,motor,,75,img/motor_7.png,75,motor,7,197,1,0,0,,
null,,1255457,HierDy8l8wvsyu,xz0wvylm2u,ms1000199,iti,,null,img/motor_7.png,75,motor,,,,,,,
328,,1255793,HierDy8l8wvsyu,xz0wvylm2u,ms1000199,motor,,75,img/motor_7.png,75,motor,7,198,1,0,0,,
null,,1255903,HierDy8l8wvsyu,xz0wvylm2u,ms1000199,iti,,null,img/motor_7.png,75,motor,,,,,,,
463,,1256376,HierDy8l8wvsyu,xz0wvylm2u,ms1000199,motor,,83,img/motor_2.png,83,motor,2,199,1,0,0,,
null,,1256488,HierDy8l8wvsyu,xz0wvylm2u,ms1000199,iti,,null,img/motor_2.png,83,motor,,,,,,,
432,,1256929,HierDy8l8wvsyu,xz0wvylm2u,ms1000199,motor,,70,img/motor_4.png,70,motor,4,200,1,0,0,,
null,,1257041,HierDy8l8wvsyu,xz0wvylm2u,ms1000199,iti,,null,img/motor_4.png,70,motor,,,,,,,
410,,1257460,HierDy8l8wvsyu,xz0wvylm2u,ms1000199,motor,,76,img/motor_8.png,76,motor,8,201,1,0,0,,
null,,1257570,HierDy8l8wvsyu,xz0wvylm2u,ms1000199,iti,,null,img/motor_8.png,76,motor,,,,,,,
469,,1258048,HierDy8l8wvsyu,xz0wvylm2u,ms1000199,motor,,83,img/motor_2.png,83,motor,2,202,1,0,0,,
null,,1258159,HierDy8l8wvsyu,xz0wvylm2u,ms1000199,iti,,null,img/motor_2.png,83,motor,,,,,,,
393,,1258562,HierDy8l8wvsyu,xz0wvylm2u,ms1000199,motor,,65,img/motor_1.png,65,motor,1,203,1,0,0,,
null,,1258672,HierDy8l8wvsyu,xz0wvylm2u,ms1000199,iti,,null,img/motor_1.png,65,motor,,,,,,,
548,,1259229,HierDy8l8wvsyu,xz0wvylm2u,ms1000199,motor,,74,img/motor_6.png,74,motor,6,204,1,0,0,,
null,,1259339,HierDy8l8wvsyu,xz0wvylm2u,ms1000199,iti,,null,img/motor_6.png,74,motor,,,,,,,
414,,1259764,HierDy8l8wvsyu,xz0wvylm2u,ms1000199,motor,,70,img/motor_4.png,70,motor,4,205,1,0,0,,
null,,1259874,HierDy8l8wvsyu,xz0wvylm2u,ms1000199,iti,,null,img/motor_4.png,70,motor,,,,,,,
337,,1260221,HierDy8l8wvsyu,xz0wvylm2u,ms1000199,motor,,68,img/motor_3.png,68,motor,3,206,1,0,0,,
null,,1260331,HierDy8l8wvsyu,xz0wvylm2u,ms1000199,iti,,null,img/motor_3.png,68,motor,,,,,,,
510,,1260851,HierDy8l8wvsyu,xz0wvylm2u,ms1000199,motor,,75,img/motor_7.png,75,motor,7,207,1,0,0,,
null,,1260961,HierDy8l8wvsyu,xz0wvylm2u,ms1000199,iti,,null,img/motor_7.png,75,motor,,,,,,,
391,,1261361,HierDy8l8wvsyu,xz0wvylm2u,ms1000199,motor,,70,img/motor_3.png,68,motor,3,208,0,1,0,,
235,,1261608,HierDy8l8wvsyu,xz0wvylm2u,ms1000199,motorRepeat,,68,img/motor_3.png,68,motor,3,208,1,0,0,,
null,,1261718,HierDy8l8wvsyu,xz0wvylm2u,ms1000199,iti,,null,img/motor_3.png,68,motor,,,,,,,
542,,1262271,HierDy8l8wvsyu,xz0wvylm2u,ms1000199,motor,,75,img/motor_7.png,75,motor,7,209,1,0,0,,
null,,1262381,HierDy8l8wvsyu,xz0wvylm2u,ms1000199,iti,,null,img/motor_7.png,75,motor,,,,,,,
643,,1263034,HierDy8l8wvsyu,xz0wvylm2u,ms1000199,motor,,70,img/motor_4.png,70,motor,4,210,1,0,0,,
null,,1263144,HierDy8l8wvsyu,xz0wvylm2u,ms1000199,iti,,null,img/motor_4.png,70,motor,,,,,,,
632,,1263786,HierDy8l8wvsyu,xz0wvylm2u,ms1000199,motor,,72,img/motor_5.png,72,motor,5,211,1,0,0,,
null,,1263896,HierDy8l8wvsyu,xz0wvylm2u,ms1000199,iti,,null,img/motor_5.png,72,motor,,,,,,,
643,,1264549,HierDy8l8wvsyu,xz0wvylm2u,ms1000199,motor,,75,img/motor_7.png,75,motor,7,212,1,0,0,,
null,,1264659,HierDy8l8wvsyu,xz0wvylm2u,ms1000199,iti,,null,img/motor_7.png,75,motor,,,,,,,
1116,,1265785,HierDy8l8wvsyu,xz0wvylm2u,ms1000199,motor,,70,img/motor_4.png,70,motor,4,213,1,0,0,,
null,,1265895,HierDy8l8wvsyu,xz0wvylm2u,ms1000199,iti,,null,img/motor_4.png,70,motor,,,,,,,
419,,1266325,HierDy8l8wvsyu,xz0wvylm2u,ms1000199,motor,,68,img/motor_3.png,68,motor,3,214,1,0,0,,
null,,1266435,HierDy8l8wvsyu,xz0wvylm2u,ms1000199,iti,,null,img/motor_3.png,68,motor,,,,,,,
1101,,1267547,HierDy8l8wvsyu,xz0wvylm2u,ms1000199,motor,,72,img/motor_5.png,72,motor,5,215,1,0,0,,
null,,1267658,HierDy8l8wvsyu,xz0wvylm2u,ms1000199,iti,,null,img/motor_5.png,72,motor,,,,,,,
533,,1268202,HierDy8l8wvsyu,xz0wvylm2u,ms1000199,motor,,70,img/motor_4.png,70,motor,4,216,1,0,0,,
null,,1268312,HierDy8l8wvsyu,xz0wvylm2u,ms1000199,iti,,null,img/motor_4.png,70,motor,,,,,,,
499,,1268821,HierDy8l8wvsyu,xz0wvylm2u,ms1000199,motor,,76,img/motor_8.png,76,motor,8,217,1,0,0,,
null,,1268932,HierDy8l8wvsyu,xz0wvylm2u,ms1000199,iti,,null,img/motor_8.png,76,motor,,,,,,,
552,,1269494,HierDy8l8wvsyu,xz0wvylm2u,ms1000199,motor,,68,img/motor_3.png,68,motor,3,218,1,0,0,,
null,,1269604,HierDy8l8wvsyu,xz0wvylm2u,ms1000199,iti,,null,img/motor_3.png,68,motor,,,,,,,
437,,1270051,HierDy8l8wvsyu,xz0wvylm2u,ms1000199,motor,,76,img/motor_8.png,76,motor,8,219,1,0,0,,
null,,1270161,HierDy8l8wvsyu,xz0wvylm2u,ms1000199,iti,,null,img/motor_8.png,76,motor,,,,,,,
443,,1270616,HierDy8l8wvsyu,xz0wvylm2u,ms1000199,motor,,83,img/motor_2.png,83,motor,2,220,1,0,0,,
null,,1270727,HierDy8l8wvsyu,xz0wvylm2u,ms1000199,iti,,null,img/motor_2.png,83,motor,,,,,,,
712,,1271447,HierDy8l8wvsyu,xz0wvylm2u,ms1000199,motor,,75,img/motor_7.png,75,motor,7,221,1,0,0,,
null,,1271559,HierDy8l8wvsyu,xz0wvylm2u,ms1000199,iti,,null,img/motor_7.png,75,motor,,,,,,,
470,,1272039,HierDy8l8wvsyu,xz0wvylm2u,ms1000199,motor,,72,img/motor_5.png,72,motor,5,222,1,0,0,,
null,,1272150,HierDy8l8wvsyu,xz0wvylm2u,ms1000199,iti,,null,img/motor_5.png,72,motor,,,,,,,
406,,1272568,HierDy8l8wvsyu,xz0wvylm2u,ms1000199,motor,,70,img/motor_4.png,70,motor,4,223,1,0,0,,
null,,1272678,HierDy8l8wvsyu,xz0wvylm2u,ms1000199,iti,,null,img/motor_4.png,70,motor,,,,,,,
671,,1273358,HierDy8l8wvsyu,xz0wvylm2u,ms1000199,motor,,74,img/motor_6.png,74,motor,6,224,1,0,0,,
null,,1273468,HierDy8l8wvsyu,xz0wvylm2u,ms1000199,iti,,null,img/motor_6.png,74,motor,,,,,,,
417,,1273897,HierDy8l8wvsyu,xz0wvylm2u,ms1000199,motor,,76,img/motor_8.png,76,motor,8,225,1,0,0,,
null,,1274008,HierDy8l8wvsyu,xz0wvylm2u,ms1000199,iti,,null,img/motor_8.png,76,motor,,,,,,,
422,,1274440,HierDy8l8wvsyu,xz0wvylm2u,ms1000199,motor,,65,img/motor_1.png,65,motor,1,226,1,0,0,,
null,,1274550,HierDy8l8wvsyu,xz0wvylm2u,ms1000199,iti,,null,img/motor_1.png,65,motor,,,,,,,
432,,1274992,HierDy8l8wvsyu,xz0wvylm2u,ms1000199,motor,,70,img/motor_4.png,70,motor,4,227,1,0,0,,
null,,1275103,HierDy8l8wvsyu,xz0wvylm2u,ms1000199,iti,,null,img/motor_4.png,70,motor,,,,,,,
478,,1275589,HierDy8l8wvsyu,xz0wvylm2u,ms1000199,motor,,76,img/motor_8.png,76,motor,8,228,1,0,0,,
null,,1275699,HierDy8l8wvsyu,xz0wvylm2u,ms1000199,iti,,null,img/motor_8.png,76,motor,,,,,,,
773,,1276484,HierDy8l8wvsyu,xz0wvylm2u,ms1000199,motor,,72,img/motor_5.png,72,motor,5,229,1,0,0,,
null,,1276593,HierDy8l8wvsyu,xz0wvylm2u,ms1000199,iti,,null,img/motor_5.png,72,motor,,,,,,,
622,,1277226,HierDy8l8wvsyu,xz0wvylm2u,ms1000199,motor,,70,img/motor_4.png,70,motor,4,230,1,0,0,,
null,,1277336,HierDy8l8wvsyu,xz0wvylm2u,ms1000199,iti,,null,img/motor_4.png,70,motor,,,,,,,
448,,1277794,HierDy8l8wvsyu,xz0wvylm2u,ms1000199,motor,,83,img/motor_2.png,83,motor,2,231,1,0,0,,
null,,1277905,HierDy8l8wvsyu,xz0wvylm2u,ms1000199,iti,,null,img/motor_2.png,83,motor,,,,,,,
637,,1278552,HierDy8l8wvsyu,xz0wvylm2u,ms1000199,motor,,75,img/motor_7.png,75,motor,7,232,1,0,0,,
null,,1278662,HierDy8l8wvsyu,xz0wvylm2u,ms1000199,iti,,null,img/motor_7.png,75,motor,,,,,,,
421,,1279094,HierDy8l8wvsyu,xz0wvylm2u,ms1000199,motor,,74,img/motor_6.png,74,motor,6,233,1,0,0,,
null,,1279205,HierDy8l8wvsyu,xz0wvylm2u,ms1000199,iti,,null,img/motor_6.png,74,motor,,,,,,,
603,,1279818,HierDy8l8wvsyu,xz0wvylm2u,ms1000199,motor,,68,img/motor_3.png,68,motor,3,234,1,0,0,,
null,,1279929,HierDy8l8wvsyu,xz0wvylm2u,ms1000199,iti,,null,img/motor_3.png,68,motor,,,,,,,
322,,1280261,HierDy8l8wvsyu,xz0wvylm2u,ms1000199,motor,,83,img/motor_2.png,83,motor,2,235,1,0,0,,
null,,1280371,HierDy8l8wvsyu,xz0wvylm2u,ms1000199,iti,,null,img/motor_2.png,83,motor,,,,,,,
508,,1280891,HierDy8l8wvsyu,xz0wvylm2u,ms1000199,motor,,75,img/motor_7.png,75,motor,7,236,1,0,0,,
null,,1281001,HierDy8l8wvsyu,xz0wvylm2u,ms1000199,iti,,null,img/motor_7.png,75,motor,,,,,,,
393,,1281403,HierDy8l8wvsyu,xz0wvylm2u,ms1000199,motor,,83,img/motor_3.png,68,motor,3,237,0,1,0,,
279,,1281694,HierDy8l8wvsyu,xz0wvylm2u,ms1000199,motorRepeat,,68,img/motor_3.png,68,motor,3,237,1,0,0,,
null,,1281804,HierDy8l8wvsyu,xz0wvylm2u,ms1000199,iti,,null,img/motor_3.png,68,motor,,,,,,,
20,,1281835,HierDy8l8wvsyu,xz0wvylm2u,ms1000199,motor,,70,img/motor_4.png,70,motor,4,238,1,0,0,,
null,,1281947,HierDy8l8wvsyu,xz0wvylm2u,ms1000199,iti,,null,img/motor_4.png,70,motor,,,,,,,
753,,1282709,HierDy8l8wvsyu,xz0wvylm2u,ms1000199,motor,,83,img/motor_2.png,83,motor,2,239,1,0,0,,
null,,1282820,HierDy8l8wvsyu,xz0wvylm2u,ms1000199,iti,,null,img/motor_2.png,83,motor,,,,,,,
402,,1283232,HierDy8l8wvsyu,xz0wvylm2u,ms1000199,motor,,70,img/motor_4.png,70,motor,4,240,1,0,0,,
null,,1283342,HierDy8l8wvsyu,xz0wvylm2u,ms1000199,iti,,null,img/motor_4.png,70,motor,,,,,,,
476,,1283829,HierDy8l8wvsyu,xz0wvylm2u,ms1000199,motor,,76,img/motor_8.png,76,motor,8,241,1,0,0,,
null,,1283940,HierDy8l8wvsyu,xz0wvylm2u,ms1000199,iti,,null,img/motor_8.png,76,motor,,,,,,,
857,,1284807,HierDy8l8wvsyu,xz0wvylm2u,ms1000199,motor,,72,img/motor_5.png,72,motor,5,242,1,0,0,,
null,,1284918,HierDy8l8wvsyu,xz0wvylm2u,ms1000199,iti,,null,img/motor_5.png,72,motor,,,,,,,
344,,1285272,HierDy8l8wvsyu,xz0wvylm2u,ms1000199,motor,,72,img/motor_5.png,72,motor,5,243,1,0,0,,
null,,1285382,HierDy8l8wvsyu,xz0wvylm2u,ms1000199,iti,,null,img/motor_5.png,72,motor,,,,,,,
525,,1285917,HierDy8l8wvsyu,xz0wvylm2u,ms1000199,motor,,74,img/motor_6.png,74,motor,6,244,1,0,0,,
null,,1286028,HierDy8l8wvsyu,xz0wvylm2u,ms1000199,iti,,null,img/motor_6.png,74,motor,,,,,,,
693,,1286732,HierDy8l8wvsyu,xz0wvylm2u,ms1000199,motor,,68,img/motor_3.png,68,motor,3,245,1,0,0,,
null,,1286842,HierDy8l8wvsyu,xz0wvylm2u,ms1000199,iti,,null,img/motor_3.png,68,motor,,,,,,,
425,,1287278,HierDy8l8wvsyu,xz0wvylm2u,ms1000199,motor,,65,img/motor_1.png,65,motor,1,246,1,0,0,,
null,,1287387,HierDy8l8wvsyu,xz0wvylm2u,ms1000199,iti,,null,img/motor_1.png,65,motor,,,,,,,
573,,1287971,HierDy8l8wvsyu,xz0wvylm2u,ms1000199,motor,,75,img/motor_7.png,75,motor,7,247,1,0,0,,
null,,1288081,HierDy8l8wvsyu,xz0wvylm2u,ms1000199,iti,,null,img/motor_7.png,75,motor,,,,,,,
472,,1288563,HierDy8l8wvsyu,xz0wvylm2u,ms1000199,motor,,83,img/motor_2.png,83,motor,2,248,1,0,0,,
null,,1288673,HierDy8l8wvsyu,xz0wvylm2u,ms1000199,iti,,null,img/motor_2.png,83,motor,,,,,,,
504,,1289186,HierDy8l8wvsyu,xz0wvylm2u,ms1000199,motor,,68,img/motor_3.png,68,motor,3,249,1,0,0,,
null,,1289297,HierDy8l8wvsyu,xz0wvylm2u,ms1000199,iti,,null,img/motor_3.png,68,motor,,,,,,,
1098,,1290405,HierDy8l8wvsyu,xz0wvylm2u,ms1000199,motor,,74,img/motor_6.png,74,motor,6,250,1,0,0,,
null,,1290515,HierDy8l8wvsyu,xz0wvylm2u,ms1000199,iti,,null,img/motor_6.png,74,motor,,,,,,,
442,,1290968,HierDy8l8wvsyu,xz0wvylm2u,ms1000199,motor,,65,img/motor_1.png,65,motor,1,251,1,0,0,,
null,,1291079,HierDy8l8wvsyu,xz0wvylm2u,ms1000199,iti,,null,img/motor_1.png,65,motor,,,,,,,
321,,1291410,HierDy8l8wvsyu,xz0wvylm2u,ms1000199,motor,,65,img/motor_1.png,65,motor,1,252,1,0,0,,
null,,1291520,HierDy8l8wvsyu,xz0wvylm2u,ms1000199,iti,,null,img/motor_1.png,65,motor,,,,,,,
452,,1291984,HierDy8l8wvsyu,xz0wvylm2u,ms1000199,motor,,70,img/motor_3.png,68,motor,3,253,0,1,0,,
356,,1292350,HierDy8l8wvsyu,xz0wvylm2u,ms1000199,motorRepeat,,68,img/motor_3.png,68,motor,3,253,1,0,0,,
null,,1292461,HierDy8l8wvsyu,xz0wvylm2u,ms1000199,iti,,null,img/motor_3.png,68,motor,,,,,,,
384,,1292855,HierDy8l8wvsyu,xz0wvylm2u,ms1000199,motor,,68,img/motor_3.png,68,motor,3,254,1,0,0,,
null,,1292966,HierDy8l8wvsyu,xz0wvylm2u,ms1000199,iti,,null,img/motor_3.png,68,motor,,,,,,,
479,,1293455,HierDy8l8wvsyu,xz0wvylm2u,ms1000199,motor,,70,img/motor_4.png,70,motor,4,255,1,0,0,,
null,,1293565,HierDy8l8wvsyu,xz0wvylm2u,ms1000199,iti,,null,img/motor_4.png,70,motor,,,,,,,
308,,1293883,HierDy8l8wvsyu,xz0wvylm2u,ms1000199,motor,,70,img/motor_4.png,70,motor,4,256,1,0,0,,
null,,1293994,HierDy8l8wvsyu,xz0wvylm2u,ms1000199,iti,,null,img/motor_4.png,70,motor,,,,,,,
462,,1294469,HierDy8l8wvsyu,xz0wvylm2u,ms1000199,motor,,68,img/motor_3.png,68,motor,3,257,1,0,0,,
null,,1294579,HierDy8l8wvsyu,xz0wvylm2u,ms1000199,iti,,null,img/motor_3.png,68,motor,,,,,,,
732,,1295320,HierDy8l8wvsyu,xz0wvylm2u,ms1000199,motor,,74,img/motor_6.png,74,motor,6,258,1,0,0,,
null,,1295431,HierDy8l8wvsyu,xz0wvylm2u,ms1000199,iti,,null,img/motor_6.png,74,motor,,,,,,,
495,,1295935,HierDy8l8wvsyu,xz0wvylm2u,ms1000199,motor,,68,img/motor_3.png,68,motor,3,259,1,0,0,,
null,,1296047,HierDy8l8wvsyu,xz0wvylm2u,ms1000199,iti,,null,img/motor_3.png,68,motor,,,,,,,
422,,1296480,HierDy8l8wvsyu,xz0wvylm2u,ms1000199,motor,,68,img/motor_3.png,68,motor,3,260,1,0,0,,
null,,1296591,HierDy8l8wvsyu,xz0wvylm2u,ms1000199,iti,,null,img/motor_3.png,68,motor,,,,,,,
482,,1297083,HierDy8l8wvsyu,xz0wvylm2u,ms1000199,motor,,65,img/motor_1.png,65,motor,1,261,1,0,0,,
null,,1297194,HierDy8l8wvsyu,xz0wvylm2u,ms1000199,iti,,null,img/motor_1.png,65,motor,,,,,,,
432,,1297636,HierDy8l8wvsyu,xz0wvylm2u,ms1000199,motor,,68,img/motor_3.png,68,motor,3,262,1,0,0,,
null,,1297747,HierDy8l8wvsyu,xz0wvylm2u,ms1000199,iti,,null,img/motor_3.png,68,motor,,,,,,,
550,,1298308,HierDy8l8wvsyu,xz0wvylm2u,ms1000199,motor,,72,img/motor_5.png,72,motor,5,263,1,0,0,,
null,,1298419,HierDy8l8wvsyu,xz0wvylm2u,ms1000199,iti,,null,img/motor_5.png,72,motor,,,,,,,
447,,1298875,HierDy8l8wvsyu,xz0wvylm2u,ms1000199,motor,,76,img/motor_8.png,76,motor,8,264,1,0,0,,
null,,1298985,HierDy8l8wvsyu,xz0wvylm2u,ms1000199,iti,,null,img/motor_8.png,76,motor,,,,,,,
439,,1299433,HierDy8l8wvsyu,xz0wvylm2u,ms1000199,motor,,65,img/motor_1.png,65,motor,1,265,1,0,0,,
null,,1299544,HierDy8l8wvsyu,xz0wvylm2u,ms1000199,iti,,null,img/motor_1.png,65,motor,,,,,,,
622,,1300175,HierDy8l8wvsyu,xz0wvylm2u,ms1000199,motor,,75,img/motor_7.png,75,motor,7,266,1,0,0,,
null,,1300285,HierDy8l8wvsyu,xz0wvylm2u,ms1000199,iti,,null,img/motor_7.png,75,motor,,,,,,,
512,,1300807,HierDy8l8wvsyu,xz0wvylm2u,ms1000199,motor,,83,img/motor_2.png,83,motor,2,267,1,0,0,,
null,,1300918,HierDy8l8wvsyu,xz0wvylm2u,ms1000199,iti,,null,img/motor_2.png,83,motor,,,,,,,
493,,1301423,HierDy8l8wvsyu,xz0wvylm2u,ms1000199,motor,,65,img/motor_1.png,65,motor,1,268,1,0,0,,
null,,1301533,HierDy8l8wvsyu,xz0wvylm2u,ms1000199,iti,,null,img/motor_1.png,65,motor,,,,,,,
565,,1302108,HierDy8l8wvsyu,xz0wvylm2u,ms1000199,motor,,70,img/motor_4.png,70,motor,4,269,1,0,0,,
null,,1302219,HierDy8l8wvsyu,xz0wvylm2u,ms1000199,iti,,null,img/motor_4.png,70,motor,,,,,,,
410,,1302640,HierDy8l8wvsyu,xz0wvylm2u,ms1000199,motor,,68,img/motor_3.png,68,motor,3,270,1,0,0,,
null,,1302751,HierDy8l8wvsyu,xz0wvylm2u,ms1000199,iti,,null,img/motor_3.png,68,motor,,,,,,,
584,,1303344,HierDy8l8wvsyu,xz0wvylm2u,ms1000199,motor,,83,img/motor_1.png,65,motor,1,271,0,1,0,,
321,,1303677,HierDy8l8wvsyu,xz0wvylm2u,ms1000199,motorRepeat,,65,img/motor_1.png,65,motor,1,271,1,0,0,,
null,,1303788,HierDy8l8wvsyu,xz0wvylm2u,ms1000199,iti,,null,img/motor_1.png,65,motor,,,,,,,
1215,,1305013,HierDy8l8wvsyu,xz0wvylm2u,ms1000199,motor,,74,img/motor_6.png,74,motor,6,272,1,0,0,,
null,,1305122,HierDy8l8wvsyu,xz0wvylm2u,ms1000199,iti,,null,img/motor_6.png,74,motor,,,,,,,
1118,,1306251,HierDy8l8wvsyu,xz0wvylm2u,ms1000199,motor,,65,img/motor_1.png,65,motor,1,273,1,0,0,,
null,,1306362,HierDy8l8wvsyu,xz0wvylm2u,ms1000199,iti,,null,img/motor_1.png,65,motor,,,,,,,
394,,1306765,HierDy8l8wvsyu,xz0wvylm2u,ms1000199,motor,,65,img/motor_1.png,65,motor,1,274,1,0,0,,
null,,1306876,HierDy8l8wvsyu,xz0wvylm2u,ms1000199,iti,,null,img/motor_1.png,65,motor,,,,,,,
416,,1307301,HierDy8l8wvsyu,xz0wvylm2u,ms1000199,motor,,68,img/motor_2.png,83,motor,2,275,0,1,0,,
248,,1307559,HierDy8l8wvsyu,xz0wvylm2u,ms1000199,motorRepeat,,83,img/motor_2.png,83,motor,2,275,1,0,0,,
null,,1307669,HierDy8l8wvsyu,xz0wvylm2u,ms1000199,iti,,null,img/motor_2.png,83,motor,,,,,,,
1274,,1308953,HierDy8l8wvsyu,xz0wvylm2u,ms1000199,motor,,76,img/motor_8.png,76,motor,8,276,1,0,0,,
null,,1309064,HierDy8l8wvsyu,xz0wvylm2u,ms1000199,iti,,null,img/motor_8.png,76,motor,,,,,,,
472,,1309546,HierDy8l8wvsyu,xz0wvylm2u,ms1000199,motor,,65,img/motor_1.png,65,motor,1,277,1,0,0,,
null,,1309657,HierDy8l8wvsyu,xz0wvylm2u,ms1000199,iti,,null,img/motor_1.png,65,motor,,,,,,,
492,,1310159,HierDy8l8wvsyu,xz0wvylm2u,ms1000199,motor,,75,img/motor_7.png,75,motor,7,278,1,0,0,,
null,,1310269,HierDy8l8wvsyu,xz0wvylm2u,ms1000199,iti,,null,img/motor_7.png,75,motor,,,,,,,
701,,1310980,HierDy8l8wvsyu,xz0wvylm2u,ms1000199,motor,,68,img/motor_3.png,68,motor,3,279,1,0,0,,
null,,1311091,HierDy8l8wvsyu,xz0wvylm2u,ms1000199,iti,,null,img/motor_3.png,68,motor,,,,,,,
505,,1311607,HierDy8l8wvsyu,xz0wvylm2u,ms1000199,motor,,75,img/motor_7.png,75,motor,7,280,1,0,0,,
null,,1311717,HierDy8l8wvsyu,xz0wvylm2u,ms1000199,iti,,null,img/motor_7.png,75,motor,,,,,,,
382,,1312111,HierDy8l8wvsyu,xz0wvylm2u,ms1000199,motor,,74,img/motor_6.png,74,motor,6,281,1,0,0,,
null,,1312222,HierDy8l8wvsyu,xz0wvylm2u,ms1000199,iti,,null,img/motor_6.png,74,motor,,,,,,,
396,,1312627,HierDy8l8wvsyu,xz0wvylm2u,ms1000199,motor,,75,img/motor_7.png,75,motor,7,282,1,0,0,,
null,,1312740,HierDy8l8wvsyu,xz0wvylm2u,ms1000199,iti,,null,img/motor_7.png,75,motor,,,,,,,
370,,1313120,HierDy8l8wvsyu,xz0wvylm2u,ms1000199,motor,,74,img/motor_6.png,74,motor,6,283,1,0,0,,
null,,1313230,HierDy8l8wvsyu,xz0wvylm2u,ms1000199,iti,,null,img/motor_6.png,74,motor,,,,,,,
368,,1313608,HierDy8l8wvsyu,xz0wvylm2u,ms1000199,motor,,72,img/motor_5.png,72,motor,5,284,1,0,0,,
null,,1313719,HierDy8l8wvsyu,xz0wvylm2u,ms1000199,iti,,null,img/motor_5.png,72,motor,,,,,,,
386,,1314114,HierDy8l8wvsyu,xz0wvylm2u,ms1000199,motor,,74,img/motor_6.png,74,motor,6,285,1,0,0,,
null,,1314227,HierDy8l8wvsyu,xz0wvylm2u,ms1000199,iti,,null,img/motor_6.png,74,motor,,,,,,,
375,,1314613,HierDy8l8wvsyu,xz0wvylm2u,ms1000199,motor,,72,img/motor_5.png,72,motor,5,286,1,0,0,,
null,,1314722,HierDy8l8wvsyu,xz0wvylm2u,ms1000199,iti,,null,img/motor_5.png,72,motor,,,,,,,
686,,1315419,HierDy8l8wvsyu,xz0wvylm2u,ms1000199,motor,,83,img/motor_2.png,83,motor,2,287,1,0,0,,
null,,1315529,HierDy8l8wvsyu,xz0wvylm2u,ms1000199,iti,,null,img/motor_2.png,83,motor,,,,,,,
394,,1315933,HierDy8l8wvsyu,xz0wvylm2u,ms1000199,motor,,70,img/motor_4.png,70,motor,4,288,1,0,0,,
null,,1316043,HierDy8l8wvsyu,xz0wvylm2u,ms1000199,iti,,null,img/motor_4.png,70,motor,,,,,,,
411,,1316464,HierDy8l8wvsyu,xz0wvylm2u,ms1000199,motor,,65,img/motor_1.png,65,motor,1,289,1,0,0,,
null,,1316575,HierDy8l8wvsyu,xz0wvylm2u,ms1000199,iti,,null,img/motor_1.png,65,motor,,,,,,,
413,,1316998,HierDy8l8wvsyu,xz0wvylm2u,ms1000199,motor,,70,img/motor_4.png,70,motor,4,290,1,0,0,,
null,,1317110,HierDy8l8wvsyu,xz0wvylm2u,ms1000199,iti,,null,img/motor_4.png,70,motor,,,,,,,
514,,1317633,HierDy8l8wvsyu,xz0wvylm2u,ms1000199,motor,,72,img/motor_5.png,72,motor,5,291,1,0,0,,
null,,1317744,HierDy8l8wvsyu,xz0wvylm2u,ms1000199,iti,,null,img/motor_5.png,72,motor,,,,,,,
373,,1318128,HierDy8l8wvsyu,xz0wvylm2u,ms1000199,motor,,72,img/motor_5.png,72,motor,5,292,1,0,0,,
null,,1318239,HierDy8l8wvsyu,xz0wvylm2u,ms1000199,iti,,null,img/motor_5.png,72,motor,,,,,,,
620,,1318870,HierDy8l8wvsyu,xz0wvylm2u,ms1000199,motor,,70,img/motor_4.png,70,motor,4,293,1,0,0,,
null,,1318982,HierDy8l8wvsyu,xz0wvylm2u,ms1000199,iti,,null,img/motor_4.png,70,motor,,,,,,,
312,,1319305,HierDy8l8wvsyu,xz0wvylm2u,ms1000199,motor,,70,img/motor_4.png,70,motor,4,294,1,0,0,,
null,,1319417,HierDy8l8wvsyu,xz0wvylm2u,ms1000199,iti,,null,img/motor_4.png,70,motor,,,,,,,
677,,1320103,HierDy8l8wvsyu,xz0wvylm2u,ms1000199,motor,,75,img/motor_7.png,75,motor,7,295,1,0,0,,
null,,1320214,HierDy8l8wvsyu,xz0wvylm2u,ms1000199,iti,,null,img/motor_7.png,75,motor,,,,,,,
463,,1320687,HierDy8l8wvsyu,xz0wvylm2u,ms1000199,motor,,72,img/motor_5.png,72,motor,5,296,1,0,0,,
null,,1320798,HierDy8l8wvsyu,xz0wvylm2u,ms1000199,iti,,null,img/motor_5.png,72,motor,,,,,,,
563,,1321370,HierDy8l8wvsyu,xz0wvylm2u,ms1000199,motor,,68,img/motor_3.png,68,motor,3,297,1,0,0,,
null,,1321481,HierDy8l8wvsyu,xz0wvylm2u,ms1000199,iti,,null,img/motor_3.png,68,motor,,,,,,,
487,,1321978,HierDy8l8wvsyu,xz0wvylm2u,ms1000199,motor,,72,img/motor_5.png,72,motor,5,298,1,0,0,,
null,,1322091,HierDy8l8wvsyu,xz0wvylm2u,ms1000199,iti,,null,img/motor_5.png,72,motor,,,,,,,
556,,1322656,HierDy8l8wvsyu,xz0wvylm2u,ms1000199,motor,,75,img/motor_7.png,75,motor,7,299,1,0,0,,
null,,1322767,HierDy8l8wvsyu,xz0wvylm2u,ms1000199,iti,,null,img/motor_7.png,75,motor,,,,,,,
378,,1323155,HierDy8l8wvsyu,xz0wvylm2u,ms1000199,motor,,75,img/motor_7.png,75,motor,7,300,1,0,0,,
null,,1323266,HierDy8l8wvsyu,xz0wvylm2u,ms1000199,iti,,null,img/motor_7.png,75,motor,,,,,,,
509,,1323783,HierDy8l8wvsyu,xz0wvylm2u,ms1000199,motor,,70,img/motor_4.png,70,motor,4,301,1,0,0,,
null,,1323894,HierDy8l8wvsyu,xz0wvylm2u,ms1000199,iti,,null,img/motor_4.png,70,motor,,,,,,,
433,,1324338,HierDy8l8wvsyu,xz0wvylm2u,ms1000199,motor,,83,img/motor_2.png,83,motor,2,302,1,0,0,,
null,,1324448,HierDy8l8wvsyu,xz0wvylm2u,ms1000199,iti,,null,img/motor_2.png,83,motor,,,,,,,
753,,1325211,HierDy8l8wvsyu,xz0wvylm2u,ms1000199,motor,,74,img/motor_6.png,74,motor,6,303,1,0,0,,
null,,1325321,HierDy8l8wvsyu,xz0wvylm2u,ms1000199,iti,,null,img/motor_6.png,74,motor,,,,,,,
532,,1325863,HierDy8l8wvsyu,xz0wvylm2u,ms1000199,motor,,75,img/motor_7.png,75,motor,7,304,1,0,0,,
null,,1325973,HierDy8l8wvsyu,xz0wvylm2u,ms1000199,iti,,null,img/motor_7.png,75,motor,,,,,,,
446,,1326430,HierDy8l8wvsyu,xz0wvylm2u,ms1000199,motor,,72,img/motor_5.png,72,motor,5,305,1,0,0,,
null,,1326540,HierDy8l8wvsyu,xz0wvylm2u,ms1000199,iti,,null,img/motor_5.png,72,motor,,,,,,,
409,,1326959,HierDy8l8wvsyu,xz0wvylm2u,ms1000199,motor,,65,img/motor_1.png,65,motor,1,306,1,0,0,,
null,,1327070,HierDy8l8wvsyu,xz0wvylm2u,ms1000199,iti,,null,img/motor_1.png,65,motor,,,,,,,
401,,1327479,HierDy8l8wvsyu,xz0wvylm2u,ms1000199,motor,,70,img/motor_4.png,70,motor,4,307,1,0,0,,
null,,1327591,HierDy8l8wvsyu,xz0wvylm2u,ms1000199,iti,,null,img/motor_4.png,70,motor,,,,,,,
396,,1327997,HierDy8l8wvsyu,xz0wvylm2u,ms1000199,motor,,65,img/motor_1.png,65,motor,1,308,1,0,0,,
null,,1328108,HierDy8l8wvsyu,xz0wvylm2u,ms1000199,iti,,null,img/motor_1.png,65,motor,,,,,,,
441,,1328559,HierDy8l8wvsyu,xz0wvylm2u,ms1000199,motor,,68,img/motor_3.png,68,motor,3,309,1,0,0,,
null,,1328672,HierDy8l8wvsyu,xz0wvylm2u,ms1000199,iti,,null,img/motor_3.png,68,motor,,,,,,,
426,,1329107,HierDy8l8wvsyu,xz0wvylm2u,ms1000199,motor,,70,img/motor_4.png,70,motor,4,310,1,0,0,,
null,,1329217,HierDy8l8wvsyu,xz0wvylm2u,ms1000199,iti,,null,img/motor_4.png,70,motor,,,,,,,
519,,1329746,HierDy8l8wvsyu,xz0wvylm2u,ms1000199,motor,,74,img/motor_6.png,74,motor,6,311,1,0,0,,
null,,1329857,HierDy8l8wvsyu,xz0wvylm2u,ms1000199,iti,,null,img/motor_6.png,74,motor,,,,,,,
425,,1330292,HierDy8l8wvsyu,xz0wvylm2u,ms1000199,motor,,70,img/motor_4.png,70,motor,4,312,1,0,0,,
null,,1330402,HierDy8l8wvsyu,xz0wvylm2u,ms1000199,iti,,null,img/motor_4.png,70,motor,,,,,,,
535,,1330946,HierDy8l8wvsyu,xz0wvylm2u,ms1000199,motor,,75,img/motor_7.png,75,motor,7,313,1,0,0,,
null,,1331057,HierDy8l8wvsyu,xz0wvylm2u,ms1000199,iti,,null,img/motor_7.png,75,motor,,,,,,,
399,,1331466,HierDy8l8wvsyu,xz0wvylm2u,ms1000199,motor,,76,img/motor_8.png,76,motor,8,314,1,0,0,,
null,,1331577,HierDy8l8wvsyu,xz0wvylm2u,ms1000199,iti,,null,img/motor_8.png,76,motor,,,,,,,
402,,1331989,HierDy8l8wvsyu,xz0wvylm2u,ms1000199,motor,,65,img/motor_1.png,65,motor,1,315,1,0,0,,
null,,1332099,HierDy8l8wvsyu,xz0wvylm2u,ms1000199,iti,,null,img/motor_1.png,65,motor,,,,,,,
387,,1332494,HierDy8l8wvsyu,xz0wvylm2u,ms1000199,motor,,76,img/motor_8.png,76,motor,8,316,1,0,0,,
null,,1332605,HierDy8l8wvsyu,xz0wvylm2u,ms1000199,iti,,null,img/motor_8.png,76,motor,,,,,,,
721,,1333336,HierDy8l8wvsyu,xz0wvylm2u,ms1000199,motor,,74,img/motor_6.png,74,motor,6,317,1,0,0,,
null,,1333447,HierDy8l8wvsyu,xz0wvylm2u,ms1000199,iti,,null,img/motor_6.png,74,motor,,,,,,,
299,,1333755,HierDy8l8wvsyu,xz0wvylm2u,ms1000199,motor,,75,img/motor_7.png,75,motor,7,318,1,0,0,,
null,,1333865,HierDy8l8wvsyu,xz0wvylm2u,ms1000199,iti,,null,img/motor_7.png,75,motor,,,,,,,
408,,1334284,HierDy8l8wvsyu,xz0wvylm2u,ms1000199,motor,,65,img/motor_1.png,65,motor,1,319,1,0,0,,
null,,1334395,HierDy8l8wvsyu,xz0wvylm2u,ms1000199,iti,,null,img/motor_1.png,65,motor,,,,,,,
371,,1334775,HierDy8l8wvsyu,xz0wvylm2u,ms1000199,motor,,72,img/motor_5.png,72,motor,5,320,1,0,0,,
null,,1334886,HierDy8l8wvsyu,xz0wvylm2u,ms1000199,iti,,null,img/motor_5.png,72,motor,,,,,,,
629,,1335525,HierDy8l8wvsyu,xz0wvylm2u,ms1000199,motor,,68,img/motor_3.png,68,motor,3,321,1,0,0,,
null,,1335635,HierDy8l8wvsyu,xz0wvylm2u,ms1000199,iti,,null,img/motor_3.png,68,motor,,,,,,,
511,,1336157,HierDy8l8wvsyu,xz0wvylm2u,ms1000199,motor,,75,img/motor_7.png,75,motor,7,322,1,0,0,,
null,,1336268,HierDy8l8wvsyu,xz0wvylm2u,ms1000199,iti,,null,img/motor_7.png,75,motor,,,,,,,
346,,1336623,HierDy8l8wvsyu,xz0wvylm2u,ms1000199,motor,,76,img/motor_8.png,76,motor,8,323,1,0,0,,
null,,1336735,HierDy8l8wvsyu,xz0wvylm2u,ms1000199,iti,,null,img/motor_8.png,76,motor,,,,,,,
532,,1337276,HierDy8l8wvsyu,xz0wvylm2u,ms1000199,motor,,83,img/motor_2.png,83,motor,2,324,1,0,0,,
null,,1337389,HierDy8l8wvsyu,xz0wvylm2u,ms1000199,iti,,null,img/motor_2.png,83,motor,,,,,,,
342,,1337740,HierDy8l8wvsyu,xz0wvylm2u,ms1000199,motor,,68,img/motor_3.png,68,motor,3,325,1,0,0,,
null,,1337851,HierDy8l8wvsyu,xz0wvylm2u,ms1000199,iti,,null,img/motor_3.png,68,motor,,,,,,,
454,,1338315,HierDy8l8wvsyu,xz0wvylm2u,ms1000199,motor,,72,img/motor_5.png,72,motor,5,326,1,0,0,,
null,,1338425,HierDy8l8wvsyu,xz0wvylm2u,ms1000199,iti,,null,img/motor_5.png,72,motor,,,,,,,
406,,1338841,HierDy8l8wvsyu,xz0wvylm2u,ms1000199,motor,,76,img/motor_8.png,76,motor,8,327,1,0,0,,
null,,1338954,HierDy8l8wvsyu,xz0wvylm2u,ms1000199,iti,,null,img/motor_8.png,76,motor,,,,,,,
406,,1339371,HierDy8l8wvsyu,xz0wvylm2u,ms1000199,motor,,72,img/motor_5.png,72,motor,5,328,1,0,0,,
null,,1339481,HierDy8l8wvsyu,xz0wvylm2u,ms1000199,iti,,null,img/motor_5.png,72,motor,,,,,,,
513,,1340004,HierDy8l8wvsyu,xz0wvylm2u,ms1000199,motor,,83,img/motor_2.png,83,motor,2,329,1,0,0,,
null,,1340115,HierDy8l8wvsyu,xz0wvylm2u,ms1000199,iti,,null,img/motor_2.png,83,motor,,,,,,,
334,,1340460,HierDy8l8wvsyu,xz0wvylm2u,ms1000199,motor,,68,img/motor_3.png,68,motor,3,330,1,0,0,,
null,,1340570,HierDy8l8wvsyu,xz0wvylm2u,ms1000199,iti,,null,img/motor_3.png,68,motor,,,,,,,
331,,1340912,HierDy8l8wvsyu,xz0wvylm2u,ms1000199,motor,,70,img/motor_4.png,70,motor,4,331,1,0,0,,
null,,1341023,HierDy8l8wvsyu,xz0wvylm2u,ms1000199,iti,,null,img/motor_4.png,70,motor,,,,,,,
507,,1341540,HierDy8l8wvsyu,xz0wvylm2u,ms1000199,motor,,83,img/motor_2.png,83,motor,2,332,1,0,0,,
null,,1341651,HierDy8l8wvsyu,xz0wvylm2u,ms1000199,iti,,null,img/motor_2.png,83,motor,,,,,,,
431,,1342092,HierDy8l8wvsyu,xz0wvylm2u,ms1000199,motor,,76,img/motor_8.png,76,motor,8,333,1,0,0,,
null,,1342203,HierDy8l8wvsyu,xz0wvylm2u,ms1000199,iti,,null,img/motor_8.png,76,motor,,,,,,,
393,,1342605,HierDy8l8wvsyu,xz0wvylm2u,ms1000199,motor,,65,img/motor_1.png,65,motor,1,334,1,0,0,,
null,,1342717,HierDy8l8wvsyu,xz0wvylm2u,ms1000199,iti,,null,img/motor_1.png,65,motor,,,,,,,
406,,1343132,HierDy8l8wvsyu,xz0wvylm2u,ms1000199,motor,,76,img/motor_7.png,75,motor,7,335,0,1,0,,
279,,1343422,HierDy8l8wvsyu,xz0wvylm2u,ms1000199,motorRepeat,,75,img/motor_7.png,75,motor,7,335,1,0,0,,
null,,1343533,HierDy8l8wvsyu,xz0wvylm2u,ms1000199,iti,,null,img/motor_7.png,75,motor,,,,,,,
591,,1344134,HierDy8l8wvsyu,xz0wvylm2u,ms1000199,motor,,68,img/motor_3.png,68,motor,3,336,1,0,0,,
null,,1344245,HierDy8l8wvsyu,xz0wvylm2u,ms1000199,iti,,null,img/motor_3.png,68,motor,,,,,,,
407,,1344662,HierDy8l8wvsyu,xz0wvylm2u,ms1000199,motor,,65,img/motor_1.png,65,motor,1,337,1,0,0,,
null,,1344772,HierDy8l8wvsyu,xz0wvylm2u,ms1000199,iti,,null,img/motor_1.png,65,motor,,,,,,,
445,,1345227,HierDy8l8wvsyu,xz0wvylm2u,ms1000199,motor,,76,img/motor_8.png,76,motor,8,338,1,0,0,,
null,,1345338,HierDy8l8wvsyu,xz0wvylm2u,ms1000199,iti,,null,img/motor_8.png,76,motor,,,,,,,
475,,1345823,HierDy8l8wvsyu,xz0wvylm2u,ms1000199,motor,,70,img/motor_4.png,70,motor,4,339,1,0,0,,
null,,1345934,HierDy8l8wvsyu,xz0wvylm2u,ms1000199,iti,,null,img/motor_4.png,70,motor,,,,,,,
530,,1346474,HierDy8l8wvsyu,xz0wvylm2u,ms1000199,motor,,75,img/motor_7.png,75,motor,7,340,1,0,0,,
null,,1346585,HierDy8l8wvsyu,xz0wvylm2u,ms1000199,iti,,null,img/motor_7.png,75,motor,,,,,,,
483,,1347078,HierDy8l8wvsyu,xz0wvylm2u,ms1000199,motor,,70,img/motor_4.png,70,motor,4,341,1,0,0,,
null,,1347189,HierDy8l8wvsyu,xz0wvylm2u,ms1000199,iti,,null,img/motor_4.png,70,motor,,,,,,,
411,,1347610,HierDy8l8wvsyu,xz0wvylm2u,ms1000199,motor,,74,img/motor_6.png,74,motor,6,342,1,0,0,,
null,,1347719,HierDy8l8wvsyu,xz0wvylm2u,ms1000199,iti,,null,img/motor_6.png,74,motor,,,,,,,
443,,1348172,HierDy8l8wvsyu,xz0wvylm2u,ms1000199,motor,,75,img/motor_7.png,75,motor,7,343,1,0,0,,
null,,1348283,HierDy8l8wvsyu,xz0wvylm2u,ms1000199,iti,,null,img/motor_7.png,75,motor,,,,,,,
451,,1348743,HierDy8l8wvsyu,xz0wvylm2u,ms1000199,motor,,65,img/motor_1.png,65,motor,1,344,1,0,0,,
null,,1348854,HierDy8l8wvsyu,xz0wvylm2u,ms1000199,iti,,null,img/motor_1.png,65,motor,,,,,,,
412,,1349275,HierDy8l8wvsyu,xz0wvylm2u,ms1000199,motor,,65,img/motor_1.png,65,motor,1,345,1,0,0,,
null,,1349387,HierDy8l8wvsyu,xz0wvylm2u,ms1000199,iti,,null,img/motor_1.png,65,motor,,,,,,,
559,,1349956,HierDy8l8wvsyu,xz0wvylm2u,ms1000199,motor,,75,img/motor_7.png,75,motor,7,346,1,0,0,,
null,,1350066,HierDy8l8wvsyu,xz0wvylm2u,ms1000199,iti,,null,img/motor_7.png,75,motor,,,,,,,
652,,1350727,HierDy8l8wvsyu,xz0wvylm2u,ms1000199,motor,,72,img/motor_5.png,72,motor,5,347,1,0,0,,
null,,1350838,HierDy8l8wvsyu,xz0wvylm2u,ms1000199,iti,,null,img/motor_5.png,72,motor,,,,,,,
415,,1351265,HierDy8l8wvsyu,xz0wvylm2u,ms1000199,motor,,74,img/motor_6.png,74,motor,6,348,1,0,0,,
null,,1351375,HierDy8l8wvsyu,xz0wvylm2u,ms1000199,iti,,null,img/motor_6.png,74,motor,,,,,,,
526,,1351913,HierDy8l8wvsyu,xz0wvylm2u,ms1000199,motor,,68,img/motor_4.png,70,motor,4,349,0,1,0,,
216,,1352138,HierDy8l8wvsyu,xz0wvylm2u,ms1000199,motorRepeat,,70,img/motor_4.png,70,motor,4,349,1,0,0,,
null,,1352251,HierDy8l8wvsyu,xz0wvylm2u,ms1000199,iti,,null,img/motor_4.png,70,motor,,,,,,,
413,,1352674,HierDy8l8wvsyu,xz0wvylm2u,ms1000199,motor,,65,img/motor_1.png,65,motor,1,350,1,0,0,,
null,,1352785,HierDy8l8wvsyu,xz0wvylm2u,ms1000199,iti,,null,img/motor_1.png,65,motor,,,,,,,
649,,1353444,HierDy8l8wvsyu,xz0wvylm2u,ms1000199,motor,,74,img/motor_6.png,74,motor,6,351,1,0,0,,
null,,1353555,HierDy8l8wvsyu,xz0wvylm2u,ms1000199,iti,,null,img/motor_6.png,74,motor,,,,,,,
477,,1354042,HierDy8l8wvsyu,xz0wvylm2u,ms1000199,motor,,76,img/motor_8.png,76,motor,8,352,1,0,0,,
null,,1354153,HierDy8l8wvsyu,xz0wvylm2u,ms1000199,iti,,null,img/motor_8.png,76,motor,,,,,,,
654,,1354818,HierDy8l8wvsyu,xz0wvylm2u,ms1000199,motor,,68,img/motor_3.png,68,motor,3,353,1,0,0,,
null,,1354929,HierDy8l8wvsyu,xz0wvylm2u,ms1000199,iti,,null,img/motor_3.png,68,motor,,,,,,,
514,,1355453,HierDy8l8wvsyu,xz0wvylm2u,ms1000199,motor,,76,img/motor_8.png,76,motor,8,354,1,0,0,,
null,,1355563,HierDy8l8wvsyu,xz0wvylm2u,ms1000199,iti,,null,img/motor_8.png,76,motor,,,,,,,
426,,1356000,HierDy8l8wvsyu,xz0wvylm2u,ms1000199,motor,,65,img/motor_1.png,65,motor,1,355,1,0,0,,
null,,1356110,HierDy8l8wvsyu,xz0wvylm2u,ms1000199,iti,,null,img/motor_1.png,65,motor,,,,,,,
462,,1356582,HierDy8l8wvsyu,xz0wvylm2u,ms1000199,motor,,83,img/motor_2.png,83,motor,2,356,1,0,0,,
null,,1356694,HierDy8l8wvsyu,xz0wvylm2u,ms1000199,iti,,null,img/motor_2.png,83,motor,,,,,,,
412,,1357115,HierDy8l8wvsyu,xz0wvylm2u,ms1000199,motor,,65,img/motor_1.png,65,motor,1,357,1,0,0,,
null,,1357226,HierDy8l8wvsyu,xz0wvylm2u,ms1000199,iti,,null,img/motor_1.png,65,motor,,,,,,,
552,,1357788,HierDy8l8wvsyu,xz0wvylm2u,ms1000199,motor,,72,img/motor_5.png,72,motor,5,358,1,0,0,,
null,,1357898,HierDy8l8wvsyu,xz0wvylm2u,ms1000199,iti,,null,img/motor_5.png,72,motor,,,,,,,
423,,1358330,HierDy8l8wvsyu,xz0wvylm2u,ms1000199,motor,,74,img/motor_6.png,74,motor,6,359,1,0,0,,
null,,1358442,HierDy8l8wvsyu,xz0wvylm2u,ms1000199,iti,,null,img/motor_6.png,74,motor,,,,,,,
415,,1358866,HierDy8l8wvsyu,xz0wvylm2u,ms1000199,motor,,76,img/motor_8.png,76,motor,8,360,1,0,0,,
null,,1358977,HierDy8l8wvsyu,xz0wvylm2u,ms1000199,iti,,null,img/motor_8.png,76,motor,,,,,,,
569,,1359556,HierDy8l8wvsyu,xz0wvylm2u,ms1000199,motor,,70,img/motor_4.png,70,motor,4,361,1,0,0,,
null,,1359667,HierDy8l8wvsyu,xz0wvylm2u,ms1000199,iti,,null,img/motor_4.png,70,motor,,,,,,,
693,,1360371,HierDy8l8wvsyu,xz0wvylm2u,ms1000199,motor,,74,img/motor_6.png,74,motor,6,362,1,0,0,,
null,,1360481,HierDy8l8wvsyu,xz0wvylm2u,ms1000199,iti,,null,img/motor_6.png,74,motor,,,,,,,
406,,1360897,HierDy8l8wvsyu,xz0wvylm2u,ms1000199,motor,,76,img/motor_8.png,76,motor,8,363,1,0,0,,
null,,1361008,HierDy8l8wvsyu,xz0wvylm2u,ms1000199,iti,,null,img/motor_8.png,76,motor,,,,,,,
377,,1361395,HierDy8l8wvsyu,xz0wvylm2u,ms1000199,motor,,76,img/motor_8.png,76,motor,8,364,1,0,0,,
null,,1361506,HierDy8l8wvsyu,xz0wvylm2u,ms1000199,iti,,null,img/motor_8.png,76,motor,,,,,,,
499,,1362016,HierDy8l8wvsyu,xz0wvylm2u,ms1000199,motor,,83,img/motor_2.png,83,motor,2,365,1,0,0,,
null,,1362126,HierDy8l8wvsyu,xz0wvylm2u,ms1000199,iti,,null,img/motor_2.png,83,motor,,,,,,,
528,,1362663,HierDy8l8wvsyu,xz0wvylm2u,ms1000199,motor,,72,img/motor_5.png,72,motor,5,366,1,0,0,,
null,,1362774,HierDy8l8wvsyu,xz0wvylm2u,ms1000199,iti,,null,img/motor_5.png,72,motor,,,,,,,
426,,1363210,HierDy8l8wvsyu,xz0wvylm2u,ms1000199,motor,,83,img/motor_2.png,83,motor,2,367,1,0,0,,
null,,1363322,HierDy8l8wvsyu,xz0wvylm2u,ms1000199,iti,,null,img/motor_2.png,83,motor,,,,,,,
668,,1364000,HierDy8l8wvsyu,xz0wvylm2u,ms1000199,motor,,74,img/motor_6.png,74,motor,6,368,1,0,0,,
null,,1364112,HierDy8l8wvsyu,xz0wvylm2u,ms1000199,iti,,null,img/motor_6.png,74,motor,,,,,,,
350,,1364471,HierDy8l8wvsyu,xz0wvylm2u,ms1000199,motor,,74,img/motor_6.png,74,motor,6,369,1,0,0,,
null,,1364583,HierDy8l8wvsyu,xz0wvylm2u,ms1000199,iti,,null,img/motor_6.png,74,motor,,,,,,,
485,,1365079,HierDy8l8wvsyu,xz0wvylm2u,ms1000199,motor,,72,img/motor_5.png,72,motor,5,370,1,0,0,,
null,,1365190,HierDy8l8wvsyu,xz0wvylm2u,ms1000199,iti,,null,img/motor_5.png,72,motor,,,,,,,
476,,1365675,HierDy8l8wvsyu,xz0wvylm2u,ms1000199,motor,,65,img/motor_1.png,65,motor,1,371,1,0,0,,
null,,1365786,HierDy8l8wvsyu,xz0wvylm2u,ms1000199,iti,,null,img/motor_1.png,65,motor,,,,,,,
543,,1366338,HierDy8l8wvsyu,xz0wvylm2u,ms1000199,motor,,75,img/motor_7.png,75,motor,7,372,1,0,0,,
null,,1366451,HierDy8l8wvsyu,xz0wvylm2u,ms1000199,iti,,null,img/motor_7.png,75,motor,,,,,,,
446,,1366908,HierDy8l8wvsyu,xz0wvylm2u,ms1000199,motor,,83,img/motor_2.png,83,motor,2,373,1,0,0,,
null,,1367019,HierDy8l8wvsyu,xz0wvylm2u,ms1000199,iti,,null,img/motor_2.png,83,motor,,,,,,,
513,,1367542,HierDy8l8wvsyu,xz0wvylm2u,ms1000199,motor,,76,img/motor_8.png,76,motor,8,374,1,0,0,,
null,,1367654,HierDy8l8wvsyu,xz0wvylm2u,ms1000199,iti,,null,img/motor_8.png,76,motor,,,,,,,
483,,1368147,HierDy8l8wvsyu,xz0wvylm2u,ms1000199,motor,,75,img/motor_7.png,75,motor,7,375,1,0,0,,
null,,1368260,HierDy8l8wvsyu,xz0wvylm2u,ms1000199,iti,,null,img/motor_7.png,75,motor,,,,,,,
424,,1368692,HierDy8l8wvsyu,xz0wvylm2u,ms1000199,motor,,75,img/motor_7.png,75,motor,7,376,1,0,0,,
null,,1368804,HierDy8l8wvsyu,xz0wvylm2u,ms1000199,iti,,null,img/motor_7.png,75,motor,,,,,,,
415,,1369230,HierDy8l8wvsyu,xz0wvylm2u,ms1000199,motor,,65,img/motor_1.png,65,motor,1,377,1,0,0,,
null,,1369341,HierDy8l8wvsyu,xz0wvylm2u,ms1000199,iti,,null,img/motor_1.png,65,motor,,,,,,,
392,,1369743,HierDy8l8wvsyu,xz0wvylm2u,ms1000199,motor,,83,img/motor_2.png,83,motor,2,378,1,0,0,,
null,,1369853,HierDy8l8wvsyu,xz0wvylm2u,ms1000199,iti,,null,img/motor_2.png,83,motor,,,,,,,
438,,1370302,HierDy8l8wvsyu,xz0wvylm2u,ms1000199,motor,,76,img/motor_8.png,76,motor,8,379,1,0,0,,
null,,1370413,HierDy8l8wvsyu,xz0wvylm2u,ms1000199,iti,,null,img/motor_8.png,76,motor,,,,,,,
484,,1370908,HierDy8l8wvsyu,xz0wvylm2u,ms1000199,motor,,74,img/motor_6.png,74,motor,6,380,1,0,0,,
null,,1371019,HierDy8l8wvsyu,xz0wvylm2u,ms1000199,iti,,null,img/motor_6.png,74,motor,,,,,,,
536,,1371565,HierDy8l8wvsyu,xz0wvylm2u,ms1000199,motor,,83,img/motor_2.png,83,motor,2,381,1,0,0,,
null,,1371675,HierDy8l8wvsyu,xz0wvylm2u,ms1000199,iti,,null,img/motor_2.png,83,motor,,,,,,,
338,,1372022,HierDy8l8wvsyu,xz0wvylm2u,ms1000199,motor,,83,img/motor_2.png,83,motor,2,382,1,0,0,,
null,,1372133,HierDy8l8wvsyu,xz0wvylm2u,ms1000199,iti,,null,img/motor_2.png,83,motor,,,,,,,
422,,1372566,HierDy8l8wvsyu,xz0wvylm2u,ms1000199,motor,,76,img/motor_8.png,76,motor,8,383,1,0,0,,
null,,1372676,HierDy8l8wvsyu,xz0wvylm2u,ms1000199,iti,,null,img/motor_8.png,76,motor,,,,,,,
461,,1373147,HierDy8l8wvsyu,xz0wvylm2u,ms1000199,motor,,72,img/motor_5.png,72,motor,5,384,1,0,0,,
null,,1373257,HierDy8l8wvsyu,xz0wvylm2u,ms1000199,iti,,null,img/motor_5.png,72,motor,,,,,,,
346,,1373614,HierDy8l8wvsyu,xz0wvylm2u,ms1000199,motor,,72,img/motor_5.png,72,motor,5,385,1,0,0,,
null,,1373725,HierDy8l8wvsyu,xz0wvylm2u,ms1000199,iti,,null,img/motor_5.png,72,motor,,,,,,,
398,,1374132,HierDy8l8wvsyu,xz0wvylm2u,ms1000199,motor,,65,img/motor_1.png,65,motor,1,386,1,0,0,,
null,,1374243,HierDy8l8wvsyu,xz0wvylm2u,ms1000199,iti,,null,img/motor_1.png,65,motor,,,,,,,
445,,1374698,HierDy8l8wvsyu,xz0wvylm2u,ms1000199,motor,,70,img/motor_4.png,70,motor,4,387,1,0,0,,
null,,1374810,HierDy8l8wvsyu,xz0wvylm2u,ms1000199,iti,,null,img/motor_4.png,70,motor,,,,,,,
533,,1375353,HierDy8l8wvsyu,xz0wvylm2u,ms1000199,motor,,75,img/motor_7.png,75,motor,7,388,1,0,0,,
null,,1375464,HierDy8l8wvsyu,xz0wvylm2u,ms1000199,iti,,null,img/motor_7.png,75,motor,,,,,,,
467,,1375940,HierDy8l8wvsyu,xz0wvylm2u,ms1000199,motor,,72,img/motor_5.png,72,motor,5,389,1,0,0,,
null,,1376052,HierDy8l8wvsyu,xz0wvylm2u,ms1000199,iti,,null,img/motor_5.png,72,motor,,,,,,,
359,,1376421,HierDy8l8wvsyu,xz0wvylm2u,ms1000199,motor,,74,img/motor_6.png,74,motor,6,390,1,0,0,,
null,,1376532,HierDy8l8wvsyu,xz0wvylm2u,ms1000199,iti,,null,img/motor_6.png,74,motor,,,,,,,
478,,1377019,HierDy8l8wvsyu,xz0wvylm2u,ms1000199,motor,,83,img/motor_2.png,83,motor,2,391,1,0,0,,
null,,1377129,HierDy8l8wvsyu,xz0wvylm2u,ms1000199,iti,,null,img/motor_2.png,83,motor,,,,,,,
348,,1377487,HierDy8l8wvsyu,xz0wvylm2u,ms1000199,motor,,68,img/motor_3.png,68,motor,3,392,1,0,0,,
null,,1377598,HierDy8l8wvsyu,xz0wvylm2u,ms1000199,iti,,null,img/motor_3.png,68,motor,,,,,,,
556,,1378163,HierDy8l8wvsyu,xz0wvylm2u,ms1000199,motor,,75,img/motor_7.png,75,motor,7,393,1,0,0,,
null,,1378274,HierDy8l8wvsyu,xz0wvylm2u,ms1000199,iti,,null,img/motor_7.png,75,motor,,,,,,,
386,,1378670,HierDy8l8wvsyu,xz0wvylm2u,ms1000199,motor,,83,img/motor_3.png,68,motor,3,394,0,1,0,,
372,,1379053,HierDy8l8wvsyu,xz0wvylm2u,ms1000199,motorRepeat,,68,img/motor_3.png,68,motor,3,394,1,0,0,,
null,,1379165,HierDy8l8wvsyu,xz0wvylm2u,ms1000199,iti,,null,img/motor_3.png,68,motor,,,,,,,
411,,1379585,HierDy8l8wvsyu,xz0wvylm2u,ms1000199,motor,,70,img/motor_4.png,70,motor,4,395,1,0,0,,
null,,1379694,HierDy8l8wvsyu,xz0wvylm2u,ms1000199,iti,,null,img/motor_4.png,70,motor,,,,,,,
473,,1380177,HierDy8l8wvsyu,xz0wvylm2u,ms1000199,motor,,75,img/motor_7.png,75,motor,7,396,1,0,0,,
null,,1380288,HierDy8l8wvsyu,xz0wvylm2u,ms1000199,iti,,null,img/motor_7.png,75,motor,,,,,,,
427,,1380724,HierDy8l8wvsyu,xz0wvylm2u,ms1000199,motor,,76,img/motor_8.png,76,motor,8,397,1,0,0,,
null,,1380835,HierDy8l8wvsyu,xz0wvylm2u,ms1000199,iti,,null,img/motor_8.png,76,motor,,,,,,,
429,,1381273,HierDy8l8wvsyu,xz0wvylm2u,ms1000199,motor,,65,img/motor_1.png,65,motor,1,398,1,0,0,,
null,,1381384,HierDy8l8wvsyu,xz0wvylm2u,ms1000199,iti,,null,img/motor_1.png,65,motor,,,,,,,
767,,1382162,HierDy8l8wvsyu,xz0wvylm2u,ms1000199,motor,,74,img/motor_6.png,74,motor,6,399,1,0,0,,
null,,1382273,HierDy8l8wvsyu,xz0wvylm2u,ms1000199,iti,,null,img/motor_6.png,74,motor,,,,,,,
446,,1382729,HierDy8l8wvsyu,xz0wvylm2u,ms1000199,motor,,70,img/motor_4.png,70,motor,4,400,1,0,0,,
null,,1382839,HierDy8l8wvsyu,xz0wvylm2u,ms1000199,iti,,null,img/motor_4.png,70,motor,,,,,,,
404,,1383256,HierDy8l8wvsyu,xz0wvylm2u,ms1000199,motor,,76,img/motor_8.png,76,motor,8,401,1,0,0,,
null,,1383366,HierDy8l8wvsyu,xz0wvylm2u,ms1000199,iti,,null,img/motor_8.png,76,motor,,,,,,,
217,,1383593,HierDy8l8wvsyu,xz0wvylm2u,ms1000199,motor,,76,img/motor_3.png,68,motor,3,402,0,1,0,,
214,,1383818,HierDy8l8wvsyu,xz0wvylm2u,ms1000199,motorRepeat,,68,img/motor_3.png,68,motor,3,402,1,0,0,,
null,,1383929,HierDy8l8wvsyu,xz0wvylm2u,ms1000199,iti,,null,img/motor_3.png,68,motor,,,,,,,
405,,1384344,HierDy8l8wvsyu,xz0wvylm2u,ms1000199,motor,,72,img/motor_5.png,72,motor,5,403,1,0,0,,
null,,1384454,HierDy8l8wvsyu,xz0wvylm2u,ms1000199,iti,,null,img/motor_5.png,72,motor,,,,,,,
493,,1384957,HierDy8l8wvsyu,xz0wvylm2u,ms1000199,motor,,74,img/motor_6.png,74,motor,6,404,1,0,0,,
null,,1385067,HierDy8l8wvsyu,xz0wvylm2u,ms1000199,iti,,null,img/motor_6.png,74,motor,,,,,,,
774,,1385851,HierDy8l8wvsyu,xz0wvylm2u,ms1000199,motor,,70,img/motor_3.png,68,motor,3,405,0,1,0,,
220,,1386080,HierDy8l8wvsyu,xz0wvylm2u,ms1000199,motorRepeat,,68,img/motor_3.png,68,motor,3,405,1,0,0,,
null,,1386191,HierDy8l8wvsyu,xz0wvylm2u,ms1000199,iti,,null,img/motor_3.png,68,motor,,,,,,,
549,,1386750,HierDy8l8wvsyu,xz0wvylm2u,ms1000199,motor,,76,img/motor_8.png,76,motor,8,406,1,0,0,,
null,,1386861,HierDy8l8wvsyu,xz0wvylm2u,ms1000199,iti,,null,img/motor_8.png,76,motor,,,,,,,
531,,1387403,HierDy8l8wvsyu,xz0wvylm2u,ms1000199,motor,,72,img/motor_6.png,74,motor,6,407,0,1,0,,
385,,1387797,HierDy8l8wvsyu,xz0wvylm2u,ms1000199,motorRepeat,,74,img/motor_6.png,74,motor,6,407,1,0,0,,
null,,1387908,HierDy8l8wvsyu,xz0wvylm2u,ms1000199,iti,,null,img/motor_6.png,74,motor,,,,,,,
434,,1388353,HierDy8l8wvsyu,xz0wvylm2u,ms1000199,motor,,76,img/motor_8.png,76,motor,8,408,1,0,0,,
null,,1388464,HierDy8l8wvsyu,xz0wvylm2u,ms1000199,iti,,null,img/motor_8.png,76,motor,,,,,,,
349,,1388824,HierDy8l8wvsyu,xz0wvylm2u,ms1000199,motor,,74,img/motor_6.png,74,motor,6,409,1,0,0,,
null,,1388934,HierDy8l8wvsyu,xz0wvylm2u,ms1000199,iti,,null,img/motor_6.png,74,motor,,,,,,,
337,,1389281,HierDy8l8wvsyu,xz0wvylm2u,ms1000199,motor,,75,img/motor_7.png,75,motor,7,410,1,0,0,,
null,,1389392,HierDy8l8wvsyu,xz0wvylm2u,ms1000199,iti,,null,img/motor_7.png,75,motor,,,,,,,
415,,1389818,HierDy8l8wvsyu,xz0wvylm2u,ms1000199,motor,,65,img/motor_1.png,65,motor,1,411,1,0,0,,
null,,1389928,HierDy8l8wvsyu,xz0wvylm2u,ms1000199,iti,,null,img/motor_1.png,65,motor,,,,,,,
482,,1390422,HierDy8l8wvsyu,xz0wvylm2u,ms1000199,motor,,72,img/motor_5.png,72,motor,5,412,1,0,0,,
null,,1390533,HierDy8l8wvsyu,xz0wvylm2u,ms1000199,iti,,null,img/motor_5.png,72,motor,,,,,,,
808,,1391351,HierDy8l8wvsyu,xz0wvylm2u,ms1000199,motor,,68,img/motor_3.png,68,motor,3,413,1,0,0,,
null,,1391461,HierDy8l8wvsyu,xz0wvylm2u,ms1000199,iti,,null,img/motor_3.png,68,motor,,,,,,,
381,,1391853,HierDy8l8wvsyu,xz0wvylm2u,ms1000199,motor,,83,img/motor_2.png,83,motor,2,414,1,0,0,,
null,,1391965,HierDy8l8wvsyu,xz0wvylm2u,ms1000199,iti,,null,img/motor_2.png,83,motor,,,,,,,
614,,1392590,HierDy8l8wvsyu,xz0wvylm2u,ms1000199,motor,,74,img/motor_6.png,74,motor,6,415,1,0,0,,
null,,1392701,HierDy8l8wvsyu,xz0wvylm2u,ms1000199,iti,,null,img/motor_6.png,74,motor,,,,,,,
664,,1393376,HierDy8l8wvsyu,xz0wvylm2u,ms1000199,motor,,83,img/motor_2.png,83,motor,2,416,1,0,0,,
null,,1393486,HierDy8l8wvsyu,xz0wvylm2u,ms1000199,iti,,null,img/motor_2.png,83,motor,,,,,,,
410,,1393906,HierDy8l8wvsyu,xz0wvylm2u,ms1000199,motor,,83,img/motor_2.png,83,motor,2,417,1,0,0,,
null,,1394017,HierDy8l8wvsyu,xz0wvylm2u,ms1000199,iti,,null,img/motor_2.png,83,motor,,,,,,,
506,,1394533,HierDy8l8wvsyu,xz0wvylm2u,ms1000199,motor,,72,img/motor_5.png,72,motor,5,418,1,0,0,,
null,,1394644,HierDy8l8wvsyu,xz0wvylm2u,ms1000199,iti,,null,img/motor_5.png,72,motor,,,,,,,
451,,1395105,HierDy8l8wvsyu,xz0wvylm2u,ms1000199,motor,,65,img/motor_1.png,65,motor,1,419,1,0,0,,
null,,1395216,HierDy8l8wvsyu,xz0wvylm2u,ms1000199,iti,,null,img/motor_1.png,65,motor,,,,,,,
551,,1395779,HierDy8l8wvsyu,xz0wvylm2u,ms1000199,motor,,68,img/motor_3.png,68,motor,3,420,1,0,0,,
null,,1395890,HierDy8l8wvsyu,xz0wvylm2u,ms1000199,iti,,null,img/motor_3.png,68,motor,,,,,,,
621,,1396522,HierDy8l8wvsyu,xz0wvylm2u,ms1000199,motor,,74,img/motor_6.png,74,motor,6,421,1,0,0,,
null,,1396633,HierDy8l8wvsyu,xz0wvylm2u,ms1000199,iti,,null,img/motor_6.png,74,motor,,,,,,,
643,,1397286,HierDy8l8wvsyu,xz0wvylm2u,ms1000199,motor,,68,img/motor_3.png,68,motor,3,422,1,0,0,,
null,,1397397,HierDy8l8wvsyu,xz0wvylm2u,ms1000199,iti,,null,img/motor_3.png,68,motor,,,,,,,
601,,1398009,HierDy8l8wvsyu,xz0wvylm2u,ms1000199,motor,,76,img/motor_8.png,76,motor,8,423,1,0,0,,
null,,1398120,HierDy8l8wvsyu,xz0wvylm2u,ms1000199,iti,,null,img/motor_8.png,76,motor,,,,,,,
442,,1398571,HierDy8l8wvsyu,xz0wvylm2u,ms1000199,motor,,72,img/motor_5.png,72,motor,5,424,1,0,0,,
null,,1398683,HierDy8l8wvsyu,xz0wvylm2u,ms1000199,iti,,null,img/motor_5.png,72,motor,,,,,,,
431,,1399123,HierDy8l8wvsyu,xz0wvylm2u,ms1000199,motor,,72,img/motor_5.png,72,motor,5,425,1,0,0,,
null,,1399234,HierDy8l8wvsyu,xz0wvylm2u,ms1000199,iti,,null,img/motor_5.png,72,motor,,,,,,,
541,,1399785,HierDy8l8wvsyu,xz0wvylm2u,ms1000199,motor,,68,img/motor_3.png,68,motor,3,426,1,0,0,,
null,,1399896,HierDy8l8wvsyu,xz0wvylm2u,ms1000199,iti,,null,img/motor_3.png,68,motor,,,,,,,
432,,1400338,HierDy8l8wvsyu,xz0wvylm2u,ms1000199,motor,,72,img/motor_5.png,72,motor,5,427,1,0,0,,
null,,1400449,HierDy8l8wvsyu,xz0wvylm2u,ms1000199,iti,,null,img/motor_5.png,72,motor,,,,,,,
526,,1400986,HierDy8l8wvsyu,xz0wvylm2u,ms1000199,motor,,65,img/motor_1.png,65,motor,1,428,1,0,0,,
null,,1401097,HierDy8l8wvsyu,xz0wvylm2u,ms1000199,iti,,null,img/motor_1.png,65,motor,,,,,,,
441,,1401547,HierDy8l8wvsyu,xz0wvylm2u,ms1000199,motor,,83,img/motor_2.png,83,motor,2,429,1,0,0,,
null,,1401658,HierDy8l8wvsyu,xz0wvylm2u,ms1000199,iti,,null,img/motor_2.png,83,motor,,,,,,,
508,,1402177,HierDy8l8wvsyu,xz0wvylm2u,ms1000199,motor,,72,img/motor_5.png,72,motor,5,430,1,0,0,,
null,,1402288,HierDy8l8wvsyu,xz0wvylm2u,ms1000199,iti,,null,img/motor_5.png,72,motor,,,,,,,
530,,1402829,HierDy8l8wvsyu,xz0wvylm2u,ms1000199,motor,,68,img/motor_3.png,68,motor,3,431,1,0,0,,
null,,1402939,HierDy8l8wvsyu,xz0wvylm2u,ms1000199,iti,,null,img/motor_3.png,68,motor,,,,,,,
674,,1403623,HierDy8l8wvsyu,xz0wvylm2u,ms1000199,motor,,75,img/motor_7.png,75,motor,7,432,1,0,0,,
null,,1403734,HierDy8l8wvsyu,xz0wvylm2u,ms1000199,iti,,null,img/motor_7.png,75,motor,,,,,,,
410,,1404153,HierDy8l8wvsyu,xz0wvylm2u,ms1000199,motor,,65,img/motor_1.png,65,motor,1,433,1,0,0,,
null,,1404264,HierDy8l8wvsyu,xz0wvylm2u,ms1000199,iti,,null,img/motor_1.png,65,motor,,,,,,,
598,,1404871,HierDy8l8wvsyu,xz0wvylm2u,ms1000199,motor,,74,img/motor_6.png,74,motor,6,434,1,0,0,,
null,,1404982,HierDy8l8wvsyu,xz0wvylm2u,ms1000199,iti,,null,img/motor_6.png,74,motor,,,,,,,
443,,1405435,HierDy8l8wvsyu,xz0wvylm2u,ms1000199,motor,,83,img/motor_1.png,65,motor,1,435,0,1,0,,
302,,1405747,HierDy8l8wvsyu,xz0wvylm2u,ms1000199,motorRepeat,,65,img/motor_1.png,65,motor,1,435,1,0,0,,
null,,1405858,HierDy8l8wvsyu,xz0wvylm2u,ms1000199,iti,,null,img/motor_1.png,65,motor,,,,,,,
495,,1406363,HierDy8l8wvsyu,xz0wvylm2u,ms1000199,motor,,75,img/motor_7.png,75,motor,7,436,1,0,0,,
null,,1406475,HierDy8l8wvsyu,xz0wvylm2u,ms1000199,iti,,null,img/motor_7.png,75,motor,,,,,,,
661,,1407147,HierDy8l8wvsyu,xz0wvylm2u,ms1000199,motor,,68,img/motor_3.png,68,motor,3,437,1,0,0,,
null,,1407258,HierDy8l8wvsyu,xz0wvylm2u,ms1000199,iti,,null,img/motor_3.png,68,motor,,,,,,,
598,,1407866,HierDy8l8wvsyu,xz0wvylm2u,ms1000199,motor,,75,img/motor_7.png,75,motor,7,438,1,0,0,,
null,,1407976,HierDy8l8wvsyu,xz0wvylm2u,ms1000199,iti,,null,img/motor_7.png,75,motor,,,,,,,
427,,1408412,HierDy8l8wvsyu,xz0wvylm2u,ms1000199,motor,,65,img/motor_1.png,65,motor,1,439,1,0,0,,
null,,1408522,HierDy8l8wvsyu,xz0wvylm2u,ms1000199,iti,,null,img/motor_1.png,65,motor,,,,,,,
926,,1409458,HierDy8l8wvsyu,xz0wvylm2u,ms1000199,motor,,74,img/motor_6.png,74,motor,6,440,1,0,0,,
null,,1409569,HierDy8l8wvsyu,xz0wvylm2u,ms1000199,iti,,null,img/motor_6.png,74,motor,,,,,,,
369,,1409949,HierDy8l8wvsyu,xz0wvylm2u,ms1000199,motor,,74,img/motor_6.png,74,motor,6,441,1,0,0,,
null,,1410060,HierDy8l8wvsyu,xz0wvylm2u,ms1000199,iti,,null,img/motor_6.png,74,motor,,,,,,,
447,,1410516,HierDy8l8wvsyu,xz0wvylm2u,ms1000199,motor,,75,img/motor_7.png,75,motor,7,442,1,0,0,,
null,,1410628,HierDy8l8wvsyu,xz0wvylm2u,ms1000199,iti,,null,img/motor_7.png,75,motor,,,,,,,
458,,1411096,HierDy8l8wvsyu,xz0wvylm2u,ms1000199,motor,,74,img/motor_6.png,74,motor,6,443,1,0,0,,
null,,1411207,HierDy8l8wvsyu,xz0wvylm2u,ms1000199,iti,,null,img/motor_6.png,74,motor,,,,,,,
589,,1411807,HierDy8l8wvsyu,xz0wvylm2u,ms1000199,motor,,68,img/motor_3.png,68,motor,3,444,1,0,0,,
null,,1411919,HierDy8l8wvsyu,xz0wvylm2u,ms1000199,iti,,null,img/motor_3.png,68,motor,,,,,,,
426,,1412356,HierDy8l8wvsyu,xz0wvylm2u,ms1000199,motor,,70,img/motor_4.png,70,motor,4,445,1,0,0,,
null,,1412466,HierDy8l8wvsyu,xz0wvylm2u,ms1000199,iti,,null,img/motor_4.png,70,motor,,,,,,,
447,,1412923,HierDy8l8wvsyu,xz0wvylm2u,ms1000199,motor,,65,img/motor_1.png,65,motor,1,446,1,0,0,,
null,,1413034,HierDy8l8wvsyu,xz0wvylm2u,ms1000199,iti,,null,img/motor_1.png,65,motor,,,,,,,
470,,1413514,HierDy8l8wvsyu,xz0wvylm2u,ms1000199,motor,,76,img/motor_8.png,76,motor,8,447,1,0,0,,
null,,1413624,HierDy8l8wvsyu,xz0wvylm2u,ms1000199,iti,,null,img/motor_8.png,76,motor,,,,,,,
475,,1414110,HierDy8l8wvsyu,xz0wvylm2u,ms1000199,motor,,83,img/motor_2.png,83,motor,2,448,1,0,0,,
null,,1414222,HierDy8l8wvsyu,xz0wvylm2u,ms1000199,iti,,null,img/motor_2.png,83,motor,,,,,,,
455,,1414685,HierDy8l8wvsyu,xz0wvylm2u,ms1000199,motor,,70,img/motor_4.png,70,motor,4,449,1,0,0,,
null,,1414797,HierDy8l8wvsyu,xz0wvylm2u,ms1000199,iti,,null,img/motor_4.png,70,motor,,,,,,,
495,,1415302,HierDy8l8wvsyu,xz0wvylm2u,ms1000199,motor,,72,img/motor_5.png,72,motor,5,450,1,0,0,,
null,,1415414,HierDy8l8wvsyu,xz0wvylm2u,ms1000199,iti,,null,img/motor_5.png,72,motor,,,,,,,
449,,1415873,HierDy8l8wvsyu,xz0wvylm2u,ms1000199,motor,,68,img/motor_4.png,70,motor,4,451,0,1,0,,
359,,1416243,HierDy8l8wvsyu,xz0wvylm2u,ms1000199,motorRepeat,,72,img/motor_4.png,70,motor,4,451,0,1,0,,
28,,1416280,HierDy8l8wvsyu,xz0wvylm2u,ms1000199,motorRepeat,,74,img/motor_4.png,70,motor,4,451,0,1,0,,
228,,1416519,HierDy8l8wvsyu,xz0wvylm2u,ms1000199,motorRepeat,,70,img/motor_4.png,70,motor,4,451,1,0,0,,
null,,1416629,HierDy8l8wvsyu,xz0wvylm2u,ms1000199,iti,,null,img/motor_4.png,70,motor,,,,,,,
419,,1417060,HierDy8l8wvsyu,xz0wvylm2u,ms1000199,motor,,65,img/motor_1.png,65,motor,1,452,1,0,0,,
null,,1417170,HierDy8l8wvsyu,xz0wvylm2u,ms1000199,iti,,null,img/motor_1.png,65,motor,,,,,,,
652,,1417832,HierDy8l8wvsyu,xz0wvylm2u,ms1000199,motor,,74,img/motor_6.png,74,motor,6,453,1,0,0,,
null,,1417944,HierDy8l8wvsyu,xz0wvylm2u,ms1000199,iti,,null,img/motor_6.png,74,motor,,,,,,,
444,,1418398,HierDy8l8wvsyu,xz0wvylm2u,ms1000199,motor,,65,img/motor_1.png,65,motor,1,454,1,0,0,,
null,,1418508,HierDy8l8wvsyu,xz0wvylm2u,ms1000199,iti,,null,img/motor_1.png,65,motor,,,,,,,
789,,1419308,HierDy8l8wvsyu,xz0wvylm2u,ms1000199,motor,,70,img/motor_4.png,70,motor,4,455,1,0,0,,
null,,1419419,HierDy8l8wvsyu,xz0wvylm2u,ms1000199,iti,,null,img/motor_4.png,70,motor,,,,,,,
772,,1420202,HierDy8l8wvsyu,xz0wvylm2u,ms1000199,motor,,74,img/motor_7.png,75,motor,7,456,0,1,0,,
603,,1420815,HierDy8l8wvsyu,xz0wvylm2u,ms1000199,motorRepeat,,75,img/motor_7.png,75,motor,7,456,1,0,0,,
null,,1420926,HierDy8l8wvsyu,xz0wvylm2u,ms1000199,iti,,null,img/motor_7.png,75,motor,,,,,,,
579,,1421515,HierDy8l8wvsyu,xz0wvylm2u,ms1000199,motor,,70,img/motor_4.png,70,motor,4,457,1,0,0,,
null,,1421626,HierDy8l8wvsyu,xz0wvylm2u,ms1000199,iti,,null,img/motor_4.png,70,motor,,,,,,,
465,,1422101,HierDy8l8wvsyu,xz0wvylm2u,ms1000199,motor,,83,img/motor_2.png,83,motor,2,458,1,0,0,,
null,,1422212,HierDy8l8wvsyu,xz0wvylm2u,ms1000199,iti,,null,img/motor_2.png,83,motor,,,,,,,
350,,1422572,HierDy8l8wvsyu,xz0wvylm2u,ms1000199,motor,,68,img/motor_3.png,68,motor,3,459,1,0,0,,
null,,1422683,HierDy8l8wvsyu,xz0wvylm2u,ms1000199,iti,,null,img/motor_3.png,68,motor,,,,,,,
586,,1423280,HierDy8l8wvsyu,xz0wvylm2u,ms1000199,motor,,76,img/motor_8.png,76,motor,8,460,1,0,0,,
null,,1423391,HierDy8l8wvsyu,xz0wvylm2u,ms1000199,iti,,null,img/motor_8.png,76,motor,,,,,,,
601,,1424004,HierDy8l8wvsyu,xz0wvylm2u,ms1000199,motor,,68,img/motor_2.png,83,motor,2,461,0,1,0,,
302,,1424315,HierDy8l8wvsyu,xz0wvylm2u,ms1000199,motorRepeat,,83,img/motor_2.png,83,motor,2,461,1,0,0,,
null,,1424426,HierDy8l8wvsyu,xz0wvylm2u,ms1000199,iti,,null,img/motor_2.png,83,motor,,,,,,,
482,,1424919,HierDy8l8wvsyu,xz0wvylm2u,ms1000199,motor,,72,img/motor_5.png,72,motor,5,462,1,0,0,,
null,,1425029,HierDy8l8wvsyu,xz0wvylm2u,ms1000199,iti,,null,img/motor_5.png,72,motor,,,,,,,
581,,1425621,HierDy8l8wvsyu,xz0wvylm2u,ms1000199,motor,,83,img/motor_2.png,83,motor,2,463,1,0,0,,
null,,1425732,HierDy8l8wvsyu,xz0wvylm2u,ms1000199,iti,,null,img/motor_2.png,83,motor,,,,,,,
578,,1426320,HierDy8l8wvsyu,xz0wvylm2u,ms1000199,motor,,75,img/motor_7.png,75,motor,7,464,1,0,0,,
null,,1426431,HierDy8l8wvsyu,xz0wvylm2u,ms1000199,iti,,null,img/motor_7.png,75,motor,,,,,,,
404,,1426846,HierDy8l8wvsyu,xz0wvylm2u,ms1000199,motor,,83,img/motor_2.png,83,motor,2,465,1,0,0,,
null,,1426957,HierDy8l8wvsyu,xz0wvylm2u,ms1000199,iti,,null,img/motor_2.png,83,motor,,,,,,,
481,,1427449,HierDy8l8wvsyu,xz0wvylm2u,ms1000199,motor,,76,img/motor_8.png,76,motor,8,466,1,0,0,,
null,,1427560,HierDy8l8wvsyu,xz0wvylm2u,ms1000199,iti,,null,img/motor_8.png,76,motor,,,,,,,
617,,1428187,HierDy8l8wvsyu,xz0wvylm2u,ms1000199,motor,,72,img/motor_5.png,72,motor,5,467,1,0,0,,
null,,1428298,HierDy8l8wvsyu,xz0wvylm2u,ms1000199,iti,,null,img/motor_5.png,72,motor,,,,,,,
446,,1428755,HierDy8l8wvsyu,xz0wvylm2u,ms1000199,motor,,76,img/motor_8.png,76,motor,8,468,1,0,0,,
null,,1428866,HierDy8l8wvsyu,xz0wvylm2u,ms1000199,iti,,null,img/motor_8.png,76,motor,,,,,,,
375,,1429252,HierDy8l8wvsyu,xz0wvylm2u,ms1000199,motor,,72,img/motor_5.png,72,motor,5,469,1,0,0,,
null,,1429363,HierDy8l8wvsyu,xz0wvylm2u,ms1000199,iti,,null,img/motor_5.png,72,motor,,,,,,,
617,,1429991,HierDy8l8wvsyu,xz0wvylm2u,ms1000199,motor,,68,img/motor_3.png,68,motor,3,470,1,0,0,,
null,,1430101,HierDy8l8wvsyu,xz0wvylm2u,ms1000199,iti,,null,img/motor_3.png,68,motor,,,,,,,
354,,1430466,HierDy8l8wvsyu,xz0wvylm2u,ms1000199,motor,,70,img/motor_4.png,70,motor,4,471,1,0,0,,
null,,1430577,HierDy8l8wvsyu,xz0wvylm2u,ms1000199,iti,,null,img/motor_4.png,70,motor,,,,,,,
698,,1431285,HierDy8l8wvsyu,xz0wvylm2u,ms1000199,motor,,74,img/motor_6.png,74,motor,6,472,1,0,0,,
null,,1431397,HierDy8l8wvsyu,xz0wvylm2u,ms1000199,iti,,null,img/motor_6.png,74,motor,,,,,,,
380,,1431787,HierDy8l8wvsyu,xz0wvylm2u,ms1000199,motor,,74,img/motor_6.png,74,motor,6,473,1,0,0,,
null,,1431898,HierDy8l8wvsyu,xz0wvylm2u,ms1000199,iti,,null,img/motor_6.png,74,motor,,,,,,,
532,,1432441,HierDy8l8wvsyu,xz0wvylm2u,ms1000199,motor,,76,img/motor_8.png,76,motor,8,474,1,0,0,,
null,,1432552,HierDy8l8wvsyu,xz0wvylm2u,ms1000199,iti,,null,img/motor_8.png,76,motor,,,,,,,
391,,1432953,HierDy8l8wvsyu,xz0wvylm2u,ms1000199,motor,,76,img/motor_8.png,76,motor,8,475,1,0,0,,
null,,1433064,HierDy8l8wvsyu,xz0wvylm2u,ms1000199,iti,,null,img/motor_8.png,76,motor,,,,,,,
470,,1433545,HierDy8l8wvsyu,xz0wvylm2u,ms1000199,motor,,83,img/motor_2.png,83,motor,2,476,1,0,0,,
null,,1433657,HierDy8l8wvsyu,xz0wvylm2u,ms1000199,iti,,null,img/motor_2.png,83,motor,,,,,,,
425,,1434094,HierDy8l8wvsyu,xz0wvylm2u,ms1000199,motor,,65,img/motor_1.png,65,motor,1,477,1,0,0,,
null,,1434204,HierDy8l8wvsyu,xz0wvylm2u,ms1000199,iti,,null,img/motor_1.png,65,motor,,,,,,,
720,,1434935,HierDy8l8wvsyu,xz0wvylm2u,ms1000199,motor,,72,img/motor_5.png,72,motor,5,478,1,0,0,,
null,,1435046,HierDy8l8wvsyu,xz0wvylm2u,ms1000199,iti,,null,img/motor_5.png,72,motor,,,,,,,
573,,1435630,HierDy8l8wvsyu,xz0wvylm2u,ms1000199,motor,,72,img/motor_5.png,72,motor,5,479,1,0,0,,
null,,1435740,HierDy8l8wvsyu,xz0wvylm2u,ms1000199,iti,,null,img/motor_5.png,72,motor,,,,,,,
587,,1436339,HierDy8l8wvsyu,xz0wvylm2u,ms1000199,motor,,65,img/motor_1.png,65,motor,1,480,1,0,0,,
null,,1436450,HierDy8l8wvsyu,xz0wvylm2u,ms1000199,iti,,null,img/motor_1.png,65,motor,,,,,,,
562,,1437021,HierDy8l8wvsyu,xz0wvylm2u,ms1000199,motor,,68,img/motor_3.png,68,motor,3,481,1,0,0,,
null,,1437134,HierDy8l8wvsyu,xz0wvylm2u,ms1000199,iti,,null,img/motor_3.png,68,motor,,,,,,,
458,,1437601,HierDy8l8wvsyu,xz0wvylm2u,ms1000199,motor,,65,img/motor_1.png,65,motor,1,482,1,0,0,,
null,,1437712,HierDy8l8wvsyu,xz0wvylm2u,ms1000199,iti,,null,img/motor_1.png,65,motor,,,,,,,
418,,1438139,HierDy8l8wvsyu,xz0wvylm2u,ms1000199,motor,,83,img/motor_2.png,83,motor,2,483,1,0,0,,
null,,1438250,HierDy8l8wvsyu,xz0wvylm2u,ms1000199,iti,,null,img/motor_2.png,83,motor,,,,,,,
423,,1438683,HierDy8l8wvsyu,xz0wvylm2u,ms1000199,motor,,83,img/motor_2.png,83,motor,2,484,1,0,0,,
null,,1438794,HierDy8l8wvsyu,xz0wvylm2u,ms1000199,iti,,null,img/motor_2.png,83,motor,,,,,,,
379,,1439184,HierDy8l8wvsyu,xz0wvylm2u,ms1000199,motor,,65,img/motor_1.png,65,motor,1,485,1,0,0,,
null,,1439295,HierDy8l8wvsyu,xz0wvylm2u,ms1000199,iti,,null,img/motor_1.png,65,motor,,,,,,,
562,,1439868,HierDy8l8wvsyu,xz0wvylm2u,ms1000199,motor,,74,img/motor_6.png,74,motor,6,486,1,0,0,,
null,,1439978,HierDy8l8wvsyu,xz0wvylm2u,ms1000199,iti,,null,img/motor_6.png,74,motor,,,,,,,
437,,1440425,HierDy8l8wvsyu,xz0wvylm2u,ms1000199,motor,,74,img/motor_6.png,74,motor,6,487,1,0,0,,
null,,1440536,HierDy8l8wvsyu,xz0wvylm2u,ms1000199,iti,,null,img/motor_6.png,74,motor,,,,,,,
36770,,1477315,HierDy8l8wvsyu,xz0wvylm2u,ms1000199,,,,,,,,,,,,,
2443,,1479770,HierDy8l8wvsyu,xz0wvylm2u,ms1000199,prac,,72,img/image3.bmp,74,prac,,,0,,,1,
null,,1480532,HierDy8l8wvsyu,xz0wvylm2u,ms1000199,feedback,,null,,na,prac,,,,,,,
null,,1483043,HierDy8l8wvsyu,xz0wvylm2u,ms1000199,prac,,null,img/image4.bmp,72,prac,,,0,,,2,
null,,1483804,HierDy8l8wvsyu,xz0wvylm2u,ms1000199,feedback,,null,,na,prac,,,,,,,
604,,1484418,HierDy8l8wvsyu,xz0wvylm2u,ms1000199,prac,,75,img/image5.bmp,75,prac,,,1,,,2,
null,,1485179,HierDy8l8wvsyu,xz0wvylm2u,ms1000199,feedback,,null,,na,prac,,,,,,,
1018,,1486206,HierDy8l8wvsyu,xz0wvylm2u,ms1000199,prac,,74,img/image4.bmp,72,prac,,,0,,,3,
null,,1486967,HierDy8l8wvsyu,xz0wvylm2u,ms1000199,feedback,,null,,na,prac,,,,,,,
1219,,1488196,HierDy8l8wvsyu,xz0wvylm2u,ms1000199,prac,,74,img/image4.bmp,72,prac,,,0,,,4,
null,,1488957,HierDy8l8wvsyu,xz0wvylm2u,ms1000199,feedback,,null,,na,prac,,,,,,,
1170,,1490138,HierDy8l8wvsyu,xz0wvylm2u,ms1000199,prac,,72,img/image3.bmp,74,prac,,,0,,,5,
null,,1490900,HierDy8l8wvsyu,xz0wvylm2u,ms1000199,feedback,,null,,na,prac,,,,,,,
870,,1491781,HierDy8l8wvsyu,xz0wvylm2u,ms1000199,prac,,75,img/image5.bmp,75,prac,,,1,,,5,
null,,1492544,HierDy8l8wvsyu,xz0wvylm2u,ms1000199,feedback,,null,,na,prac,,,,,,,
1357,,1493912,HierDy8l8wvsyu,xz0wvylm2u,ms1000199,prac,,75,img/image4.bmp,72,prac,,,0,,,6,
null,,1494673,HierDy8l8wvsyu,xz0wvylm2u,ms1000199,feedback,,null,,na,prac,,,,,,,
14609,,1509293,HierDy8l8wvsyu,xz0wvylm2u,ms1000199,,,,,,prac,,,,,,,
21346,,1530650,HierDy8l8wvsyu,xz0wvylm2u,ms1000199,,,32,,,,,,,,,,
6007,,1536666,HierDy8l8wvsyu,xz0wvylm2u,ms1000199,,,,,,prac,,,,,,,
1165,,1537843,HierDy8l8wvsyu,xz0wvylm2u,ms1000199,rl,,65,img/o_t_stripes.png,76,test,8,1,0,,,,shape;pattern;color
null,,1538853,HierDy8l8wvsyu,xz0wvylm2u,ms1000199,feedback,,null,,na,test,,,,,,,
1023,,1539885,HierDy8l8wvsyu,xz0wvylm2u,ms1000199,rl,,65,img/b_t_stripes.png,75,test,7,NaN,0,,,,shape;pattern;color
null,,1540896,HierDy8l8wvsyu,xz0wvylm2u,ms1000199,feedback,,null,,na,test,,,,,,,
595,,1541501,HierDy8l8wvsyu,xz0wvylm2u,ms1000199,rl,,65,img/b_s_stripes.png,68,test,3,NaN,0,,,,shape;pattern;color
null,,1542513,HierDy8l8wvsyu,xz0wvylm2u,ms1000199,feedback,,null,,na,test,,,,,,,
544,,1543066,HierDy8l8wvsyu,xz0wvylm2u,ms1000199,rl,,65,img/b_s_check.png,65,test,1,NaN,1,,,,shape;pattern;color
null,,1544077,HierDy8l8wvsyu,xz0wvylm2u,ms1000199,feedback,,null,,na,test,,,,,,,
1362,,1545449,HierDy8l8wvsyu,xz0wvylm2u,ms1000199,rl,,76,img/o_s_stripes.png,70,test,4,NaN,0,,,,shape;pattern;color
null,,1546460,HierDy8l8wvsyu,xz0wvylm2u,ms1000199,feedback,,null,,na,test,,,,,,,
768,,1547239,HierDy8l8wvsyu,xz0wvylm2u,ms1000199,rl,,65,img/o_s_check.png,83,test,2,NaN,0,,,,shape;pattern;color
null,,1548250,HierDy8l8wvsyu,xz0wvylm2u,ms1000199,feedback,,null,,na,test,,,,,,,
924,,1549185,HierDy8l8wvsyu,xz0wvylm2u,ms1000199,rl,,83,img/b_t_check.png,72,test,5,NaN,0,,,,shape;pattern;color
null,,1550196,HierDy8l8wvsyu,xz0wvylm2u,ms1000199,feedback,,null,,na,test,,,,,,,
753,,1550959,HierDy8l8wvsyu,xz0wvylm2u,ms1000199,rl,,68,img/b_t_stripes.png,75,test,7,NaN,0,,,,shape;pattern;color
null,,1551969,HierDy8l8wvsyu,xz0wvylm2u,ms1000199,feedback,,null,,na,test,,,,,,,
