"rt","responses","time_elapsed","subject","prolificID","demoID","trialType","question_order","key_press","stim","corrresp","phase","stimNum","trialNum","corr","repeatTrial","motorSwitch","pracCounter","hierarchy"
"35476","{""Q0"":""ms1000307""}","35508","HierDyn4hsy00s","sdszn0lm0k","ms1000307","","","","","","","","","","","","",""
"10341","","45857","HierDyn4hsy00s","sdszn0lm0k","ms1000307","","","","","","","","","","","","",""
"","","51398","HierDyn4hsy00s","sdszn0lm0k","ms1000307","fullscreen","","","","","","","","","","","",""
"18252","{""Vision"":""Yes"",""Handedness"":""Right"",""Gender"":""female""}","69658","HierDyn4hsy00s","sdszn0lm0k","ms1000307","","[0,1,2]","","","","","","","","","","",""
"4047","{""Q0"":""20""}","73725","HierDyn4hsy00s","sdszn0lm0k","ms1000307","","","","","","","","","","","","",""
"110774","","184510","HierDyn4hsy00s","sdszn0lm0k","ms1000307","","","","","","","","","","","","",""
"1719","","186238","HierDyn4hsy00s","sdszn0lm0k","ms1000307","motor","","70","img/motor_4.png","70","motor","4","1","1","0","0","",""
"null","","186348","HierDyn4hsy00s","sdszn0lm0k","ms1000307","iti","","null","img/motor_4.png","70","motor","","","","","","",""
"618","","186974","HierDyn4hsy00s","sdszn0lm0k","ms1000307","motor","","74","img/motor_5.png","72","motor","5","2","0","1","0","",""
"1433","","188421","HierDyn4hsy00s","sdszn0lm0k","ms1000307","motorRepeat","","72","img/motor_5.png","72","motor","5","2","1","0","0","",""
"null","","188537","HierDyn4hsy00s","sdszn0lm0k","ms1000307","iti","","null","img/motor_5.png","72","motor","","","","","","",""
"900","","189453","HierDyn4hsy00s","sdszn0lm0k","ms1000307","motor","","83","img/motor_2.png","83","motor","2","3","1","0","0","",""
"null","","189568","HierDyn4hsy00s","sdszn0lm0k","ms1000307","iti","","null","img/motor_2.png","83","motor","","","","","","",""
"774","","190350","HierDyn4hsy00s","sdszn0lm0k","ms1000307","motor","","75","img/motor_7.png","75","motor","7","4","1","0","0","",""
"null","","190466","HierDyn4hsy00s","sdszn0lm0k","ms1000307","iti","","null","img/motor_7.png","75","motor","","","","","","",""
"492","","190967","HierDyn4hsy00s","sdszn0lm0k","ms1000307","motor","","72","img/motor_5.png","72","motor","5","5","1","0","0","",""
"null","","191081","HierDyn4hsy00s","sdszn0lm0k","ms1000307","iti","","null","img/motor_5.png","72","motor","","","","","","",""
"588","","191679","HierDyn4hsy00s","sdszn0lm0k","ms1000307","motor","","65","img/motor_1.png","65","motor","1","6","1","0","0","",""
"null","","191787","HierDyn4hsy00s","sdszn0lm0k","ms1000307","iti","","null","img/motor_1.png","65","motor","","","","","","",""
"643","","192438","HierDyn4hsy00s","sdszn0lm0k","ms1000307","motor","","68","img/motor_3.png","68","motor","3","7","1","0","0","",""
"null","","192553","HierDyn4hsy00s","sdszn0lm0k","ms1000307","iti","","null","img/motor_3.png","68","motor","","","","","","",""
"756","","193318","HierDyn4hsy00s","sdszn0lm0k","ms1000307","motor","","74","img/motor_6.png","74","motor","6","8","1","0","0","",""
"null","","193427","HierDyn4hsy00s","sdszn0lm0k","ms1000307","iti","","null","img/motor_6.png","74","motor","","","","","","",""
"483","","193926","HierDyn4hsy00s","sdszn0lm0k","ms1000307","motor","","72","img/motor_5.png","72","motor","5","9","1","0","0","",""
"null","","194035","HierDyn4hsy00s","sdszn0lm0k","ms1000307","iti","","null","img/motor_5.png","72","motor","","","","","","",""
"548","","194591","HierDyn4hsy00s","sdszn0lm0k","ms1000307","motor","","83","img/motor_2.png","83","motor","2","10","1","0","0","",""
"null","","194699","HierDyn4hsy00s","sdszn0lm0k","ms1000307","iti","","null","img/motor_2.png","83","motor","","","","","","",""
"530","","195238","HierDyn4hsy00s","sdszn0lm0k","ms1000307","motor","","68","img/motor_3.png","68","motor","3","11","1","0","0","",""
"null","","195346","HierDyn4hsy00s","sdszn0lm0k","ms1000307","iti","","null","img/motor_3.png","68","motor","","","","","","",""
"493","","195847","HierDyn4hsy00s","sdszn0lm0k","ms1000307","motor","","76","img/motor_8.png","76","motor","8","12","1","0","0","",""
"null","","195955","HierDyn4hsy00s","sdszn0lm0k","ms1000307","iti","","null","img/motor_8.png","76","motor","","","","","","",""
"460","","196422","HierDyn4hsy00s","sdszn0lm0k","ms1000307","motor","","75","img/motor_6.png","74","motor","6","13","0","1","0","",""
"247","","196685","HierDyn4hsy00s","sdszn0lm0k","ms1000307","motorRepeat","","74","img/motor_6.png","74","motor","6","13","1","0","0","",""
"null","","196801","HierDyn4hsy00s","sdszn0lm0k","ms1000307","iti","","null","img/motor_6.png","74","motor","","","","","","",""
"598","","197406","HierDyn4hsy00s","sdszn0lm0k","ms1000307","motor","","83","img/motor_2.png","83","motor","2","14","1","0","0","",""
"null","","197521","HierDyn4hsy00s","sdszn0lm0k","ms1000307","iti","","null","img/motor_2.png","83","motor","","","","","","",""
"661","","198203","HierDyn4hsy00s","sdszn0lm0k","ms1000307","motor","","74","img/motor_6.png","74","motor","6","15","1","0","0","",""
"null","","198312","HierDyn4hsy00s","sdszn0lm0k","ms1000307","iti","","null","img/motor_6.png","74","motor","","","","","","",""
"550","","198871","HierDyn4hsy00s","sdszn0lm0k","ms1000307","motor","","70","img/motor_4.png","70","motor","4","16","1","0","0","",""
"null","","198979","HierDyn4hsy00s","sdszn0lm0k","ms1000307","iti","","null","img/motor_4.png","70","motor","","","","","","",""
"531","","199525","HierDyn4hsy00s","sdszn0lm0k","ms1000307","motor","","74","img/motor_6.png","74","motor","6","17","1","0","0","",""
"null","","199634","HierDyn4hsy00s","sdszn0lm0k","ms1000307","iti","","null","img/motor_6.png","74","motor","","","","","","",""
"675","","200319","HierDyn4hsy00s","sdszn0lm0k","ms1000307","motor","","75","img/motor_7.png","75","motor","7","18","1","0","0","",""
"null","","200434","HierDyn4hsy00s","sdszn0lm0k","ms1000307","iti","","null","img/motor_7.png","75","motor","","","","","","",""
"677","","201118","HierDyn4hsy00s","sdszn0lm0k","ms1000307","motor","","74","img/motor_6.png","74","motor","6","19","1","0","0","",""
"null","","201228","HierDyn4hsy00s","sdszn0lm0k","ms1000307","iti","","null","img/motor_6.png","74","motor","","","","","","",""
"700","","201941","HierDyn4hsy00s","sdszn0lm0k","ms1000307","motor","","68","img/motor_3.png","68","motor","3","20","1","0","0","",""
"null","","202051","HierDyn4hsy00s","sdszn0lm0k","ms1000307","iti","","null","img/motor_3.png","68","motor","","","","","","",""
"556","","202615","HierDyn4hsy00s","sdszn0lm0k","ms1000307","motor","","72","img/motor_5.png","72","motor","5","21","1","0","0","",""
"null","","202730","HierDyn4hsy00s","sdszn0lm0k","ms1000307","iti","","null","img/motor_5.png","72","motor","","","","","","",""
"515","","203254","HierDyn4hsy00s","sdszn0lm0k","ms1000307","motor","","68","img/motor_3.png","68","motor","3","22","1","0","0","",""
"null","","203369","HierDyn4hsy00s","sdszn0lm0k","ms1000307","iti","","null","img/motor_3.png","68","motor","","","","","","",""
"534","","203910","HierDyn4hsy00s","sdszn0lm0k","ms1000307","motor","","65","img/motor_1.png","65","motor","1","23","1","0","0","",""
"null","","204018","HierDyn4hsy00s","sdszn0lm0k","ms1000307","iti","","null","img/motor_1.png","65","motor","","","","","","",""
"460","","204486","HierDyn4hsy00s","sdszn0lm0k","ms1000307","motor","","65","img/motor_1.png","65","motor","1","24","1","0","0","",""
"null","","204601","HierDyn4hsy00s","sdszn0lm0k","ms1000307","iti","","null","img/motor_1.png","65","motor","","","","","","",""
"597","","205206","HierDyn4hsy00s","sdszn0lm0k","ms1000307","motor","","68","img/motor_3.png","68","motor","3","25","1","0","0","",""
"null","","205314","HierDyn4hsy00s","sdszn0lm0k","ms1000307","iti","","null","img/motor_3.png","68","motor","","","","","","",""
"460","","205789","HierDyn4hsy00s","sdszn0lm0k","ms1000307","motor","","72","img/motor_5.png","72","motor","5","26","1","0","0","",""
"null","","205898","HierDyn4hsy00s","sdszn0lm0k","ms1000307","iti","","null","img/motor_5.png","72","motor","","","","","","",""
"444","","206352","HierDyn4hsy00s","sdszn0lm0k","ms1000307","motor","","74","img/motor_6.png","74","motor","6","27","1","0","0","",""
"null","","206460","HierDyn4hsy00s","sdszn0lm0k","ms1000307","iti","","null","img/motor_6.png","74","motor","","","","","","",""
"458","","206933","HierDyn4hsy00s","sdszn0lm0k","ms1000307","motor","","74","img/motor_6.png","74","motor","6","28","1","0","0","",""
"null","","207049","HierDyn4hsy00s","sdszn0lm0k","ms1000307","iti","","null","img/motor_6.png","74","motor","","","","","","",""
"549","","207606","HierDyn4hsy00s","sdszn0lm0k","ms1000307","motor","","83","img/motor_2.png","83","motor","2","29","1","0","0","",""
"null","","207715","HierDyn4hsy00s","sdszn0lm0k","ms1000307","iti","","null","img/motor_2.png","83","motor","","","","","","",""
"540","","208263","HierDyn4hsy00s","sdszn0lm0k","ms1000307","motor","","68","img/motor_3.png","68","motor","3","30","1","0","0","",""
"null","","208371","HierDyn4hsy00s","sdszn0lm0k","ms1000307","iti","","null","img/motor_3.png","68","motor","","","","","","",""
"469","","208847","HierDyn4hsy00s","sdszn0lm0k","ms1000307","motor","","83","img/motor_2.png","83","motor","2","31","1","0","0","",""
"null","","208962","HierDyn4hsy00s","sdszn0lm0k","ms1000307","iti","","null","img/motor_2.png","83","motor","","","","","","",""
"509","","209478","HierDyn4hsy00s","sdszn0lm0k","ms1000307","motor","","76","img/motor_8.png","76","motor","8","32","1","0","0","",""
"null","","209594","HierDyn4hsy00s","sdszn0lm0k","ms1000307","iti","","null","img/motor_8.png","76","motor","","","","","","",""
"557","","210159","HierDyn4hsy00s","sdszn0lm0k","ms1000307","motor","","83","img/motor_2.png","83","motor","2","33","1","0","0","",""
"null","","210274","HierDyn4hsy00s","sdszn0lm0k","ms1000307","iti","","null","img/motor_2.png","83","motor","","","","","","",""
"749","","211031","HierDyn4hsy00s","sdszn0lm0k","ms1000307","motor","","75","img/motor_7.png","75","motor","7","34","1","0","0","",""
"null","","211146","HierDyn4hsy00s","sdszn0lm0k","ms1000307","iti","","null","img/motor_7.png","75","motor","","","","","","",""
"534","","211687","HierDyn4hsy00s","sdszn0lm0k","ms1000307","motor","","72","img/motor_5.png","72","motor","5","35","1","0","0","",""
"null","","211803","HierDyn4hsy00s","sdszn0lm0k","ms1000307","iti","","null","img/motor_5.png","72","motor","","","","","","",""
"540","","212351","HierDyn4hsy00s","sdszn0lm0k","ms1000307","motor","","65","img/motor_1.png","65","motor","1","36","1","0","0","",""
"null","","212460","HierDyn4hsy00s","sdszn0lm0k","ms1000307","iti","","null","img/motor_1.png","65","motor","","","","","","",""
"484","","212951","HierDyn4hsy00s","sdszn0lm0k","ms1000307","motor","","83","img/motor_2.png","83","motor","2","37","1","0","0","",""
"null","","213066","HierDyn4hsy00s","sdszn0lm0k","ms1000307","iti","","null","img/motor_2.png","83","motor","","","","","","",""
"444","","213526","HierDyn4hsy00s","sdszn0lm0k","ms1000307","motor","","76","img/motor_8.png","76","motor","8","38","1","0","0","",""
"null","","213635","HierDyn4hsy00s","sdszn0lm0k","ms1000307","iti","","null","img/motor_8.png","76","motor","","","","","","",""
"660","","214310","HierDyn4hsy00s","sdszn0lm0k","ms1000307","motor","","83","img/motor_2.png","83","motor","2","39","1","0","0","",""
"null","","214419","HierDyn4hsy00s","sdszn0lm0k","ms1000307","iti","","null","img/motor_2.png","83","motor","","","","","","",""
"516","","214943","HierDyn4hsy00s","sdszn0lm0k","ms1000307","motor","","70","img/motor_4.png","70","motor","4","40","1","0","0","",""
"null","","215057","HierDyn4hsy00s","sdszn0lm0k","ms1000307","iti","","null","img/motor_4.png","70","motor","","","","","","",""
"421","","215487","HierDyn4hsy00s","sdszn0lm0k","ms1000307","motor","","68","img/motor_3.png","68","motor","3","41","1","0","0","",""
"null","","215596","HierDyn4hsy00s","sdszn0lm0k","ms1000307","iti","","null","img/motor_3.png","68","motor","","","","","","",""
"491","","216095","HierDyn4hsy00s","sdszn0lm0k","ms1000307","motor","","74","img/motor_6.png","74","motor","6","42","1","0","0","",""
"null","","216204","HierDyn4hsy00s","sdszn0lm0k","ms1000307","iti","","null","img/motor_6.png","74","motor","","","","","","",""
"467","","216680","HierDyn4hsy00s","sdszn0lm0k","ms1000307","motor","","65","img/motor_1.png","65","motor","1","43","1","0","0","",""
"null","","216794","HierDyn4hsy00s","sdszn0lm0k","ms1000307","iti","","null","img/motor_1.png","65","motor","","","","","","",""
"485","","217287","HierDyn4hsy00s","sdszn0lm0k","ms1000307","motor","","74","img/motor_6.png","74","motor","6","44","1","0","0","",""
"null","","217403","HierDyn4hsy00s","sdszn0lm0k","ms1000307","iti","","null","img/motor_6.png","74","motor","","","","","","",""
"468","","217879","HierDyn4hsy00s","sdszn0lm0k","ms1000307","motor","","76","img/motor_8.png","76","motor","8","45","1","0","0","",""
"null","","217988","HierDyn4hsy00s","sdszn0lm0k","ms1000307","iti","","null","img/motor_8.png","76","motor","","","","","","",""
"547","","218550","HierDyn4hsy00s","sdszn0lm0k","ms1000307","motor","","68","img/motor_3.png","68","motor","3","46","1","0","0","",""
"null","","218664","HierDyn4hsy00s","sdszn0lm0k","ms1000307","iti","","null","img/motor_3.png","68","motor","","","","","","",""
"470","","219143","HierDyn4hsy00s","sdszn0lm0k","ms1000307","motor","","68","img/motor_3.png","68","motor","3","47","1","0","0","",""
"null","","219252","HierDyn4hsy00s","sdszn0lm0k","ms1000307","iti","","null","img/motor_3.png","68","motor","","","","","","",""
"717","","219976","HierDyn4hsy00s","sdszn0lm0k","ms1000307","motor","","75","img/motor_7.png","75","motor","7","48","1","0","0","",""
"null","","220084","HierDyn4hsy00s","sdszn0lm0k","ms1000307","iti","","null","img/motor_7.png","75","motor","","","","","","",""
"395","","220487","HierDyn4hsy00s","sdszn0lm0k","ms1000307","motor","","75","img/motor_7.png","75","motor","7","49","1","0","0","",""
"null","","220602","HierDyn4hsy00s","sdszn0lm0k","ms1000307","iti","","null","img/motor_7.png","75","motor","","","","","","",""
"532","","221144","HierDyn4hsy00s","sdszn0lm0k","ms1000307","motor","","76","img/motor_8.png","76","motor","8","50","1","0","0","",""
"null","","221252","HierDyn4hsy00s","sdszn0lm0k","ms1000307","iti","","null","img/motor_8.png","76","motor","","","","","","",""
"524","","221783","HierDyn4hsy00s","sdszn0lm0k","ms1000307","motor","","72","img/motor_5.png","72","motor","5","51","1","0","0","",""
"null","","221892","HierDyn4hsy00s","sdszn0lm0k","ms1000307","iti","","null","img/motor_5.png","72","motor","","","","","","",""
"635","","222536","HierDyn4hsy00s","sdszn0lm0k","ms1000307","motor","","83","img/motor_2.png","83","motor","2","52","1","0","0","",""
"null","","222643","HierDyn4hsy00s","sdszn0lm0k","ms1000307","iti","","null","img/motor_2.png","83","motor","","","","","","",""
"404","","223055","HierDyn4hsy00s","sdszn0lm0k","ms1000307","motor","","83","img/motor_2.png","83","motor","2","53","1","0","0","",""
"null","","223163","HierDyn4hsy00s","sdszn0lm0k","ms1000307","iti","","null","img/motor_2.png","83","motor","","","","","","",""
"573","","223744","HierDyn4hsy00s","sdszn0lm0k","ms1000307","motor","","70","img/motor_4.png","70","motor","4","54","1","0","0","",""
"null","","223853","HierDyn4hsy00s","sdszn0lm0k","ms1000307","iti","","null","img/motor_4.png","70","motor","","","","","","",""
"491","","224352","HierDyn4hsy00s","sdszn0lm0k","ms1000307","motor","","76","img/motor_8.png","76","motor","8","55","1","0","0","",""
"null","","224466","HierDyn4hsy00s","sdszn0lm0k","ms1000307","iti","","null","img/motor_8.png","76","motor","","","","","","",""
"613","","225088","HierDyn4hsy00s","sdszn0lm0k","ms1000307","motor","","83","img/motor_2.png","83","motor","2","56","1","0","0","",""
"null","","225202","HierDyn4hsy00s","sdszn0lm0k","ms1000307","iti","","null","img/motor_2.png","83","motor","","","","","","",""
"517","","225734","HierDyn4hsy00s","sdszn0lm0k","ms1000307","motor","","72","img/motor_5.png","72","motor","5","57","1","0","0","",""
"null","","225849","HierDyn4hsy00s","sdszn0lm0k","ms1000307","iti","","null","img/motor_5.png","72","motor","","","","","","",""
"438","","226295","HierDyn4hsy00s","sdszn0lm0k","ms1000307","motor","","76","img/motor_8.png","76","motor","8","58","1","0","0","",""
"null","","226410","HierDyn4hsy00s","sdszn0lm0k","ms1000307","iti","","null","img/motor_8.png","76","motor","","","","","","",""
"453","","226878","HierDyn4hsy00s","sdszn0lm0k","ms1000307","motor","","75","img/motor_7.png","75","motor","7","59","1","0","0","",""
"null","","226993","HierDyn4hsy00s","sdszn0lm0k","ms1000307","iti","","null","img/motor_7.png","75","motor","","","","","","",""
"615","","227616","HierDyn4hsy00s","sdszn0lm0k","ms1000307","motor","","83","img/motor_2.png","83","motor","2","60","1","0","0","",""
"null","","227724","HierDyn4hsy00s","sdszn0lm0k","ms1000307","iti","","null","img/motor_2.png","83","motor","","","","","","",""
"476","","228207","HierDyn4hsy00s","sdszn0lm0k","ms1000307","motor","","75","img/motor_7.png","75","motor","7","61","1","0","0","",""
"null","","228315","HierDyn4hsy00s","sdszn0lm0k","ms1000307","iti","","null","img/motor_7.png","75","motor","","","","","","",""
"821","","229143","HierDyn4hsy00s","sdszn0lm0k","ms1000307","motor","","74","img/motor_6.png","74","motor","6","62","1","0","0","",""
"null","","229252","HierDyn4hsy00s","sdszn0lm0k","ms1000307","iti","","null","img/motor_6.png","74","motor","","","","","","",""
"475","","229735","HierDyn4hsy00s","sdszn0lm0k","ms1000307","motor","","76","img/motor_8.png","76","motor","8","63","1","0","0","",""
"null","","229844","HierDyn4hsy00s","sdszn0lm0k","ms1000307","iti","","null","img/motor_8.png","76","motor","","","","","","",""
"764","","230616","HierDyn4hsy00s","sdszn0lm0k","ms1000307","motor","","74","img/motor_6.png","74","motor","6","64","1","0","0","",""
"null","","230723","HierDyn4hsy00s","sdszn0lm0k","ms1000307","iti","","null","img/motor_6.png","74","motor","","","","","","",""
"420","","231153","HierDyn4hsy00s","sdszn0lm0k","ms1000307","motor","","74","img/motor_6.png","74","motor","6","65","1","0","0","",""
"null","","231261","HierDyn4hsy00s","sdszn0lm0k","ms1000307","iti","","null","img/motor_6.png","74","motor","","","","","","",""
"556","","231824","HierDyn4hsy00s","sdszn0lm0k","ms1000307","motor","","70","img/motor_4.png","70","motor","4","66","1","0","0","",""
"null","","231932","HierDyn4hsy00s","sdszn0lm0k","ms1000307","iti","","null","img/motor_4.png","70","motor","","","","","","",""
"492","","232431","HierDyn4hsy00s","sdszn0lm0k","ms1000307","motor","","65","img/motor_1.png","65","motor","1","67","1","0","0","",""
"null","","232545","HierDyn4hsy00s","sdszn0lm0k","ms1000307","iti","","null","img/motor_1.png","65","motor","","","","","","",""
"854","","233409","HierDyn4hsy00s","sdszn0lm0k","ms1000307","motor","","83","img/motor_2.png","83","motor","2","68","1","0","0","",""
"null","","233523","HierDyn4hsy00s","sdszn0lm0k","ms1000307","iti","","null","img/motor_2.png","83","motor","","","","","","",""
"636","","234174","HierDyn4hsy00s","sdszn0lm0k","ms1000307","motor","","75","img/motor_7.png","75","motor","7","69","1","0","0","",""
"null","","234283","HierDyn4hsy00s","sdszn0lm0k","ms1000307","iti","","null","img/motor_7.png","75","motor","","","","","","",""
"628","","234919","HierDyn4hsy00s","sdszn0lm0k","ms1000307","motor","","75","img/motor_7.png","75","motor","7","70","1","0","0","",""
"null","","235034","HierDyn4hsy00s","sdszn0lm0k","ms1000307","iti","","null","img/motor_7.png","75","motor","","","","","","",""
"1069","","236112","HierDyn4hsy00s","sdszn0lm0k","ms1000307","motor","","70","img/motor_4.png","70","motor","4","71","1","0","0","",""
"null","","236221","HierDyn4hsy00s","sdszn0lm0k","ms1000307","iti","","null","img/motor_4.png","70","motor","","","","","","",""
"484","","236712","HierDyn4hsy00s","sdszn0lm0k","ms1000307","motor","","72","img/motor_5.png","72","motor","5","72","1","0","0","",""
"null","","236826","HierDyn4hsy00s","sdszn0lm0k","ms1000307","iti","","null","img/motor_5.png","72","motor","","","","","","",""
"670","","237510","HierDyn4hsy00s","sdszn0lm0k","ms1000307","motor","","83","img/motor_2.png","83","motor","2","73","1","0","0","",""
"null","","237625","HierDyn4hsy00s","sdszn0lm0k","ms1000307","iti","","null","img/motor_2.png","83","motor","","","","","","",""
"469","","238103","HierDyn4hsy00s","sdszn0lm0k","ms1000307","motor","","68","img/motor_3.png","68","motor","3","74","1","0","0","",""
"null","","238218","HierDyn4hsy00s","sdszn0lm0k","ms1000307","iti","","null","img/motor_3.png","68","motor","","","","","","",""
"429","","238656","HierDyn4hsy00s","sdszn0lm0k","ms1000307","motor","","68","img/motor_3.png","68","motor","3","75","1","0","0","",""
"null","","238764","HierDyn4hsy00s","sdszn0lm0k","ms1000307","iti","","null","img/motor_3.png","68","motor","","","","","","",""
"643","","239423","HierDyn4hsy00s","sdszn0lm0k","ms1000307","motor","","76","img/motor_8.png","76","motor","8","76","1","0","0","",""
"null","","239532","HierDyn4hsy00s","sdszn0lm0k","ms1000307","iti","","null","img/motor_8.png","76","motor","","","","","","",""
"452","","239998","HierDyn4hsy00s","sdszn0lm0k","ms1000307","motor","","72","img/motor_5.png","72","motor","5","77","1","0","0","",""
"null","","240113","HierDyn4hsy00s","sdszn0lm0k","ms1000307","iti","","null","img/motor_5.png","72","motor","","","","","","",""
"558","","240687","HierDyn4hsy00s","sdszn0lm0k","ms1000307","motor","","83","img/motor_2.png","83","motor","2","78","1","0","0","",""
"null","","240795","HierDyn4hsy00s","sdszn0lm0k","ms1000307","iti","","null","img/motor_2.png","83","motor","","","","","","",""
"388","","241192","HierDyn4hsy00s","sdszn0lm0k","ms1000307","motor","","65","img/motor_1.png","65","motor","1","79","1","0","0","",""
"null","","241301","HierDyn4hsy00s","sdszn0lm0k","ms1000307","iti","","null","img/motor_1.png","65","motor","","","","","","",""
"483","","241792","HierDyn4hsy00s","sdszn0lm0k","ms1000307","motor","","72","img/motor_5.png","72","motor","5","80","1","0","0","",""
"null","","241906","HierDyn4hsy00s","sdszn0lm0k","ms1000307","iti","","null","img/motor_5.png","72","motor","","","","","","",""
"421","","242336","HierDyn4hsy00s","sdszn0lm0k","ms1000307","motor","","68","img/motor_3.png","68","motor","3","81","1","0","0","",""
"null","","242451","HierDyn4hsy00s","sdszn0lm0k","ms1000307","iti","","null","img/motor_3.png","68","motor","","","","","","",""
"589","","243054","HierDyn4hsy00s","sdszn0lm0k","ms1000307","motor","","74","img/motor_6.png","74","motor","6","82","1","0","0","",""
"null","","243170","HierDyn4hsy00s","sdszn0lm0k","ms1000307","iti","","null","img/motor_6.png","74","motor","","","","","","",""
"399","","243576","HierDyn4hsy00s","sdszn0lm0k","ms1000307","motor","","72","img/motor_5.png","72","motor","5","83","1","0","0","",""
"null","","243691","HierDyn4hsy00s","sdszn0lm0k","ms1000307","iti","","null","img/motor_5.png","72","motor","","","","","","",""
"428","","244128","HierDyn4hsy00s","sdszn0lm0k","ms1000307","motor","","76","img/motor_8.png","76","motor","8","84","1","0","0","",""
"null","","244237","HierDyn4hsy00s","sdszn0lm0k","ms1000307","iti","","null","img/motor_8.png","76","motor","","","","","","",""
"610","","244863","HierDyn4hsy00s","sdszn0lm0k","ms1000307","motor","","72","img/motor_5.png","72","motor","5","85","1","0","0","",""
"null","","244971","HierDyn4hsy00s","sdszn0lm0k","ms1000307","iti","","null","img/motor_5.png","72","motor","","","","","","",""
"772","","245759","HierDyn4hsy00s","sdszn0lm0k","ms1000307","motor","","75","img/motor_7.png","75","motor","7","86","1","0","0","",""
"null","","245868","HierDyn4hsy00s","sdszn0lm0k","ms1000307","iti","","null","img/motor_7.png","75","motor","","","","","","",""
"460","","246336","HierDyn4hsy00s","sdszn0lm0k","ms1000307","motor","","74","img/motor_6.png","74","motor","6","87","1","0","0","",""
"null","","246451","HierDyn4hsy00s","sdszn0lm0k","ms1000307","iti","","null","img/motor_6.png","74","motor","","","","","","",""
"532","","246992","HierDyn4hsy00s","sdszn0lm0k","ms1000307","motor","","70","img/motor_4.png","70","motor","4","88","1","0","0","",""
"null","","247106","HierDyn4hsy00s","sdszn0lm0k","ms1000307","iti","","null","img/motor_4.png","70","motor","","","","","","",""
"454","","247568","HierDyn4hsy00s","sdszn0lm0k","ms1000307","motor","","68","img/motor_3.png","68","motor","3","89","1","0","0","",""
"null","","247683","HierDyn4hsy00s","sdszn0lm0k","ms1000307","iti","","null","img/motor_3.png","68","motor","","","","","","",""
"437","","248129","HierDyn4hsy00s","sdszn0lm0k","ms1000307","motor","","65","img/motor_1.png","65","motor","1","90","1","0","0","",""
"null","","248237","HierDyn4hsy00s","sdszn0lm0k","ms1000307","iti","","null","img/motor_1.png","65","motor","","","","","","",""
"675","","248927","HierDyn4hsy00s","sdszn0lm0k","ms1000307","motor","","75","img/motor_7.png","75","motor","7","91","1","0","0","",""
"null","","249042","HierDyn4hsy00s","sdszn0lm0k","ms1000307","iti","","null","img/motor_7.png","75","motor","","","","","","",""
"711","","249760","HierDyn4hsy00s","sdszn0lm0k","ms1000307","motor","","70","img/motor_3.png","68","motor","3","92","0","1","0","",""
"265","","250030","HierDyn4hsy00s","sdszn0lm0k","ms1000307","motorRepeat","","68","img/motor_3.png","68","motor","3","92","1","0","0","",""
"null","","250140","HierDyn4hsy00s","sdszn0lm0k","ms1000307","iti","","null","img/motor_3.png","68","motor","","","","","","",""
"877","","251031","HierDyn4hsy00s","sdszn0lm0k","ms1000307","motor","","76","img/motor_8.png","76","motor","8","93","1","0","0","",""
"null","","251140","HierDyn4hsy00s","sdszn0lm0k","ms1000307","iti","","null","img/motor_8.png","76","motor","","","","","","",""
"684","","251839","HierDyn4hsy00s","sdszn0lm0k","ms1000307","motor","","68","img/motor_3.png","68","motor","3","94","1","0","0","",""
"null","","251955","HierDyn4hsy00s","sdszn0lm0k","ms1000307","iti","","null","img/motor_3.png","68","motor","","","","","","",""
"567","","252529","HierDyn4hsy00s","sdszn0lm0k","ms1000307","motor","","83","img/motor_2.png","83","motor","2","95","1","0","0","",""
"null","","252644","HierDyn4hsy00s","sdszn0lm0k","ms1000307","iti","","null","img/motor_2.png","83","motor","","","","","","",""
"708","","253360","HierDyn4hsy00s","sdszn0lm0k","ms1000307","motor","","76","img/motor_8.png","76","motor","8","96","1","0","0","",""
"null","","253469","HierDyn4hsy00s","sdszn0lm0k","ms1000307","iti","","null","img/motor_8.png","76","motor","","","","","","",""
"1379","","254862","HierDyn4hsy00s","sdszn0lm0k","ms1000307","motor","","72","img/motor_5.png","72","motor","5","97","1","0","0","",""
"null","","254972","HierDyn4hsy00s","sdszn0lm0k","ms1000307","iti","","null","img/motor_5.png","72","motor","","","","","","",""
"437","","255417","HierDyn4hsy00s","sdszn0lm0k","ms1000307","motor","","76","img/motor_8.png","76","motor","8","98","1","0","0","",""
"null","","255531","HierDyn4hsy00s","sdszn0lm0k","ms1000307","iti","","null","img/motor_8.png","76","motor","","","","","","",""
"565","","256104","HierDyn4hsy00s","sdszn0lm0k","ms1000307","motor","","72","img/motor_5.png","72","motor","5","99","1","0","0","",""
"null","","256219","HierDyn4hsy00s","sdszn0lm0k","ms1000307","iti","","null","img/motor_5.png","72","motor","","","","","","",""
"476","","256711","HierDyn4hsy00s","sdszn0lm0k","ms1000307","motor","","72","img/motor_5.png","72","motor","5","100","1","0","0","",""
"null","","256826","HierDyn4hsy00s","sdszn0lm0k","ms1000307","iti","","null","img/motor_5.png","72","motor","","","","","","",""
"574","","257409","HierDyn4hsy00s","sdszn0lm0k","ms1000307","motor","","75","img/motor_7.png","75","motor","7","101","1","0","0","",""
"null","","257523","HierDyn4hsy00s","sdszn0lm0k","ms1000307","iti","","null","img/motor_7.png","75","motor","","","","","","",""
"548","","258081","HierDyn4hsy00s","sdszn0lm0k","ms1000307","motor","","68","img/motor_3.png","68","motor","3","102","1","0","0","",""
"null","","258189","HierDyn4hsy00s","sdszn0lm0k","ms1000307","iti","","null","img/motor_3.png","68","motor","","","","","","",""
"515","","258713","HierDyn4hsy00s","sdszn0lm0k","ms1000307","motor","","72","img/motor_5.png","72","motor","5","103","1","0","0","",""
"null","","258821","HierDyn4hsy00s","sdszn0lm0k","ms1000307","iti","","null","img/motor_5.png","72","motor","","","","","","",""
"427","","259263","HierDyn4hsy00s","sdszn0lm0k","ms1000307","motor","","72","img/motor_5.png","72","motor","5","104","1","0","0","",""
"null","","259372","HierDyn4hsy00s","sdszn0lm0k","ms1000307","iti","","null","img/motor_5.png","72","motor","","","","","","",""
"532","","259913","HierDyn4hsy00s","sdszn0lm0k","ms1000307","motor","","83","img/motor_2.png","83","motor","2","105","1","0","0","",""
"null","","260021","HierDyn4hsy00s","sdszn0lm0k","ms1000307","iti","","null","img/motor_2.png","83","motor","","","","","","",""
"435","","260465","HierDyn4hsy00s","sdszn0lm0k","ms1000307","motor","","75","img/motor_7.png","75","motor","7","106","1","0","0","",""
"null","","260573","HierDyn4hsy00s","sdszn0lm0k","ms1000307","iti","","null","img/motor_7.png","75","motor","","","","","","",""
"699","","261288","HierDyn4hsy00s","sdszn0lm0k","ms1000307","motor","","70","img/motor_4.png","70","motor","4","107","1","0","0","",""
"null","","261396","HierDyn4hsy00s","sdszn0lm0k","ms1000307","iti","","null","img/motor_4.png","70","motor","","","","","","",""
"414","","261823","HierDyn4hsy00s","sdszn0lm0k","ms1000307","motor","","70","img/motor_4.png","70","motor","4","108","1","0","0","",""
"null","","261938","HierDyn4hsy00s","sdszn0lm0k","ms1000307","iti","","null","img/motor_4.png","70","motor","","","","","","",""
"485","","262445","HierDyn4hsy00s","sdszn0lm0k","ms1000307","motor","","83","img/motor_2.png","83","motor","2","109","1","0","0","",""
"null","","262555","HierDyn4hsy00s","sdszn0lm0k","ms1000307","iti","","null","img/motor_2.png","83","motor","","","","","","",""
"438","","263001","HierDyn4hsy00s","sdszn0lm0k","ms1000307","motor","","65","img/motor_1.png","65","motor","1","110","1","0","0","",""
"null","","263116","HierDyn4hsy00s","sdszn0lm0k","ms1000307","iti","","null","img/motor_1.png","65","motor","","","","","","",""
"412","","263537","HierDyn4hsy00s","sdszn0lm0k","ms1000307","motor","","76","img/motor_8.png","76","motor","8","111","1","0","0","",""
"null","","263653","HierDyn4hsy00s","sdszn0lm0k","ms1000307","iti","","null","img/motor_8.png","76","motor","","","","","","",""
"571","","264239","HierDyn4hsy00s","sdszn0lm0k","ms1000307","motor","","83","img/motor_2.png","83","motor","2","112","1","0","0","",""
"null","","264350","HierDyn4hsy00s","sdszn0lm0k","ms1000307","iti","","null","img/motor_2.png","83","motor","","","","","","",""
"562","","264921","HierDyn4hsy00s","sdszn0lm0k","ms1000307","motor","","65","img/motor_1.png","65","motor","1","113","1","0","0","",""
"null","","265036","HierDyn4hsy00s","sdszn0lm0k","ms1000307","iti","","null","img/motor_1.png","65","motor","","","","","","",""
"444","","265496","HierDyn4hsy00s","sdszn0lm0k","ms1000307","motor","","72","img/motor_5.png","72","motor","5","114","1","0","0","",""
"null","","265606","HierDyn4hsy00s","sdszn0lm0k","ms1000307","iti","","null","img/motor_5.png","72","motor","","","","","","",""
"475","","266088","HierDyn4hsy00s","sdszn0lm0k","ms1000307","motor","","70","img/motor_4.png","70","motor","4","115","1","0","0","",""
"null","","266197","HierDyn4hsy00s","sdszn0lm0k","ms1000307","iti","","null","img/motor_4.png","70","motor","","","","","","",""
"732","","266936","HierDyn4hsy00s","sdszn0lm0k","ms1000307","motor","","75","img/motor_7.png","75","motor","7","116","1","0","0","",""
"null","","267051","HierDyn4hsy00s","sdszn0lm0k","ms1000307","iti","","null","img/motor_7.png","75","motor","","","","","","",""
"411","","267472","HierDyn4hsy00s","sdszn0lm0k","ms1000307","motor","","76","img/motor_8.png","76","motor","8","117","1","0","0","",""
"null","","267581","HierDyn4hsy00s","sdszn0lm0k","ms1000307","iti","","null","img/motor_8.png","76","motor","","","","","","",""
"492","","268081","HierDyn4hsy00s","sdszn0lm0k","ms1000307","motor","","83","img/motor_2.png","83","motor","2","118","1","0","0","",""
"null","","268196","HierDyn4hsy00s","sdszn0lm0k","ms1000307","iti","","null","img/motor_2.png","83","motor","","","","","","",""
"493","","268697","HierDyn4hsy00s","sdszn0lm0k","ms1000307","motor","","76","img/motor_8.png","76","motor","8","119","1","0","0","",""
"null","","268812","HierDyn4hsy00s","sdszn0lm0k","ms1000307","iti","","null","img/motor_8.png","76","motor","","","","","","",""
"460","","269288","HierDyn4hsy00s","sdszn0lm0k","ms1000307","motor","","83","img/motor_2.png","83","motor","2","120","1","0","0","",""
"null","","269404","HierDyn4hsy00s","sdszn0lm0k","ms1000307","iti","","null","img/motor_2.png","83","motor","","","","","","",""
"509","","269921","HierDyn4hsy00s","sdszn0lm0k","ms1000307","motor","","68","img/motor_3.png","68","motor","3","121","1","0","0","",""
"null","","270030","HierDyn4hsy00s","sdszn0lm0k","ms1000307","iti","","null","img/motor_3.png","68","motor","","","","","","",""
"435","","270479","HierDyn4hsy00s","sdszn0lm0k","ms1000307","motor","","83","img/motor_2.png","83","motor","2","122","1","0","0","",""
"null","","270589","HierDyn4hsy00s","sdszn0lm0k","ms1000307","iti","","null","img/motor_2.png","83","motor","","","","","","",""
"508","","271104","HierDyn4hsy00s","sdszn0lm0k","ms1000307","motor","","72","img/motor_5.png","72","motor","5","123","1","0","0","",""
"null","","271213","HierDyn4hsy00s","sdszn0lm0k","ms1000307","iti","","null","img/motor_5.png","72","motor","","","","","","",""
"467","","271689","HierDyn4hsy00s","sdszn0lm0k","ms1000307","motor","","70","img/motor_4.png","70","motor","4","124","1","0","0","",""
"null","","271798","HierDyn4hsy00s","sdszn0lm0k","ms1000307","iti","","null","img/motor_4.png","70","motor","","","","","","",""
"403","","272209","HierDyn4hsy00s","sdszn0lm0k","ms1000307","motor","","70","img/motor_4.png","70","motor","4","125","1","0","0","",""
"null","","272318","HierDyn4hsy00s","sdszn0lm0k","ms1000307","iti","","null","img/motor_4.png","70","motor","","","","","","",""
"411","","272737","HierDyn4hsy00s","sdszn0lm0k","ms1000307","motor","","65","img/motor_1.png","65","motor","1","126","1","0","0","",""
"null","","272852","HierDyn4hsy00s","sdszn0lm0k","ms1000307","iti","","null","img/motor_1.png","65","motor","","","","","","",""
"421","","273281","HierDyn4hsy00s","sdszn0lm0k","ms1000307","motor","","70","img/motor_4.png","70","motor","4","127","1","0","0","",""
"null","","273396","HierDyn4hsy00s","sdszn0lm0k","ms1000307","iti","","null","img/motor_4.png","70","motor","","","","","","",""
"356","","273761","HierDyn4hsy00s","sdszn0lm0k","ms1000307","motor","","65","img/motor_1.png","65","motor","1","128","1","0","0","",""
"null","","273876","HierDyn4hsy00s","sdszn0lm0k","ms1000307","iti","","null","img/motor_1.png","65","motor","","","","","","",""
"468","","274354","HierDyn4hsy00s","sdszn0lm0k","ms1000307","motor","","75","img/motor_7.png","75","motor","7","129","1","0","0","",""
"null","","274468","HierDyn4hsy00s","sdszn0lm0k","ms1000307","iti","","null","img/motor_7.png","75","motor","","","","","","",""
"524","","275002","HierDyn4hsy00s","sdszn0lm0k","ms1000307","motor","","83","img/motor_2.png","83","motor","2","130","1","0","0","",""
"null","","275116","HierDyn4hsy00s","sdszn0lm0k","ms1000307","iti","","null","img/motor_2.png","83","motor","","","","","","",""
"644","","275769","HierDyn4hsy00s","sdszn0lm0k","ms1000307","motor","","70","img/motor_4.png","70","motor","4","131","1","0","0","",""
"null","","275884","HierDyn4hsy00s","sdszn0lm0k","ms1000307","iti","","null","img/motor_4.png","70","motor","","","","","","",""
"524","","276418","HierDyn4hsy00s","sdszn0lm0k","ms1000307","motor","","74","img/motor_6.png","74","motor","6","132","1","0","0","",""
"null","","276532","HierDyn4hsy00s","sdszn0lm0k","ms1000307","iti","","null","img/motor_6.png","74","motor","","","","","","",""
"748","","277296","HierDyn4hsy00s","sdszn0lm0k","ms1000307","motor","","68","img/motor_3.png","68","motor","3","133","1","0","0","",""
"null","","277411","HierDyn4hsy00s","sdszn0lm0k","ms1000307","iti","","null","img/motor_3.png","68","motor","","","","","","",""
"853","","278279","HierDyn4hsy00s","sdszn0lm0k","ms1000307","motor","","74","img/motor_6.png","74","motor","6","134","1","0","0","",""
"null","","278395","HierDyn4hsy00s","sdszn0lm0k","ms1000307","iti","","null","img/motor_6.png","74","motor","","","","","","",""
"469","","278880","HierDyn4hsy00s","sdszn0lm0k","ms1000307","motor","","72","img/motor_5.png","72","motor","5","135","1","0","0","",""
"null","","278995","HierDyn4hsy00s","sdszn0lm0k","ms1000307","iti","","null","img/motor_5.png","72","motor","","","","","","",""
"493","","279496","HierDyn4hsy00s","sdszn0lm0k","ms1000307","motor","","74","img/motor_7.png","75","motor","7","136","0","1","0","",""
"280","","279785","HierDyn4hsy00s","sdszn0lm0k","ms1000307","motorRepeat","","75","img/motor_7.png","75","motor","7","136","1","0","0","",""
"null","","279899","HierDyn4hsy00s","sdszn0lm0k","ms1000307","iti","","null","img/motor_7.png","75","motor","","","","","","",""
"612","","280528","HierDyn4hsy00s","sdszn0lm0k","ms1000307","motor","","68","img/motor_3.png","68","motor","3","137","1","0","0","",""
"null","","280643","HierDyn4hsy00s","sdszn0lm0k","ms1000307","iti","","null","img/motor_3.png","68","motor","","","","","","",""
"485","","281137","HierDyn4hsy00s","sdszn0lm0k","ms1000307","motor","","83","img/motor_2.png","83","motor","2","138","1","0","0","",""
"null","","281252","HierDyn4hsy00s","sdszn0lm0k","ms1000307","iti","","null","img/motor_2.png","83","motor","","","","","","",""
"758","","282017","HierDyn4hsy00s","sdszn0lm0k","ms1000307","motor","","74","img/motor_6.png","74","motor","6","139","1","0","0","",""
"null","","282131","HierDyn4hsy00s","sdszn0lm0k","ms1000307","iti","","null","img/motor_6.png","74","motor","","","","","","",""
"540","","282681","HierDyn4hsy00s","sdszn0lm0k","ms1000307","motor","","72","img/motor_5.png","72","motor","5","140","1","0","0","",""
"null","","282795","HierDyn4hsy00s","sdszn0lm0k","ms1000307","iti","","null","img/motor_5.png","72","motor","","","","","","",""
"612","","283418","HierDyn4hsy00s","sdszn0lm0k","ms1000307","motor","","68","img/motor_3.png","68","motor","3","141","1","0","0","",""
"null","","283532","HierDyn4hsy00s","sdszn0lm0k","ms1000307","iti","","null","img/motor_3.png","68","motor","","","","","","",""
"638","","284184","HierDyn4hsy00s","sdszn0lm0k","ms1000307","motor","","74","img/motor_6.png","74","motor","6","142","1","0","0","",""
"null","","284293","HierDyn4hsy00s","sdszn0lm0k","ms1000307","iti","","null","img/motor_6.png","74","motor","","","","","","",""
"476","","284778","HierDyn4hsy00s","sdszn0lm0k","ms1000307","motor","","76","img/motor_8.png","76","motor","8","143","1","0","0","",""
"null","","284886","HierDyn4hsy00s","sdszn0lm0k","ms1000307","iti","","null","img/motor_8.png","76","motor","","","","","","",""
"485","","285377","HierDyn4hsy00s","sdszn0lm0k","ms1000307","motor","","70","img/motor_4.png","70","motor","4","144","1","0","0","",""
"null","","285492","HierDyn4hsy00s","sdszn0lm0k","ms1000307","iti","","null","img/motor_4.png","70","motor","","","","","","",""
"893","","286394","HierDyn4hsy00s","sdszn0lm0k","ms1000307","motor","","75","img/motor_7.png","75","motor","7","145","1","0","0","",""
"null","","286509","HierDyn4hsy00s","sdszn0lm0k","ms1000307","iti","","null","img/motor_7.png","75","motor","","","","","","",""
"652","","287176","HierDyn4hsy00s","sdszn0lm0k","ms1000307","motor","","68","img/motor_3.png","68","motor","3","146","1","0","0","",""
"null","","287292","HierDyn4hsy00s","sdszn0lm0k","ms1000307","iti","","null","img/motor_3.png","68","motor","","","","","","",""
"477","","287777","HierDyn4hsy00s","sdszn0lm0k","ms1000307","motor","","76","img/motor_8.png","76","motor","8","147","1","0","0","",""
"null","","287893","HierDyn4hsy00s","sdszn0lm0k","ms1000307","iti","","null","img/motor_8.png","76","motor","","","","","","",""
"533","","288440","HierDyn4hsy00s","sdszn0lm0k","ms1000307","motor","","76","img/motor_8.png","76","motor","8","148","1","0","0","",""
"null","","288549","HierDyn4hsy00s","sdszn0lm0k","ms1000307","iti","","null","img/motor_8.png","76","motor","","","","","","",""
"500","","289064","HierDyn4hsy00s","sdszn0lm0k","ms1000307","motor","","83","img/motor_2.png","83","motor","2","149","1","0","0","",""
"null","","289174","HierDyn4hsy00s","sdszn0lm0k","ms1000307","iti","","null","img/motor_2.png","83","motor","","","","","","",""
"749","","289929","HierDyn4hsy00s","sdszn0lm0k","ms1000307","motor","","74","img/motor_6.png","74","motor","6","150","1","0","0","",""
"null","","290038","HierDyn4hsy00s","sdszn0lm0k","ms1000307","iti","","null","img/motor_6.png","74","motor","","","","","","",""
"643","","290690","HierDyn4hsy00s","sdszn0lm0k","ms1000307","motor","","83","img/motor_2.png","83","motor","2","151","1","0","0","",""
"null","","290804","HierDyn4hsy00s","sdszn0lm0k","ms1000307","iti","","null","img/motor_2.png","83","motor","","","","","","",""
"477","","291296","HierDyn4hsy00s","sdszn0lm0k","ms1000307","motor","","70","img/motor_4.png","70","motor","4","152","1","0","0","",""
"null","","291411","HierDyn4hsy00s","sdszn0lm0k","ms1000307","iti","","null","img/motor_4.png","70","motor","","","","","","",""
"389","","291810","HierDyn4hsy00s","sdszn0lm0k","ms1000307","motor","","72","img/motor_5.png","72","motor","5","153","1","0","0","",""
"null","","291919","HierDyn4hsy00s","sdszn0lm0k","ms1000307","iti","","null","img/motor_5.png","72","motor","","","","","","",""
"586","","292514","HierDyn4hsy00s","sdszn0lm0k","ms1000307","motor","","75","img/motor_7.png","75","motor","7","154","1","0","0","",""
"null","","292623","HierDyn4hsy00s","sdszn0lm0k","ms1000307","iti","","null","img/motor_7.png","75","motor","","","","","","",""
"484","","293114","HierDyn4hsy00s","sdszn0lm0k","ms1000307","motor","","65","img/motor_1.png","65","motor","1","155","1","0","0","",""
"null","","293223","HierDyn4hsy00s","sdszn0lm0k","ms1000307","iti","","null","img/motor_1.png","65","motor","","","","","","",""
"395","","293626","HierDyn4hsy00s","sdszn0lm0k","ms1000307","motor","","65","img/motor_1.png","65","motor","1","156","1","0","0","",""
"null","","293741","HierDyn4hsy00s","sdszn0lm0k","ms1000307","iti","","null","img/motor_1.png","65","motor","","","","","","",""
"477","","294232","HierDyn4hsy00s","sdszn0lm0k","ms1000307","motor","","70","img/motor_4.png","70","motor","4","157","1","0","0","",""
"null","","294341","HierDyn4hsy00s","sdszn0lm0k","ms1000307","iti","","null","img/motor_4.png","70","motor","","","","","","",""
"549","","294898","HierDyn4hsy00s","sdszn0lm0k","ms1000307","motor","","83","img/motor_2.png","83","motor","2","158","1","0","0","",""
"null","","295007","HierDyn4hsy00s","sdszn0lm0k","ms1000307","iti","","null","img/motor_2.png","83","motor","","","","","","",""
"459","","295474","HierDyn4hsy00s","sdszn0lm0k","ms1000307","motor","","65","img/motor_1.png","65","motor","1","159","1","0","0","",""
"null","","295582","HierDyn4hsy00s","sdszn0lm0k","ms1000307","iti","","null","img/motor_1.png","65","motor","","","","","","",""
"563","","296153","HierDyn4hsy00s","sdszn0lm0k","ms1000307","motor","","83","img/motor_2.png","83","motor","2","160","1","0","0","",""
"null","","296261","HierDyn4hsy00s","sdszn0lm0k","ms1000307","iti","","null","img/motor_2.png","83","motor","","","","","","",""
"484","","296754","HierDyn4hsy00s","sdszn0lm0k","ms1000307","motor","","75","img/motor_7.png","75","motor","7","161","1","0","0","",""
"null","","296869","HierDyn4hsy00s","sdszn0lm0k","ms1000307","iti","","null","img/motor_7.png","75","motor","","","","","","",""
"613","","297490","HierDyn4hsy00s","sdszn0lm0k","ms1000307","motor","","68","img/motor_3.png","68","motor","3","162","1","0","0","",""
"null","","297605","HierDyn4hsy00s","sdszn0lm0k","ms1000307","iti","","null","img/motor_3.png","68","motor","","","","","","",""
"420","","298041","HierDyn4hsy00s","sdszn0lm0k","ms1000307","motor","","76","img/motor_8.png","76","motor","8","163","1","0","0","",""
"null","","298156","HierDyn4hsy00s","sdszn0lm0k","ms1000307","iti","","null","img/motor_8.png","76","motor","","","","","","",""
"469","","298634","HierDyn4hsy00s","sdszn0lm0k","ms1000307","motor","","68","img/motor_3.png","68","motor","3","164","1","0","0","",""
"80","","298748","HierDyn4hsy00s","sdszn0lm0k","ms1000307","iti","","68","img/motor_3.png","68","motor","","","","","","",""
"573","","299330","HierDyn4hsy00s","sdszn0lm0k","ms1000307","motor","","72","img/motor_5.png","72","motor","5","165","1","0","0","",""
"null","","299444","HierDyn4hsy00s","sdszn0lm0k","ms1000307","iti","","null","img/motor_5.png","72","motor","","","","","","",""
"622","","300080","HierDyn4hsy00s","sdszn0lm0k","ms1000307","motor","","70","img/motor_4.png","70","motor","4","166","1","0","0","",""
"null","","300196","HierDyn4hsy00s","sdszn0lm0k","ms1000307","iti","","null","img/motor_4.png","70","motor","","","","","","",""
"422","","300625","HierDyn4hsy00s","sdszn0lm0k","ms1000307","motor","","68","img/motor_3.png","68","motor","3","167","1","0","0","",""
"null","","300734","HierDyn4hsy00s","sdszn0lm0k","ms1000307","iti","","null","img/motor_3.png","68","motor","","","","","","",""
"372","","301114","HierDyn4hsy00s","sdszn0lm0k","ms1000307","motor","","65","img/motor_1.png","65","motor","1","168","1","0","0","",""
"null","","301222","HierDyn4hsy00s","sdszn0lm0k","ms1000307","iti","","null","img/motor_1.png","65","motor","","","","","","",""
"476","","301706","HierDyn4hsy00s","sdszn0lm0k","ms1000307","motor","","68","img/motor_3.png","68","motor","3","169","1","0","0","",""
"null","","301821","HierDyn4hsy00s","sdszn0lm0k","ms1000307","iti","","null","img/motor_3.png","68","motor","","","","","","",""
"461","","302290","HierDyn4hsy00s","sdszn0lm0k","ms1000307","motor","","76","img/motor_8.png","76","motor","8","170","1","0","0","",""
"null","","302398","HierDyn4hsy00s","sdszn0lm0k","ms1000307","iti","","null","img/motor_8.png","76","motor","","","","","","",""
"612","","303017","HierDyn4hsy00s","sdszn0lm0k","ms1000307","motor","","74","img/motor_6.png","74","motor","6","171","1","0","0","",""
"null","","303132","HierDyn4hsy00s","sdszn0lm0k","ms1000307","iti","","null","img/motor_6.png","74","motor","","","","","","",""
"566","","303712","HierDyn4hsy00s","sdszn0lm0k","ms1000307","motor","","83","img/motor_2.png","83","motor","2","172","1","0","0","",""
"null","","303828","HierDyn4hsy00s","sdszn0lm0k","ms1000307","iti","","null","img/motor_2.png","83","motor","","","","","","",""
"989","","304833","HierDyn4hsy00s","sdszn0lm0k","ms1000307","motor","","83","img/motor_2.png","83","motor","2","173","1","0","0","",""
"null","","304948","HierDyn4hsy00s","sdszn0lm0k","ms1000307","iti","","null","img/motor_2.png","83","motor","","","","","","",""
"574","","305531","HierDyn4hsy00s","sdszn0lm0k","ms1000307","motor","","70","img/motor_4.png","70","motor","4","174","1","0","0","",""
"null","","305645","HierDyn4hsy00s","sdszn0lm0k","ms1000307","iti","","null","img/motor_4.png","70","motor","","","","","","",""
"436","","306090","HierDyn4hsy00s","sdszn0lm0k","ms1000307","motor","","65","img/motor_1.png","65","motor","1","175","1","0","0","",""
"null","","306198","HierDyn4hsy00s","sdszn0lm0k","ms1000307","iti","","null","img/motor_1.png","65","motor","","","","","","",""
"533","","306738","HierDyn4hsy00s","sdszn0lm0k","ms1000307","motor","","76","img/motor_8.png","76","motor","8","176","1","0","0","",""
"null","","306853","HierDyn4hsy00s","sdszn0lm0k","ms1000307","iti","","null","img/motor_8.png","76","motor","","","","","","",""
"421","","307289","HierDyn4hsy00s","sdszn0lm0k","ms1000307","motor","","76","img/motor_8.png","76","motor","8","177","1","0","0","",""
"null","","307398","HierDyn4hsy00s","sdszn0lm0k","ms1000307","iti","","null","img/motor_8.png","76","motor","","","","","","",""
"627","","308032","HierDyn4hsy00s","sdszn0lm0k","ms1000307","motor","","75","img/motor_6.png","74","motor","6","178","0","1","0","",""
"250","","308290","HierDyn4hsy00s","sdszn0lm0k","ms1000307","motorRepeat","","74","img/motor_6.png","74","motor","6","178","1","0","0","",""
"null","","308398","HierDyn4hsy00s","sdszn0lm0k","ms1000307","iti","","null","img/motor_6.png","74","motor","","","","","","",""
"571","","308985","HierDyn4hsy00s","sdszn0lm0k","ms1000307","motor","","72","img/motor_4.png","70","motor","4","179","0","1","0","",""
"256","","309257","HierDyn4hsy00s","sdszn0lm0k","ms1000307","motorRepeat","","70","img/motor_4.png","70","motor","4","179","1","0","0","",""
"null","","309372","HierDyn4hsy00s","sdszn0lm0k","ms1000307","iti","","null","img/motor_4.png","70","motor","","","","","","",""
"565","","309953","HierDyn4hsy00s","sdszn0lm0k","ms1000307","motor","","72","img/motor_5.png","72","motor","5","180","1","0","0","",""
"null","","310068","HierDyn4hsy00s","sdszn0lm0k","ms1000307","iti","","null","img/motor_5.png","72","motor","","","","","","",""
"693","","310777","HierDyn4hsy00s","sdszn0lm0k","ms1000307","motor","","65","img/motor_1.png","65","motor","1","181","1","0","0","",""
"null","","310893","HierDyn4hsy00s","sdszn0lm0k","ms1000307","iti","","null","img/motor_1.png","65","motor","","","","","","",""
"645","","311553","HierDyn4hsy00s","sdszn0lm0k","ms1000307","motor","","72","img/motor_5.png","72","motor","5","182","1","0","0","",""
"null","","311668","HierDyn4hsy00s","sdszn0lm0k","ms1000307","iti","","null","img/motor_5.png","72","motor","","","","","","",""
"1357","","313041","HierDyn4hsy00s","sdszn0lm0k","ms1000307","motor","","68","img/motor_3.png","68","motor","3","183","1","0","0","",""
"null","","313157","HierDyn4hsy00s","sdszn0lm0k","ms1000307","iti","","null","img/motor_3.png","68","motor","","","","","","",""
"422","","313593","HierDyn4hsy00s","sdszn0lm0k","ms1000307","motor","","70","img/motor_4.png","70","motor","4","184","1","0","0","",""
"null","","313709","HierDyn4hsy00s","sdszn0lm0k","ms1000307","iti","","null","img/motor_4.png","70","motor","","","","","","",""
"413","","314137","HierDyn4hsy00s","sdszn0lm0k","ms1000307","motor","","76","img/motor_8.png","76","motor","8","185","1","0","0","",""
"null","","314246","HierDyn4hsy00s","sdszn0lm0k","ms1000307","iti","","null","img/motor_8.png","76","motor","","","","","","",""
"548","","314802","HierDyn4hsy00s","sdszn0lm0k","ms1000307","motor","","68","img/motor_3.png","68","motor","3","186","1","0","0","",""
"null","","314917","HierDyn4hsy00s","sdszn0lm0k","ms1000307","iti","","null","img/motor_3.png","68","motor","","","","","","",""
"1045","","315971","HierDyn4hsy00s","sdszn0lm0k","ms1000307","motor","","74","img/motor_6.png","74","motor","6","187","1","0","0","",""
"null","","316085","HierDyn4hsy00s","sdszn0lm0k","ms1000307","iti","","null","img/motor_6.png","74","motor","","","","","","",""
"484","","316586","HierDyn4hsy00s","sdszn0lm0k","ms1000307","motor","","75","img/motor_7.png","75","motor","7","188","1","0","0","",""
"null","","316701","HierDyn4hsy00s","sdszn0lm0k","ms1000307","iti","","null","img/motor_7.png","75","motor","","","","","","",""
"853","","317569","HierDyn4hsy00s","sdszn0lm0k","ms1000307","motor","","72","img/motor_5.png","72","motor","5","189","1","0","0","",""
"null","","317685","HierDyn4hsy00s","sdszn0lm0k","ms1000307","iti","","null","img/motor_5.png","72","motor","","","","","","",""
"942","","318635","HierDyn4hsy00s","sdszn0lm0k","ms1000307","motor","","68","img/motor_3.png","68","motor","3","190","1","0","0","",""
"null","","318750","HierDyn4hsy00s","sdszn0lm0k","ms1000307","iti","","null","img/motor_3.png","68","motor","","","","","","",""
"507","","319273","HierDyn4hsy00s","sdszn0lm0k","ms1000307","motor","","70","img/motor_4.png","70","motor","4","191","1","0","0","",""
"null","","319382","HierDyn4hsy00s","sdszn0lm0k","ms1000307","iti","","null","img/motor_4.png","70","motor","","","","","","",""
"557","","319954","HierDyn4hsy00s","sdszn0lm0k","ms1000307","motor","","72","img/motor_5.png","72","motor","5","192","1","0","0","",""
"null","","320068","HierDyn4hsy00s","sdszn0lm0k","ms1000307","iti","","null","img/motor_5.png","72","motor","","","","","","",""
"494","","320569","HierDyn4hsy00s","sdszn0lm0k","ms1000307","motor","","76","img/motor_8.png","76","motor","8","193","1","0","0","",""
"null","","320684","HierDyn4hsy00s","sdszn0lm0k","ms1000307","iti","","null","img/motor_8.png","76","motor","","","","","","",""
"702","","321394","HierDyn4hsy00s","sdszn0lm0k","ms1000307","motor","","70","img/motor_4.png","70","motor","4","194","1","0","0","",""
"null","","321509","HierDyn4hsy00s","sdszn0lm0k","ms1000307","iti","","null","img/motor_4.png","70","motor","","","","","","",""
"958","","322482","HierDyn4hsy00s","sdszn0lm0k","ms1000307","motor","","72","img/motor_5.png","72","motor","5","195","1","0","0","",""
"null","","322596","HierDyn4hsy00s","sdszn0lm0k","ms1000307","iti","","null","img/motor_5.png","72","motor","","","","","","",""
"558","","323169","HierDyn4hsy00s","sdszn0lm0k","ms1000307","motor","","70","img/motor_4.png","70","motor","4","196","1","0","0","",""
"null","","323284","HierDyn4hsy00s","sdszn0lm0k","ms1000307","iti","","null","img/motor_4.png","70","motor","","","","","","",""
"670","","323962","HierDyn4hsy00s","sdszn0lm0k","ms1000307","motor","","75","img/motor_7.png","75","motor","7","197","1","0","0","",""
"null","","324076","HierDyn4hsy00s","sdszn0lm0k","ms1000307","iti","","null","img/motor_7.png","75","motor","","","","","","",""
"477","","324563","HierDyn4hsy00s","sdszn0lm0k","ms1000307","motor","","65","img/motor_1.png","65","motor","1","198","1","0","0","",""
"null","","324672","HierDyn4hsy00s","sdszn0lm0k","ms1000307","iti","","null","img/motor_1.png","65","motor","","","","","","",""
"963","","325642","HierDyn4hsy00s","sdszn0lm0k","ms1000307","motor","","75","img/motor_7.png","75","motor","7","199","1","0","0","",""
"null","","325758","HierDyn4hsy00s","sdszn0lm0k","ms1000307","iti","","null","img/motor_7.png","75","motor","","","","","","",""
"674","","326439","HierDyn4hsy00s","sdszn0lm0k","ms1000307","motor","","74","img/motor_6.png","74","motor","6","200","1","0","0","",""
"null","","326560","HierDyn4hsy00s","sdszn0lm0k","ms1000307","iti","","null","img/motor_6.png","74","motor","","","","","","",""
"737","","327314","HierDyn4hsy00s","sdszn0lm0k","ms1000307","motor","","68","img/motor_3.png","68","motor","3","201","1","0","0","",""
"null","","327424","HierDyn4hsy00s","sdszn0lm0k","ms1000307","iti","","null","img/motor_3.png","68","motor","","","","","","",""
"715","","328147","HierDyn4hsy00s","sdszn0lm0k","ms1000307","motor","","83","img/motor_2.png","83","motor","2","202","1","0","0","",""
"null","","328262","HierDyn4hsy00s","sdszn0lm0k","ms1000307","iti","","null","img/motor_2.png","83","motor","","","","","","",""
"347","","328619","HierDyn4hsy00s","sdszn0lm0k","ms1000307","motor","","65","img/motor_1.png","65","motor","1","203","1","0","0","",""
"null","","328735","HierDyn4hsy00s","sdszn0lm0k","ms1000307","iti","","null","img/motor_1.png","65","motor","","","","","","",""
"474","","329219","HierDyn4hsy00s","sdszn0lm0k","ms1000307","motor","","68","img/motor_3.png","68","motor","3","204","1","0","0","",""
"null","","329335","HierDyn4hsy00s","sdszn0lm0k","ms1000307","iti","","null","img/motor_3.png","68","motor","","","","","","",""
"524","","329874","HierDyn4hsy00s","sdszn0lm0k","ms1000307","motor","","65","img/motor_1.png","65","motor","1","205","1","0","0","",""
"null","","329992","HierDyn4hsy00s","sdszn0lm0k","ms1000307","iti","","null","img/motor_1.png","65","motor","","","","","","",""
"435","","330435","HierDyn4hsy00s","sdszn0lm0k","ms1000307","motor","","76","img/motor_8.png","76","motor","8","206","1","0","0","",""
"null","","330544","HierDyn4hsy00s","sdszn0lm0k","ms1000307","iti","","null","img/motor_8.png","76","motor","","","","","","",""
"499","","331051","HierDyn4hsy00s","sdszn0lm0k","ms1000307","motor","","68","img/motor_3.png","68","motor","3","207","1","0","0","",""
"null","","331159","HierDyn4hsy00s","sdszn0lm0k","ms1000307","iti","","null","img/motor_3.png","68","motor","","","","","","",""
"644","","331818","HierDyn4hsy00s","sdszn0lm0k","ms1000307","motor","","74","img/motor_6.png","74","motor","6","208","1","0","0","",""
"null","","331927","HierDyn4hsy00s","sdszn0lm0k","ms1000307","iti","","null","img/motor_6.png","74","motor","","","","","","",""
"539","","332483","HierDyn4hsy00s","sdszn0lm0k","ms1000307","motor","","65","img/motor_1.png","65","motor","1","209","1","0","0","",""
"null","","332591","HierDyn4hsy00s","sdszn0lm0k","ms1000307","iti","","null","img/motor_1.png","65","motor","","","","","","",""
"500","","333099","HierDyn4hsy00s","sdszn0lm0k","ms1000307","motor","","83","img/motor_2.png","83","motor","2","210","1","0","0","",""
"null","","333207","HierDyn4hsy00s","sdszn0lm0k","ms1000307","iti","","null","img/motor_2.png","83","motor","","","","","","",""
"668","","333882","HierDyn4hsy00s","sdszn0lm0k","ms1000307","motor","","70","img/motor_4.png","70","motor","4","211","1","0","0","",""
"null","","333998","HierDyn4hsy00s","sdszn0lm0k","ms1000307","iti","","null","img/motor_4.png","70","motor","","","","","","",""
"523","","334527","HierDyn4hsy00s","sdszn0lm0k","ms1000307","motor","","68","img/motor_3.png","68","motor","3","212","1","0","0","",""
"null","","334631","HierDyn4hsy00s","sdszn0lm0k","ms1000307","iti","","null","img/motor_3.png","68","motor","","","","","","",""
"522","","335159","HierDyn4hsy00s","sdszn0lm0k","ms1000307","motor","","83","img/motor_2.png","83","motor","2","213","1","0","0","",""
"null","","335273","HierDyn4hsy00s","sdszn0lm0k","ms1000307","iti","","null","img/motor_2.png","83","motor","","","","","","",""
"457","","335746","HierDyn4hsy00s","sdszn0lm0k","ms1000307","motor","","65","img/motor_1.png","65","motor","1","214","1","0","0","",""
"null","","335854","HierDyn4hsy00s","sdszn0lm0k","ms1000307","iti","","null","img/motor_1.png","65","motor","","","","","","",""
"580","","336443","HierDyn4hsy00s","sdszn0lm0k","ms1000307","motor","","70","img/motor_4.png","70","motor","4","215","1","0","0","",""
"null","","336558","HierDyn4hsy00s","sdszn0lm0k","ms1000307","iti","","null","img/motor_4.png","70","motor","","","","","","",""
"405","","336978","HierDyn4hsy00s","sdszn0lm0k","ms1000307","motor","","65","img/motor_1.png","65","motor","1","216","1","0","0","",""
"null","","337094","HierDyn4hsy00s","sdszn0lm0k","ms1000307","iti","","null","img/motor_1.png","65","motor","","","","","","",""
"421","","337530","HierDyn4hsy00s","sdszn0lm0k","ms1000307","motor","","72","img/motor_5.png","72","motor","5","217","1","0","0","",""
"null","","337640","HierDyn4hsy00s","sdszn0lm0k","ms1000307","iti","","null","img/motor_5.png","72","motor","","","","","","",""
"484","","338132","HierDyn4hsy00s","sdszn0lm0k","ms1000307","motor","","76","img/motor_8.png","76","motor","8","218","1","0","0","",""
"null","","338241","HierDyn4hsy00s","sdszn0lm0k","ms1000307","iti","","null","img/motor_8.png","76","motor","","","","","","",""
"490","","338739","HierDyn4hsy00s","sdszn0lm0k","ms1000307","motor","","72","img/motor_5.png","72","motor","5","219","1","0","0","",""
"null","","338855","HierDyn4hsy00s","sdszn0lm0k","ms1000307","iti","","null","img/motor_5.png","72","motor","","","","","","",""
"508","","339372","HierDyn4hsy00s","sdszn0lm0k","ms1000307","motor","","74","img/motor_6.png","74","motor","6","220","1","0","0","",""
"null","","339480","HierDyn4hsy00s","sdszn0lm0k","ms1000307","iti","","null","img/motor_6.png","74","motor","","","","","","",""
"563","","340058","HierDyn4hsy00s","sdszn0lm0k","ms1000307","motor","","68","img/motor_3.png","68","motor","3","221","1","0","0","",""
"null","","340168","HierDyn4hsy00s","sdszn0lm0k","ms1000307","iti","","null","img/motor_3.png","68","motor","","","","","","",""
"453","","340627","HierDyn4hsy00s","sdszn0lm0k","ms1000307","motor","","76","img/motor_8.png","76","motor","8","222","1","0","0","",""
"null","","340742","HierDyn4hsy00s","sdszn0lm0k","ms1000307","iti","","null","img/motor_8.png","76","motor","","","","","","",""
"829","","341586","HierDyn4hsy00s","sdszn0lm0k","ms1000307","motor","","83","img/motor_2.png","83","motor","2","223","1","0","0","",""
"null","","341701","HierDyn4hsy00s","sdszn0lm0k","ms1000307","iti","","null","img/motor_2.png","83","motor","","","","","","",""
"517","","342227","HierDyn4hsy00s","sdszn0lm0k","ms1000307","motor","","68","img/motor_3.png","68","motor","3","224","1","0","0","",""
"null","","342336","HierDyn4hsy00s","sdszn0lm0k","ms1000307","iti","","null","img/motor_3.png","68","motor","","","","","","",""
"707","","343051","HierDyn4hsy00s","sdszn0lm0k","ms1000307","motor","","75","img/motor_7.png","75","motor","7","225","1","0","0","",""
"null","","343160","HierDyn4hsy00s","sdszn0lm0k","ms1000307","iti","","null","img/motor_7.png","75","motor","","","","","","",""
"515","","343683","HierDyn4hsy00s","sdszn0lm0k","ms1000307","motor","","76","img/motor_8.png","76","motor","8","226","1","0","0","",""
"null","","343799","HierDyn4hsy00s","sdszn0lm0k","ms1000307","iti","","null","img/motor_8.png","76","motor","","","","","","",""
"620","","344428","HierDyn4hsy00s","sdszn0lm0k","ms1000307","motor","","65","img/motor_1.png","65","motor","1","227","1","0","0","",""
"null","","344536","HierDyn4hsy00s","sdszn0lm0k","ms1000307","iti","","null","img/motor_1.png","65","motor","","","","","","",""
"626","","345171","HierDyn4hsy00s","sdszn0lm0k","ms1000307","motor","","74","img/motor_6.png","74","motor","6","228","1","0","0","",""
"null","","345280","HierDyn4hsy00s","sdszn0lm0k","ms1000307","iti","","null","img/motor_6.png","74","motor","","","","","","",""
"675","","345964","HierDyn4hsy00s","sdszn0lm0k","ms1000307","motor","","70","img/motor_4.png","70","motor","4","229","1","0","0","",""
"null","","346079","HierDyn4hsy00s","sdszn0lm0k","ms1000307","iti","","null","img/motor_4.png","70","motor","","","","","","",""
"485","","346572","HierDyn4hsy00s","sdszn0lm0k","ms1000307","motor","","74","img/motor_7.png","75","motor","7","230","0","1","0","",""
"312","","346892","HierDyn4hsy00s","sdszn0lm0k","ms1000307","motorRepeat","","75","img/motor_7.png","75","motor","7","230","1","0","0","",""
"null","","347000","HierDyn4hsy00s","sdszn0lm0k","ms1000307","iti","","null","img/motor_7.png","75","motor","","","","","","",""
"811","","347820","HierDyn4hsy00s","sdszn0lm0k","ms1000307","motor","","75","img/motor_7.png","75","motor","7","231","1","0","0","",""
"null","","347935","HierDyn4hsy00s","sdszn0lm0k","ms1000307","iti","","null","img/motor_7.png","75","motor","","","","","","",""
"469","","348411","HierDyn4hsy00s","sdszn0lm0k","ms1000307","motor","","74","img/motor_6.png","74","motor","6","232","1","0","0","",""
"null","","348528","HierDyn4hsy00s","sdszn0lm0k","ms1000307","iti","","null","img/motor_6.png","74","motor","","","","","","",""
"387","","348931","HierDyn4hsy00s","sdszn0lm0k","ms1000307","motor","","76","img/motor_8.png","76","motor","8","233","1","0","0","",""
"null","","349047","HierDyn4hsy00s","sdszn0lm0k","ms1000307","iti","","null","img/motor_8.png","76","motor","","","","","","",""
"516","","349571","HierDyn4hsy00s","sdszn0lm0k","ms1000307","motor","","75","img/motor_7.png","75","motor","7","234","1","0","0","",""
"null","","349687","HierDyn4hsy00s","sdszn0lm0k","ms1000307","iti","","null","img/motor_7.png","75","motor","","","","","","",""
"427","","350131","HierDyn4hsy00s","sdszn0lm0k","ms1000307","motor","","65","img/motor_1.png","65","motor","1","235","1","0","0","",""
"null","","350247","HierDyn4hsy00s","sdszn0lm0k","ms1000307","iti","","null","img/motor_1.png","65","motor","","","","","","",""
"588","","350844","HierDyn4hsy00s","sdszn0lm0k","ms1000307","motor","","83","img/motor_2.png","83","motor","2","236","1","0","0","",""
"null","","350952","HierDyn4hsy00s","sdszn0lm0k","ms1000307","iti","","null","img/motor_2.png","83","motor","","","","","","",""
"444","","351405","HierDyn4hsy00s","sdszn0lm0k","ms1000307","motor","","83","img/motor_2.png","83","motor","2","237","1","0","0","",""
"null","","351519","HierDyn4hsy00s","sdszn0lm0k","ms1000307","iti","","null","img/motor_2.png","83","motor","","","","","","",""
"469","","351996","HierDyn4hsy00s","sdszn0lm0k","ms1000307","motor","","68","img/motor_3.png","68","motor","3","238","1","0","0","",""
"null","","352111","HierDyn4hsy00s","sdszn0lm0k","ms1000307","iti","","null","img/motor_3.png","68","motor","","","","","","",""
"563","","352682","HierDyn4hsy00s","sdszn0lm0k","ms1000307","motor","","72","img/motor_5.png","72","motor","5","239","1","0","0","",""
"null","","352797","HierDyn4hsy00s","sdszn0lm0k","ms1000307","iti","","null","img/motor_5.png","72","motor","","","","","","",""
"549","","353362","HierDyn4hsy00s","sdszn0lm0k","ms1000307","motor","","74","img/motor_6.png","74","motor","6","240","1","0","0","",""
"null","","353479","HierDyn4hsy00s","sdszn0lm0k","ms1000307","iti","","null","img/motor_6.png","74","motor","","","","","","",""
"404","","353892","HierDyn4hsy00s","sdszn0lm0k","ms1000307","motor","","75","img/motor_7.png","75","motor","7","241","1","0","0","",""
"null","","354008","HierDyn4hsy00s","sdszn0lm0k","ms1000307","iti","","null","img/motor_7.png","75","motor","","","","","","",""
"628","","354643","HierDyn4hsy00s","sdszn0lm0k","ms1000307","motor","","83","img/motor_2.png","83","motor","2","242","1","0","0","",""
"null","","354759","HierDyn4hsy00s","sdszn0lm0k","ms1000307","iti","","null","img/motor_2.png","83","motor","","","","","","",""
"540","","355314","HierDyn4hsy00s","sdszn0lm0k","ms1000307","motor","","72","img/motor_5.png","72","motor","5","243","1","0","0","",""
"null","","355423","HierDyn4hsy00s","sdszn0lm0k","ms1000307","iti","","null","img/motor_5.png","72","motor","","","","","","",""
"621","","356051","HierDyn4hsy00s","sdszn0lm0k","ms1000307","motor","","70","img/motor_4.png","70","motor","4","244","1","0","0","",""
"null","","356159","HierDyn4hsy00s","sdszn0lm0k","ms1000307","iti","","null","img/motor_4.png","70","motor","","","","","","",""
"516","","356684","HierDyn4hsy00s","sdszn0lm0k","ms1000307","motor","","75","img/motor_7.png","75","motor","7","245","1","0","0","",""
"null","","356792","HierDyn4hsy00s","sdszn0lm0k","ms1000307","iti","","null","img/motor_7.png","75","motor","","","","","","",""
"668","","357467","HierDyn4hsy00s","sdszn0lm0k","ms1000307","motor","","70","img/motor_4.png","70","motor","4","246","1","0","0","",""
"null","","357576","HierDyn4hsy00s","sdszn0lm0k","ms1000307","iti","","null","img/motor_4.png","70","motor","","","","","","",""
"565","","358155","HierDyn4hsy00s","sdszn0lm0k","ms1000307","motor","","74","img/motor_6.png","74","motor","6","247","1","0","0","",""
"null","","358271","HierDyn4hsy00s","sdszn0lm0k","ms1000307","iti","","null","img/motor_6.png","74","motor","","","","","","",""
"491","","358772","HierDyn4hsy00s","sdszn0lm0k","ms1000307","motor","","75","img/motor_7.png","75","motor","7","248","1","0","0","",""
"null","","358880","HierDyn4hsy00s","sdszn0lm0k","ms1000307","iti","","null","img/motor_7.png","75","motor","","","","","","",""
"500","","359388","HierDyn4hsy00s","sdszn0lm0k","ms1000307","motor","","74","img/motor_6.png","74","motor","6","249","1","0","0","",""
"null","","359504","HierDyn4hsy00s","sdszn0lm0k","ms1000307","iti","","null","img/motor_6.png","74","motor","","","","","","",""
"564","","360083","HierDyn4hsy00s","sdszn0lm0k","ms1000307","motor","","70","img/motor_4.png","70","motor","4","250","1","0","0","",""
"null","","360192","HierDyn4hsy00s","sdszn0lm0k","ms1000307","iti","","null","img/motor_4.png","70","motor","","","","","","",""
"484","","360684","HierDyn4hsy00s","sdszn0lm0k","ms1000307","motor","","76","img/motor_8.png","76","motor","8","251","1","0","0","",""
"null","","360792","HierDyn4hsy00s","sdszn0lm0k","ms1000307","iti","","null","img/motor_8.png","76","motor","","","","","","",""
"923","","361731","HierDyn4hsy00s","sdszn0lm0k","ms1000307","motor","","75","img/motor_7.png","75","motor","7","252","1","0","0","",""
"null","","361840","HierDyn4hsy00s","sdszn0lm0k","ms1000307","iti","","null","img/motor_7.png","75","motor","","","","","","",""
"555","","362404","HierDyn4hsy00s","sdszn0lm0k","ms1000307","motor","","70","img/motor_4.png","70","motor","4","253","1","0","0","",""
"null","","362513","HierDyn4hsy00s","sdszn0lm0k","ms1000307","iti","","null","img/motor_4.png","70","motor","","","","","","",""
"602","","363123","HierDyn4hsy00s","sdszn0lm0k","ms1000307","motor","","68","img/motor_3.png","68","motor","3","254","1","0","0","",""
"null","","363232","HierDyn4hsy00s","sdszn0lm0k","ms1000307","iti","","null","img/motor_3.png","68","motor","","","","","","",""
"596","","363836","HierDyn4hsy00s","sdszn0lm0k","ms1000307","motor","","75","img/motor_7.png","75","motor","7","255","1","0","0","",""
"null","","363951","HierDyn4hsy00s","sdszn0lm0k","ms1000307","iti","","null","img/motor_7.png","75","motor","","","","","","",""
"629","","364588","HierDyn4hsy00s","sdszn0lm0k","ms1000307","motor","","72","img/motor_5.png","72","motor","5","256","1","0","0","",""
"null","","364704","HierDyn4hsy00s","sdszn0lm0k","ms1000307","iti","","null","img/motor_5.png","72","motor","","","","","","",""
"876","","365588","HierDyn4hsy00s","sdszn0lm0k","ms1000307","motor","","74","img/motor_6.png","74","motor","6","257","1","0","0","",""
"null","","365696","HierDyn4hsy00s","sdszn0lm0k","ms1000307","iti","","null","img/motor_6.png","74","motor","","","","","","",""
"451","","366157","HierDyn4hsy00s","sdszn0lm0k","ms1000307","motor","","74","img/motor_6.png","74","motor","6","258","1","0","0","",""
"null","","366272","HierDyn4hsy00s","sdszn0lm0k","ms1000307","iti","","null","img/motor_6.png","74","motor","","","","","","",""
"523","","366803","HierDyn4hsy00s","sdszn0lm0k","ms1000307","motor","","72","img/motor_5.png","72","motor","5","259","1","0","0","",""
"null","","366918","HierDyn4hsy00s","sdszn0lm0k","ms1000307","iti","","null","img/motor_5.png","72","motor","","","","","","",""
"420","","367349","HierDyn4hsy00s","sdszn0lm0k","ms1000307","motor","","70","img/motor_4.png","70","motor","4","260","1","0","0","",""
"null","","367463","HierDyn4hsy00s","sdszn0lm0k","ms1000307","iti","","null","img/motor_4.png","70","motor","","","","","","",""
"516","","367988","HierDyn4hsy00s","sdszn0lm0k","ms1000307","motor","","76","img/motor_8.png","76","motor","8","261","1","0","0","",""
"null","","368103","HierDyn4hsy00s","sdszn0lm0k","ms1000307","iti","","null","img/motor_8.png","76","motor","","","","","","",""
"1260","","369372","HierDyn4hsy00s","sdszn0lm0k","ms1000307","motor","","75","img/motor_7.png","75","motor","7","262","1","0","0","",""
"null","","369487","HierDyn4hsy00s","sdszn0lm0k","ms1000307","iti","","null","img/motor_7.png","75","motor","","","","","","",""
"868","","370372","HierDyn4hsy00s","sdszn0lm0k","ms1000307","motor","","68","img/motor_3.png","68","motor","3","263","1","0","0","",""
"null","","370487","HierDyn4hsy00s","sdszn0lm0k","ms1000307","iti","","null","img/motor_3.png","68","motor","","","","","","",""
"372","","370868","HierDyn4hsy00s","sdszn0lm0k","ms1000307","motor","","68","img/motor_3.png","68","motor","3","264","1","0","0","",""
"null","","370976","HierDyn4hsy00s","sdszn0lm0k","ms1000307","iti","","null","img/motor_3.png","68","motor","","","","","","",""
"532","","371524","HierDyn4hsy00s","sdszn0lm0k","ms1000307","motor","","72","img/motor_5.png","72","motor","5","265","1","0","0","",""
"null","","371639","HierDyn4hsy00s","sdszn0lm0k","ms1000307","iti","","null","img/motor_5.png","72","motor","","","","","","",""
"558","","372204","HierDyn4hsy00s","sdszn0lm0k","ms1000307","motor","","83","img/motor_2.png","83","motor","2","266","1","0","0","",""
"null","","372319","HierDyn4hsy00s","sdszn0lm0k","ms1000307","iti","","null","img/motor_2.png","83","motor","","","","","","",""
"469","","372796","HierDyn4hsy00s","sdszn0lm0k","ms1000307","motor","","70","img/motor_4.png","70","motor","4","267","1","0","0","",""
"null","","372905","HierDyn4hsy00s","sdszn0lm0k","ms1000307","iti","","null","img/motor_4.png","70","motor","","","","","","",""
"691","","373604","HierDyn4hsy00s","sdszn0lm0k","ms1000307","motor","","72","img/motor_5.png","72","motor","5","268","1","0","0","",""
"null","","373719","HierDyn4hsy00s","sdszn0lm0k","ms1000307","iti","","null","img/motor_5.png","72","motor","","","","","","",""
"437","","374164","HierDyn4hsy00s","sdszn0lm0k","ms1000307","motor","","65","img/motor_1.png","65","motor","1","269","1","0","0","",""
"null","","374279","HierDyn4hsy00s","sdszn0lm0k","ms1000307","iti","","null","img/motor_1.png","65","motor","","","","","","",""
"494","","374780","HierDyn4hsy00s","sdszn0lm0k","ms1000307","motor","","72","img/motor_5.png","72","motor","5","270","1","0","0","",""
"null","","374889","HierDyn4hsy00s","sdszn0lm0k","ms1000307","iti","","null","img/motor_5.png","72","motor","","","","","","",""
"531","","375429","HierDyn4hsy00s","sdszn0lm0k","ms1000307","motor","","74","img/motor_6.png","74","motor","6","271","1","0","0","",""
"null","","375537","HierDyn4hsy00s","sdszn0lm0k","ms1000307","iti","","null","img/motor_6.png","74","motor","","","","","","",""
"627","","376173","HierDyn4hsy00s","sdszn0lm0k","ms1000307","motor","","72","img/motor_5.png","72","motor","5","272","1","0","0","",""
"null","","376289","HierDyn4hsy00s","sdszn0lm0k","ms1000307","iti","","null","img/motor_5.png","72","motor","","","","","","",""
"691","","376989","HierDyn4hsy00s","sdszn0lm0k","ms1000307","motor","","68","img/motor_3.png","68","motor","3","273","1","0","0","",""
"null","","377098","HierDyn4hsy00s","sdszn0lm0k","ms1000307","iti","","null","img/motor_3.png","68","motor","","","","","","",""
"1227","","378333","HierDyn4hsy00s","sdszn0lm0k","ms1000307","motor","","65","img/motor_1.png","65","motor","1","274","1","0","0","",""
"null","","378441","HierDyn4hsy00s","sdszn0lm0k","ms1000307","iti","","null","img/motor_1.png","65","motor","","","","","","",""
"1331","","379781","HierDyn4hsy00s","sdszn0lm0k","ms1000307","motor","","74","img/motor_6.png","74","motor","6","275","1","0","0","",""
"null","","379889","HierDyn4hsy00s","sdszn0lm0k","ms1000307","iti","","null","img/motor_6.png","74","motor","","","","","","",""
"371","","380269","HierDyn4hsy00s","sdszn0lm0k","ms1000307","motor","","65","img/motor_1.png","65","motor","1","276","1","0","0","",""
"null","","380378","HierDyn4hsy00s","sdszn0lm0k","ms1000307","iti","","null","img/motor_1.png","65","motor","","","","","","",""
"507","","380892","HierDyn4hsy00s","sdszn0lm0k","ms1000307","motor","","72","img/motor_5.png","72","motor","5","277","1","0","0","",""
"null","","381001","HierDyn4hsy00s","sdszn0lm0k","ms1000307","iti","","null","img/motor_5.png","72","motor","","","","","","",""
"380","","381389","HierDyn4hsy00s","sdszn0lm0k","ms1000307","motor","","65","img/motor_1.png","65","motor","1","278","1","0","0","",""
"null","","381498","HierDyn4hsy00s","sdszn0lm0k","ms1000307","iti","","null","img/motor_1.png","65","motor","","","","","","",""
"466","","381973","HierDyn4hsy00s","sdszn0lm0k","ms1000307","motor","","65","img/motor_1.png","65","motor","1","279","1","0","0","",""
"null","","382082","HierDyn4hsy00s","sdszn0lm0k","ms1000307","iti","","null","img/motor_1.png","65","motor","","","","","","",""
"898","","382988","HierDyn4hsy00s","sdszn0lm0k","ms1000307","motor","","76","img/motor_7.png","75","motor","7","280","0","1","0","",""
"296","","383299","HierDyn4hsy00s","sdszn0lm0k","ms1000307","motorRepeat","","75","img/motor_7.png","75","motor","7","280","1","0","0","",""
"null","","383415","HierDyn4hsy00s","sdszn0lm0k","ms1000307","iti","","null","img/motor_7.png","75","motor","","","","","","",""
"1637","","385062","HierDyn4hsy00s","sdszn0lm0k","ms1000307","motor","","72","img/motor_5.png","72","motor","5","281","1","0","0","",""
"null","","385177","HierDyn4hsy00s","sdszn0lm0k","ms1000307","iti","","null","img/motor_5.png","72","motor","","","","","","",""
"587","","385774","HierDyn4hsy00s","sdszn0lm0k","ms1000307","motor","","65","img/motor_1.png","65","motor","1","282","1","0","0","",""
"null","","385888","HierDyn4hsy00s","sdszn0lm0k","ms1000307","iti","","null","img/motor_1.png","65","motor","","","","","","",""
"580","","386484","HierDyn4hsy00s","sdszn0lm0k","ms1000307","motor","","83","img/motor_2.png","83","motor","2","283","1","0","0","",""
"null","","386600","HierDyn4hsy00s","sdszn0lm0k","ms1000307","iti","","null","img/motor_2.png","83","motor","","","","","","",""
"708","","387317","HierDyn4hsy00s","sdszn0lm0k","ms1000307","motor","","74","img/motor_6.png","74","motor","6","284","1","0","0","",""
"null","","387433","HierDyn4hsy00s","sdszn0lm0k","ms1000307","iti","","null","img/motor_6.png","74","motor","","","","","","",""
"668","","388108","HierDyn4hsy00s","sdszn0lm0k","ms1000307","motor","","65","img/motor_1.png","65","motor","1","285","1","0","0","",""
"null","","388224","HierDyn4hsy00s","sdszn0lm0k","ms1000307","iti","","null","img/motor_1.png","65","motor","","","","","","",""
"1429","","389661","HierDyn4hsy00s","sdszn0lm0k","ms1000307","motor","","72","img/motor_5.png","72","motor","5","286","1","0","0","",""
"null","","389778","HierDyn4hsy00s","sdszn0lm0k","ms1000307","iti","","null","img/motor_5.png","72","motor","","","","","","",""
"363","","390156","HierDyn4hsy00s","sdszn0lm0k","ms1000307","motor","","65","img/motor_1.png","65","motor","1","287","1","0","0","",""
"null","","390273","HierDyn4hsy00s","sdszn0lm0k","ms1000307","iti","","null","img/motor_1.png","65","motor","","","","","","",""
"972","","391254","HierDyn4hsy00s","sdszn0lm0k","ms1000307","motor","","76","img/motor_8.png","76","motor","8","288","1","0","0","",""
"null","","391363","HierDyn4hsy00s","sdszn0lm0k","ms1000307","iti","","null","img/motor_8.png","76","motor","","","","","","",""
"568","","391941","HierDyn4hsy00s","sdszn0lm0k","ms1000307","motor","","74","img/motor_6.png","74","motor","6","289","1","0","0","",""
"null","","392057","HierDyn4hsy00s","sdszn0lm0k","ms1000307","iti","","null","img/motor_6.png","74","motor","","","","","","",""
"587","","392653","HierDyn4hsy00s","sdszn0lm0k","ms1000307","motor","","65","img/motor_1.png","65","motor","1","290","1","0","0","",""
"null","","392762","HierDyn4hsy00s","sdszn0lm0k","ms1000307","iti","","null","img/motor_1.png","65","motor","","","","","","",""
"570","","393341","HierDyn4hsy00s","sdszn0lm0k","ms1000307","motor","","68","img/motor_4.png","70","motor","4","291","0","1","0","",""
"272","","393628","HierDyn4hsy00s","sdszn0lm0k","ms1000307","motorRepeat","","70","img/motor_4.png","70","motor","4","291","1","0","0","",""
"null","","393743","HierDyn4hsy00s","sdszn0lm0k","ms1000307","iti","","null","img/motor_4.png","70","motor","","","","","","",""
"468","","394227","HierDyn4hsy00s","sdszn0lm0k","ms1000307","motor","","83","img/motor_2.png","83","motor","2","292","1","0","0","",""
"null","","394338","HierDyn4hsy00s","sdszn0lm0k","ms1000307","iti","","null","img/motor_2.png","83","motor","","","","","","",""
"1490","","395837","HierDyn4hsy00s","sdszn0lm0k","ms1000307","motor","","74","img/motor_6.png","74","motor","6","293","1","0","0","",""
"null","","395953","HierDyn4hsy00s","sdszn0lm0k","ms1000307","iti","","null","img/motor_6.png","74","motor","","","","","","",""
"834","","396797","HierDyn4hsy00s","sdszn0lm0k","ms1000307","motor","","65","img/motor_1.png","65","motor","1","294","1","0","0","",""
"null","","396905","HierDyn4hsy00s","sdszn0lm0k","ms1000307","iti","","null","img/motor_1.png","65","motor","","","","","","",""
"580","","397494","HierDyn4hsy00s","sdszn0lm0k","ms1000307","motor","","72","img/motor_5.png","72","motor","5","295","1","0","0","",""
"null","","397603","HierDyn4hsy00s","sdszn0lm0k","ms1000307","iti","","null","img/motor_5.png","72","motor","","","","","","",""
"2346","","399958","HierDyn4hsy00s","sdszn0lm0k","ms1000307","motor","","70","img/motor_4.png","70","motor","4","296","1","0","0","",""
"null","","400067","HierDyn4hsy00s","sdszn0lm0k","ms1000307","iti","","null","img/motor_4.png","70","motor","","","","","","",""
"802","","400878","HierDyn4hsy00s","sdszn0lm0k","ms1000307","motor","","76","img/motor_8.png","76","motor","8","297","1","0","0","",""
"null","","400986","HierDyn4hsy00s","sdszn0lm0k","ms1000307","iti","","null","img/motor_8.png","76","motor","","","","","","",""
"643","","401637","HierDyn4hsy00s","sdszn0lm0k","ms1000307","motor","","70","img/motor_4.png","70","motor","4","298","1","0","0","",""
"null","","401752","HierDyn4hsy00s","sdszn0lm0k","ms1000307","iti","","null","img/motor_4.png","70","motor","","","","","","",""
"516","","402277","HierDyn4hsy00s","sdszn0lm0k","ms1000307","motor","","83","img/motor_2.png","83","motor","2","299","1","0","0","",""
"null","","402386","HierDyn4hsy00s","sdszn0lm0k","ms1000307","iti","","null","img/motor_2.png","83","motor","","","","","","",""
"556","","402949","HierDyn4hsy00s","sdszn0lm0k","ms1000307","motor","","68","img/motor_3.png","68","motor","3","300","1","0","0","",""
"null","","403064","HierDyn4hsy00s","sdszn0lm0k","ms1000307","iti","","null","img/motor_3.png","68","motor","","","","","","",""
"484","","403557","HierDyn4hsy00s","sdszn0lm0k","ms1000307","motor","","75","img/motor_7.png","75","motor","7","301","1","0","0","",""
"null","","403673","HierDyn4hsy00s","sdszn0lm0k","ms1000307","iti","","null","img/motor_7.png","75","motor","","","","","","",""
"811","","404500","HierDyn4hsy00s","sdszn0lm0k","ms1000307","motor","","70","img/motor_4.png","70","motor","4","302","1","0","0","",""
"null","","404610","HierDyn4hsy00s","sdszn0lm0k","ms1000307","iti","","null","img/motor_4.png","70","motor","","","","","","",""
"771","","405389","HierDyn4hsy00s","sdszn0lm0k","ms1000307","motor","","75","img/motor_7.png","75","motor","7","303","1","0","0","",""
"null","","405498","HierDyn4hsy00s","sdszn0lm0k","ms1000307","iti","","null","img/motor_7.png","75","motor","","","","","","",""
"444","","405949","HierDyn4hsy00s","sdszn0lm0k","ms1000307","motor","","75","img/motor_7.png","75","motor","7","304","1","0","0","",""
"null","","406058","HierDyn4hsy00s","sdszn0lm0k","ms1000307","iti","","null","img/motor_7.png","75","motor","","","","","","",""
"635","","406702","HierDyn4hsy00s","sdszn0lm0k","ms1000307","motor","","70","img/motor_4.png","70","motor","4","305","1","0","0","",""
"null","","406810","HierDyn4hsy00s","sdszn0lm0k","ms1000307","iti","","null","img/motor_4.png","70","motor","","","","","","",""
"1196","","408014","HierDyn4hsy00s","sdszn0lm0k","ms1000307","motor","","65","img/motor_1.png","65","motor","1","306","1","0","0","",""
"null","","408129","HierDyn4hsy00s","sdszn0lm0k","ms1000307","iti","","null","img/motor_1.png","65","motor","","","","","","",""
"605","","408742","HierDyn4hsy00s","sdszn0lm0k","ms1000307","motor","","83","img/motor_2.png","83","motor","2","307","1","0","0","",""
"null","","408849","HierDyn4hsy00s","sdszn0lm0k","ms1000307","iti","","null","img/motor_2.png","83","motor","","","","","","",""
"675","","409533","HierDyn4hsy00s","sdszn0lm0k","ms1000307","motor","","74","img/motor_6.png","74","motor","6","308","1","0","0","",""
"null","","409649","HierDyn4hsy00s","sdszn0lm0k","ms1000307","iti","","null","img/motor_6.png","74","motor","","","","","","",""
"709","","410365","HierDyn4hsy00s","sdszn0lm0k","ms1000307","motor","","68","img/motor_3.png","68","motor","3","309","1","0","0","",""
"null","","410475","HierDyn4hsy00s","sdszn0lm0k","ms1000307","iti","","null","img/motor_3.png","68","motor","","","","","","",""
"516","","411005","HierDyn4hsy00s","sdszn0lm0k","ms1000307","motor","","75","img/motor_7.png","75","motor","7","310","1","0","0","",""
"null","","411113","HierDyn4hsy00s","sdszn0lm0k","ms1000307","iti","","null","img/motor_7.png","75","motor","","","","","","",""
"469","","411590","HierDyn4hsy00s","sdszn0lm0k","ms1000307","motor","","76","img/motor_8.png","76","motor","8","311","1","0","0","",""
"null","","411698","HierDyn4hsy00s","sdszn0lm0k","ms1000307","iti","","null","img/motor_8.png","76","motor","","","","","","",""
"555","","412262","HierDyn4hsy00s","sdszn0lm0k","ms1000307","motor","","68","img/motor_4.png","70","motor","4","312","0","1","0","",""
"504","","412774","HierDyn4hsy00s","sdszn0lm0k","ms1000307","motorRepeat","","70","img/motor_4.png","70","motor","4","312","1","0","0","",""
"null","","412882","HierDyn4hsy00s","sdszn0lm0k","ms1000307","iti","","null","img/motor_4.png","70","motor","","","","","","",""
"452","","413342","HierDyn4hsy00s","sdszn0lm0k","ms1000307","motor","","83","img/motor_2.png","83","motor","2","313","1","0","0","",""
"null","","413457","HierDyn4hsy00s","sdszn0lm0k","ms1000307","iti","","null","img/motor_2.png","83","motor","","","","","","",""
"643","","414110","HierDyn4hsy00s","sdszn0lm0k","ms1000307","motor","","72","img/motor_5.png","72","motor","5","314","1","0","0","",""
"null","","414225","HierDyn4hsy00s","sdszn0lm0k","ms1000307","iti","","null","img/motor_5.png","72","motor","","","","","","",""
"707","","414942","HierDyn4hsy00s","sdszn0lm0k","ms1000307","motor","","70","img/motor_4.png","70","motor","4","315","1","0","0","",""
"null","","415051","HierDyn4hsy00s","sdszn0lm0k","ms1000307","iti","","null","img/motor_4.png","70","motor","","","","","","",""
"539","","415598","HierDyn4hsy00s","sdszn0lm0k","ms1000307","motor","","74","img/motor_6.png","74","motor","6","316","1","0","0","",""
"null","","415707","HierDyn4hsy00s","sdszn0lm0k","ms1000307","iti","","null","img/motor_6.png","74","motor","","","","","","",""
"906","","416622","HierDyn4hsy00s","sdszn0lm0k","ms1000307","motor","","83","img/motor_2.png","83","motor","2","317","1","0","0","",""
"null","","416730","HierDyn4hsy00s","sdszn0lm0k","ms1000307","iti","","null","img/motor_2.png","83","motor","","","","","","",""
"596","","417333","HierDyn4hsy00s","sdszn0lm0k","ms1000307","motor","","76","img/motor_8.png","76","motor","8","318","1","0","0","",""
"null","","417441","HierDyn4hsy00s","sdszn0lm0k","ms1000307","iti","","null","img/motor_8.png","76","motor","","","","","","",""
"860","","418310","HierDyn4hsy00s","sdszn0lm0k","ms1000307","motor","","65","img/motor_1.png","65","motor","1","319","1","0","0","",""
"null","","418419","HierDyn4hsy00s","sdszn0lm0k","ms1000307","iti","","null","img/motor_1.png","65","motor","","","","","","",""
"867","","419293","HierDyn4hsy00s","sdszn0lm0k","ms1000307","motor","","70","img/motor_4.png","70","motor","4","320","1","0","0","",""
"null","","419408","HierDyn4hsy00s","sdszn0lm0k","ms1000307","iti","","null","img/motor_4.png","70","motor","","","","","","",""
"468","","419885","HierDyn4hsy00s","sdszn0lm0k","ms1000307","motor","","70","img/motor_4.png","70","motor","4","321","1","0","0","",""
"null","","420000","HierDyn4hsy00s","sdszn0lm0k","ms1000307","iti","","null","img/motor_4.png","70","motor","","","","","","",""
"460","","420476","HierDyn4hsy00s","sdszn0lm0k","ms1000307","motor","","83","img/motor_2.png","83","motor","2","322","1","0","0","",""
"null","","420586","HierDyn4hsy00s","sdszn0lm0k","ms1000307","iti","","null","img/motor_2.png","83","motor","","","","","","",""
"667","","421262","HierDyn4hsy00s","sdszn0lm0k","ms1000307","motor","","76","img/motor_8.png","76","motor","8","323","1","0","0","",""
"null","","421377","HierDyn4hsy00s","sdszn0lm0k","ms1000307","iti","","null","img/motor_8.png","76","motor","","","","","","",""
"564","","421950","HierDyn4hsy00s","sdszn0lm0k","ms1000307","motor","","75","img/motor_7.png","75","motor","7","324","1","0","0","",""
"null","","422059","HierDyn4hsy00s","sdszn0lm0k","ms1000307","iti","","null","img/motor_7.png","75","motor","","","","","","",""
"2659","","424726","HierDyn4hsy00s","sdszn0lm0k","ms1000307","motor","","65","img/motor_1.png","65","motor","1","325","1","0","0","",""
"null","","424834","HierDyn4hsy00s","sdszn0lm0k","ms1000307","iti","","null","img/motor_1.png","65","motor","","","","","","",""
"2268","","427110","HierDyn4hsy00s","sdszn0lm0k","ms1000307","motor","","75","img/motor_7.png","75","motor","7","326","1","0","0","",""
"null","","427225","HierDyn4hsy00s","sdszn0lm0k","ms1000307","iti","","null","img/motor_7.png","75","motor","","","","","","",""
"500","","427735","HierDyn4hsy00s","sdszn0lm0k","ms1000307","motor","","65","img/motor_1.png","65","motor","1","327","1","0","0","",""
"null","","427843","HierDyn4hsy00s","sdszn0lm0k","ms1000307","iti","","null","img/motor_1.png","65","motor","","","","","","",""
"971","","428823","HierDyn4hsy00s","sdszn0lm0k","ms1000307","motor","","74","img/motor_6.png","74","motor","6","328","1","0","0","",""
"null","","428937","HierDyn4hsy00s","sdszn0lm0k","ms1000307","iti","","null","img/motor_6.png","74","motor","","","","","","",""
"508","","429454","HierDyn4hsy00s","sdszn0lm0k","ms1000307","motor","","83","img/motor_2.png","83","motor","2","329","1","0","0","",""
"null","","429570","HierDyn4hsy00s","sdszn0lm0k","ms1000307","iti","","null","img/motor_2.png","83","motor","","","","","","",""
"573","","430149","HierDyn4hsy00s","sdszn0lm0k","ms1000307","motor","","65","img/motor_1.png","65","motor","1","330","1","0","0","",""
"null","","430258","HierDyn4hsy00s","sdszn0lm0k","ms1000307","iti","","null","img/motor_1.png","65","motor","","","","","","",""
"764","","431030","HierDyn4hsy00s","sdszn0lm0k","ms1000307","motor","","68","img/motor_3.png","68","motor","3","331","1","0","0","",""
"null","","431138","HierDyn4hsy00s","sdszn0lm0k","ms1000307","iti","","null","img/motor_3.png","68","motor","","","","","","",""
"660","","431807","HierDyn4hsy00s","sdszn0lm0k","ms1000307","motor","","75","img/motor_7.png","75","motor","7","332","1","0","0","",""
"null","","431921","HierDyn4hsy00s","sdszn0lm0k","ms1000307","iti","","null","img/motor_7.png","75","motor","","","","","","",""
"516","","432445","HierDyn4hsy00s","sdszn0lm0k","ms1000307","motor","","83","img/motor_2.png","83","motor","2","333","1","0","0","",""
"null","","432560","HierDyn4hsy00s","sdszn0lm0k","ms1000307","iti","","null","img/motor_2.png","83","motor","","","","","","",""
"404","","432973","HierDyn4hsy00s","sdszn0lm0k","ms1000307","motor","","65","img/motor_1.png","65","motor","1","334","1","0","0","",""
"null","","433089","HierDyn4hsy00s","sdszn0lm0k","ms1000307","iti","","null","img/motor_1.png","65","motor","","","","","","",""
"451","","433551","HierDyn4hsy00s","sdszn0lm0k","ms1000307","motor","","68","img/motor_3.png","68","motor","3","335","1","0","0","",""
"null","","433660","HierDyn4hsy00s","sdszn0lm0k","ms1000307","iti","","null","img/motor_3.png","68","motor","","","","","","",""
"473","","434143","HierDyn4hsy00s","sdszn0lm0k","ms1000307","motor","","83","img/motor_2.png","83","motor","2","336","1","0","0","",""
"null","","434251","HierDyn4hsy00s","sdszn0lm0k","ms1000307","iti","","null","img/motor_2.png","83","motor","","","","","","",""
"507","","434766","HierDyn4hsy00s","sdszn0lm0k","ms1000307","motor","","72","img/motor_5.png","72","motor","5","337","1","0","0","",""
"null","","434876","HierDyn4hsy00s","sdszn0lm0k","ms1000307","iti","","null","img/motor_5.png","72","motor","","","","","","",""
"523","","435406","HierDyn4hsy00s","sdszn0lm0k","ms1000307","motor","","75","img/motor_7.png","75","motor","7","338","1","0","0","",""
"null","","435515","HierDyn4hsy00s","sdszn0lm0k","ms1000307","iti","","null","img/motor_7.png","75","motor","","","","","","",""
"659","","436182","HierDyn4hsy00s","sdszn0lm0k","ms1000307","motor","","70","img/motor_4.png","70","motor","4","339","1","0","0","",""
"null","","436297","HierDyn4hsy00s","sdszn0lm0k","ms1000307","iti","","null","img/motor_4.png","70","motor","","","","","","",""
"669","","436974","HierDyn4hsy00s","sdszn0lm0k","ms1000307","motor","","74","img/motor_6.png","74","motor","6","340","1","0","0","",""
"null","","437084","HierDyn4hsy00s","sdszn0lm0k","ms1000307","iti","","null","img/motor_6.png","74","motor","","","","","","",""
"580","","437671","HierDyn4hsy00s","sdszn0lm0k","ms1000307","motor","","68","img/motor_3.png","68","motor","3","341","1","0","0","",""
"null","","437786","HierDyn4hsy00s","sdszn0lm0k","ms1000307","iti","","null","img/motor_3.png","68","motor","","","","","","",""
"380","","438174","HierDyn4hsy00s","sdszn0lm0k","ms1000307","motor","","65","img/motor_1.png","65","motor","1","342","1","0","0","",""
"null","","438289","HierDyn4hsy00s","sdszn0lm0k","ms1000307","iti","","null","img/motor_1.png","65","motor","","","","","","",""
"468","","438766","HierDyn4hsy00s","sdszn0lm0k","ms1000307","motor","","68","img/motor_2.png","83","motor","2","343","0","1","0","",""
"271","","439046","HierDyn4hsy00s","sdszn0lm0k","ms1000307","motorRepeat","","83","img/motor_2.png","83","motor","2","343","1","0","0","",""
"null","","439154","HierDyn4hsy00s","sdszn0lm0k","ms1000307","iti","","null","img/motor_2.png","83","motor","","","","","","",""
"452","","439614","HierDyn4hsy00s","sdszn0lm0k","ms1000307","motor","","74","img/motor_6.png","74","motor","6","344","1","0","0","",""
"null","","439729","HierDyn4hsy00s","sdszn0lm0k","ms1000307","iti","","null","img/motor_6.png","74","motor","","","","","","",""
"412","","440151","HierDyn4hsy00s","sdszn0lm0k","ms1000307","motor","","76","img/motor_8.png","76","motor","8","345","1","0","0","",""
"null","","440266","HierDyn4hsy00s","sdszn0lm0k","ms1000307","iti","","null","img/motor_8.png","76","motor","","","","","","",""
"596","","440877","HierDyn4hsy00s","sdszn0lm0k","ms1000307","motor","","70","img/motor_4.png","70","motor","4","346","1","0","0","",""
"null","","440993","HierDyn4hsy00s","sdszn0lm0k","ms1000307","iti","","null","img/motor_4.png","70","motor","","","","","","",""
"484","","441486","HierDyn4hsy00s","sdszn0lm0k","ms1000307","motor","","74","img/motor_7.png","75","motor","7","347","0","1","0","",""
"472","","441967","HierDyn4hsy00s","sdszn0lm0k","ms1000307","motorRepeat","","75","img/motor_7.png","75","motor","7","347","1","0","0","",""
"null","","442076","HierDyn4hsy00s","sdszn0lm0k","ms1000307","iti","","null","img/motor_7.png","75","motor","","","","","","",""
"810","","442895","HierDyn4hsy00s","sdszn0lm0k","ms1000307","motor","","83","img/motor_2.png","83","motor","2","348","1","0","0","",""
"null","","443010","HierDyn4hsy00s","sdszn0lm0k","ms1000307","iti","","null","img/motor_2.png","83","motor","","","","","","",""
"540","","443558","HierDyn4hsy00s","sdszn0lm0k","ms1000307","motor","","76","img/motor_8.png","76","motor","8","349","1","0","0","",""
"null","","443674","HierDyn4hsy00s","sdszn0lm0k","ms1000307","iti","","null","img/motor_8.png","76","motor","","","","","","",""
"427","","444111","HierDyn4hsy00s","sdszn0lm0k","ms1000307","motor","","65","img/motor_1.png","65","motor","1","350","1","0","0","",""
"null","","444219","HierDyn4hsy00s","sdszn0lm0k","ms1000307","iti","","null","img/motor_1.png","65","motor","","","","","","",""
"428","","444655","HierDyn4hsy00s","sdszn0lm0k","ms1000307","motor","","76","img/motor_8.png","76","motor","8","351","1","0","0","",""
"null","","444770","HierDyn4hsy00s","sdszn0lm0k","ms1000307","iti","","null","img/motor_8.png","76","motor","","","","","","",""
"459","","445239","HierDyn4hsy00s","sdszn0lm0k","ms1000307","motor","","68","img/motor_3.png","68","motor","3","352","1","0","0","",""
"null","","445348","HierDyn4hsy00s","sdszn0lm0k","ms1000307","iti","","null","img/motor_3.png","68","motor","","","","","","",""
"538","","445895","HierDyn4hsy00s","sdszn0lm0k","ms1000307","motor","","68","img/motor_3.png","68","motor","3","353","1","0","0","",""
"null","","446004","HierDyn4hsy00s","sdszn0lm0k","ms1000307","iti","","null","img/motor_3.png","68","motor","","","","","","",""
"499","","446511","HierDyn4hsy00s","sdszn0lm0k","ms1000307","motor","","65","img/motor_1.png","65","motor","1","354","1","0","0","",""
"null","","446620","HierDyn4hsy00s","sdszn0lm0k","ms1000307","iti","","null","img/motor_1.png","65","motor","","","","","","",""
"547","","447175","HierDyn4hsy00s","sdszn0lm0k","ms1000307","motor","","74","img/motor_6.png","74","motor","6","355","1","0","0","",""
"null","","447290","HierDyn4hsy00s","sdszn0lm0k","ms1000307","iti","","null","img/motor_6.png","74","motor","","","","","","",""
"443","","447749","HierDyn4hsy00s","sdszn0lm0k","ms1000307","motor","","74","img/motor_6.png","74","motor","6","356","1","0","0","",""
"null","","447859","HierDyn4hsy00s","sdszn0lm0k","ms1000307","iti","","null","img/motor_6.png","74","motor","","","","","","",""
"587","","448454","HierDyn4hsy00s","sdszn0lm0k","ms1000307","motor","","83","img/motor_2.png","83","motor","2","357","1","0","0","",""
"null","","448569","HierDyn4hsy00s","sdszn0lm0k","ms1000307","iti","","null","img/motor_2.png","83","motor","","","","","","",""
"533","","449111","HierDyn4hsy00s","sdszn0lm0k","ms1000307","motor","","70","img/motor_4.png","70","motor","4","358","1","0","0","",""
"null","","449226","HierDyn4hsy00s","sdszn0lm0k","ms1000307","iti","","null","img/motor_4.png","70","motor","","","","","","",""
"507","","449743","HierDyn4hsy00s","sdszn0lm0k","ms1000307","motor","","65","img/motor_1.png","65","motor","1","359","1","0","0","",""
"null","","449858","HierDyn4hsy00s","sdszn0lm0k","ms1000307","iti","","null","img/motor_1.png","65","motor","","","","","","",""
"453","","450319","HierDyn4hsy00s","sdszn0lm0k","ms1000307","motor","","75","img/motor_7.png","75","motor","7","360","1","0","0","",""
"null","","450435","HierDyn4hsy00s","sdszn0lm0k","ms1000307","iti","","null","img/motor_7.png","75","motor","","","","","","",""
"587","","451038","HierDyn4hsy00s","sdszn0lm0k","ms1000307","motor","","83","img/motor_2.png","83","motor","2","361","1","0","0","",""
"null","","451154","HierDyn4hsy00s","sdszn0lm0k","ms1000307","iti","","null","img/motor_2.png","83","motor","","","","","","",""
"380","","451543","HierDyn4hsy00s","sdszn0lm0k","ms1000307","motor","","75","img/motor_7.png","75","motor","7","362","1","0","0","",""
"null","","451659","HierDyn4hsy00s","sdszn0lm0k","ms1000307","iti","","null","img/motor_7.png","75","motor","","","","","","",""
"523","","452198","HierDyn4hsy00s","sdszn0lm0k","ms1000307","motor","","72","img/motor_5.png","72","motor","5","363","1","0","0","",""
"null","","452307","HierDyn4hsy00s","sdszn0lm0k","ms1000307","iti","","null","img/motor_5.png","72","motor","","","","","","",""
"404","","452719","HierDyn4hsy00s","sdszn0lm0k","ms1000307","motor","","75","img/motor_7.png","75","motor","7","364","1","0","0","",""
"null","","452834","HierDyn4hsy00s","sdszn0lm0k","ms1000307","iti","","null","img/motor_7.png","75","motor","","","","","","",""
"436","","453279","HierDyn4hsy00s","sdszn0lm0k","ms1000307","motor","","76","img/motor_8.png","76","motor","8","365","1","0","0","",""
"null","","453395","HierDyn4hsy00s","sdszn0lm0k","ms1000307","iti","","null","img/motor_8.png","76","motor","","","","","","",""
"547","","453951","HierDyn4hsy00s","sdszn0lm0k","ms1000307","motor","","76","img/motor_8.png","76","motor","8","366","1","0","0","",""
"null","","454066","HierDyn4hsy00s","sdszn0lm0k","ms1000307","iti","","null","img/motor_8.png","76","motor","","","","","","",""
