"rt","responses","time_elapsed","subject","prolificID","demoID","trialType","question_order","key_press","stim","corrresp","phase","stimNum","trialNum","corr","repeatTrial","motorSwitch","pracCounter","hierarchy"
"161082","{""Q0"":""ms1000301""}","161116","HierDy84t992hm","qfv4m285tj","ms1000301","","","","","","","","","","","","",""
"8841","","169971","HierDy84t992hm","qfv4m285tj","ms1000301","","","","","","","","","","","","",""
"","","172065","HierDy84t992hm","qfv4m285tj","ms1000301","fullscreen","","","","","","","","","","","",""
"21474","{""Vision"":""Yes"",""Handedness"":""Right"",""Gender"":""male""}","193554","HierDy84t992hm","qfv4m285tj","ms1000301","","[0,1,2]","","","","","","","","","","",""
"5624","{""Q0"":""18""}","199201","HierDy84t992hm","qfv4m285tj","ms1000301","","","","","","","","","","","","",""
"108397","","307618","HierDy84t992hm","qfv4m285tj","ms1000301","","","","","","","","","","","","",""
"1026","","308653","HierDy84t992hm","qfv4m285tj","ms1000301","motor","","83","img/motor_3.png","68","motor","3","1","0","1","0","",""
"392","","309061","HierDy84t992hm","qfv4m285tj","ms1000301","motorRepeat","","68","img/motor_3.png","68","motor","3","1","1","0","0","",""
"null","","309177","HierDy84t992hm","qfv4m285tj","ms1000301","iti","","null","img/motor_3.png","68","motor","","","","","","",""
"579","","309766","HierDy84t992hm","qfv4m285tj","ms1000301","motor","","70","img/motor_4.png","70","motor","4","2","1","0","0","",""
"null","","309881","HierDy84t992hm","qfv4m285tj","ms1000301","iti","","null","img/motor_4.png","70","motor","","","","","","",""
"669","","310564","HierDy84t992hm","qfv4m285tj","ms1000301","motor","","75","img/motor_7.png","75","motor","7","3","1","0","0","",""
"null","","310673","HierDy84t992hm","qfv4m285tj","ms1000301","iti","","null","img/motor_7.png","75","motor","","","","","","",""
"669","","311350","HierDy84t992hm","qfv4m285tj","ms1000301","motor","","65","img/motor_2.png","83","motor","2","4","0","1","0","",""
"320","","311677","HierDy84t992hm","qfv4m285tj","ms1000301","motorRepeat","","83","img/motor_2.png","83","motor","2","4","1","0","0","",""
"null","","311786","HierDy84t992hm","qfv4m285tj","ms1000301","iti","","null","img/motor_2.png","83","motor","","","","","","",""
"620","","312414","HierDy84t992hm","qfv4m285tj","ms1000301","motor","","76","img/motor_8.png","76","motor","8","5","1","0","0","",""
"null","","312529","HierDy84t992hm","qfv4m285tj","ms1000301","iti","","null","img/motor_8.png","76","motor","","","","","","",""
"533","","313070","HierDy84t992hm","qfv4m285tj","ms1000301","motor","","75","img/motor_7.png","75","motor","7","6","1","0","0","",""
"null","","313184","HierDy84t992hm","qfv4m285tj","ms1000301","iti","","null","img/motor_7.png","75","motor","","","","","","",""
"437","","313630","HierDy84t992hm","qfv4m285tj","ms1000301","motor","","76","img/motor_8.png","76","motor","8","7","1","0","0","",""
"null","","313744","HierDy84t992hm","qfv4m285tj","ms1000301","iti","","null","img/motor_8.png","76","motor","","","","","","",""
"179","","313940","HierDy84t992hm","qfv4m285tj","ms1000301","motor","","76","img/motor_7.png","75","motor","7","8","0","1","0","",""
"225","","314174","HierDy84t992hm","qfv4m285tj","ms1000301","motorRepeat","","75","img/motor_7.png","75","motor","7","8","1","0","0","",""
"null","","314289","HierDy84t992hm","qfv4m285tj","ms1000301","iti","","null","img/motor_7.png","75","motor","","","","","","",""
"492","","314789","HierDy84t992hm","qfv4m285tj","ms1000301","motor","","72","img/motor_5.png","72","motor","5","9","1","0","0","",""
"null","","314904","HierDy84t992hm","qfv4m285tj","ms1000301","iti","","null","img/motor_5.png","72","motor","","","","","","",""
"309","","315222","HierDy84t992hm","qfv4m285tj","ms1000301","motor","","72","img/motor_5.png","72","motor","5","10","1","0","0","",""
"null","","315330","HierDy84t992hm","qfv4m285tj","ms1000301","iti","","null","img/motor_5.png","72","motor","","","","","","",""
"468","","315812","HierDy84t992hm","qfv4m285tj","ms1000301","motor","","70","img/motor_4.png","70","motor","4","11","1","0","0","",""
"null","","315921","HierDy84t992hm","qfv4m285tj","ms1000301","iti","","null","img/motor_4.png","70","motor","","","","","","",""
"421","","316350","HierDy84t992hm","qfv4m285tj","ms1000301","motor","","65","img/motor_1.png","65","motor","1","12","1","0","0","",""
"null","","316458","HierDy84t992hm","qfv4m285tj","ms1000301","iti","","null","img/motor_1.png","65","motor","","","","","","",""
"540","","317006","HierDy84t992hm","qfv4m285tj","ms1000301","motor","","68","img/motor_3.png","68","motor","3","13","1","0","0","",""
"null","","317121","HierDy84t992hm","qfv4m285tj","ms1000301","iti","","null","img/motor_3.png","68","motor","","","","","","",""
"500","","317636","HierDy84t992hm","qfv4m285tj","ms1000301","motor","","76","img/motor_8.png","76","motor","8","14","1","0","0","",""
"null","","317751","HierDy84t992hm","qfv4m285tj","ms1000301","iti","","null","img/motor_8.png","76","motor","","","","","","",""
"453","","318214","HierDy84t992hm","qfv4m285tj","ms1000301","motor","","70","img/motor_4.png","70","motor","4","15","1","0","0","",""
"null","","318322","HierDy84t992hm","qfv4m285tj","ms1000301","iti","","null","img/motor_4.png","70","motor","","","","","","",""
"403","","318733","HierDy84t992hm","qfv4m285tj","ms1000301","motor","","65","img/motor_1.png","65","motor","1","16","1","0","0","",""
"null","","318842","HierDy84t992hm","qfv4m285tj","ms1000301","iti","","null","img/motor_1.png","65","motor","","","","","","",""
"444","","319293","HierDy84t992hm","qfv4m285tj","ms1000301","motor","","68","img/motor_3.png","68","motor","3","17","1","0","0","",""
"null","","319408","HierDy84t992hm","qfv4m285tj","ms1000301","iti","","null","img/motor_3.png","68","motor","","","","","","",""
"519","","319940","HierDy84t992hm","qfv4m285tj","ms1000301","motor","","72","img/motor_5.png","72","motor","5","18","1","0","0","",""
"null","","320049","HierDy84t992hm","qfv4m285tj","ms1000301","iti","","null","img/motor_5.png","72","motor","","","","","","",""
"511","","320566","HierDy84t992hm","qfv4m285tj","ms1000301","motor","","65","img/motor_1.png","65","motor","1","19","1","0","0","",""
"null","","320674","HierDy84t992hm","qfv4m285tj","ms1000301","iti","","null","img/motor_1.png","65","motor","","","","","","",""
"573","","321254","HierDy84t992hm","qfv4m285tj","ms1000301","motor","","74","img/motor_6.png","74","motor","6","20","1","0","0","",""
"null","","321369","HierDy84t992hm","qfv4m285tj","ms1000301","iti","","null","img/motor_6.png","74","motor","","","","","","",""
"333","","321710","HierDy84t992hm","qfv4m285tj","ms1000301","motor","","74","img/motor_6.png","74","motor","6","21","1","0","0","",""
"null","","321818","HierDy84t992hm","qfv4m285tj","ms1000301","iti","","null","img/motor_6.png","74","motor","","","","","","",""
"469","","322293","HierDy84t992hm","qfv4m285tj","ms1000301","motor","","76","img/motor_8.png","76","motor","8","22","1","0","0","",""
"null","","322409","HierDy84t992hm","qfv4m285tj","ms1000301","iti","","null","img/motor_8.png","76","motor","","","","","","",""
"597","","323020","HierDy84t992hm","qfv4m285tj","ms1000301","motor","","68","img/motor_3.png","68","motor","3","23","1","0","0","",""
"null","","323129","HierDy84t992hm","qfv4m285tj","ms1000301","iti","","null","img/motor_3.png","68","motor","","","","","","",""
"397","","323534","HierDy84t992hm","qfv4m285tj","ms1000301","motor","","65","img/motor_1.png","65","motor","1","24","1","0","0","",""
"null","","323643","HierDy84t992hm","qfv4m285tj","ms1000301","iti","","null","img/motor_1.png","65","motor","","","","","","",""
"363","","324021","HierDy84t992hm","qfv4m285tj","ms1000301","motor","","65","img/motor_1.png","65","motor","1","25","1","0","0","",""
"null","","324135","HierDy84t992hm","qfv4m285tj","ms1000301","iti","","null","img/motor_1.png","65","motor","","","","","","",""
"502","","324652","HierDy84t992hm","qfv4m285tj","ms1000301","motor","","70","img/motor_4.png","70","motor","4","26","1","0","0","",""
"null","","324767","HierDy84t992hm","qfv4m285tj","ms1000301","iti","","null","img/motor_4.png","70","motor","","","","","","",""
"430","","325212","HierDy84t992hm","qfv4m285tj","ms1000301","motor","","65","img/motor_1.png","65","motor","1","27","1","0","0","",""
"null","","325328","HierDy84t992hm","qfv4m285tj","ms1000301","iti","","null","img/motor_1.png","65","motor","","","","","","",""
"444","","325794","HierDy84t992hm","qfv4m285tj","ms1000301","motor","","68","img/motor_2.png","83","motor","2","28","0","1","0","",""
"275","","326078","HierDy84t992hm","qfv4m285tj","ms1000301","motorRepeat","","83","img/motor_2.png","83","motor","2","28","1","0","0","",""
"null","","326193","HierDy84t992hm","qfv4m285tj","ms1000301","iti","","null","img/motor_2.png","83","motor","","","","","","",""
"523","","326726","HierDy84t992hm","qfv4m285tj","ms1000301","motor","","76","img/motor_7.png","75","motor","7","29","0","1","0","",""
"95","","326830","HierDy84t992hm","qfv4m285tj","ms1000301","motorRepeat","","75","img/motor_7.png","75","motor","7","29","1","0","0","",""
"null","","326938","HierDy84t992hm","qfv4m285tj","ms1000301","iti","","null","img/motor_7.png","75","motor","","","","","","",""
"692","","327645","HierDy84t992hm","qfv4m285tj","ms1000301","motor","","68","img/motor_3.png","68","motor","3","30","1","0","0","",""
"null","","327760","HierDy84t992hm","qfv4m285tj","ms1000301","iti","","null","img/motor_3.png","68","motor","","","","","","",""
"452","","328222","HierDy84t992hm","qfv4m285tj","ms1000301","motor","","65","img/motor_1.png","65","motor","1","31","1","0","0","",""
"null","","328330","HierDy84t992hm","qfv4m285tj","ms1000301","iti","","null","img/motor_1.png","65","motor","","","","","","",""
"492","","328830","HierDy84t992hm","qfv4m285tj","ms1000301","motor","","76","img/motor_8.png","76","motor","8","32","1","0","0","",""
"null","","328938","HierDy84t992hm","qfv4m285tj","ms1000301","iti","","null","img/motor_8.png","76","motor","","","","","","",""
"411","","329358","HierDy84t992hm","qfv4m285tj","ms1000301","motor","","70","img/motor_4.png","70","motor","4","33","1","0","0","",""
"null","","329473","HierDy84t992hm","qfv4m285tj","ms1000301","iti","","null","img/motor_4.png","70","motor","","","","","","",""
"437","","329925","HierDy84t992hm","qfv4m285tj","ms1000301","motor","","74","img/motor_7.png","75","motor","7","34","0","1","0","",""
"241","","330175","HierDy84t992hm","qfv4m285tj","ms1000301","motorRepeat","","75","img/motor_7.png","75","motor","7","34","1","0","0","",""
"null","","330288","HierDy84t992hm","qfv4m285tj","ms1000301","iti","","null","img/motor_7.png","75","motor","","","","","","",""
"485","","330782","HierDy84t992hm","qfv4m285tj","ms1000301","motor","","65","img/motor_1.png","65","motor","1","35","1","0","0","",""
"null","","330890","HierDy84t992hm","qfv4m285tj","ms1000301","iti","","null","img/motor_1.png","65","motor","","","","","","",""
"572","","331470","HierDy84t992hm","qfv4m285tj","ms1000301","motor","","75","img/motor_7.png","75","motor","7","36","1","0","0","",""
"null","","331578","HierDy84t992hm","qfv4m285tj","ms1000301","iti","","null","img/motor_7.png","75","motor","","","","","","",""
"412","","332004","HierDy84t992hm","qfv4m285tj","ms1000301","motor","","70","img/motor_4.png","70","motor","4","37","1","0","0","",""
"null","","332113","HierDy84t992hm","qfv4m285tj","ms1000301","iti","","null","img/motor_4.png","70","motor","","","","","","",""
"757","","332878","HierDy84t992hm","qfv4m285tj","ms1000301","motor","","83","img/motor_2.png","83","motor","2","38","1","0","0","",""
"null","","332992","HierDy84t992hm","qfv4m285tj","ms1000301","iti","","null","img/motor_2.png","83","motor","","","","","","",""
"564","","333572","HierDy84t992hm","qfv4m285tj","ms1000301","motor","","76","img/motor_8.png","76","motor","8","39","1","0","0","",""
"null","","333680","HierDy84t992hm","qfv4m285tj","ms1000301","iti","","null","img/motor_8.png","76","motor","","","","","","",""
"646","","334334","HierDy84t992hm","qfv4m285tj","ms1000301","motor","","68","img/motor_3.png","68","motor","3","40","1","0","0","",""
"null","","334443","HierDy84t992hm","qfv4m285tj","ms1000301","iti","","null","img/motor_3.png","68","motor","","","","","","",""
"555","","335006","HierDy84t992hm","qfv4m285tj","ms1000301","motor","","74","img/motor_6.png","74","motor","6","41","1","0","0","",""
"null","","335114","HierDy84t992hm","qfv4m285tj","ms1000301","iti","","null","img/motor_6.png","74","motor","","","","","","",""
"644","","335766","HierDy84t992hm","qfv4m285tj","ms1000301","motor","","68","img/motor_3.png","68","motor","3","42","1","0","0","",""
"null","","335880","HierDy84t992hm","qfv4m285tj","ms1000301","iti","","null","img/motor_3.png","68","motor","","","","","","",""
"478","","336365","HierDy84t992hm","qfv4m285tj","ms1000301","motor","","76","img/motor_8.png","76","motor","8","43","1","0","0","",""
"null","","336474","HierDy84t992hm","qfv4m285tj","ms1000301","iti","","null","img/motor_8.png","76","motor","","","","","","",""
"515","","336998","HierDy84t992hm","qfv4m285tj","ms1000301","motor","","75","img/motor_7.png","75","motor","7","44","1","0","0","",""
"null","","337106","HierDy84t992hm","qfv4m285tj","ms1000301","iti","","null","img/motor_7.png","75","motor","","","","","","",""
"724","","337837","HierDy84t992hm","qfv4m285tj","ms1000301","motor","","83","img/motor_2.png","83","motor","2","45","1","0","0","",""
"null","","337952","HierDy84t992hm","qfv4m285tj","ms1000301","iti","","null","img/motor_2.png","83","motor","","","","","","",""
"413","","338372","HierDy84t992hm","qfv4m285tj","ms1000301","motor","","65","img/motor_1.png","65","motor","1","46","1","0","0","",""
"null","","338481","HierDy84t992hm","qfv4m285tj","ms1000301","iti","","null","img/motor_1.png","65","motor","","","","","","",""
"429","","338917","HierDy84t992hm","qfv4m285tj","ms1000301","motor","","83","img/motor_2.png","83","motor","2","47","1","0","0","",""
"null","","339031","HierDy84t992hm","qfv4m285tj","ms1000301","iti","","null","img/motor_2.png","83","motor","","","","","","",""
"541","","339582","HierDy84t992hm","qfv4m285tj","ms1000301","motor","","75","img/motor_7.png","75","motor","7","48","1","0","0","",""
"null","","339689","HierDy84t992hm","qfv4m285tj","ms1000301","iti","","null","img/motor_7.png","75","motor","","","","","","",""
"332","","340030","HierDy84t992hm","qfv4m285tj","ms1000301","motor","","75","img/motor_7.png","75","motor","7","49","1","0","0","",""
"null","","340138","HierDy84t992hm","qfv4m285tj","ms1000301","iti","","null","img/motor_7.png","75","motor","","","","","","",""
"492","","340645","HierDy84t992hm","qfv4m285tj","ms1000301","motor","","70","img/motor_4.png","70","motor","4","50","1","0","0","",""
"null","","340760","HierDy84t992hm","qfv4m285tj","ms1000301","iti","","null","img/motor_4.png","70","motor","","","","","","",""
"406","","341180","HierDy84t992hm","qfv4m285tj","ms1000301","motor","","72","img/motor_5.png","72","motor","5","51","1","0","0","",""
"null","","341289","HierDy84t992hm","qfv4m285tj","ms1000301","iti","","null","img/motor_5.png","72","motor","","","","","","",""
"485","","341781","HierDy84t992hm","qfv4m285tj","ms1000301","motor","","68","img/motor_3.png","68","motor","3","52","1","0","0","",""
"null","","341896","HierDy84t992hm","qfv4m285tj","ms1000301","iti","","null","img/motor_3.png","68","motor","","","","","","",""
"469","","342373","HierDy84t992hm","qfv4m285tj","ms1000301","motor","","70","img/motor_4.png","70","motor","4","53","1","0","0","",""
"null","","342481","HierDy84t992hm","qfv4m285tj","ms1000301","iti","","null","img/motor_4.png","70","motor","","","","","","",""
"324","","342814","HierDy84t992hm","qfv4m285tj","ms1000301","motor","","70","img/motor_4.png","70","motor","4","54","1","0","0","",""
"null","","342922","HierDy84t992hm","qfv4m285tj","ms1000301","iti","","null","img/motor_4.png","70","motor","","","","","","",""
"507","","343437","HierDy84t992hm","qfv4m285tj","ms1000301","motor","","83","img/motor_2.png","83","motor","2","55","1","0","0","",""
"null","","343552","HierDy84t992hm","qfv4m285tj","ms1000301","iti","","null","img/motor_2.png","83","motor","","","","","","",""
"525","","344086","HierDy84t992hm","qfv4m285tj","ms1000301","motor","","76","img/motor_8.png","76","motor","8","56","1","0","0","",""
"null","","344200","HierDy84t992hm","qfv4m285tj","ms1000301","iti","","null","img/motor_8.png","76","motor","","","","","","",""
"373","","344582","HierDy84t992hm","qfv4m285tj","ms1000301","motor","","70","img/motor_3.png","68","motor","3","57","0","1","0","",""
"216","","344812","HierDy84t992hm","qfv4m285tj","ms1000301","motorRepeat","","68","img/motor_3.png","68","motor","3","57","1","0","0","",""
"null","","344921","HierDy84t992hm","qfv4m285tj","ms1000301","iti","","null","img/motor_3.png","68","motor","","","","","","",""
"622","","345556","HierDy84t992hm","qfv4m285tj","ms1000301","motor","","75","img/motor_7.png","75","motor","7","58","1","0","0","",""
"null","","345671","HierDy84t992hm","qfv4m285tj","ms1000301","iti","","null","img/motor_7.png","75","motor","","","","","","",""
"565","","346246","HierDy84t992hm","qfv4m285tj","ms1000301","motor","","74","img/motor_6.png","74","motor","6","59","1","0","0","",""
"null","","346361","HierDy84t992hm","qfv4m285tj","ms1000301","iti","","null","img/motor_6.png","74","motor","","","","","","",""
"453","","346829","HierDy84t992hm","qfv4m285tj","ms1000301","motor","","72","img/motor_5.png","72","motor","5","60","1","0","0","",""
"null","","346937","HierDy84t992hm","qfv4m285tj","ms1000301","iti","","null","img/motor_5.png","72","motor","","","","","","",""
"589","","347534","HierDy84t992hm","qfv4m285tj","ms1000301","motor","","83","img/motor_3.png","68","motor","3","61","0","1","0","",""
"288","","347836","HierDy84t992hm","qfv4m285tj","ms1000301","motorRepeat","","68","img/motor_3.png","68","motor","3","61","1","0","0","",""
"null","","347951","HierDy84t992hm","qfv4m285tj","ms1000301","iti","","null","img/motor_3.png","68","motor","","","","","","",""
"470","","348430","HierDy84t992hm","qfv4m285tj","ms1000301","motor","","70","img/motor_4.png","70","motor","4","62","1","0","0","",""
"null","","348544","HierDy84t992hm","qfv4m285tj","ms1000301","iti","","null","img/motor_4.png","70","motor","","","","","","",""
"429","","348988","HierDy84t992hm","qfv4m285tj","ms1000301","motor","","76","img/motor_8.png","76","motor","8","63","1","0","0","",""
"null","","349097","HierDy84t992hm","qfv4m285tj","ms1000301","iti","","null","img/motor_8.png","76","motor","","","","","","",""
"460","","349572","HierDy84t992hm","qfv4m285tj","ms1000301","motor","","74","img/motor_6.png","74","motor","6","64","1","0","0","",""
"null","","349687","HierDy84t992hm","qfv4m285tj","ms1000301","iti","","null","img/motor_6.png","74","motor","","","","","","",""
"447","","350148","HierDy84t992hm","qfv4m285tj","ms1000301","motor","","76","img/motor_8.png","76","motor","8","65","1","0","0","",""
"null","","350257","HierDy84t992hm","qfv4m285tj","ms1000301","iti","","null","img/motor_8.png","76","motor","","","","","","",""
"374","","350645","HierDy84t992hm","qfv4m285tj","ms1000301","motor","","72","img/motor_5.png","72","motor","5","66","1","0","0","",""
"null","","350759","HierDy84t992hm","qfv4m285tj","ms1000301","iti","","null","img/motor_5.png","72","motor","","","","","","",""
"397","","351171","HierDy84t992hm","qfv4m285tj","ms1000301","motor","","76","img/motor_8.png","76","motor","8","67","1","0","0","",""
"null","","351281","HierDy84t992hm","qfv4m285tj","ms1000301","iti","","null","img/motor_8.png","76","motor","","","","","","",""
"374","","351662","HierDy84t992hm","qfv4m285tj","ms1000301","motor","","76","img/motor_8.png","76","motor","8","68","1","0","0","",""
"null","","351770","HierDy84t992hm","qfv4m285tj","ms1000301","iti","","null","img/motor_8.png","76","motor","","","","","","",""
"397","","352174","HierDy84t992hm","qfv4m285tj","ms1000301","motor","","70","img/motor_2.png","83","motor","2","69","0","1","0","",""
"159","","352348","HierDy84t992hm","qfv4m285tj","ms1000301","motorRepeat","","83","img/motor_2.png","83","motor","2","69","1","0","0","",""
"null","","352463","HierDy84t992hm","qfv4m285tj","ms1000301","iti","","null","img/motor_2.png","83","motor","","","","","","",""
"542","","353020","HierDy84t992hm","qfv4m285tj","ms1000301","motor","","72","img/motor_5.png","72","motor","5","70","1","0","0","",""
"null","","353135","HierDy84t992hm","qfv4m285tj","ms1000301","iti","","null","img/motor_5.png","72","motor","","","","","","",""
"454","","353597","HierDy84t992hm","qfv4m285tj","ms1000301","motor","","74","img/motor_6.png","74","motor","6","71","1","0","0","",""
"null","","353712","HierDy84t992hm","qfv4m285tj","ms1000301","iti","","null","img/motor_6.png","74","motor","","","","","","",""
"470","","354191","HierDy84t992hm","qfv4m285tj","ms1000301","motor","","65","img/motor_1.png","65","motor","1","72","1","0","0","",""
"null","","354298","HierDy84t992hm","qfv4m285tj","ms1000301","iti","","null","img/motor_1.png","65","motor","","","","","","",""
"403","","354710","HierDy84t992hm","qfv4m285tj","ms1000301","motor","","70","img/motor_4.png","70","motor","4","73","1","0","0","",""
"null","","354819","HierDy84t992hm","qfv4m285tj","ms1000301","iti","","null","img/motor_4.png","70","motor","","","","","","",""
"436","","355262","HierDy84t992hm","qfv4m285tj","ms1000301","motor","","83","img/motor_2.png","83","motor","2","74","1","0","0","",""
"null","","355377","HierDy84t992hm","qfv4m285tj","ms1000301","iti","","null","img/motor_2.png","83","motor","","","","","","",""
"373","","355758","HierDy84t992hm","qfv4m285tj","ms1000301","motor","","83","img/motor_2.png","83","motor","2","75","1","0","0","",""
"null","","355873","HierDy84t992hm","qfv4m285tj","ms1000301","iti","","null","img/motor_2.png","83","motor","","","","","","",""
"437","","356325","HierDy84t992hm","qfv4m285tj","ms1000301","motor","","76","img/motor_8.png","76","motor","8","76","1","0","0","",""
"null","","356440","HierDy84t992hm","qfv4m285tj","ms1000301","iti","","null","img/motor_8.png","76","motor","","","","","","",""
"399","","356853","HierDy84t992hm","qfv4m285tj","ms1000301","motor","","83","img/motor_3.png","68","motor","3","77","0","1","0","",""
"168","","357030","HierDy84t992hm","qfv4m285tj","ms1000301","motorRepeat","","68","img/motor_3.png","68","motor","3","77","1","0","0","",""
"null","","357138","HierDy84t992hm","qfv4m285tj","ms1000301","iti","","null","img/motor_3.png","68","motor","","","","","","",""
"365","","357510","HierDy84t992hm","qfv4m285tj","ms1000301","motor","","68","img/motor_3.png","68","motor","3","78","1","0","0","",""
"null","","357625","HierDy84t992hm","qfv4m285tj","ms1000301","iti","","null","img/motor_3.png","68","motor","","","","","","",""
"557","","358191","HierDy84t992hm","qfv4m285tj","ms1000301","motor","","72","img/motor_5.png","72","motor","5","79","1","0","0","",""
"null","","358305","HierDy84t992hm","qfv4m285tj","ms1000301","iti","","null","img/motor_5.png","72","motor","","","","","","",""
"581","","358894","HierDy84t992hm","qfv4m285tj","ms1000301","motor","","75","img/motor_7.png","75","motor","7","80","1","0","0","",""
"null","","359009","HierDy84t992hm","qfv4m285tj","ms1000301","iti","","null","img/motor_7.png","75","motor","","","","","","",""
"365","","359383","HierDy84t992hm","qfv4m285tj","ms1000301","motor","","75","img/motor_7.png","75","motor","7","81","1","0","0","",""
"null","","359497","HierDy84t992hm","qfv4m285tj","ms1000301","iti","","null","img/motor_7.png","75","motor","","","","","","",""
"397","","359909","HierDy84t992hm","qfv4m285tj","ms1000301","motor","","76","img/motor_8.png","76","motor","8","82","1","0","0","",""
"null","","360018","HierDy84t992hm","qfv4m285tj","ms1000301","iti","","null","img/motor_8.png","76","motor","","","","","","",""
"709","","360735","HierDy84t992hm","qfv4m285tj","ms1000301","motor","","65","img/motor_1.png","65","motor","1","83","1","0","0","",""
"null","","360843","HierDy84t992hm","qfv4m285tj","ms1000301","iti","","null","img/motor_1.png","65","motor","","","","","","",""
"483","","361334","HierDy84t992hm","qfv4m285tj","ms1000301","motor","","72","img/motor_5.png","72","motor","5","84","1","0","0","",""
"null","","361443","HierDy84t992hm","qfv4m285tj","ms1000301","iti","","null","img/motor_5.png","72","motor","","","","","","",""
"395","","361846","HierDy84t992hm","qfv4m285tj","ms1000301","motor","","74","img/motor_6.png","74","motor","6","85","1","0","0","",""
"null","","361954","HierDy84t992hm","qfv4m285tj","ms1000301","iti","","null","img/motor_6.png","74","motor","","","","","","",""
"422","","362389","HierDy84t992hm","qfv4m285tj","ms1000301","motor","","70","img/motor_4.png","70","motor","4","86","1","0","0","",""
"null","","362504","HierDy84t992hm","qfv4m285tj","ms1000301","iti","","null","img/motor_4.png","70","motor","","","","","","",""
"461","","362981","HierDy84t992hm","qfv4m285tj","ms1000301","motor","","75","img/motor_6.png","74","motor","6","87","0","1","0","",""
"73","","363068","HierDy84t992hm","qfv4m285tj","ms1000301","motorRepeat","","74","img/motor_6.png","74","motor","6","87","1","0","0","",""
"null","","363183","HierDy84t992hm","qfv4m285tj","ms1000301","iti","","null","img/motor_6.png","74","motor","","","","","","",""
"374","","363566","HierDy84t992hm","qfv4m285tj","ms1000301","motor","","75","img/motor_7.png","75","motor","7","88","1","0","0","",""
"null","","363674","HierDy84t992hm","qfv4m285tj","ms1000301","iti","","null","img/motor_7.png","75","motor","","","","","","",""
"476","","364158","HierDy84t992hm","qfv4m285tj","ms1000301","motor","","65","img/motor_1.png","65","motor","1","89","1","0","0","",""
"null","","364272","HierDy84t992hm","qfv4m285tj","ms1000301","iti","","null","img/motor_1.png","65","motor","","","","","","",""
"414","","364695","HierDy84t992hm","qfv4m285tj","ms1000301","motor","","70","img/motor_4.png","70","motor","4","90","1","0","0","",""
"null","","364803","HierDy84t992hm","qfv4m285tj","ms1000301","iti","","null","img/motor_4.png","70","motor","","","","","","",""
"539","","365351","HierDy84t992hm","qfv4m285tj","ms1000301","motor","","72","img/motor_5.png","72","motor","5","91","1","0","0","",""
"null","","365465","HierDy84t992hm","qfv4m285tj","ms1000301","iti","","null","img/motor_5.png","72","motor","","","","","","",""
"388","","365862","HierDy84t992hm","qfv4m285tj","ms1000301","motor","","76","img/motor_8.png","76","motor","8","92","1","0","0","",""
"null","","365977","HierDy84t992hm","qfv4m285tj","ms1000301","iti","","null","img/motor_8.png","76","motor","","","","","","",""
"374","","366365","HierDy84t992hm","qfv4m285tj","ms1000301","motor","","74","img/motor_6.png","74","motor","6","93","1","0","0","",""
"null","","366481","HierDy84t992hm","qfv4m285tj","ms1000301","iti","","null","img/motor_6.png","74","motor","","","","","","",""
"563","","367061","HierDy84t992hm","qfv4m285tj","ms1000301","motor","","83","img/motor_2.png","83","motor","2","94","1","0","0","",""
"null","","367177","HierDy84t992hm","qfv4m285tj","ms1000301","iti","","null","img/motor_2.png","83","motor","","","","","","",""
"445","","367637","HierDy84t992hm","qfv4m285tj","ms1000301","motor","","74","img/motor_6.png","74","motor","6","95","1","0","0","",""
"null","","367745","HierDy84t992hm","qfv4m285tj","ms1000301","iti","","null","img/motor_6.png","74","motor","","","","","","",""
"493","","368252","HierDy84t992hm","qfv4m285tj","ms1000301","motor","","70","img/motor_4.png","70","motor","4","96","1","0","0","",""
"null","","368362","HierDy84t992hm","qfv4m285tj","ms1000301","iti","","null","img/motor_4.png","70","motor","","","","","","",""
"516","","368886","HierDy84t992hm","qfv4m285tj","ms1000301","motor","","74","img/motor_6.png","74","motor","6","97","1","0","0","",""
"null","","369001","HierDy84t992hm","qfv4m285tj","ms1000301","iti","","null","img/motor_6.png","74","motor","","","","","","",""
"461","","369469","HierDy84t992hm","qfv4m285tj","ms1000301","motor","","83","img/motor_3.png","68","motor","3","98","0","1","0","",""
"202","","369678","HierDy84t992hm","qfv4m285tj","ms1000301","motorRepeat","","68","img/motor_3.png","68","motor","3","98","1","0","0","",""
"null","","369786","HierDy84t992hm","qfv4m285tj","ms1000301","iti","","null","img/motor_3.png","68","motor","","","","","","",""
"380","","370174","HierDy84t992hm","qfv4m285tj","ms1000301","motor","","68","img/motor_3.png","68","motor","3","99","1","0","0","",""
"null","","370289","HierDy84t992hm","qfv4m285tj","ms1000301","iti","","null","img/motor_3.png","68","motor","","","","","","",""
"388","","370687","HierDy84t992hm","qfv4m285tj","ms1000301","motor","","74","img/motor_5.png","72","motor","5","100","0","1","0","",""
"192","","370886","HierDy84t992hm","qfv4m285tj","ms1000301","motorRepeat","","72","img/motor_5.png","72","motor","5","100","1","0","0","",""
"null","","371001","HierDy84t992hm","qfv4m285tj","ms1000301","iti","","null","img/motor_5.png","72","motor","","","","","","",""
"605","","371614","HierDy84t992hm","qfv4m285tj","ms1000301","motor","","65","img/motor_1.png","65","motor","1","101","1","0","0","",""
"null","","371722","HierDy84t992hm","qfv4m285tj","ms1000301","iti","","null","img/motor_1.png","65","motor","","","","","","",""
"573","","372309","HierDy84t992hm","qfv4m285tj","ms1000301","motor","","74","img/motor_6.png","74","motor","6","102","1","0","0","",""
"null","","372424","HierDy84t992hm","qfv4m285tj","ms1000301","iti","","null","img/motor_6.png","74","motor","","","","","","",""
"470","","372901","HierDy84t992hm","qfv4m285tj","ms1000301","motor","","70","img/motor_4.png","70","motor","4","103","1","0","0","",""
"null","","373010","HierDy84t992hm","qfv4m285tj","ms1000301","iti","","null","img/motor_4.png","70","motor","","","","","","",""
"436","","373460","HierDy84t992hm","qfv4m285tj","ms1000301","motor","","68","img/motor_3.png","68","motor","3","104","1","0","0","",""
"null","","373576","HierDy84t992hm","qfv4m285tj","ms1000301","iti","","null","img/motor_3.png","68","motor","","","","","","",""
"511","","374094","HierDy84t992hm","qfv4m285tj","ms1000301","motor","","76","img/motor_8.png","76","motor","8","105","1","0","0","",""
"null","","374210","HierDy84t992hm","qfv4m285tj","ms1000301","iti","","null","img/motor_8.png","76","motor","","","","","","",""
"789","","375007","HierDy84t992hm","qfv4m285tj","ms1000301","motor","","74","img/motor_6.png","74","motor","6","106","1","0","0","",""
"null","","375121","HierDy84t992hm","qfv4m285tj","ms1000301","iti","","null","img/motor_6.png","74","motor","","","","","","",""
"476","","375607","HierDy84t992hm","qfv4m285tj","ms1000301","motor","","70","img/motor_4.png","70","motor","4","107","1","0","0","",""
"null","","375721","HierDy84t992hm","qfv4m285tj","ms1000301","iti","","null","img/motor_4.png","70","motor","","","","","","",""
"445","","376180","HierDy84t992hm","qfv4m285tj","ms1000301","motor","","72","img/motor_5.png","72","motor","5","108","1","0","0","",""
"null","","376295","HierDy84t992hm","qfv4m285tj","ms1000301","iti","","null","img/motor_5.png","72","motor","","","","","","",""
"422","","376725","HierDy84t992hm","qfv4m285tj","ms1000301","motor","","74","img/motor_6.png","74","motor","6","109","1","0","0","",""
"null","","376840","HierDy84t992hm","qfv4m285tj","ms1000301","iti","","null","img/motor_6.png","74","motor","","","","","","",""
"397","","377247","HierDy84t992hm","qfv4m285tj","ms1000301","motor","","70","img/motor_4.png","70","motor","4","110","1","0","0","",""
"null","","377361","HierDy84t992hm","qfv4m285tj","ms1000301","iti","","null","img/motor_4.png","70","motor","","","","","","",""
"550","","377919","HierDy84t992hm","qfv4m285tj","ms1000301","motor","","74","img/motor_6.png","74","motor","6","111","1","0","0","",""
"null","","378033","HierDy84t992hm","qfv4m285tj","ms1000301","iti","","null","img/motor_6.png","74","motor","","","","","","",""
"757","","378798","HierDy84t992hm","qfv4m285tj","ms1000301","motor","","75","img/motor_7.png","75","motor","7","112","1","0","0","",""
"null","","378913","HierDy84t992hm","qfv4m285tj","ms1000301","iti","","null","img/motor_7.png","75","motor","","","","","","",""
"358","","379278","HierDy84t992hm","qfv4m285tj","ms1000301","motor","","70","img/motor_4.png","70","motor","4","113","1","0","0","",""
"null","","379386","HierDy84t992hm","qfv4m285tj","ms1000301","iti","","null","img/motor_4.png","70","motor","","","","","","",""
"445","","379845","HierDy84t992hm","qfv4m285tj","ms1000301","motor","","72","img/motor_5.png","72","motor","5","114","1","0","0","",""
"null","","379960","HierDy84t992hm","qfv4m285tj","ms1000301","iti","","null","img/motor_5.png","72","motor","","","","","","",""
"445","","380414","HierDy84t992hm","qfv4m285tj","ms1000301","motor","","76","img/motor_8.png","76","motor","8","115","1","0","0","",""
"null","","380529","HierDy84t992hm","qfv4m285tj","ms1000301","iti","","null","img/motor_8.png","76","motor","","","","","","",""
"485","","381029","HierDy84t992hm","qfv4m285tj","ms1000301","motor","","83","img/motor_2.png","83","motor","2","116","1","0","0","",""
"null","","381144","HierDy84t992hm","qfv4m285tj","ms1000301","iti","","null","img/motor_2.png","83","motor","","","","","","",""
"390","","381549","HierDy84t992hm","qfv4m285tj","ms1000301","motor","","72","img/motor_5.png","72","motor","5","117","1","0","0","",""
"null","","381658","HierDy84t992hm","qfv4m285tj","ms1000301","iti","","null","img/motor_5.png","72","motor","","","","","","",""
"445","","382110","HierDy84t992hm","qfv4m285tj","ms1000301","motor","","83","img/motor_2.png","83","motor","2","118","1","0","0","",""
"null","","382219","HierDy84t992hm","qfv4m285tj","ms1000301","iti","","null","img/motor_2.png","83","motor","","","","","","",""
"420","","382653","HierDy84t992hm","qfv4m285tj","ms1000301","motor","","72","img/motor_5.png","72","motor","5","119","1","0","0","",""
"null","","382762","HierDy84t992hm","qfv4m285tj","ms1000301","iti","","null","img/motor_5.png","72","motor","","","","","","",""
"452","","383223","HierDy84t992hm","qfv4m285tj","ms1000301","motor","","65","img/motor_1.png","65","motor","1","120","1","0","0","",""
"null","","383331","HierDy84t992hm","qfv4m285tj","ms1000301","iti","","null","img/motor_1.png","65","motor","","","","","","",""
"459","","383798","HierDy84t992hm","qfv4m285tj","ms1000301","motor","","75","img/motor_7.png","75","motor","7","121","1","0","0","",""
"null","","383907","HierDy84t992hm","qfv4m285tj","ms1000301","iti","","null","img/motor_7.png","75","motor","","","","","","",""
"436","","384350","HierDy84t992hm","qfv4m285tj","ms1000301","motor","","74","img/motor_6.png","74","motor","6","122","1","0","0","",""
"null","","384465","HierDy84t992hm","qfv4m285tj","ms1000301","iti","","null","img/motor_6.png","74","motor","","","","","","",""
"373","","384846","HierDy84t992hm","qfv4m285tj","ms1000301","motor","","70","img/motor_4.png","70","motor","4","123","1","0","0","",""
"null","","384961","HierDy84t992hm","qfv4m285tj","ms1000301","iti","","null","img/motor_4.png","70","motor","","","","","","",""
"421","","385389","HierDy84t992hm","qfv4m285tj","ms1000301","motor","","68","img/motor_3.png","68","motor","3","124","1","0","0","",""
"null","","385499","HierDy84t992hm","qfv4m285tj","ms1000301","iti","","null","img/motor_3.png","68","motor","","","","","","",""
"508","","386021","HierDy84t992hm","qfv4m285tj","ms1000301","motor","","65","img/motor_1.png","65","motor","1","125","1","0","0","",""
"null","","386129","HierDy84t992hm","qfv4m285tj","ms1000301","iti","","null","img/motor_1.png","65","motor","","","","","","",""
"669","","386806","HierDy84t992hm","qfv4m285tj","ms1000301","motor","","83","img/motor_2.png","83","motor","2","126","1","0","0","",""
"null","","386914","HierDy84t992hm","qfv4m285tj","ms1000301","iti","","null","img/motor_2.png","83","motor","","","","","","",""
"508","","387430","HierDy84t992hm","qfv4m285tj","ms1000301","motor","","65","img/motor_1.png","65","motor","1","127","1","0","0","",""
"null","","387538","HierDy84t992hm","qfv4m285tj","ms1000301","iti","","null","img/motor_1.png","65","motor","","","","","","",""
"396","","387949","HierDy84t992hm","qfv4m285tj","ms1000301","motor","","70","img/motor_4.png","70","motor","4","128","1","0","0","",""
"null","","388058","HierDy84t992hm","qfv4m285tj","ms1000301","iti","","null","img/motor_4.png","70","motor","","","","","","",""
"388","","388455","HierDy84t992hm","qfv4m285tj","ms1000301","motor","","68","img/motor_3.png","68","motor","3","129","1","0","0","",""
"null","","388569","HierDy84t992hm","qfv4m285tj","ms1000301","iti","","null","img/motor_3.png","68","motor","","","","","","",""
"621","","389199","HierDy84t992hm","qfv4m285tj","ms1000301","motor","","74","img/motor_7.png","75","motor","7","130","0","1","0","",""
"328","","389535","HierDy84t992hm","qfv4m285tj","ms1000301","motorRepeat","","75","img/motor_7.png","75","motor","7","130","1","0","0","",""
"null","","389649","HierDy84t992hm","qfv4m285tj","ms1000301","iti","","null","img/motor_7.png","75","motor","","","","","","",""
"541","","390211","HierDy84t992hm","qfv4m285tj","ms1000301","motor","","65","img/motor_1.png","65","motor","1","131","1","0","0","",""
"null","","390319","HierDy84t992hm","qfv4m285tj","ms1000301","iti","","null","img/motor_1.png","65","motor","","","","","","",""
"455","","390782","HierDy84t992hm","qfv4m285tj","ms1000301","motor","","65","img/motor_1.png","65","motor","1","132","1","0","0","",""
"null","","390897","HierDy84t992hm","qfv4m285tj","ms1000301","iti","","null","img/motor_1.png","65","motor","","","","","","",""
"461","","391366","HierDy84t992hm","qfv4m285tj","ms1000301","motor","","70","img/motor_4.png","70","motor","4","133","1","0","0","",""
"null","","391483","HierDy84t992hm","qfv4m285tj","ms1000301","iti","","null","img/motor_4.png","70","motor","","","","","","",""
"395","","391886","HierDy84t992hm","qfv4m285tj","ms1000301","motor","","70","img/motor_4.png","70","motor","4","134","1","0","0","",""
"null","","392001","HierDy84t992hm","qfv4m285tj","ms1000301","iti","","null","img/motor_4.png","70","motor","","","","","","",""
"532","","392549","HierDy84t992hm","qfv4m285tj","ms1000301","motor","","75","img/motor_7.png","75","motor","7","135","1","0","0","",""
"null","","392658","HierDy84t992hm","qfv4m285tj","ms1000301","iti","","null","img/motor_7.png","75","motor","","","","","","",""
"380","","393046","HierDy84t992hm","qfv4m285tj","ms1000301","motor","","74","img/motor_5.png","72","motor","5","136","0","1","0","",""
"215","","393271","HierDy84t992hm","qfv4m285tj","ms1000301","motorRepeat","","72","img/motor_5.png","72","motor","5","136","1","0","0","",""
"null","","393385","HierDy84t992hm","qfv4m285tj","ms1000301","iti","","null","img/motor_5.png","72","motor","","","","","","",""
"404","","393798","HierDy84t992hm","qfv4m285tj","ms1000301","motor","","70","img/motor_4.png","70","motor","4","137","1","0","0","",""
"null","","393906","HierDy84t992hm","qfv4m285tj","ms1000301","iti","","null","img/motor_4.png","70","motor","","","","","","",""
"453","","394367","HierDy84t992hm","qfv4m285tj","ms1000301","motor","","76","img/motor_8.png","76","motor","8","138","1","0","0","",""
"null","","394482","HierDy84t992hm","qfv4m285tj","ms1000301","iti","","null","img/motor_8.png","76","motor","","","","","","",""
"596","","395087","HierDy84t992hm","qfv4m285tj","ms1000301","motor","","70","img/motor_3.png","68","motor","3","139","0","1","0","",""
"288","","395382","HierDy84t992hm","qfv4m285tj","ms1000301","motorRepeat","","68","img/motor_3.png","68","motor","3","139","1","0","0","",""
"null","","395497","HierDy84t992hm","qfv4m285tj","ms1000301","iti","","null","img/motor_3.png","68","motor","","","","","","",""
"523","","396030","HierDy84t992hm","qfv4m285tj","ms1000301","motor","","70","img/motor_4.png","70","motor","4","140","1","0","0","",""
"null","","396139","HierDy84t992hm","qfv4m285tj","ms1000301","iti","","null","img/motor_4.png","70","motor","","","","","","",""
"444","","396591","HierDy84t992hm","qfv4m285tj","ms1000301","motor","","74","img/motor_6.png","74","motor","6","141","1","0","0","",""
"null","","396699","HierDy84t992hm","qfv4m285tj","ms1000301","iti","","null","img/motor_6.png","74","motor","","","","","","",""
"556","","397263","HierDy84t992hm","qfv4m285tj","ms1000301","motor","","75","img/motor_7.png","75","motor","7","142","1","0","0","",""
"null","","397378","HierDy84t992hm","qfv4m285tj","ms1000301","iti","","null","img/motor_7.png","75","motor","","","","","","",""
"429","","397814","HierDy84t992hm","qfv4m285tj","ms1000301","motor","","65","img/motor_1.png","65","motor","1","143","1","0","0","",""
"null","","397929","HierDy84t992hm","qfv4m285tj","ms1000301","iti","","null","img/motor_1.png","65","motor","","","","","","",""
"581","","398525","HierDy84t992hm","qfv4m285tj","ms1000301","motor","","72","img/motor_5.png","72","motor","5","144","1","0","0","",""
"null","","398634","HierDy84t992hm","qfv4m285tj","ms1000301","iti","","null","img/motor_5.png","72","motor","","","","","","",""
"597","","399238","HierDy84t992hm","qfv4m285tj","ms1000301","motor","","83","img/motor_2.png","83","motor","2","145","1","0","0","",""
"null","","399347","HierDy84t992hm","qfv4m285tj","ms1000301","iti","","null","img/motor_2.png","83","motor","","","","","","",""
"82","","399438","HierDy84t992hm","qfv4m285tj","ms1000301","motor","","68","img/motor_4.png","70","motor","4","146","0","1","0","",""
"392","","399838","HierDy84t992hm","qfv4m285tj","ms1000301","motorRepeat","","70","img/motor_4.png","70","motor","4","146","1","0","0","",""
"null","","399947","HierDy84t992hm","qfv4m285tj","ms1000301","iti","","null","img/motor_4.png","70","motor","","","","","","",""
"541","","400495","HierDy84t992hm","qfv4m285tj","ms1000301","motor","","68","img/motor_3.png","68","motor","3","147","1","0","0","",""
"null","","400603","HierDy84t992hm","qfv4m285tj","ms1000301","iti","","null","img/motor_3.png","68","motor","","","","","","",""
"524","","401133","HierDy84t992hm","qfv4m285tj","ms1000301","motor","","72","img/motor_6.png","74","motor","6","148","0","1","0","",""
"745","","401894","HierDy84t992hm","qfv4m285tj","ms1000301","motorRepeat","","74","img/motor_6.png","74","motor","6","148","1","0","0","",""
"null","","402009","HierDy84t992hm","qfv4m285tj","ms1000301","iti","","null","img/motor_6.png","74","motor","","","","","","",""
"381","","402397","HierDy84t992hm","qfv4m285tj","ms1000301","motor","","74","img/motor_6.png","74","motor","6","149","1","0","0","",""
"null","","402511","HierDy84t992hm","qfv4m285tj","ms1000301","iti","","null","img/motor_6.png","74","motor","","","","","","",""
"607","","403126","HierDy84t992hm","qfv4m285tj","ms1000301","motor","","83","img/motor_2.png","83","motor","2","150","1","0","0","",""
"null","","403241","HierDy84t992hm","qfv4m285tj","ms1000301","iti","","null","img/motor_2.png","83","motor","","","","","","",""
"629","","403878","HierDy84t992hm","qfv4m285tj","ms1000301","motor","","74","img/motor_6.png","74","motor","6","151","1","0","0","",""
"null","","403986","HierDy84t992hm","qfv4m285tj","ms1000301","iti","","null","img/motor_6.png","74","motor","","","","","","",""
"469","","404462","HierDy84t992hm","qfv4m285tj","ms1000301","motor","","65","img/motor_1.png","65","motor","1","152","1","0","0","",""
"null","","404571","HierDy84t992hm","qfv4m285tj","ms1000301","iti","","null","img/motor_1.png","65","motor","","","","","","",""
"500","","405079","HierDy84t992hm","qfv4m285tj","ms1000301","motor","","75","img/motor_7.png","75","motor","7","153","1","0","0","",""
"null","","405192","HierDy84t992hm","qfv4m285tj","ms1000301","iti","","null","img/motor_7.png","75","motor","","","","","","",""
"350","","405551","HierDy84t992hm","qfv4m285tj","ms1000301","motor","","74","img/motor_6.png","74","motor","6","154","1","0","0","",""
"null","","405659","HierDy84t992hm","qfv4m285tj","ms1000301","iti","","null","img/motor_6.png","74","motor","","","","","","",""
"491","","406165","HierDy84t992hm","qfv4m285tj","ms1000301","motor","","83","img/motor_3.png","68","motor","3","155","0","1","0","",""
"176","","406350","HierDy84t992hm","qfv4m285tj","ms1000301","motorRepeat","","68","img/motor_3.png","68","motor","3","155","1","0","0","",""
"null","","406459","HierDy84t992hm","qfv4m285tj","ms1000301","iti","","null","img/motor_3.png","68","motor","","","","","","",""
"444","","406909","HierDy84t992hm","qfv4m285tj","ms1000301","motor","","68","img/motor_3.png","68","motor","3","156","1","0","0","",""
"null","","407018","HierDy84t992hm","qfv4m285tj","ms1000301","iti","","null","img/motor_3.png","68","motor","","","","","","",""
"476","","407502","HierDy84t992hm","qfv4m285tj","ms1000301","motor","","83","img/motor_2.png","83","motor","2","157","1","0","0","",""
"null","","407618","HierDy84t992hm","qfv4m285tj","ms1000301","iti","","null","img/motor_2.png","83","motor","","","","","","",""
"460","","408086","HierDy84t992hm","qfv4m285tj","ms1000301","motor","","75","img/motor_8.png","76","motor","8","158","0","1","0","",""
"352","","408454","HierDy84t992hm","qfv4m285tj","ms1000301","motorRepeat","","76","img/motor_8.png","76","motor","8","158","1","0","0","",""
"null","","408563","HierDy84t992hm","qfv4m285tj","ms1000301","iti","","null","img/motor_8.png","76","motor","","","","","","",""
"684","","409261","HierDy84t992hm","qfv4m285tj","ms1000301","motor","","75","img/motor_7.png","75","motor","7","159","1","0","0","",""
"null","","409377","HierDy84t992hm","qfv4m285tj","ms1000301","iti","","null","img/motor_7.png","75","motor","","","","","","",""
"357","","409742","HierDy84t992hm","qfv4m285tj","ms1000301","motor","","72","img/motor_5.png","72","motor","5","160","1","0","0","",""
"null","","409856","HierDy84t992hm","qfv4m285tj","ms1000301","iti","","null","img/motor_5.png","72","motor","","","","","","",""
"382","","410246","HierDy84t992hm","qfv4m285tj","ms1000301","motor","","65","img/motor_1.png","65","motor","1","161","1","0","0","",""
"null","","410361","HierDy84t992hm","qfv4m285tj","ms1000301","iti","","null","img/motor_1.png","65","motor","","","","","","",""
"477","","410853","HierDy84t992hm","qfv4m285tj","ms1000301","motor","","74","img/motor_7.png","75","motor","7","162","0","1","0","",""
"129","","410990","HierDy84t992hm","qfv4m285tj","ms1000301","motorRepeat","","75","img/motor_7.png","75","motor","7","162","1","0","0","",""
"null","","411099","HierDy84t992hm","qfv4m285tj","ms1000301","iti","","null","img/motor_7.png","75","motor","","","","","","",""
"324","","411431","HierDy84t992hm","qfv4m285tj","ms1000301","motor","","74","img/motor_6.png","74","motor","6","163","1","0","0","",""
"null","","411545","HierDy84t992hm","qfv4m285tj","ms1000301","iti","","null","img/motor_6.png","74","motor","","","","","","",""
"317","","411877","HierDy84t992hm","qfv4m285tj","ms1000301","motor","","72","img/motor_5.png","72","motor","5","164","1","0","0","",""
"null","","411993","HierDy84t992hm","qfv4m285tj","ms1000301","iti","","null","img/motor_5.png","72","motor","","","","","","",""
"357","","412366","HierDy84t992hm","qfv4m285tj","ms1000301","motor","","70","img/motor_3.png","68","motor","3","165","0","1","0","",""
"96","","412470","HierDy84t992hm","qfv4m285tj","ms1000301","motorRepeat","","68","img/motor_3.png","68","motor","3","165","1","0","0","",""
"null","","412579","HierDy84t992hm","qfv4m285tj","ms1000301","iti","","null","img/motor_3.png","68","motor","","","","","","",""
"444","","413037","HierDy84t992hm","qfv4m285tj","ms1000301","motor","","74","img/motor_6.png","74","motor","6","166","1","0","0","",""
"null","","413152","HierDy84t992hm","qfv4m285tj","ms1000301","iti","","null","img/motor_6.png","74","motor","","","","","","",""
"383","","413550","HierDy84t992hm","qfv4m285tj","ms1000301","motor","","72","img/motor_5.png","72","motor","5","167","1","0","0","",""
"null","","413658","HierDy84t992hm","qfv4m285tj","ms1000301","iti","","null","img/motor_5.png","72","motor","","","","","","",""
"429","","414101","HierDy84t992hm","qfv4m285tj","ms1000301","motor","","75","img/motor_7.png","75","motor","7","168","1","0","0","",""
"null","","414210","HierDy84t992hm","qfv4m285tj","ms1000301","iti","","null","img/motor_7.png","75","motor","","","","","","",""
"461","","414679","HierDy84t992hm","qfv4m285tj","ms1000301","motor","","83","img/motor_3.png","68","motor","3","169","0","1","0","",""
"176","","414863","HierDy84t992hm","qfv4m285tj","ms1000301","motorRepeat","","68","img/motor_3.png","68","motor","3","169","1","0","0","",""
"null","","414977","HierDy84t992hm","qfv4m285tj","ms1000301","iti","","null","img/motor_3.png","68","motor","","","","","","",""
"493","","415479","HierDy84t992hm","qfv4m285tj","ms1000301","motor","","76","img/motor_8.png","76","motor","8","170","1","0","0","",""
"null","","415593","HierDy84t992hm","qfv4m285tj","ms1000301","iti","","null","img/motor_8.png","76","motor","","","","","","",""
"365","","415967","HierDy84t992hm","qfv4m285tj","ms1000301","motor","","74","img/motor_6.png","74","motor","6","171","1","0","0","",""
"null","","416075","HierDy84t992hm","qfv4m285tj","ms1000301","iti","","null","img/motor_6.png","74","motor","","","","","","",""
"412","","416495","HierDy84t992hm","qfv4m285tj","ms1000301","motor","","76","img/motor_8.png","76","motor","8","172","1","0","0","",""
"null","","416603","HierDy84t992hm","qfv4m285tj","ms1000301","iti","","null","img/motor_8.png","76","motor","","","","","","",""
"403","","417015","HierDy84t992hm","qfv4m285tj","ms1000301","motor","","72","img/motor_5.png","72","motor","5","173","1","0","0","",""
"null","","417129","HierDy84t992hm","qfv4m285tj","ms1000301","iti","","null","img/motor_5.png","72","motor","","","","","","",""
"404","","417543","HierDy84t992hm","qfv4m285tj","ms1000301","motor","","75","img/motor_7.png","75","motor","7","174","1","0","0","",""
"null","","417658","HierDy84t992hm","qfv4m285tj","ms1000301","iti","","null","img/motor_7.png","75","motor","","","","","","",""
"444","","418110","HierDy84t992hm","qfv4m285tj","ms1000301","motor","","70","img/motor_4.png","70","motor","4","175","1","0","0","",""
"null","","418225","HierDy84t992hm","qfv4m285tj","ms1000301","iti","","null","img/motor_4.png","70","motor","","","","","","",""
"366","","418599","HierDy84t992hm","qfv4m285tj","ms1000301","motor","","65","img/motor_1.png","65","motor","1","176","1","0","0","",""
"null","","418707","HierDy84t992hm","qfv4m285tj","ms1000301","iti","","null","img/motor_1.png","65","motor","","","","","","",""
"419","","419134","HierDy84t992hm","qfv4m285tj","ms1000301","motor","","76","img/motor_8.png","76","motor","8","177","1","0","0","",""
"null","","419249","HierDy84t992hm","qfv4m285tj","ms1000301","iti","","null","img/motor_8.png","76","motor","","","","","","",""
"445","","419709","HierDy84t992hm","qfv4m285tj","ms1000301","motor","","75","img/motor_7.png","75","motor","7","178","1","0","0","",""
"null","","419825","HierDy84t992hm","qfv4m285tj","ms1000301","iti","","null","img/motor_7.png","75","motor","","","","","","",""
"541","","420374","HierDy84t992hm","qfv4m285tj","ms1000301","motor","","68","img/motor_3.png","68","motor","3","179","1","0","0","",""
"null","","420490","HierDy84t992hm","qfv4m285tj","ms1000301","iti","","null","img/motor_3.png","68","motor","","","","","","",""
"445","","420949","HierDy84t992hm","qfv4m285tj","ms1000301","motor","","76","img/motor_8.png","76","motor","8","180","1","0","0","",""
"null","","421065","HierDy84t992hm","qfv4m285tj","ms1000301","iti","","null","img/motor_8.png","76","motor","","","","","","",""
"445","","421526","HierDy84t992hm","qfv4m285tj","ms1000301","motor","","65","img/motor_1.png","65","motor","1","181","1","0","0","",""
"null","","421634","HierDy84t992hm","qfv4m285tj","ms1000301","iti","","null","img/motor_1.png","65","motor","","","","","","",""
"525","","422167","HierDy84t992hm","qfv4m285tj","ms1000301","motor","","68","img/motor_3.png","68","motor","3","182","1","0","0","",""
"null","","422275","HierDy84t992hm","qfv4m285tj","ms1000301","iti","","null","img/motor_3.png","68","motor","","","","","","",""
"363","","422646","HierDy84t992hm","qfv4m285tj","ms1000301","motor","","65","img/motor_2.png","83","motor","2","183","0","1","0","",""
"241","","422895","HierDy84t992hm","qfv4m285tj","ms1000301","motorRepeat","","83","img/motor_2.png","83","motor","2","183","1","0","0","",""
"null","","423010","HierDy84t992hm","qfv4m285tj","ms1000301","iti","","null","img/motor_2.png","83","motor","","","","","","",""
"508","","423527","HierDy84t992hm","qfv4m285tj","ms1000301","motor","","70","img/motor_4.png","70","motor","4","184","1","0","0","",""
"null","","423641","HierDy84t992hm","qfv4m285tj","ms1000301","iti","","null","img/motor_4.png","70","motor","","","","","","",""
"548","","424198","HierDy84t992hm","qfv4m285tj","ms1000301","motor","","83","img/motor_2.png","83","motor","2","185","1","0","0","",""
"null","","424307","HierDy84t992hm","qfv4m285tj","ms1000301","iti","","null","img/motor_2.png","83","motor","","","","","","",""
"435","","424751","HierDy84t992hm","qfv4m285tj","ms1000301","motor","","68","img/motor_3.png","68","motor","3","186","1","0","0","",""
"null","","424865","HierDy84t992hm","qfv4m285tj","ms1000301","iti","","null","img/motor_3.png","68","motor","","","","","","",""
"350","","425230","HierDy84t992hm","qfv4m285tj","ms1000301","motor","","68","img/motor_3.png","68","motor","3","187","1","0","0","",""
"null","","425345","HierDy84t992hm","qfv4m285tj","ms1000301","iti","","null","img/motor_3.png","68","motor","","","","","","",""
"444","","425805","HierDy84t992hm","qfv4m285tj","ms1000301","motor","","72","img/motor_5.png","72","motor","5","188","1","0","0","",""
"null","","425921","HierDy84t992hm","qfv4m285tj","ms1000301","iti","","null","img/motor_5.png","72","motor","","","","","","",""
"469","","426406","HierDy84t992hm","qfv4m285tj","ms1000301","motor","","68","img/motor_4.png","70","motor","4","189","0","1","0","",""
"1","","426414","HierDy84t992hm","qfv4m285tj","ms1000301","motorRepeat","","70","img/motor_4.png","70","motor","4","189","1","0","0","",""
"null","","426529","HierDy84t992hm","qfv4m285tj","ms1000301","iti","","null","img/motor_4.png","70","motor","","","","","","",""
"605","","427142","HierDy84t992hm","qfv4m285tj","ms1000301","motor","","83","img/motor_2.png","83","motor","2","190","1","0","0","",""
"null","","427257","HierDy84t992hm","qfv4m285tj","ms1000301","iti","","null","img/motor_2.png","83","motor","","","","","","",""
"397","","427662","HierDy84t992hm","qfv4m285tj","ms1000301","motor","","70","img/motor_4.png","70","motor","4","191","1","0","0","",""
"null","","427777","HierDy84t992hm","qfv4m285tj","ms1000301","iti","","null","img/motor_4.png","70","motor","","","","","","",""
"382","","428173","HierDy84t992hm","qfv4m285tj","ms1000301","motor","","72","img/motor_5.png","72","motor","5","192","1","0","0","",""
"null","","428288","HierDy84t992hm","qfv4m285tj","ms1000301","iti","","null","img/motor_5.png","72","motor","","","","","","",""
"349","","428654","HierDy84t992hm","qfv4m285tj","ms1000301","motor","","76","img/motor_8.png","76","motor","8","193","1","0","0","",""
"null","","428769","HierDy84t992hm","qfv4m285tj","ms1000301","iti","","null","img/motor_8.png","76","motor","","","","","","",""
"437","","429214","HierDy84t992hm","qfv4m285tj","ms1000301","motor","","68","img/motor_3.png","68","motor","3","194","1","0","0","",""
"null","","429322","HierDy84t992hm","qfv4m285tj","ms1000301","iti","","null","img/motor_3.png","68","motor","","","","","","",""
"317","","429647","HierDy84t992hm","qfv4m285tj","ms1000301","motor","","68","img/motor_2.png","83","motor","2","195","0","1","0","",""
"289","","429943","HierDy84t992hm","qfv4m285tj","ms1000301","motorRepeat","","83","img/motor_2.png","83","motor","2","195","1","0","0","",""
"null","","430057","HierDy84t992hm","qfv4m285tj","ms1000301","iti","","null","img/motor_2.png","83","motor","","","","","","",""
"508","","430575","HierDy84t992hm","qfv4m285tj","ms1000301","motor","","74","img/motor_6.png","74","motor","6","196","1","0","0","",""
"null","","430683","HierDy84t992hm","qfv4m285tj","ms1000301","iti","","null","img/motor_6.png","74","motor","","","","","","",""
"380","","431070","HierDy84t992hm","qfv4m285tj","ms1000301","motor","","72","img/motor_5.png","72","motor","5","197","1","0","0","",""
"null","","431178","HierDy84t992hm","qfv4m285tj","ms1000301","iti","","null","img/motor_5.png","72","motor","","","","","","",""
"421","","431606","HierDy84t992hm","qfv4m285tj","ms1000301","motor","","70","img/motor_4.png","70","motor","4","198","1","0","0","",""
"null","","431715","HierDy84t992hm","qfv4m285tj","ms1000301","iti","","null","img/motor_4.png","70","motor","","","","","","",""
"461","","432189","HierDy84t992hm","qfv4m285tj","ms1000301","motor","","74","img/motor_6.png","74","motor","6","199","1","0","0","",""
"null","","432298","HierDy84t992hm","qfv4m285tj","ms1000301","iti","","null","img/motor_6.png","74","motor","","","","","","",""
"420","","432733","HierDy84t992hm","qfv4m285tj","ms1000301","motor","","75","img/motor_7.png","75","motor","7","200","1","0","0","",""
"null","","432843","HierDy84t992hm","qfv4m285tj","ms1000301","iti","","null","img/motor_7.png","75","motor","","","","","","",""
"509","","433359","HierDy84t992hm","qfv4m285tj","ms1000301","motor","","83","img/motor_2.png","83","motor","2","201","1","0","0","",""
"null","","433466","HierDy84t992hm","qfv4m285tj","ms1000301","iti","","null","img/motor_2.png","83","motor","","","","","","",""
"379","","433855","HierDy84t992hm","qfv4m285tj","ms1000301","motor","","70","img/motor_4.png","70","motor","4","202","1","0","0","",""
"null","","433963","HierDy84t992hm","qfv4m285tj","ms1000301","iti","","null","img/motor_4.png","70","motor","","","","","","",""
"443","","434415","HierDy84t992hm","qfv4m285tj","ms1000301","motor","","76","img/motor_8.png","76","motor","8","203","1","0","0","",""
"null","","434530","HierDy84t992hm","qfv4m285tj","ms1000301","iti","","null","img/motor_8.png","76","motor","","","","","","",""
"396","","434935","HierDy84t992hm","qfv4m285tj","ms1000301","motor","","65","img/motor_1.png","65","motor","1","204","1","0","0","",""
"null","","435043","HierDy84t992hm","qfv4m285tj","ms1000301","iti","","null","img/motor_1.png","65","motor","","","","","","",""
"364","","435421","HierDy84t992hm","qfv4m285tj","ms1000301","motor","","65","img/motor_1.png","65","motor","1","205","1","0","0","",""
"null","","435530","HierDy84t992hm","qfv4m285tj","ms1000301","iti","","null","img/motor_1.png","65","motor","","","","","","",""
"486","","436030","HierDy84t992hm","qfv4m285tj","ms1000301","motor","","74","img/motor_7.png","75","motor","7","206","0","1","0","",""
"185","","436223","HierDy84t992hm","qfv4m285tj","ms1000301","motorRepeat","","75","img/motor_7.png","75","motor","7","206","1","0","0","",""
"null","","436332","HierDy84t992hm","qfv4m285tj","ms1000301","iti","","null","img/motor_7.png","75","motor","","","","","","",""
"435","","436776","HierDy84t992hm","qfv4m285tj","ms1000301","motor","","70","img/motor_4.png","70","motor","4","207","1","0","0","",""
"null","","436883","HierDy84t992hm","qfv4m285tj","ms1000301","iti","","null","img/motor_4.png","70","motor","","","","","","",""
"428","","437325","HierDy84t992hm","qfv4m285tj","ms1000301","motor","","68","img/motor_3.png","68","motor","3","208","1","0","0","",""
"null","","437435","HierDy84t992hm","qfv4m285tj","ms1000301","iti","","null","img/motor_3.png","68","motor","","","","","","",""
"451","","437894","HierDy84t992hm","qfv4m285tj","ms1000301","motor","","74","img/motor_6.png","74","motor","6","209","1","0","0","",""
"null","","438009","HierDy84t992hm","qfv4m285tj","ms1000301","iti","","null","img/motor_6.png","74","motor","","","","","","",""
"492","","438512","HierDy84t992hm","qfv4m285tj","ms1000301","motor","","83","img/motor_2.png","83","motor","2","210","1","0","0","",""
"null","","438626","HierDy84t992hm","qfv4m285tj","ms1000301","iti","","null","img/motor_2.png","83","motor","","","","","","",""
"477","","439118","HierDy84t992hm","qfv4m285tj","ms1000301","motor","","72","img/motor_5.png","72","motor","5","211","1","0","0","",""
"null","","439227","HierDy84t992hm","qfv4m285tj","ms1000301","iti","","null","img/motor_5.png","72","motor","","","","","","",""
"588","","439823","HierDy84t992hm","qfv4m285tj","ms1000301","motor","","75","img/motor_7.png","75","motor","7","212","1","0","0","",""
"72","","439931","HierDy84t992hm","qfv4m285tj","ms1000301","iti","","75","img/motor_7.png","75","motor","","","","","","",""
"635","","440582","HierDy84t992hm","qfv4m285tj","ms1000301","motor","","68","img/motor_3.png","68","motor","3","213","1","0","0","",""
"null","","440691","HierDy84t992hm","qfv4m285tj","ms1000301","iti","","null","img/motor_3.png","68","motor","","","","","","",""
"459","","441165","HierDy84t992hm","qfv4m285tj","ms1000301","motor","","65","img/motor_1.png","65","motor","1","214","1","0","0","",""
"null","","441281","HierDy84t992hm","qfv4m285tj","ms1000301","iti","","null","img/motor_1.png","65","motor","","","","","","",""
"503","","441791","HierDy84t992hm","qfv4m285tj","ms1000301","motor","","74","img/motor_6.png","74","motor","6","215","1","0","0","",""
"null","","441899","HierDy84t992hm","qfv4m285tj","ms1000301","iti","","null","img/motor_6.png","74","motor","","","","","","",""
"411","","442318","HierDy84t992hm","qfv4m285tj","ms1000301","motor","","76","img/motor_8.png","76","motor","8","216","1","0","0","",""
"null","","442426","HierDy84t992hm","qfv4m285tj","ms1000301","iti","","null","img/motor_8.png","76","motor","","","","","","",""
"476","","442911","HierDy84t992hm","qfv4m285tj","ms1000301","motor","","70","img/motor_4.png","70","motor","4","217","1","0","0","",""
"null","","443019","HierDy84t992hm","qfv4m285tj","ms1000301","iti","","null","img/motor_4.png","70","motor","","","","","","",""
"428","","443455","HierDy84t992hm","qfv4m285tj","ms1000301","motor","","76","img/motor_8.png","76","motor","8","218","1","0","0","",""
"null","","443563","HierDy84t992hm","qfv4m285tj","ms1000301","iti","","null","img/motor_8.png","76","motor","","","","","","",""
"451","","444023","HierDy84t992hm","qfv4m285tj","ms1000301","motor","","65","img/motor_1.png","65","motor","1","219","1","0","0","",""
"null","","444132","HierDy84t992hm","qfv4m285tj","ms1000301","iti","","null","img/motor_1.png","65","motor","","","","","","",""
"531","","444671","HierDy84t992hm","qfv4m285tj","ms1000301","motor","","68","img/motor_3.png","68","motor","3","220","1","0","0","",""
"null","","444779","HierDy84t992hm","qfv4m285tj","ms1000301","iti","","null","img/motor_3.png","68","motor","","","","","","",""
"380","","445173","HierDy84t992hm","qfv4m285tj","ms1000301","motor","","83","img/motor_1.png","65","motor","1","221","0","1","0","",""
"289","","445478","HierDy84t992hm","qfv4m285tj","ms1000301","motorRepeat","","65","img/motor_1.png","65","motor","1","221","1","0","0","",""
"null","","445586","HierDy84t992hm","qfv4m285tj","ms1000301","iti","","null","img/motor_1.png","65","motor","","","","","","",""
"380","","445981","HierDy84t992hm","qfv4m285tj","ms1000301","motor","","72","img/motor_5.png","72","motor","5","222","1","0","0","",""
"null","","446097","HierDy84t992hm","qfv4m285tj","ms1000301","iti","","null","img/motor_5.png","72","motor","","","","","","",""
"349","","446455","HierDy84t992hm","qfv4m285tj","ms1000301","motor","","76","img/motor_8.png","76","motor","8","223","1","0","0","",""
"null","","446569","HierDy84t992hm","qfv4m285tj","ms1000301","iti","","null","img/motor_8.png","76","motor","","","","","","",""
"388","","446967","HierDy84t992hm","qfv4m285tj","ms1000301","motor","","76","img/motor_8.png","76","motor","8","224","1","0","0","",""
"null","","447081","HierDy84t992hm","qfv4m285tj","ms1000301","iti","","null","img/motor_8.png","76","motor","","","","","","",""
"646","","447734","HierDy84t992hm","qfv4m285tj","ms1000301","motor","","83","img/motor_2.png","83","motor","2","225","1","0","0","",""
"null","","447842","HierDy84t992hm","qfv4m285tj","ms1000301","iti","","null","img/motor_2.png","83","motor","","","","","","",""
"397","","448247","HierDy84t992hm","qfv4m285tj","ms1000301","motor","","72","img/motor_5.png","72","motor","5","226","1","0","0","",""
"null","","448355","HierDy84t992hm","qfv4m285tj","ms1000301","iti","","null","img/motor_5.png","72","motor","","","","","","",""
"379","","448743","HierDy84t992hm","qfv4m285tj","ms1000301","motor","","74","img/motor_6.png","74","motor","6","227","1","0","0","",""
"null","","448858","HierDy84t992hm","qfv4m285tj","ms1000301","iti","","null","img/motor_6.png","74","motor","","","","","","",""
"293","","449159","HierDy84t992hm","qfv4m285tj","ms1000301","motor","","75","img/motor_7.png","75","motor","7","228","1","0","0","",""
"null","","449274","HierDy84t992hm","qfv4m285tj","ms1000301","iti","","null","img/motor_7.png","75","motor","","","","","","",""
"292","","449582","HierDy84t992hm","qfv4m285tj","ms1000301","motor","","76","img/motor_8.png","76","motor","8","229","1","0","0","",""
"null","","449691","HierDy84t992hm","qfv4m285tj","ms1000301","iti","","null","img/motor_8.png","76","motor","","","","","","",""
"292","","449991","HierDy84t992hm","qfv4m285tj","ms1000301","motor","","76","img/motor_7.png","75","motor","7","230","0","1","0","",""
"201","","450199","HierDy84t992hm","qfv4m285tj","ms1000301","motorRepeat","","74","img/motor_7.png","75","motor","7","230","0","1","0","",""
"255","","450469","HierDy84t992hm","qfv4m285tj","ms1000301","motorRepeat","","75","img/motor_7.png","75","motor","7","230","1","0","0","",""
"null","","450579","HierDy84t992hm","qfv4m285tj","ms1000301","iti","","null","img/motor_7.png","75","motor","","","","","","",""
"461","","451048","HierDy84t992hm","qfv4m285tj","ms1000301","motor","","75","img/motor_7.png","75","motor","7","231","1","0","0","",""
"null","","451155","HierDy84t992hm","qfv4m285tj","ms1000301","iti","","null","img/motor_7.png","75","motor","","","","","","",""
"395","","451566","HierDy84t992hm","qfv4m285tj","ms1000301","motor","","76","img/motor_8.png","76","motor","8","232","1","0","0","",""
"null","","451682","HierDy84t992hm","qfv4m285tj","ms1000301","iti","","null","img/motor_8.png","76","motor","","","","","","",""
"428","","452125","HierDy84t992hm","qfv4m285tj","ms1000301","motor","","70","img/motor_4.png","70","motor","4","233","1","0","0","",""
"null","","452241","HierDy84t992hm","qfv4m285tj","ms1000301","iti","","null","img/motor_4.png","70","motor","","","","","","",""
"437","","452687","HierDy84t992hm","qfv4m285tj","ms1000301","motor","","83","img/motor_2.png","83","motor","2","234","1","0","0","",""
"null","","452802","HierDy84t992hm","qfv4m285tj","ms1000301","iti","","null","img/motor_2.png","83","motor","","","","","","",""
"387","","453199","HierDy84t992hm","qfv4m285tj","ms1000301","motor","","68","img/motor_3.png","68","motor","3","235","1","0","0","",""
"null","","453307","HierDy84t992hm","qfv4m285tj","ms1000301","iti","","null","img/motor_3.png","68","motor","","","","","","",""
"603","","453920","HierDy84t992hm","qfv4m285tj","ms1000301","motor","","75","img/motor_7.png","75","motor","7","236","1","0","0","",""
"null","","454028","HierDy84t992hm","qfv4m285tj","ms1000301","iti","","null","img/motor_7.png","75","motor","","","","","","",""
"396","","454434","HierDy84t992hm","qfv4m285tj","ms1000301","motor","","76","img/motor_8.png","76","motor","8","237","1","0","0","",""
"null","","454543","HierDy84t992hm","qfv4m285tj","ms1000301","iti","","null","img/motor_8.png","76","motor","","","","","","",""
"383","","454943","HierDy84t992hm","qfv4m285tj","ms1000301","motor","","72","img/motor_5.png","72","motor","5","238","1","0","0","",""
"null","","455059","HierDy84t992hm","qfv4m285tj","ms1000301","iti","","null","img/motor_5.png","72","motor","","","","","","",""
"234","","455310","HierDy84t992hm","qfv4m285tj","ms1000301","motor","","70","img/motor_8.png","76","motor","8","239","0","1","0","",""
"167","","455487","HierDy84t992hm","qfv4m285tj","ms1000301","motorRepeat","","76","img/motor_8.png","76","motor","8","239","1","0","0","",""
"null","","455602","HierDy84t992hm","qfv4m285tj","ms1000301","iti","","null","img/motor_8.png","76","motor","","","","","","",""
"484","","456101","HierDy84t992hm","qfv4m285tj","ms1000301","motor","","70","img/motor_4.png","70","motor","4","240","1","0","0","",""
"null","","456218","HierDy84t992hm","qfv4m285tj","ms1000301","iti","","null","img/motor_4.png","70","motor","","","","","","",""
"317","","456543","HierDy84t992hm","qfv4m285tj","ms1000301","motor","","68","img/motor_3.png","68","motor","3","241","1","0","0","",""
"null","","456659","HierDy84t992hm","qfv4m285tj","ms1000301","iti","","null","img/motor_3.png","68","motor","","","","","","",""
"364","","457038","HierDy84t992hm","qfv4m285tj","ms1000301","motor","","65","img/motor_1.png","65","motor","1","242","1","0","0","",""
"null","","457148","HierDy84t992hm","qfv4m285tj","ms1000301","iti","","null","img/motor_1.png","65","motor","","","","","","",""
"403","","457566","HierDy84t992hm","qfv4m285tj","ms1000301","motor","","76","img/motor_6.png","74","motor","6","243","0","1","0","",""
"160","","457742","HierDy84t992hm","qfv4m285tj","ms1000301","motorRepeat","","74","img/motor_6.png","74","motor","6","243","1","0","0","",""
"null","","457857","HierDy84t992hm","qfv4m285tj","ms1000301","iti","","null","img/motor_6.png","74","motor","","","","","","",""
"365","","458238","HierDy84t992hm","qfv4m285tj","ms1000301","motor","","75","img/motor_7.png","75","motor","7","244","1","0","0","",""
"null","","458354","HierDy84t992hm","qfv4m285tj","ms1000301","iti","","null","img/motor_7.png","75","motor","","","","","","",""
"500","","458862","HierDy84t992hm","qfv4m285tj","ms1000301","motor","","72","img/motor_5.png","72","motor","5","245","1","0","0","",""
"null","","458971","HierDy84t992hm","qfv4m285tj","ms1000301","iti","","null","img/motor_5.png","72","motor","","","","","","",""
"435","","459422","HierDy84t992hm","qfv4m285tj","ms1000301","motor","","75","img/motor_7.png","75","motor","7","246","1","0","0","",""
"null","","459538","HierDy84t992hm","qfv4m285tj","ms1000301","iti","","null","img/motor_7.png","75","motor","","","","","","",""
"293","","459837","HierDy84t992hm","qfv4m285tj","ms1000301","motor","","76","img/motor_8.png","76","motor","8","247","1","0","0","",""
"null","","459945","HierDy84t992hm","qfv4m285tj","ms1000301","iti","","null","img/motor_8.png","76","motor","","","","","","",""
"430","","460384","HierDy84t992hm","qfv4m285tj","ms1000301","motor","","70","img/motor_4.png","70","motor","4","248","1","0","0","",""
"null","","460491","HierDy84t992hm","qfv4m285tj","ms1000301","iti","","null","img/motor_4.png","70","motor","","","","","","",""
"477","","460975","HierDy84t992hm","qfv4m285tj","ms1000301","motor","","70","img/motor_4.png","70","motor","4","249","1","0","0","",""
"null","","461084","HierDy84t992hm","qfv4m285tj","ms1000301","iti","","null","img/motor_4.png","70","motor","","","","","","",""
"420","","461517","HierDy84t992hm","qfv4m285tj","ms1000301","motor","","76","img/motor_8.png","76","motor","8","250","1","0","0","",""
"null","","461627","HierDy84t992hm","qfv4m285tj","ms1000301","iti","","null","img/motor_8.png","76","motor","","","","","","",""
"308","","461950","HierDy84t992hm","qfv4m285tj","ms1000301","motor","","76","img/motor_8.png","76","motor","8","251","1","0","0","",""
"null","","462060","HierDy84t992hm","qfv4m285tj","ms1000301","iti","","null","img/motor_8.png","76","motor","","","","","","",""
"435","","462503","HierDy84t992hm","qfv4m285tj","ms1000301","motor","","70","img/motor_1.png","65","motor","1","252","0","1","0","",""
"87","","462598","HierDy84t992hm","qfv4m285tj","ms1000301","motorRepeat","","65","img/motor_1.png","65","motor","1","252","1","0","0","",""
"null","","462707","HierDy84t992hm","qfv4m285tj","ms1000301","iti","","null","img/motor_1.png","65","motor","","","","","","",""
"500","","463215","HierDy84t992hm","qfv4m285tj","ms1000301","motor","","83","img/motor_2.png","83","motor","2","253","1","0","0","",""
"null","","463330","HierDy84t992hm","qfv4m285tj","ms1000301","iti","","null","img/motor_2.png","83","motor","","","","","","",""
"443","","463782","HierDy84t992hm","qfv4m285tj","ms1000301","motor","","75","img/motor_7.png","75","motor","7","254","1","0","0","",""
"null","","463897","HierDy84t992hm","qfv4m285tj","ms1000301","iti","","null","img/motor_7.png","75","motor","","","","","","",""
"350","","464262","HierDy84t992hm","qfv4m285tj","ms1000301","motor","","72","img/motor_5.png","72","motor","5","255","1","0","0","",""
"null","","464377","HierDy84t992hm","qfv4m285tj","ms1000301","iti","","null","img/motor_5.png","72","motor","","","","","","",""
"445","","464831","HierDy84t992hm","qfv4m285tj","ms1000301","motor","","68","img/motor_3.png","68","motor","3","256","1","0","0","",""
"null","","464947","HierDy84t992hm","qfv4m285tj","ms1000301","iti","","null","img/motor_3.png","68","motor","","","","","","",""
"533","","465494","HierDy84t992hm","qfv4m285tj","ms1000301","motor","","75","img/motor_7.png","75","motor","7","257","1","0","0","",""
"null","","465609","HierDy84t992hm","qfv4m285tj","ms1000301","iti","","null","img/motor_7.png","75","motor","","","","","","",""
"452","","466078","HierDy84t992hm","qfv4m285tj","ms1000301","motor","","83","img/motor_3.png","68","motor","3","258","0","1","0","",""
"64","","466151","HierDy84t992hm","qfv4m285tj","ms1000301","motorRepeat","","68","img/motor_3.png","68","motor","3","258","1","0","0","",""
"null","","466266","HierDy84t992hm","qfv4m285tj","ms1000301","iti","","null","img/motor_3.png","68","motor","","","","","","",""
"428","","466710","HierDy84t992hm","qfv4m285tj","ms1000301","motor","","76","img/motor_8.png","76","motor","8","259","1","0","0","",""
"null","","466826","HierDy84t992hm","qfv4m285tj","ms1000301","iti","","null","img/motor_8.png","76","motor","","","","","","",""
"317","","467158","HierDy84t992hm","qfv4m285tj","ms1000301","motor","","68","img/motor_2.png","83","motor","2","260","0","1","0","",""
"194","","467366","HierDy84t992hm","qfv4m285tj","ms1000301","motorRepeat","","83","img/motor_2.png","83","motor","2","260","1","0","0","",""
"null","","467475","HierDy84t992hm","qfv4m285tj","ms1000301","iti","","null","img/motor_2.png","83","motor","","","","","","",""
"525","","468007","HierDy84t992hm","qfv4m285tj","ms1000301","motor","","74","img/motor_6.png","74","motor","6","261","1","0","0","",""
"null","","468116","HierDy84t992hm","qfv4m285tj","ms1000301","iti","","null","img/motor_6.png","74","motor","","","","","","",""
"388","","468511","HierDy84t992hm","qfv4m285tj","ms1000301","motor","","68","img/motor_3.png","68","motor","3","262","1","0","0","",""
"null","","468619","HierDy84t992hm","qfv4m285tj","ms1000301","iti","","null","img/motor_3.png","68","motor","","","","","","",""
"555","","469183","HierDy84t992hm","qfv4m285tj","ms1000301","motor","","74","img/motor_6.png","74","motor","6","263","1","0","0","",""
"null","","469291","HierDy84t992hm","qfv4m285tj","ms1000301","iti","","null","img/motor_6.png","74","motor","","","","","","",""
"420","","469719","HierDy84t992hm","qfv4m285tj","ms1000301","motor","","74","img/motor_6.png","74","motor","6","264","1","0","0","",""
"null","","469828","HierDy84t992hm","qfv4m285tj","ms1000301","iti","","null","img/motor_6.png","74","motor","","","","","","",""
"35","","469878","HierDy84t992hm","qfv4m285tj","ms1000301","motor","","72","img/motor_2.png","83","motor","2","265","0","1","0","",""
"545","","470437","HierDy84t992hm","qfv4m285tj","ms1000301","motorRepeat","","83","img/motor_2.png","83","motor","2","265","1","0","0","",""
"null","","470553","HierDy84t992hm","qfv4m285tj","ms1000301","iti","","null","img/motor_2.png","83","motor","","","","","","",""
"412","","470975","HierDy84t992hm","qfv4m285tj","ms1000301","motor","","83","img/motor_2.png","83","motor","2","266","1","0","0","",""
"null","","471091","HierDy84t992hm","qfv4m285tj","ms1000301","iti","","null","img/motor_2.png","83","motor","","","","","","",""
"443","","471544","HierDy84t992hm","qfv4m285tj","ms1000301","motor","","75","img/motor_7.png","75","motor","7","267","1","0","0","",""
"null","","471659","HierDy84t992hm","qfv4m285tj","ms1000301","iti","","null","img/motor_7.png","75","motor","","","","","","",""
"452","","472119","HierDy84t992hm","qfv4m285tj","ms1000301","motor","","65","img/motor_1.png","65","motor","1","268","1","0","0","",""
"null","","472234","HierDy84t992hm","qfv4m285tj","ms1000301","iti","","null","img/motor_1.png","65","motor","","","","","","",""
"501","","472750","HierDy84t992hm","qfv4m285tj","ms1000301","motor","","74","img/motor_5.png","72","motor","5","269","0","1","0","",""
"200","","472966","HierDy84t992hm","qfv4m285tj","ms1000301","motorRepeat","","72","img/motor_5.png","72","motor","5","269","1","0","0","",""
"null","","473082","HierDy84t992hm","qfv4m285tj","ms1000301","iti","","null","img/motor_5.png","72","motor","","","","","","",""
"429","","473519","HierDy84t992hm","qfv4m285tj","ms1000301","motor","","72","img/motor_5.png","72","motor","5","270","1","0","0","",""
"null","","473629","HierDy84t992hm","qfv4m285tj","ms1000301","iti","","null","img/motor_5.png","72","motor","","","","","","",""
"467","","474110","HierDy84t992hm","qfv4m285tj","ms1000301","motor","","76","img/motor_8.png","76","motor","8","271","1","0","0","",""
"null","","474218","HierDy84t992hm","qfv4m285tj","ms1000301","iti","","null","img/motor_8.png","76","motor","","","","","","",""
"564","","474792","HierDy84t992hm","qfv4m285tj","ms1000301","motor","","83","img/motor_2.png","83","motor","2","272","1","0","0","",""
"null","","474907","HierDy84t992hm","qfv4m285tj","ms1000301","iti","","null","img/motor_2.png","83","motor","","","","","","",""
"580","","475495","HierDy84t992hm","qfv4m285tj","ms1000301","motor","","70","img/motor_4.png","70","motor","4","273","1","0","0","",""
"null","","475610","HierDy84t992hm","qfv4m285tj","ms1000301","iti","","null","img/motor_4.png","70","motor","","","","","","",""
"357","","475975","HierDy84t992hm","qfv4m285tj","ms1000301","motor","","70","img/motor_4.png","70","motor","4","274","1","0","0","",""
"null","","476090","HierDy84t992hm","qfv4m285tj","ms1000301","iti","","null","img/motor_4.png","70","motor","","","","","","",""
"524","","476623","HierDy84t992hm","qfv4m285tj","ms1000301","motor","","75","img/motor_7.png","75","motor","7","275","1","0","0","",""
"null","","476739","HierDy84t992hm","qfv4m285tj","ms1000301","iti","","null","img/motor_7.png","75","motor","","","","","","",""
"437","","477190","HierDy84t992hm","qfv4m285tj","ms1000301","motor","","70","img/motor_4.png","70","motor","4","276","1","0","0","",""
"null","","477300","HierDy84t992hm","qfv4m285tj","ms1000301","iti","","null","img/motor_4.png","70","motor","","","","","","",""
"460","","477774","HierDy84t992hm","qfv4m285tj","ms1000301","motor","","83","img/motor_2.png","83","motor","2","277","1","0","0","",""
"null","","477890","HierDy84t992hm","qfv4m285tj","ms1000301","iti","","null","img/motor_2.png","83","motor","","","","","","",""
"366","","478263","HierDy84t992hm","qfv4m285tj","ms1000301","motor","","65","img/motor_1.png","65","motor","1","278","1","0","0","",""
"null","","478371","HierDy84t992hm","qfv4m285tj","ms1000301","iti","","null","img/motor_1.png","65","motor","","","","","","",""
"332","","478711","HierDy84t992hm","qfv4m285tj","ms1000301","motor","","70","img/motor_4.png","70","motor","4","279","1","0","0","",""
"null","","478820","HierDy84t992hm","qfv4m285tj","ms1000301","iti","","null","img/motor_4.png","70","motor","","","","","","",""
"396","","479224","HierDy84t992hm","qfv4m285tj","ms1000301","motor","","72","img/motor_5.png","72","motor","5","280","1","0","0","",""
"null","","479332","HierDy84t992hm","qfv4m285tj","ms1000301","iti","","null","img/motor_5.png","72","motor","","","","","","",""
"427","","479767","HierDy84t992hm","qfv4m285tj","ms1000301","motor","","83","img/motor_2.png","83","motor","2","281","1","0","0","",""
"null","","479876","HierDy84t992hm","qfv4m285tj","ms1000301","iti","","null","img/motor_2.png","83","motor","","","","","","",""
"427","","480312","HierDy84t992hm","qfv4m285tj","ms1000301","motor","","74","img/motor_6.png","74","motor","6","282","1","0","0","",""
"null","","480427","HierDy84t992hm","qfv4m285tj","ms1000301","iti","","null","img/motor_6.png","74","motor","","","","","","",""
"475","","480910","HierDy84t992hm","qfv4m285tj","ms1000301","motor","","70","img/motor_4.png","70","motor","4","283","1","0","0","",""
"null","","481019","HierDy84t992hm","qfv4m285tj","ms1000301","iti","","null","img/motor_4.png","70","motor","","","","","","",""
"413","","481439","HierDy84t992hm","qfv4m285tj","ms1000301","motor","","74","img/motor_5.png","72","motor","5","284","0","1","0","",""
"160","","481614","HierDy84t992hm","qfv4m285tj","ms1000301","motorRepeat","","72","img/motor_5.png","72","motor","5","284","1","0","0","",""
"null","","481723","HierDy84t992hm","qfv4m285tj","ms1000301","iti","","null","img/motor_5.png","72","motor","","","","","","",""
"453","","482183","HierDy84t992hm","qfv4m285tj","ms1000301","motor","","70","img/motor_4.png","70","motor","4","285","1","0","0","",""
"null","","482291","HierDy84t992hm","qfv4m285tj","ms1000301","iti","","null","img/motor_4.png","70","motor","","","","","","",""
"364","","482670","HierDy84t992hm","qfv4m285tj","ms1000301","motor","","68","img/motor_3.png","68","motor","3","286","1","0","0","",""
"null","","482785","HierDy84t992hm","qfv4m285tj","ms1000301","iti","","null","img/motor_3.png","68","motor","","","","","","",""
"565","","483366","HierDy84t992hm","qfv4m285tj","ms1000301","motor","","75","img/motor_7.png","75","motor","7","287","1","0","0","",""
"null","","483475","HierDy84t992hm","qfv4m285tj","ms1000301","iti","","null","img/motor_7.png","75","motor","","","","","","",""
"507","","483991","HierDy84t992hm","qfv4m285tj","ms1000301","motor","","72","img/motor_5.png","72","motor","5","288","1","0","0","",""
"null","","484107","HierDy84t992hm","qfv4m285tj","ms1000301","iti","","null","img/motor_5.png","72","motor","","","","","","",""
"380","","484496","HierDy84t992hm","qfv4m285tj","ms1000301","motor","","74","img/motor_6.png","74","motor","6","289","1","0","0","",""
"null","","484610","HierDy84t992hm","qfv4m285tj","ms1000301","iti","","null","img/motor_6.png","74","motor","","","","","","",""
"484","","485103","HierDy84t992hm","qfv4m285tj","ms1000301","motor","","83","img/motor_2.png","83","motor","2","290","1","0","0","",""
"null","","485211","HierDy84t992hm","qfv4m285tj","ms1000301","iti","","null","img/motor_2.png","83","motor","","","","","","",""
"515","","485742","HierDy84t992hm","qfv4m285tj","ms1000301","motor","","74","img/motor_6.png","74","motor","6","291","1","0","0","",""
"null","","485858","HierDy84t992hm","qfv4m285tj","ms1000301","iti","","null","img/motor_6.png","74","motor","","","","","","",""
"501","","486367","HierDy84t992hm","qfv4m285tj","ms1000301","motor","","68","img/motor_3.png","68","motor","3","292","1","0","0","",""
"null","","486483","HierDy84t992hm","qfv4m285tj","ms1000301","iti","","null","img/motor_3.png","68","motor","","","","","","",""
"404","","486894","HierDy84t992hm","qfv4m285tj","ms1000301","motor","","70","img/motor_4.png","70","motor","4","293","1","0","0","",""
"null","","487009","HierDy84t992hm","qfv4m285tj","ms1000301","iti","","null","img/motor_4.png","70","motor","","","","","","",""
"493","","487519","HierDy84t992hm","qfv4m285tj","ms1000301","motor","","74","img/motor_6.png","74","motor","6","294","1","0","0","",""
"null","","487634","HierDy84t992hm","qfv4m285tj","ms1000301","iti","","null","img/motor_6.png","74","motor","","","","","","",""
"317","","487966","HierDy84t992hm","qfv4m285tj","ms1000301","motor","","74","img/motor_6.png","74","motor","6","295","1","0","0","",""
"null","","488081","HierDy84t992hm","qfv4m285tj","ms1000301","iti","","null","img/motor_6.png","74","motor","","","","","","",""
"380","","488471","HierDy84t992hm","qfv4m285tj","ms1000301","motor","","75","img/motor_7.png","75","motor","7","296","1","0","0","",""
"null","","488586","HierDy84t992hm","qfv4m285tj","ms1000301","iti","","null","img/motor_7.png","75","motor","","","","","","",""
"366","","488966","HierDy84t992hm","qfv4m285tj","ms1000301","motor","","74","img/motor_6.png","74","motor","6","297","1","0","0","",""
"null","","489082","HierDy84t992hm","qfv4m285tj","ms1000301","iti","","null","img/motor_6.png","74","motor","","","","","","",""
"517","","489615","HierDy84t992hm","qfv4m285tj","ms1000301","motor","","68","img/motor_3.png","68","motor","3","298","1","0","0","",""
"0","","489723","HierDy84t992hm","qfv4m285tj","ms1000301","iti","","83","img/motor_3.png","68","motor","","","","","","",""
"557","","490287","HierDy84t992hm","qfv4m285tj","ms1000301","motor","","75","img/motor_7.png","75","motor","7","299","1","0","0","",""
"null","","490403","HierDy84t992hm","qfv4m285tj","ms1000301","iti","","null","img/motor_7.png","75","motor","","","","","","",""
"460","","490879","HierDy84t992hm","qfv4m285tj","ms1000301","motor","","65","img/motor_1.png","65","motor","1","300","1","0","0","",""
"null","","490988","HierDy84t992hm","qfv4m285tj","ms1000301","iti","","null","img/motor_1.png","65","motor","","","","","","",""
"411","","491407","HierDy84t992hm","qfv4m285tj","ms1000301","motor","","68","img/motor_3.png","68","motor","3","301","1","0","0","",""
"null","","491522","HierDy84t992hm","qfv4m285tj","ms1000301","iti","","null","img/motor_3.png","68","motor","","","","","","",""
"453","","491984","HierDy84t992hm","qfv4m285tj","ms1000301","motor","","72","img/motor_5.png","72","motor","5","302","1","0","0","",""
"null","","492099","HierDy84t992hm","qfv4m285tj","ms1000301","iti","","null","img/motor_5.png","72","motor","","","","","","",""
"588","","492702","HierDy84t992hm","qfv4m285tj","ms1000301","motor","","83","img/motor_2.png","83","motor","2","303","1","0","0","",""
"null","","492811","HierDy84t992hm","qfv4m285tj","ms1000301","iti","","null","img/motor_2.png","83","motor","","","","","","",""
"396","","493216","HierDy84t992hm","qfv4m285tj","ms1000301","motor","","72","img/motor_5.png","72","motor","5","304","1","0","0","",""
"null","","493324","HierDy84t992hm","qfv4m285tj","ms1000301","iti","","null","img/motor_5.png","72","motor","","","","","","",""
"460","","493791","HierDy84t992hm","qfv4m285tj","ms1000301","motor","","75","img/motor_7.png","75","motor","7","305","1","0","0","",""
"null","","493907","HierDy84t992hm","qfv4m285tj","ms1000301","iti","","null","img/motor_7.png","75","motor","","","","","","",""
"388","","494303","HierDy84t992hm","qfv4m285tj","ms1000301","motor","","75","img/motor_7.png","75","motor","7","306","1","0","0","",""
"null","","494412","HierDy84t992hm","qfv4m285tj","ms1000301","iti","","null","img/motor_7.png","75","motor","","","","","","",""
"428","","494847","HierDy84t992hm","qfv4m285tj","ms1000301","motor","","76","img/motor_8.png","76","motor","8","307","1","0","0","",""
"null","","494962","HierDy84t992hm","qfv4m285tj","ms1000301","iti","","null","img/motor_8.png","76","motor","","","","","","",""
"429","","495407","HierDy84t992hm","qfv4m285tj","ms1000301","motor","","75","img/motor_7.png","75","motor","7","308","1","0","0","",""
"null","","495523","HierDy84t992hm","qfv4m285tj","ms1000301","iti","","null","img/motor_7.png","75","motor","","","","","","",""
"420","","495958","HierDy84t992hm","qfv4m285tj","ms1000301","motor","","70","img/motor_3.png","68","motor","3","309","0","1","0","",""
"97","","496070","HierDy84t992hm","qfv4m285tj","ms1000301","motorRepeat","","68","img/motor_3.png","68","motor","3","309","1","0","0","",""
"null","","496180","HierDy84t992hm","qfv4m285tj","ms1000301","iti","","null","img/motor_3.png","68","motor","","","","","","",""
"403","","496591","HierDy84t992hm","qfv4m285tj","ms1000301","motor","","70","img/motor_4.png","70","motor","4","310","1","0","0","",""
"null","","496699","HierDy84t992hm","qfv4m285tj","ms1000301","iti","","null","img/motor_4.png","70","motor","","","","","","",""
"389","","497096","HierDy84t992hm","qfv4m285tj","ms1000301","motor","","72","img/motor_7.png","75","motor","7","311","0","1","0","",""
"23","","497127","HierDy84t992hm","qfv4m285tj","ms1000301","motorRepeat","","74","img/motor_7.png","75","motor","7","311","0","1","0","",""
"185","","497319","HierDy84t992hm","qfv4m285tj","ms1000301","motorRepeat","","75","img/motor_7.png","75","motor","7","311","1","0","0","",""
"null","","497434","HierDy84t992hm","qfv4m285tj","ms1000301","iti","","null","img/motor_7.png","75","motor","","","","","","",""
"540","","497983","HierDy84t992hm","qfv4m285tj","ms1000301","motor","","70","img/motor_4.png","70","motor","4","312","1","0","0","",""
"null","","498098","HierDy84t992hm","qfv4m285tj","ms1000301","iti","","null","img/motor_4.png","70","motor","","","","","","",""
"316","","498424","HierDy84t992hm","qfv4m285tj","ms1000301","motor","","70","img/motor_4.png","70","motor","4","313","1","0","0","",""
"null","","498532","HierDy84t992hm","qfv4m285tj","ms1000301","iti","","null","img/motor_4.png","70","motor","","","","","","",""
"364","","498910","HierDy84t992hm","qfv4m285tj","ms1000301","motor","","75","img/motor_7.png","75","motor","7","314","1","0","0","",""
"null","","499027","HierDy84t992hm","qfv4m285tj","ms1000301","iti","","null","img/motor_7.png","75","motor","","","","","","",""
"389","","499431","HierDy84t992hm","qfv4m285tj","ms1000301","motor","","74","img/motor_6.png","74","motor","6","315","1","0","0","",""
"null","","499546","HierDy84t992hm","qfv4m285tj","ms1000301","iti","","null","img/motor_6.png","74","motor","","","","","","",""
"388","","499943","HierDy84t992hm","qfv4m285tj","ms1000301","motor","","76","img/motor_8.png","76","motor","8","316","1","0","0","",""
"null","","500058","HierDy84t992hm","qfv4m285tj","ms1000301","iti","","null","img/motor_8.png","76","motor","","","","","","",""
"525","","500592","HierDy84t992hm","qfv4m285tj","ms1000301","motor","","68","img/motor_3.png","68","motor","3","317","1","0","0","",""
"null","","500707","HierDy84t992hm","qfv4m285tj","ms1000301","iti","","null","img/motor_3.png","68","motor","","","","","","",""
"91","","500808","HierDy84t992hm","qfv4m285tj","ms1000301","motor","","68","img/motor_2.png","83","motor","2","318","0","1","0","",""
"280","","501095","HierDy84t992hm","qfv4m285tj","ms1000301","motorRepeat","","83","img/motor_2.png","83","motor","2","318","1","0","0","",""
"null","","501211","HierDy84t992hm","qfv4m285tj","ms1000301","iti","","null","img/motor_2.png","83","motor","","","","","","",""
"571","","501791","HierDy84t992hm","qfv4m285tj","ms1000301","motor","","75","img/motor_7.png","75","motor","7","319","1","0","0","",""
"null","","501907","HierDy84t992hm","qfv4m285tj","ms1000301","iti","","null","img/motor_7.png","75","motor","","","","","","",""
"475","","502391","HierDy84t992hm","qfv4m285tj","ms1000301","motor","","83","img/motor_2.png","83","motor","2","320","1","0","0","",""
"null","","502499","HierDy84t992hm","qfv4m285tj","ms1000301","iti","","null","img/motor_2.png","83","motor","","","","","","",""
"412","","502920","HierDy84t992hm","qfv4m285tj","ms1000301","motor","","68","img/motor_3.png","68","motor","3","321","1","0","0","",""
"null","","503029","HierDy84t992hm","qfv4m285tj","ms1000301","iti","","null","img/motor_3.png","68","motor","","","","","","",""
"619","","503656","HierDy84t992hm","qfv4m285tj","ms1000301","motor","","74","img/motor_6.png","74","motor","6","322","1","0","0","",""
"null","","503770","HierDy84t992hm","qfv4m285tj","ms1000301","iti","","null","img/motor_6.png","74","motor","","","","","","",""
"524","","504310","HierDy84t992hm","qfv4m285tj","ms1000301","motor","","83","img/motor_2.png","83","motor","2","323","1","0","0","",""
"null","","504426","HierDy84t992hm","qfv4m285tj","ms1000301","iti","","null","img/motor_2.png","83","motor","","","","","","",""
"459","","504902","HierDy84t992hm","qfv4m285tj","ms1000301","motor","","76","img/motor_8.png","76","motor","8","324","1","0","0","",""
"null","","505012","HierDy84t992hm","qfv4m285tj","ms1000301","iti","","null","img/motor_8.png","76","motor","","","","","","",""
"339","","505360","HierDy84t992hm","qfv4m285tj","ms1000301","motor","","76","img/motor_8.png","76","motor","8","325","1","0","0","",""
"null","","505475","HierDy84t992hm","qfv4m285tj","ms1000301","iti","","null","img/motor_8.png","76","motor","","","","","","",""
"396","","505879","HierDy84t992hm","qfv4m285tj","ms1000301","motor","","75","img/motor_6.png","74","motor","6","326","0","1","0","",""
"224","","506111","HierDy84t992hm","qfv4m285tj","ms1000301","motorRepeat","","72","img/motor_6.png","74","motor","6","326","0","1","0","",""
"176","","506296","HierDy84t992hm","qfv4m285tj","ms1000301","motorRepeat","","74","img/motor_6.png","74","motor","6","326","1","0","0","",""
"null","","506411","HierDy84t992hm","qfv4m285tj","ms1000301","iti","","null","img/motor_6.png","74","motor","","","","","","",""
"500","","506919","HierDy84t992hm","qfv4m285tj","ms1000301","motor","","65","img/motor_1.png","65","motor","1","327","1","0","0","",""
"null","","507028","HierDy84t992hm","qfv4m285tj","ms1000301","iti","","null","img/motor_1.png","65","motor","","","","","","",""
"451","","507495","HierDy84t992hm","qfv4m285tj","ms1000301","motor","","65","img/motor_1.png","65","motor","1","328","1","0","0","",""
"null","","507610","HierDy84t992hm","qfv4m285tj","ms1000301","iti","","null","img/motor_1.png","65","motor","","","","","","",""
"493","","508112","HierDy84t992hm","qfv4m285tj","ms1000301","motor","","68","img/motor_3.png","68","motor","3","329","1","0","0","",""
"null","","508227","HierDy84t992hm","qfv4m285tj","ms1000301","iti","","null","img/motor_3.png","68","motor","","","","","","",""
"491","","508728","HierDy84t992hm","qfv4m285tj","ms1000301","motor","","75","img/motor_7.png","75","motor","7","330","1","0","0","",""
"null","","508842","HierDy84t992hm","qfv4m285tj","ms1000301","iti","","null","img/motor_7.png","75","motor","","","","","","",""
"460","","509312","HierDy84t992hm","qfv4m285tj","ms1000301","motor","","65","img/motor_1.png","65","motor","1","331","1","0","0","",""
"null","","509427","HierDy84t992hm","qfv4m285tj","ms1000301","iti","","null","img/motor_1.png","65","motor","","","","","","",""
"508","","509950","HierDy84t992hm","qfv4m285tj","ms1000301","motor","","76","img/motor_7.png","75","motor","7","332","0","1","0","",""
"241","","510199","HierDy84t992hm","qfv4m285tj","ms1000301","motorRepeat","","75","img/motor_7.png","75","motor","7","332","1","0","0","",""
"null","","510315","HierDy84t992hm","qfv4m285tj","ms1000301","iti","","null","img/motor_7.png","75","motor","","","","","","",""
"477","","510800","HierDy84t992hm","qfv4m285tj","ms1000301","motor","","74","img/motor_6.png","74","motor","6","333","1","0","0","",""
"null","","510908","HierDy84t992hm","qfv4m285tj","ms1000301","iti","","null","img/motor_6.png","74","motor","","","","","","",""
"403","","511320","HierDy84t992hm","qfv4m285tj","ms1000301","motor","","76","img/motor_8.png","76","motor","8","334","1","0","0","",""
"null","","511428","HierDy84t992hm","qfv4m285tj","ms1000301","iti","","null","img/motor_8.png","76","motor","","","","","","",""
"444","","511886","HierDy84t992hm","qfv4m285tj","ms1000301","motor","","74","img/motor_6.png","74","motor","6","335","1","0","0","",""
"null","","511996","HierDy84t992hm","qfv4m285tj","ms1000301","iti","","null","img/motor_6.png","74","motor","","","","","","",""
"436","","512439","HierDy84t992hm","qfv4m285tj","ms1000301","motor","","72","img/motor_5.png","72","motor","5","336","1","0","0","",""
"null","","512548","HierDy84t992hm","qfv4m285tj","ms1000301","iti","","null","img/motor_5.png","72","motor","","","","","","",""
"420","","512975","HierDy84t992hm","qfv4m285tj","ms1000301","motor","","76","img/motor_8.png","76","motor","8","337","1","0","0","",""
"null","","513091","HierDy84t992hm","qfv4m285tj","ms1000301","iti","","null","img/motor_8.png","76","motor","","","","","","",""
"604","","513710","HierDy84t992hm","qfv4m285tj","ms1000301","motor","","68","img/motor_2.png","83","motor","2","338","0","1","0","",""
"119","","513840","HierDy84t992hm","qfv4m285tj","ms1000301","motorRepeat","","83","img/motor_2.png","83","motor","2","338","1","0","0","",""
"null","","513948","HierDy84t992hm","qfv4m285tj","ms1000301","iti","","null","img/motor_2.png","83","motor","","","","","","",""
"443","","514399","HierDy84t992hm","qfv4m285tj","ms1000301","motor","","68","img/motor_3.png","68","motor","3","339","1","0","0","",""
"null","","514508","HierDy84t992hm","qfv4m285tj","ms1000301","iti","","null","img/motor_3.png","68","motor","","","","","","",""
"460","","514982","HierDy84t992hm","qfv4m285tj","ms1000301","motor","","76","img/motor_8.png","76","motor","8","340","1","0","0","",""
"null","","515098","HierDy84t992hm","qfv4m285tj","ms1000301","iti","","null","img/motor_8.png","76","motor","","","","","","",""
"380","","515494","HierDy84t992hm","qfv4m285tj","ms1000301","motor","","74","img/motor_6.png","74","motor","6","341","1","0","0","",""
"null","","515610","HierDy84t992hm","qfv4m285tj","ms1000301","iti","","null","img/motor_6.png","74","motor","","","","","","",""
"462","","516086","HierDy84t992hm","qfv4m285tj","ms1000301","motor","","83","img/motor_2.png","83","motor","2","342","1","0","0","",""
"null","","516202","HierDy84t992hm","qfv4m285tj","ms1000301","iti","","null","img/motor_2.png","83","motor","","","","","","",""
"397","","516609","HierDy84t992hm","qfv4m285tj","ms1000301","motor","","83","img/motor_2.png","83","motor","2","343","1","0","0","",""
"null","","516716","HierDy84t992hm","qfv4m285tj","ms1000301","iti","","null","img/motor_2.png","83","motor","","","","","","",""
"484","","517207","HierDy84t992hm","qfv4m285tj","ms1000301","motor","","72","img/motor_5.png","72","motor","5","344","1","0","0","",""
"null","","517316","HierDy84t992hm","qfv4m285tj","ms1000301","iti","","null","img/motor_5.png","72","motor","","","","","","",""
"556","","517880","HierDy84t992hm","qfv4m285tj","ms1000301","motor","","83","img/motor_2.png","83","motor","2","345","1","0","0","",""
"null","","517988","HierDy84t992hm","qfv4m285tj","ms1000301","iti","","null","img/motor_2.png","83","motor","","","","","","",""
"339","","518335","HierDy84t992hm","qfv4m285tj","ms1000301","motor","","83","img/motor_1.png","65","motor","1","346","0","1","0","",""
"48","","518398","HierDy84t992hm","qfv4m285tj","ms1000301","motorRepeat","","65","img/motor_1.png","65","motor","1","346","1","0","0","",""
"null","","518513","HierDy84t992hm","qfv4m285tj","ms1000301","iti","","null","img/motor_1.png","65","motor","","","","","","",""
"422","","518946","HierDy84t992hm","qfv4m285tj","ms1000301","motor","","68","img/motor_3.png","68","motor","3","347","1","0","0","",""
"null","","519056","HierDy84t992hm","qfv4m285tj","ms1000301","iti","","null","img/motor_3.png","68","motor","","","","","","",""
"432","","519496","HierDy84t992hm","qfv4m285tj","ms1000301","motor","","65","img/motor_1.png","65","motor","1","348","1","0","0","",""
