"rt","responses","time_elapsed","subject","prolificID","demoID","trialType","question_order","key_press","stim","corrresp","phase","stimNum","trialNum","corr","repeatTrial","motorSwitch","pracCounter","hierarchy"
"6473681","{""Q0"":""msl000300""}","6473709","HierDyac0s1z15","2ufgfxgetv","msl000300","","","","","","","","","","","","",""
"1496","","6475219","HierDyac0s1z15","2ufgfxgetv","msl000300","","","","","","","","","","","","",""
"","","6476935","HierDyac0s1z15","2ufgfxgetv","msl000300","fullscreen","","","","","","","","","","","",""
"12417","{""Vision"":""Yes"",""Handedness"":""Right"",""Gender"":""male""}","6489367","HierDyac0s1z15","2ufgfxgetv","msl000300","","[0,1,2]","","","","","","","","","","",""
"6510","{""Q0"":""20""}","6495894","HierDyac0s1z15","2ufgfxgetv","msl000300","","","","","","","","","","","","",""
"153222","","6649125","HierDyac0s1z15","2ufgfxgetv","msl000300","","","","","","","","","","","","",""
"1343","","6650483","HierDyac0s1z15","2ufgfxgetv","msl000300","motor","","68","img/motor_3.png","68","motor","3","1","1","0","0","",""
"null","","6650599","HierDyac0s1z15","2ufgfxgetv","msl000300","iti","","null","img/motor_3.png","68","motor","","","","","","",""
"749","","6651363","HierDyac0s1z15","2ufgfxgetv","msl000300","motor","","70","img/motor_4.png","70","motor","4","2","1","0","0","",""
"null","","6651480","HierDyac0s1z15","2ufgfxgetv","msl000300","iti","","null","img/motor_4.png","70","motor","","","","","","",""
"868","","6652356","HierDyac0s1z15","2ufgfxgetv","msl000300","motor","","75","img/motor_7.png","75","motor","7","3","1","0","0","",""
"null","","6652464","HierDyac0s1z15","2ufgfxgetv","msl000300","iti","","null","img/motor_7.png","75","motor","","","","","","",""
"916","","6653395","HierDyac0s1z15","2ufgfxgetv","msl000300","motor","","83","img/motor_2.png","83","motor","2","4","1","0","0","",""
"null","","6653505","HierDyac0s1z15","2ufgfxgetv","msl000300","iti","","null","img/motor_2.png","83","motor","","","","","","",""
"924","","6654443","HierDyac0s1z15","2ufgfxgetv","msl000300","motor","","76","img/motor_8.png","76","motor","8","5","1","0","0","",""
"null","","6654558","HierDyac0s1z15","2ufgfxgetv","msl000300","iti","","null","img/motor_8.png","76","motor","","","","","","",""
"694","","6655261","HierDyac0s1z15","2ufgfxgetv","msl000300","motor","","75","img/motor_7.png","75","motor","7","6","1","0","0","",""
"null","","6655375","HierDyac0s1z15","2ufgfxgetv","msl000300","iti","","null","img/motor_7.png","75","motor","","","","","","",""
"637","","6656021","HierDyac0s1z15","2ufgfxgetv","msl000300","motor","","76","img/motor_8.png","76","motor","8","7","1","0","0","",""
"null","","6656135","HierDyac0s1z15","2ufgfxgetv","msl000300","iti","","null","img/motor_8.png","76","motor","","","","","","",""
"548","","6656692","HierDyac0s1z15","2ufgfxgetv","msl000300","motor","","75","img/motor_7.png","75","motor","7","8","1","0","0","",""
"null","","6656801","HierDyac0s1z15","2ufgfxgetv","msl000300","iti","","null","img/motor_7.png","75","motor","","","","","","",""
"1012","","6657820","HierDyac0s1z15","2ufgfxgetv","msl000300","motor","","72","img/motor_5.png","72","motor","5","9","1","0","0","",""
"null","","6657929","HierDyac0s1z15","2ufgfxgetv","msl000300","iti","","null","img/motor_5.png","72","motor","","","","","","",""
"637","","6658573","HierDyac0s1z15","2ufgfxgetv","msl000300","motor","","72","img/motor_5.png","72","motor","5","10","1","0","0","",""
"null","","6658681","HierDyac0s1z15","2ufgfxgetv","msl000300","iti","","null","img/motor_5.png","72","motor","","","","","","",""
"619","","6659308","HierDyac0s1z15","2ufgfxgetv","msl000300","motor","","70","img/motor_4.png","70","motor","4","11","1","0","0","",""
"null","","6659416","HierDyac0s1z15","2ufgfxgetv","msl000300","iti","","null","img/motor_4.png","70","motor","","","","","","",""
"683","","6660108","HierDyac0s1z15","2ufgfxgetv","msl000300","motor","","65","img/motor_1.png","65","motor","1","12","1","0","0","",""
"null","","6660223","HierDyac0s1z15","2ufgfxgetv","msl000300","iti","","null","img/motor_1.png","65","motor","","","","","","",""
"718","","6660948","HierDyac0s1z15","2ufgfxgetv","msl000300","motor","","68","img/motor_3.png","68","motor","3","13","1","0","0","",""
"null","","6661063","HierDyac0s1z15","2ufgfxgetv","msl000300","iti","","null","img/motor_3.png","68","motor","","","","","","",""
"1139","","6662219","HierDyac0s1z15","2ufgfxgetv","msl000300","motor","","76","img/motor_8.png","76","motor","8","14","1","0","0","",""
"null","","6662327","HierDyac0s1z15","2ufgfxgetv","msl000300","iti","","null","img/motor_8.png","76","motor","","","","","","",""
"749","","6663085","HierDyac0s1z15","2ufgfxgetv","msl000300","motor","","70","img/motor_4.png","70","motor","4","15","1","0","0","",""
"null","","6663193","HierDyac0s1z15","2ufgfxgetv","msl000300","iti","","null","img/motor_4.png","70","motor","","","","","","",""
"660","","6663861","HierDyac0s1z15","2ufgfxgetv","msl000300","motor","","65","img/motor_1.png","65","motor","1","16","1","0","0","",""
"null","","6663975","HierDyac0s1z15","2ufgfxgetv","msl000300","iti","","null","img/motor_1.png","65","motor","","","","","","",""
"797","","6664781","HierDyac0s1z15","2ufgfxgetv","msl000300","motor","","68","img/motor_3.png","68","motor","3","17","1","0","0","",""
"null","","6664895","HierDyac0s1z15","2ufgfxgetv","msl000300","iti","","null","img/motor_3.png","68","motor","","","","","","",""
"1253","","6666155","HierDyac0s1z15","2ufgfxgetv","msl000300","motor","","72","img/motor_5.png","72","motor","5","18","1","0","0","",""
"null","","6666264","HierDyac0s1z15","2ufgfxgetv","msl000300","iti","","null","img/motor_5.png","72","motor","","","","","","",""
"772","","6667044","HierDyac0s1z15","2ufgfxgetv","msl000300","motor","","65","img/motor_1.png","65","motor","1","19","1","0","0","",""
"null","","6667152","HierDyac0s1z15","2ufgfxgetv","msl000300","iti","","null","img/motor_1.png","65","motor","","","","","","",""
"973","","6668139","HierDyac0s1z15","2ufgfxgetv","msl000300","motor","","74","img/motor_6.png","74","motor","6","20","1","0","0","",""
"null","","6668255","HierDyac0s1z15","2ufgfxgetv","msl000300","iti","","null","img/motor_6.png","74","motor","","","","","","",""
"502","","6668770","HierDyac0s1z15","2ufgfxgetv","msl000300","motor","","74","img/motor_6.png","74","motor","6","21","1","0","0","",""
"null","","6668880","HierDyac0s1z15","2ufgfxgetv","msl000300","iti","","null","img/motor_6.png","74","motor","","","","","","",""
"765","","6669659","HierDyac0s1z15","2ufgfxgetv","msl000300","motor","","76","img/motor_8.png","76","motor","8","22","1","0","0","",""
"null","","6669775","HierDyac0s1z15","2ufgfxgetv","msl000300","iti","","null","img/motor_8.png","76","motor","","","","","","",""
"1005","","6670789","HierDyac0s1z15","2ufgfxgetv","msl000300","motor","","68","img/motor_3.png","68","motor","3","23","1","0","0","",""
"null","","6670897","HierDyac0s1z15","2ufgfxgetv","msl000300","iti","","null","img/motor_3.png","68","motor","","","","","","",""
"700","","6671611","HierDyac0s1z15","2ufgfxgetv","msl000300","motor","","65","img/motor_1.png","65","motor","1","24","1","0","0","",""
"null","","6671720","HierDyac0s1z15","2ufgfxgetv","msl000300","iti","","null","img/motor_1.png","65","motor","","","","","","",""
"477","","6672204","HierDyac0s1z15","2ufgfxgetv","msl000300","motor","","65","img/motor_1.png","65","motor","1","25","1","0","0","",""
"null","","6672313","HierDyac0s1z15","2ufgfxgetv","msl000300","iti","","null","img/motor_1.png","65","motor","","","","","","",""
"565","","6672884","HierDyac0s1z15","2ufgfxgetv","msl000300","motor","","70","img/motor_4.png","70","motor","4","26","1","0","0","",""
"null","","6672992","HierDyac0s1z15","2ufgfxgetv","msl000300","iti","","null","img/motor_4.png","70","motor","","","","","","",""
"629","","6673628","HierDyac0s1z15","2ufgfxgetv","msl000300","motor","","65","img/motor_1.png","65","motor","1","27","1","0","0","",""
"null","","6673742","HierDyac0s1z15","2ufgfxgetv","msl000300","iti","","null","img/motor_1.png","65","motor","","","","","","",""
"725","","6674475","HierDyac0s1z15","2ufgfxgetv","msl000300","motor","","83","img/motor_2.png","83","motor","2","28","1","0","0","",""
"null","","6674590","HierDyac0s1z15","2ufgfxgetv","msl000300","iti","","null","img/motor_2.png","83","motor","","","","","","",""
"855","","6675453","HierDyac0s1z15","2ufgfxgetv","msl000300","motor","","75","img/motor_7.png","75","motor","7","29","1","0","0","",""
"null","","6675567","HierDyac0s1z15","2ufgfxgetv","msl000300","iti","","null","img/motor_7.png","75","motor","","","","","","",""
"869","","6676444","HierDyac0s1z15","2ufgfxgetv","msl000300","motor","","68","img/motor_3.png","68","motor","3","30","1","0","0","",""
"null","","6676559","HierDyac0s1z15","2ufgfxgetv","msl000300","iti","","null","img/motor_3.png","68","motor","","","","","","",""
"629","","6677196","HierDyac0s1z15","2ufgfxgetv","msl000300","motor","","65","img/motor_1.png","65","motor","1","31","1","0","0","",""
"null","","6677304","HierDyac0s1z15","2ufgfxgetv","msl000300","iti","","null","img/motor_1.png","65","motor","","","","","","",""
"924","","6678237","HierDyac0s1z15","2ufgfxgetv","msl000300","motor","","72","img/motor_8.png","76","motor","8","32","0","1","0","",""
"448","","6678693","HierDyac0s1z15","2ufgfxgetv","msl000300","motorRepeat","","76","img/motor_8.png","76","motor","8","32","1","0","0","",""
"null","","6678800","HierDyac0s1z15","2ufgfxgetv","msl000300","iti","","null","img/motor_8.png","76","motor","","","","","","",""
"708","","6679523","HierDyac0s1z15","2ufgfxgetv","msl000300","motor","","70","img/motor_4.png","70","motor","4","33","1","0","0","",""
"null","","6679638","HierDyac0s1z15","2ufgfxgetv","msl000300","iti","","null","img/motor_4.png","70","motor","","","","","","",""
"870","","6680523","HierDyac0s1z15","2ufgfxgetv","msl000300","motor","","75","img/motor_7.png","75","motor","7","34","1","0","0","",""
"null","","6680638","HierDyac0s1z15","2ufgfxgetv","msl000300","iti","","null","img/motor_7.png","75","motor","","","","","","",""
"615","","6681267","HierDyac0s1z15","2ufgfxgetv","msl000300","motor","","65","img/motor_1.png","65","motor","1","35","1","0","0","",""
"null","","6681382","HierDyac0s1z15","2ufgfxgetv","msl000300","iti","","null","img/motor_1.png","65","motor","","","","","","",""
"742","","6682133","HierDyac0s1z15","2ufgfxgetv","msl000300","motor","","75","img/motor_7.png","75","motor","7","36","1","0","0","",""
"null","","6682241","HierDyac0s1z15","2ufgfxgetv","msl000300","iti","","null","img/motor_7.png","75","motor","","","","","","",""
"628","","6682883","HierDyac0s1z15","2ufgfxgetv","msl000300","motor","","70","img/motor_4.png","70","motor","4","37","1","0","0","",""
"null","","6682998","HierDyac0s1z15","2ufgfxgetv","msl000300","iti","","null","img/motor_4.png","70","motor","","","","","","",""
"719","","6683725","HierDyac0s1z15","2ufgfxgetv","msl000300","motor","","83","img/motor_2.png","83","motor","2","38","1","0","0","",""
"null","","6683839","HierDyac0s1z15","2ufgfxgetv","msl000300","iti","","null","img/motor_2.png","83","motor","","","","","","",""
"573","","6684427","HierDyac0s1z15","2ufgfxgetv","msl000300","motor","","76","img/motor_8.png","76","motor","8","39","1","0","0","",""
"null","","6684536","HierDyac0s1z15","2ufgfxgetv","msl000300","iti","","null","img/motor_8.png","76","motor","","","","","","",""
"677","","6685227","HierDyac0s1z15","2ufgfxgetv","msl000300","motor","","68","img/motor_3.png","68","motor","3","40","1","0","0","",""
"null","","6685342","HierDyac0s1z15","2ufgfxgetv","msl000300","iti","","null","img/motor_3.png","68","motor","","","","","","",""
"575","","6685931","HierDyac0s1z15","2ufgfxgetv","msl000300","motor","","74","img/motor_6.png","74","motor","6","41","1","0","0","",""
"null","","6686046","HierDyac0s1z15","2ufgfxgetv","msl000300","iti","","null","img/motor_6.png","74","motor","","","","","","",""
"942","","6687003","HierDyac0s1z15","2ufgfxgetv","msl000300","motor","","68","img/motor_3.png","68","motor","3","42","1","0","0","",""
"null","","6687118","HierDyac0s1z15","2ufgfxgetv","msl000300","iti","","null","img/motor_3.png","68","motor","","","","","","",""
"758","","6687891","HierDyac0s1z15","2ufgfxgetv","msl000300","motor","","76","img/motor_8.png","76","motor","8","43","1","0","0","",""
"null","","6688000","HierDyac0s1z15","2ufgfxgetv","msl000300","iti","","null","img/motor_8.png","76","motor","","","","","","",""
"741","","6688755","HierDyac0s1z15","2ufgfxgetv","msl000300","motor","","75","img/motor_7.png","75","motor","7","44","1","0","0","",""
"null","","6688863","HierDyac0s1z15","2ufgfxgetv","msl000300","iti","","null","img/motor_7.png","75","motor","","","","","","",""
"621","","6689499","HierDyac0s1z15","2ufgfxgetv","msl000300","motor","","83","img/motor_2.png","83","motor","2","45","1","0","0","",""
"null","","6689608","HierDyac0s1z15","2ufgfxgetv","msl000300","iti","","null","img/motor_2.png","83","motor","","","","","","",""
"445","","6690067","HierDyac0s1z15","2ufgfxgetv","msl000300","motor","","65","img/motor_1.png","65","motor","1","46","1","0","0","",""
"null","","6690182","HierDyac0s1z15","2ufgfxgetv","msl000300","iti","","null","img/motor_1.png","65","motor","","","","","","",""
"604","","6690797","HierDyac0s1z15","2ufgfxgetv","msl000300","motor","","83","img/motor_2.png","83","motor","2","47","1","0","0","",""
"null","","6690911","HierDyac0s1z15","2ufgfxgetv","msl000300","iti","","null","img/motor_2.png","83","motor","","","","","","",""
"605","","6691531","HierDyac0s1z15","2ufgfxgetv","msl000300","motor","","75","img/motor_7.png","75","motor","7","48","1","0","0","",""
"null","","6691640","HierDyac0s1z15","2ufgfxgetv","msl000300","iti","","null","img/motor_7.png","75","motor","","","","","","",""
"469","","6692117","HierDyac0s1z15","2ufgfxgetv","msl000300","motor","","75","img/motor_7.png","75","motor","7","49","1","0","0","",""
"null","","6692231","HierDyac0s1z15","2ufgfxgetv","msl000300","iti","","null","img/motor_7.png","75","motor","","","","","","",""
"1364","","6693611","HierDyac0s1z15","2ufgfxgetv","msl000300","motor","","70","img/motor_4.png","70","motor","4","50","1","0","0","",""
"null","","6693720","HierDyac0s1z15","2ufgfxgetv","msl000300","iti","","null","img/motor_4.png","70","motor","","","","","","",""
"790","","6694517","HierDyac0s1z15","2ufgfxgetv","msl000300","motor","","72","img/motor_5.png","72","motor","5","51","1","0","0","",""
"null","","6694625","HierDyac0s1z15","2ufgfxgetv","msl000300","iti","","null","img/motor_5.png","72","motor","","","","","","",""
"740","","6695379","HierDyac0s1z15","2ufgfxgetv","msl000300","motor","","68","img/motor_3.png","68","motor","3","52","1","0","0","",""
"null","","6695494","HierDyac0s1z15","2ufgfxgetv","msl000300","iti","","null","img/motor_3.png","68","motor","","","","","","",""
"774","","6696277","HierDyac0s1z15","2ufgfxgetv","msl000300","motor","","70","img/motor_4.png","70","motor","4","53","1","0","0","",""
"null","","6696385","HierDyac0s1z15","2ufgfxgetv","msl000300","iti","","null","img/motor_4.png","70","motor","","","","","","",""
"389","","6696781","HierDyac0s1z15","2ufgfxgetv","msl000300","motor","","70","img/motor_4.png","70","motor","4","54","1","0","0","",""
"null","","6696889","HierDyac0s1z15","2ufgfxgetv","msl000300","iti","","null","img/motor_4.png","70","motor","","","","","","",""
"588","","6697485","HierDyac0s1z15","2ufgfxgetv","msl000300","motor","","83","img/motor_2.png","83","motor","2","55","1","0","0","",""
"null","","6697593","HierDyac0s1z15","2ufgfxgetv","msl000300","iti","","null","img/motor_2.png","83","motor","","","","","","",""
"917","","6698517","HierDyac0s1z15","2ufgfxgetv","msl000300","motor","","76","img/motor_8.png","76","motor","8","56","1","0","0","",""
"null","","6698631","HierDyac0s1z15","2ufgfxgetv","msl000300","iti","","null","img/motor_8.png","76","motor","","","","","","",""
"1237","","6699877","HierDyac0s1z15","2ufgfxgetv","msl000300","motor","","68","img/motor_3.png","68","motor","3","57","1","0","0","",""
"null","","6699985","HierDyac0s1z15","2ufgfxgetv","msl000300","iti","","null","img/motor_3.png","68","motor","","","","","","",""
"693","","6700685","HierDyac0s1z15","2ufgfxgetv","msl000300","motor","","75","img/motor_7.png","75","motor","7","58","1","0","0","",""
"null","","6700793","HierDyac0s1z15","2ufgfxgetv","msl000300","iti","","null","img/motor_7.png","75","motor","","","","","","",""
"740","","6701540","HierDyac0s1z15","2ufgfxgetv","msl000300","motor","","74","img/motor_6.png","74","motor","6","59","1","0","0","",""
"null","","6701649","HierDyac0s1z15","2ufgfxgetv","msl000300","iti","","null","img/motor_6.png","74","motor","","","","","","",""
"692","","6702349","HierDyac0s1z15","2ufgfxgetv","msl000300","motor","","72","img/motor_5.png","72","motor","5","60","1","0","0","",""
"null","","6702457","HierDyac0s1z15","2ufgfxgetv","msl000300","iti","","null","img/motor_5.png","72","motor","","","","","","",""
"708","","6703173","HierDyac0s1z15","2ufgfxgetv","msl000300","motor","","68","img/motor_3.png","68","motor","3","61","1","0","0","",""
"null","","6703287","HierDyac0s1z15","2ufgfxgetv","msl000300","iti","","null","img/motor_3.png","68","motor","","","","","","",""
"613","","6703909","HierDyac0s1z15","2ufgfxgetv","msl000300","motor","","70","img/motor_4.png","70","motor","4","62","1","0","0","",""
"null","","6704017","HierDyac0s1z15","2ufgfxgetv","msl000300","iti","","null","img/motor_4.png","70","motor","","","","","","",""
"764","","6704796","HierDyac0s1z15","2ufgfxgetv","msl000300","motor","","76","img/motor_8.png","76","motor","8","63","1","0","0","",""
"null","","6704904","HierDyac0s1z15","2ufgfxgetv","msl000300","iti","","null","img/motor_8.png","76","motor","","","","","","",""
"685","","6705597","HierDyac0s1z15","2ufgfxgetv","msl000300","motor","","74","img/motor_6.png","74","motor","6","64","1","0","0","",""
"null","","6705706","HierDyac0s1z15","2ufgfxgetv","msl000300","iti","","null","img/motor_6.png","74","motor","","","","","","",""
"675","","6706389","HierDyac0s1z15","2ufgfxgetv","msl000300","motor","","76","img/motor_8.png","76","motor","8","65","1","0","0","",""
"null","","6706503","HierDyac0s1z15","2ufgfxgetv","msl000300","iti","","null","img/motor_8.png","76","motor","","","","","","",""
"692","","6707212","HierDyac0s1z15","2ufgfxgetv","msl000300","motor","","72","img/motor_5.png","72","motor","5","66","1","0","0","",""
"null","","6707326","HierDyac0s1z15","2ufgfxgetv","msl000300","iti","","null","img/motor_5.png","72","motor","","","","","","",""
"590","","6707926","HierDyac0s1z15","2ufgfxgetv","msl000300","motor","","76","img/motor_8.png","76","motor","8","67","1","0","0","",""
"null","","6708034","HierDyac0s1z15","2ufgfxgetv","msl000300","iti","","null","img/motor_8.png","76","motor","","","","","","",""
"580","","6708621","HierDyac0s1z15","2ufgfxgetv","msl000300","motor","","76","img/motor_8.png","76","motor","8","68","1","0","0","",""
"null","","6708729","HierDyac0s1z15","2ufgfxgetv","msl000300","iti","","null","img/motor_8.png","76","motor","","","","","","",""
"660","","6709397","HierDyac0s1z15","2ufgfxgetv","msl000300","motor","","83","img/motor_2.png","83","motor","2","69","1","0","0","",""
"null","","6709511","HierDyac0s1z15","2ufgfxgetv","msl000300","iti","","null","img/motor_2.png","83","motor","","","","","","",""
"750","","6710276","HierDyac0s1z15","2ufgfxgetv","msl000300","motor","","72","img/motor_5.png","72","motor","5","70","1","0","0","",""
"null","","6710390","HierDyac0s1z15","2ufgfxgetv","msl000300","iti","","null","img/motor_5.png","72","motor","","","","","","",""
"719","","6711117","HierDyac0s1z15","2ufgfxgetv","msl000300","motor","","74","img/motor_6.png","74","motor","6","71","1","0","0","",""
"null","","6711231","HierDyac0s1z15","2ufgfxgetv","msl000300","iti","","null","img/motor_6.png","74","motor","","","","","","",""
"606","","6711852","HierDyac0s1z15","2ufgfxgetv","msl000300","motor","","65","img/motor_1.png","65","motor","1","72","1","0","0","",""
"null","","6711959","HierDyac0s1z15","2ufgfxgetv","msl000300","iti","","null","img/motor_1.png","65","motor","","","","","","",""
"550","","6712517","HierDyac0s1z15","2ufgfxgetv","msl000300","motor","","70","img/motor_4.png","70","motor","4","73","1","0","0","",""
"null","","6712631","HierDyac0s1z15","2ufgfxgetv","msl000300","iti","","null","img/motor_4.png","70","motor","","","","","","",""
"598","","6713244","HierDyac0s1z15","2ufgfxgetv","msl000300","motor","","83","img/motor_2.png","83","motor","2","74","1","0","0","",""
"null","","6713352","HierDyac0s1z15","2ufgfxgetv","msl000300","iti","","null","img/motor_2.png","83","motor","","","","","","",""
"405","","6713772","HierDyac0s1z15","2ufgfxgetv","msl000300","motor","","83","img/motor_2.png","83","motor","2","75","1","0","0","",""
"null","","6713880","HierDyac0s1z15","2ufgfxgetv","msl000300","iti","","null","img/motor_2.png","83","motor","","","","","","",""
"653","","6714541","HierDyac0s1z15","2ufgfxgetv","msl000300","motor","","76","img/motor_8.png","76","motor","8","76","1","0","0","",""
"null","","6714649","HierDyac0s1z15","2ufgfxgetv","msl000300","iti","","null","img/motor_8.png","76","motor","","","","","","",""
"700","","6715357","HierDyac0s1z15","2ufgfxgetv","msl000300","motor","","68","img/motor_3.png","68","motor","3","77","1","0","0","",""
"null","","6715471","HierDyac0s1z15","2ufgfxgetv","msl000300","iti","","null","img/motor_3.png","68","motor","","","","","","",""
"341","","6715821","HierDyac0s1z15","2ufgfxgetv","msl000300","motor","","68","img/motor_3.png","68","motor","3","78","1","0","0","",""
"null","","6715929","HierDyac0s1z15","2ufgfxgetv","msl000300","iti","","null","img/motor_3.png","68","motor","","","","","","",""
"685","","6716620","HierDyac0s1z15","2ufgfxgetv","msl000300","motor","","72","img/motor_5.png","72","motor","5","79","1","0","0","",""
"null","","6716728","HierDyac0s1z15","2ufgfxgetv","msl000300","iti","","null","img/motor_5.png","72","motor","","","","","","",""
"573","","6717309","HierDyac0s1z15","2ufgfxgetv","msl000300","motor","","75","img/motor_7.png","75","motor","7","80","1","0","0","",""
"null","","6717417","HierDyac0s1z15","2ufgfxgetv","msl000300","iti","","null","img/motor_7.png","75","motor","","","","","","",""
"363","","6717788","HierDyac0s1z15","2ufgfxgetv","msl000300","motor","","75","img/motor_7.png","75","motor","7","81","1","0","0","",""
"null","","6717903","HierDyac0s1z15","2ufgfxgetv","msl000300","iti","","null","img/motor_7.png","75","motor","","","","","","",""
"558","","6718469","HierDyac0s1z15","2ufgfxgetv","msl000300","motor","","76","img/motor_8.png","76","motor","8","82","1","0","0","",""
"null","","6718584","HierDyac0s1z15","2ufgfxgetv","msl000300","iti","","null","img/motor_8.png","76","motor","","","","","","",""
"541","","6719133","HierDyac0s1z15","2ufgfxgetv","msl000300","motor","","65","img/motor_1.png","65","motor","1","83","1","0","0","",""
"null","","6719248","HierDyac0s1z15","2ufgfxgetv","msl000300","iti","","null","img/motor_1.png","65","motor","","","","","","",""
"692","","6719949","HierDyac0s1z15","2ufgfxgetv","msl000300","motor","","72","img/motor_5.png","72","motor","5","84","1","0","0","",""
"null","","6720058","HierDyac0s1z15","2ufgfxgetv","msl000300","iti","","null","img/motor_5.png","72","motor","","","","","","",""
"516","","6720587","HierDyac0s1z15","2ufgfxgetv","msl000300","motor","","74","img/motor_6.png","74","motor","6","85","1","0","0","",""
"null","","6720696","HierDyac0s1z15","2ufgfxgetv","msl000300","iti","","null","img/motor_6.png","74","motor","","","","","","",""
"701","","6721405","HierDyac0s1z15","2ufgfxgetv","msl000300","motor","","70","img/motor_4.png","70","motor","4","86","1","0","0","",""
"null","","6721519","HierDyac0s1z15","2ufgfxgetv","msl000300","iti","","null","img/motor_4.png","70","motor","","","","","","",""
"590","","6722125","HierDyac0s1z15","2ufgfxgetv","msl000300","motor","","74","img/motor_6.png","74","motor","6","87","1","0","0","",""
"null","","6722239","HierDyac0s1z15","2ufgfxgetv","msl000300","iti","","null","img/motor_6.png","74","motor","","","","","","",""
"486","","6722740","HierDyac0s1z15","2ufgfxgetv","msl000300","motor","","75","img/motor_7.png","75","motor","7","88","1","0","0","",""
"null","","6722855","HierDyac0s1z15","2ufgfxgetv","msl000300","iti","","null","img/motor_7.png","75","motor","","","","","","",""
"670","","6723532","HierDyac0s1z15","2ufgfxgetv","msl000300","motor","","65","img/motor_1.png","65","motor","1","89","1","0","0","",""
"null","","6723640","HierDyac0s1z15","2ufgfxgetv","msl000300","iti","","null","img/motor_1.png","65","motor","","","","","","",""
"493","","6724148","HierDyac0s1z15","2ufgfxgetv","msl000300","motor","","70","img/motor_4.png","70","motor","4","90","1","0","0","",""
"null","","6724257","HierDyac0s1z15","2ufgfxgetv","msl000300","iti","","null","img/motor_4.png","70","motor","","","","","","",""
"734","","6724997","HierDyac0s1z15","2ufgfxgetv","msl000300","motor","","72","img/motor_5.png","72","motor","5","91","1","0","0","",""
"null","","6725105","HierDyac0s1z15","2ufgfxgetv","msl000300","iti","","null","img/motor_5.png","72","motor","","","","","","",""
"619","","6725733","HierDyac0s1z15","2ufgfxgetv","msl000300","motor","","76","img/motor_8.png","76","motor","8","92","1","0","0","",""
"null","","6725841","HierDyac0s1z15","2ufgfxgetv","msl000300","iti","","null","img/motor_8.png","76","motor","","","","","","",""
"667","","6726517","HierDyac0s1z15","2ufgfxgetv","msl000300","motor","","74","img/motor_6.png","74","motor","6","93","1","0","0","",""
"null","","6726632","HierDyac0s1z15","2ufgfxgetv","msl000300","iti","","null","img/motor_6.png","74","motor","","","","","","",""
"781","","6727420","HierDyac0s1z15","2ufgfxgetv","msl000300","motor","","83","img/motor_2.png","83","motor","2","94","1","0","0","",""
"null","","6727529","HierDyac0s1z15","2ufgfxgetv","msl000300","iti","","null","img/motor_2.png","83","motor","","","","","","",""
"876","","6728420","HierDyac0s1z15","2ufgfxgetv","msl000300","motor","","74","img/motor_6.png","74","motor","6","95","1","0","0","",""
"null","","6728534","HierDyac0s1z15","2ufgfxgetv","msl000300","iti","","null","img/motor_6.png","74","motor","","","","","","",""
"718","","6729261","HierDyac0s1z15","2ufgfxgetv","msl000300","motor","","70","img/motor_4.png","70","motor","4","96","1","0","0","",""
"null","","6729376","HierDyac0s1z15","2ufgfxgetv","msl000300","iti","","null","img/motor_4.png","70","motor","","","","","","",""
"700","","6730091","HierDyac0s1z15","2ufgfxgetv","msl000300","motor","","74","img/motor_6.png","74","motor","6","97","1","0","0","",""
"null","","6730201","HierDyac0s1z15","2ufgfxgetv","msl000300","iti","","null","img/motor_6.png","74","motor","","","","","","",""
"717","","6730925","HierDyac0s1z15","2ufgfxgetv","msl000300","motor","","68","img/motor_3.png","68","motor","3","98","1","0","0","",""
"null","","6731034","HierDyac0s1z15","2ufgfxgetv","msl000300","iti","","null","img/motor_3.png","68","motor","","","","","","",""
"444","","6731491","HierDyac0s1z15","2ufgfxgetv","msl000300","motor","","68","img/motor_3.png","68","motor","3","99","1","0","0","",""
"null","","6731607","HierDyac0s1z15","2ufgfxgetv","msl000300","iti","","null","img/motor_3.png","68","motor","","","","","","",""
"693","","6732316","HierDyac0s1z15","2ufgfxgetv","msl000300","motor","","72","img/motor_5.png","72","motor","5","100","1","0","0","",""
"null","","6732431","HierDyac0s1z15","2ufgfxgetv","msl000300","iti","","null","img/motor_5.png","72","motor","","","","","","",""
"870","","6733316","HierDyac0s1z15","2ufgfxgetv","msl000300","motor","","65","img/motor_1.png","65","motor","1","101","1","0","0","",""
"null","","6733431","HierDyac0s1z15","2ufgfxgetv","msl000300","iti","","null","img/motor_1.png","65","motor","","","","","","",""
"919","","6734363","HierDyac0s1z15","2ufgfxgetv","msl000300","motor","","74","img/motor_6.png","74","motor","6","102","1","0","0","",""
"null","","6734472","HierDyac0s1z15","2ufgfxgetv","msl000300","iti","","null","img/motor_6.png","74","motor","","","","","","",""
"629","","6735109","HierDyac0s1z15","2ufgfxgetv","msl000300","motor","","70","img/motor_4.png","70","motor","4","103","1","0","0","",""
"null","","6735224","HierDyac0s1z15","2ufgfxgetv","msl000300","iti","","null","img/motor_4.png","70","motor","","","","","","",""
"589","","6735828","HierDyac0s1z15","2ufgfxgetv","msl000300","motor","","68","img/motor_3.png","68","motor","3","104","1","0","0","",""
"null","","6735936","HierDyac0s1z15","2ufgfxgetv","msl000300","iti","","null","img/motor_3.png","68","motor","","","","","","",""
"629","","6736580","HierDyac0s1z15","2ufgfxgetv","msl000300","motor","","76","img/motor_8.png","76","motor","8","105","1","0","0","",""
"null","","6736689","HierDyac0s1z15","2ufgfxgetv","msl000300","iti","","null","img/motor_8.png","76","motor","","","","","","",""
"548","","6737251","HierDyac0s1z15","2ufgfxgetv","msl000300","motor","","74","img/motor_6.png","74","motor","6","106","1","0","0","",""
"null","","6737366","HierDyac0s1z15","2ufgfxgetv","msl000300","iti","","null","img/motor_6.png","74","motor","","","","","","",""
"607","","6737981","HierDyac0s1z15","2ufgfxgetv","msl000300","motor","","70","img/motor_4.png","70","motor","4","107","1","0","0","",""
"null","","6738096","HierDyac0s1z15","2ufgfxgetv","msl000300","iti","","null","img/motor_4.png","70","motor","","","","","","",""
"596","","6738708","HierDyac0s1z15","2ufgfxgetv","msl000300","motor","","72","img/motor_5.png","72","motor","5","108","1","0","0","",""
"null","","6738817","HierDyac0s1z15","2ufgfxgetv","msl000300","iti","","null","img/motor_5.png","72","motor","","","","","","",""
"621","","6739445","HierDyac0s1z15","2ufgfxgetv","msl000300","motor","","74","img/motor_6.png","74","motor","6","109","1","0","0","",""
"null","","6739559","HierDyac0s1z15","2ufgfxgetv","msl000300","iti","","null","img/motor_6.png","74","motor","","","","","","",""
"581","","6740149","HierDyac0s1z15","2ufgfxgetv","msl000300","motor","","70","img/motor_4.png","70","motor","4","110","1","0","0","",""
"null","","6740258","HierDyac0s1z15","2ufgfxgetv","msl000300","iti","","null","img/motor_4.png","70","motor","","","","","","",""
"1043","","6741309","HierDyac0s1z15","2ufgfxgetv","msl000300","motor","","74","img/motor_6.png","74","motor","6","111","1","0","0","",""
"null","","6741423","HierDyac0s1z15","2ufgfxgetv","msl000300","iti","","null","img/motor_6.png","74","motor","","","","","","",""
"646","","6742077","HierDyac0s1z15","2ufgfxgetv","msl000300","motor","","75","img/motor_7.png","75","motor","7","112","1","0","0","",""
"null","","6742191","HierDyac0s1z15","2ufgfxgetv","msl000300","iti","","null","img/motor_7.png","75","motor","","","","","","",""
"653","","6742854","HierDyac0s1z15","2ufgfxgetv","msl000300","motor","","70","img/motor_4.png","70","motor","4","113","1","0","0","",""
"null","","6742962","HierDyac0s1z15","2ufgfxgetv","msl000300","iti","","null","img/motor_4.png","70","motor","","","","","","",""
"571","","6743541","HierDyac0s1z15","2ufgfxgetv","msl000300","motor","","72","img/motor_5.png","72","motor","5","114","1","0","0","",""
"null","","6743649","HierDyac0s1z15","2ufgfxgetv","msl000300","iti","","null","img/motor_5.png","72","motor","","","","","","",""
"788","","6744452","HierDyac0s1z15","2ufgfxgetv","msl000300","motor","","76","img/motor_8.png","76","motor","8","115","1","0","0","",""
"null","","6744561","HierDyac0s1z15","2ufgfxgetv","msl000300","iti","","null","img/motor_8.png","76","motor","","","","","","",""
"732","","6745308","HierDyac0s1z15","2ufgfxgetv","msl000300","motor","","83","img/motor_2.png","83","motor","2","116","1","0","0","",""
"null","","6745417","HierDyac0s1z15","2ufgfxgetv","msl000300","iti","","null","img/motor_2.png","83","motor","","","","","","",""
"851","","6746276","HierDyac0s1z15","2ufgfxgetv","msl000300","motor","","72","img/motor_5.png","72","motor","5","117","1","0","0","",""
"null","","6746385","HierDyac0s1z15","2ufgfxgetv","msl000300","iti","","null","img/motor_5.png","72","motor","","","","","","",""
"670","","6747068","HierDyac0s1z15","2ufgfxgetv","msl000300","motor","","83","img/motor_2.png","83","motor","2","118","1","0","0","",""
"null","","6747182","HierDyac0s1z15","2ufgfxgetv","msl000300","iti","","null","img/motor_2.png","83","motor","","","","","","",""
"606","","6747798","HierDyac0s1z15","2ufgfxgetv","msl000300","motor","","72","img/motor_5.png","72","motor","5","119","1","0","0","",""
"null","","6747906","HierDyac0s1z15","2ufgfxgetv","msl000300","iti","","null","img/motor_5.png","72","motor","","","","","","",""
"610","","6748532","HierDyac0s1z15","2ufgfxgetv","msl000300","motor","","65","img/motor_1.png","65","motor","1","120","1","0","0","",""
"null","","6748647","HierDyac0s1z15","2ufgfxgetv","msl000300","iti","","null","img/motor_1.png","65","motor","","","","","","",""
"727","","6749381","HierDyac0s1z15","2ufgfxgetv","msl000300","motor","","75","img/motor_7.png","75","motor","7","121","1","0","0","",""
"null","","6749496","HierDyac0s1z15","2ufgfxgetv","msl000300","iti","","null","img/motor_7.png","75","motor","","","","","","",""
"638","","6750142","HierDyac0s1z15","2ufgfxgetv","msl000300","motor","","74","img/motor_6.png","74","motor","6","122","1","0","0","",""
"null","","6750250","HierDyac0s1z15","2ufgfxgetv","msl000300","iti","","null","img/motor_6.png","74","motor","","","","","","",""
"627","","6750892","HierDyac0s1z15","2ufgfxgetv","msl000300","motor","","70","img/motor_4.png","70","motor","4","123","1","0","0","",""
"null","","6751007","HierDyac0s1z15","2ufgfxgetv","msl000300","iti","","null","img/motor_4.png","70","motor","","","","","","",""
"558","","6751580","HierDyac0s1z15","2ufgfxgetv","msl000300","motor","","68","img/motor_3.png","68","motor","3","124","1","0","0","",""
"null","","6751689","HierDyac0s1z15","2ufgfxgetv","msl000300","iti","","null","img/motor_3.png","68","motor","","","","","","",""
"508","","6752212","HierDyac0s1z15","2ufgfxgetv","msl000300","motor","","65","img/motor_1.png","65","motor","1","125","1","0","0","",""
"null","","6752327","HierDyac0s1z15","2ufgfxgetv","msl000300","iti","","null","img/motor_1.png","65","motor","","","","","","",""
"445","","6752788","HierDyac0s1z15","2ufgfxgetv","msl000300","motor","","83","img/motor_2.png","83","motor","2","126","1","0","0","",""
"null","","6752903","HierDyac0s1z15","2ufgfxgetv","msl000300","iti","","null","img/motor_2.png","83","motor","","","","","","",""
"494","","6753412","HierDyac0s1z15","2ufgfxgetv","msl000300","motor","","65","img/motor_1.png","65","motor","1","127","1","0","0","",""
"null","","6753520","HierDyac0s1z15","2ufgfxgetv","msl000300","iti","","null","img/motor_1.png","65","motor","","","","","","",""
"605","","6754140","HierDyac0s1z15","2ufgfxgetv","msl000300","motor","","70","img/motor_4.png","70","motor","4","128","1","0","0","",""
"null","","6754249","HierDyac0s1z15","2ufgfxgetv","msl000300","iti","","null","img/motor_4.png","70","motor","","","","","","",""
"637","","6754893","HierDyac0s1z15","2ufgfxgetv","msl000300","motor","","68","img/motor_3.png","68","motor","3","129","1","0","0","",""
"null","","6755008","HierDyac0s1z15","2ufgfxgetv","msl000300","iti","","null","img/motor_3.png","68","motor","","","","","","",""
"1365","","6756382","HierDyac0s1z15","2ufgfxgetv","msl000300","motor","","75","img/motor_7.png","75","motor","7","130","1","0","0","",""
"null","","6756496","HierDyac0s1z15","2ufgfxgetv","msl000300","iti","","null","img/motor_7.png","75","motor","","","","","","",""
"861","","6757366","HierDyac0s1z15","2ufgfxgetv","msl000300","motor","","65","img/motor_1.png","65","motor","1","131","1","0","0","",""
"null","","6757481","HierDyac0s1z15","2ufgfxgetv","msl000300","iti","","null","img/motor_1.png","65","motor","","","","","","",""
"413","","6757902","HierDyac0s1z15","2ufgfxgetv","msl000300","motor","","65","img/motor_1.png","65","motor","1","132","1","0","0","",""
"null","","6758017","HierDyac0s1z15","2ufgfxgetv","msl000300","iti","","null","img/motor_1.png","65","motor","","","","","","",""
"509","","6758533","HierDyac0s1z15","2ufgfxgetv","msl000300","motor","","70","img/motor_4.png","70","motor","4","133","1","0","0","",""
"null","","6758641","HierDyac0s1z15","2ufgfxgetv","msl000300","iti","","null","img/motor_4.png","70","motor","","","","","","",""
"356","","6759006","HierDyac0s1z15","2ufgfxgetv","msl000300","motor","","70","img/motor_4.png","70","motor","4","134","1","0","0","",""
"null","","6759120","HierDyac0s1z15","2ufgfxgetv","msl000300","iti","","null","img/motor_4.png","70","motor","","","","","","",""
"685","","6759820","HierDyac0s1z15","2ufgfxgetv","msl000300","motor","","75","img/motor_7.png","75","motor","7","135","1","0","0","",""
"null","","6759935","HierDyac0s1z15","2ufgfxgetv","msl000300","iti","","null","img/motor_7.png","75","motor","","","","","","",""
"614","","6760557","HierDyac0s1z15","2ufgfxgetv","msl000300","motor","","72","img/motor_5.png","72","motor","5","136","1","0","0","",""
"null","","6760671","HierDyac0s1z15","2ufgfxgetv","msl000300","iti","","null","img/motor_5.png","72","motor","","","","","","",""
"573","","6761253","HierDyac0s1z15","2ufgfxgetv","msl000300","motor","","70","img/motor_4.png","70","motor","4","137","1","0","0","",""
"null","","6761368","HierDyac0s1z15","2ufgfxgetv","msl000300","iti","","null","img/motor_4.png","70","motor","","","","","","",""
"637","","6762013","HierDyac0s1z15","2ufgfxgetv","msl000300","motor","","76","img/motor_8.png","76","motor","8","138","1","0","0","",""
"null","","6762121","HierDyac0s1z15","2ufgfxgetv","msl000300","iti","","null","img/motor_8.png","76","motor","","","","","","",""
"685","","6762820","HierDyac0s1z15","2ufgfxgetv","msl000300","motor","","68","img/motor_3.png","68","motor","3","139","1","0","0","",""
"null","","6762928","HierDyac0s1z15","2ufgfxgetv","msl000300","iti","","null","img/motor_3.png","68","motor","","","","","","",""
"517","","6763452","HierDyac0s1z15","2ufgfxgetv","msl000300","motor","","70","img/motor_4.png","70","motor","4","140","1","0","0","",""
"null","","6763561","HierDyac0s1z15","2ufgfxgetv","msl000300","iti","","null","img/motor_4.png","70","motor","","","","","","",""
"620","","6764189","HierDyac0s1z15","2ufgfxgetv","msl000300","motor","","74","img/motor_6.png","74","motor","6","141","1","0","0","",""
"null","","6764303","HierDyac0s1z15","2ufgfxgetv","msl000300","iti","","null","img/motor_6.png","74","motor","","","","","","",""
"406","","6764724","HierDyac0s1z15","2ufgfxgetv","msl000300","motor","","75","img/motor_7.png","75","motor","7","142","1","0","0","",""
"null","","6764832","HierDyac0s1z15","2ufgfxgetv","msl000300","iti","","null","img/motor_7.png","75","motor","","","","","","",""
"533","","6765374","HierDyac0s1z15","2ufgfxgetv","msl000300","motor","","65","img/motor_1.png","65","motor","1","143","1","0","0","",""
"null","","6765488","HierDyac0s1z15","2ufgfxgetv","msl000300","iti","","null","img/motor_1.png","65","motor","","","","","","",""
"605","","6766102","HierDyac0s1z15","2ufgfxgetv","msl000300","motor","","72","img/motor_5.png","72","motor","5","144","1","0","0","",""
"null","","6766216","HierDyac0s1z15","2ufgfxgetv","msl000300","iti","","null","img/motor_5.png","72","motor","","","","","","",""
"716","","6766941","HierDyac0s1z15","2ufgfxgetv","msl000300","motor","","83","img/motor_2.png","83","motor","2","145","1","0","0","",""
"null","","6767056","HierDyac0s1z15","2ufgfxgetv","msl000300","iti","","null","img/motor_2.png","83","motor","","","","","","",""
"541","","6767612","HierDyac0s1z15","2ufgfxgetv","msl000300","motor","","70","img/motor_4.png","70","motor","4","146","1","0","0","",""
"null","","6767721","HierDyac0s1z15","2ufgfxgetv","msl000300","iti","","null","img/motor_4.png","70","motor","","","","","","",""
"541","","6768270","HierDyac0s1z15","2ufgfxgetv","msl000300","motor","","68","img/motor_3.png","68","motor","3","147","1","0","0","",""
"null","","6768378","HierDyac0s1z15","2ufgfxgetv","msl000300","iti","","null","img/motor_3.png","68","motor","","","","","","",""
"620","","6769005","HierDyac0s1z15","2ufgfxgetv","msl000300","motor","","74","img/motor_6.png","74","motor","6","148","1","0","0","",""
"null","","6769120","HierDyac0s1z15","2ufgfxgetv","msl000300","iti","","null","img/motor_6.png","74","motor","","","","","","",""
"421","","6769556","HierDyac0s1z15","2ufgfxgetv","msl000300","motor","","74","img/motor_6.png","74","motor","6","149","1","0","0","",""
"null","","6769671","HierDyac0s1z15","2ufgfxgetv","msl000300","iti","","null","img/motor_6.png","74","motor","","","","","","",""
"726","","6770413","HierDyac0s1z15","2ufgfxgetv","msl000300","motor","","83","img/motor_2.png","83","motor","2","150","1","0","0","",""
"null","","6770528","HierDyac0s1z15","2ufgfxgetv","msl000300","iti","","null","img/motor_2.png","83","motor","","","","","","",""
"588","","6771125","HierDyac0s1z15","2ufgfxgetv","msl000300","motor","","74","img/motor_6.png","74","motor","6","151","1","0","0","",""
"null","","6771239","HierDyac0s1z15","2ufgfxgetv","msl000300","iti","","null","img/motor_6.png","74","motor","","","","","","",""
"846","","6772093","HierDyac0s1z15","2ufgfxgetv","msl000300","motor","","65","img/motor_1.png","65","motor","1","152","1","0","0","",""
"null","","6772208","HierDyac0s1z15","2ufgfxgetv","msl000300","iti","","null","img/motor_1.png","65","motor","","","","","","",""
"661","","6772884","HierDyac0s1z15","2ufgfxgetv","msl000300","motor","","75","img/motor_7.png","75","motor","7","153","1","0","0","",""
"null","","6773000","HierDyac0s1z15","2ufgfxgetv","msl000300","iti","","null","img/motor_7.png","75","motor","","","","","","",""
"637","","6773644","HierDyac0s1z15","2ufgfxgetv","msl000300","motor","","74","img/motor_6.png","74","motor","6","154","1","0","0","",""
"null","","6773759","HierDyac0s1z15","2ufgfxgetv","msl000300","iti","","null","img/motor_6.png","74","motor","","","","","","",""
"598","","6774365","HierDyac0s1z15","2ufgfxgetv","msl000300","motor","","68","img/motor_3.png","68","motor","3","155","1","0","0","",""
"null","","6774479","HierDyac0s1z15","2ufgfxgetv","msl000300","iti","","null","img/motor_3.png","68","motor","","","","","","",""
"413","","6774909","HierDyac0s1z15","2ufgfxgetv","msl000300","motor","","68","img/motor_3.png","68","motor","3","156","1","0","0","",""
"null","","6775024","HierDyac0s1z15","2ufgfxgetv","msl000300","iti","","null","img/motor_3.png","68","motor","","","","","","",""
"998","","6776036","HierDyac0s1z15","2ufgfxgetv","msl000300","motor","","83","img/motor_2.png","83","motor","2","157","1","0","0","",""
"null","","6776145","HierDyac0s1z15","2ufgfxgetv","msl000300","iti","","null","img/motor_2.png","83","motor","","","","","","",""
"781","","6776933","HierDyac0s1z15","2ufgfxgetv","msl000300","motor","","76","img/motor_8.png","76","motor","8","158","1","0","0","",""
"null","","6777042","HierDyac0s1z15","2ufgfxgetv","msl000300","iti","","null","img/motor_8.png","76","motor","","","","","","",""
"636","","6777692","HierDyac0s1z15","2ufgfxgetv","msl000300","motor","","75","img/motor_7.png","75","motor","7","159","1","0","0","",""
"null","","6777807","HierDyac0s1z15","2ufgfxgetv","msl000300","iti","","null","img/motor_7.png","75","motor","","","","","","",""
"774","","6778589","HierDyac0s1z15","2ufgfxgetv","msl000300","motor","","72","img/motor_5.png","72","motor","5","160","1","0","0","",""
"null","","6778705","HierDyac0s1z15","2ufgfxgetv","msl000300","iti","","null","img/motor_5.png","72","motor","","","","","","",""
"533","","6779245","HierDyac0s1z15","2ufgfxgetv","msl000300","motor","","65","img/motor_1.png","65","motor","1","161","1","0","0","",""
"null","","6779354","HierDyac0s1z15","2ufgfxgetv","msl000300","iti","","null","img/motor_1.png","65","motor","","","","","","",""
"715","","6780078","HierDyac0s1z15","2ufgfxgetv","msl000300","motor","","75","img/motor_7.png","75","motor","7","162","1","0","0","",""
"null","","6780192","HierDyac0s1z15","2ufgfxgetv","msl000300","iti","","null","img/motor_7.png","75","motor","","","","","","",""
"501","","6780701","HierDyac0s1z15","2ufgfxgetv","msl000300","motor","","74","img/motor_6.png","74","motor","6","163","1","0","0","",""
"null","","6780815","HierDyac0s1z15","2ufgfxgetv","msl000300","iti","","null","img/motor_6.png","74","motor","","","","","","",""
"476","","6781301","HierDyac0s1z15","2ufgfxgetv","msl000300","motor","","72","img/motor_5.png","72","motor","5","164","1","0","0","",""
"null","","6781417","HierDyac0s1z15","2ufgfxgetv","msl000300","iti","","null","img/motor_5.png","72","motor","","","","","","",""
"573","","6781998","HierDyac0s1z15","2ufgfxgetv","msl000300","motor","","68","img/motor_3.png","68","motor","3","165","1","0","0","",""
"null","","6782112","HierDyac0s1z15","2ufgfxgetv","msl000300","iti","","null","img/motor_3.png","68","motor","","","","","","",""
"676","","6782796","HierDyac0s1z15","2ufgfxgetv","msl000300","motor","","74","img/motor_6.png","74","motor","6","166","1","0","0","",""
"null","","6782912","HierDyac0s1z15","2ufgfxgetv","msl000300","iti","","null","img/motor_6.png","74","motor","","","","","","",""
"550","","6783470","HierDyac0s1z15","2ufgfxgetv","msl000300","motor","","72","img/motor_5.png","72","motor","5","167","1","0","0","",""
"null","","6783579","HierDyac0s1z15","2ufgfxgetv","msl000300","iti","","null","img/motor_5.png","72","motor","","","","","","",""
"522","","6784116","HierDyac0s1z15","2ufgfxgetv","msl000300","motor","","75","img/motor_7.png","75","motor","7","168","1","0","0","",""
"null","","6784225","HierDyac0s1z15","2ufgfxgetv","msl000300","iti","","null","img/motor_7.png","75","motor","","","","","","",""
"500","","6784733","HierDyac0s1z15","2ufgfxgetv","msl000300","motor","","76","img/motor_3.png","68","motor","3","169","0","1","0","",""
"704","","6785452","HierDyac0s1z15","2ufgfxgetv","msl000300","motorRepeat","","83","img/motor_3.png","68","motor","3","169","0","1","0","",""
"313","","6785780","HierDyac0s1z15","2ufgfxgetv","msl000300","motorRepeat","","68","img/motor_3.png","68","motor","3","169","1","0","0","",""
"null","","6785896","HierDyac0s1z15","2ufgfxgetv","msl000300","iti","","null","img/motor_3.png","68","motor","","","","","","",""
"1653","","6787558","HierDyac0s1z15","2ufgfxgetv","msl000300","motor","","76","img/motor_8.png","76","motor","8","170","1","0","0","",""
"null","","6787666","HierDyac0s1z15","2ufgfxgetv","msl000300","iti","","null","img/motor_8.png","76","motor","","","","","","",""
"580","","6788260","HierDyac0s1z15","2ufgfxgetv","msl000300","motor","","74","img/motor_6.png","74","motor","6","171","1","0","0","",""
"null","","6788375","HierDyac0s1z15","2ufgfxgetv","msl000300","iti","","null","img/motor_6.png","74","motor","","","","","","",""
"573","","6788958","HierDyac0s1z15","2ufgfxgetv","msl000300","motor","","76","img/motor_8.png","76","motor","8","172","1","0","0","",""
"null","","6789072","HierDyac0s1z15","2ufgfxgetv","msl000300","iti","","null","img/motor_8.png","76","motor","","","","","","",""
"566","","6789652","HierDyac0s1z15","2ufgfxgetv","msl000300","motor","","72","img/motor_5.png","72","motor","5","173","1","0","0","",""
"null","","6789767","HierDyac0s1z15","2ufgfxgetv","msl000300","iti","","null","img/motor_5.png","72","motor","","","","","","",""
"526","","6790308","HierDyac0s1z15","2ufgfxgetv","msl000300","motor","","75","img/motor_7.png","75","motor","7","174","1","0","0","",""
"null","","6790423","HierDyac0s1z15","2ufgfxgetv","msl000300","iti","","null","img/motor_7.png","75","motor","","","","","","",""
"591","","6791028","HierDyac0s1z15","2ufgfxgetv","msl000300","motor","","70","img/motor_4.png","70","motor","4","175","1","0","0","",""
"null","","6791137","HierDyac0s1z15","2ufgfxgetv","msl000300","iti","","null","img/motor_4.png","70","motor","","","","","","",""
"509","","6791653","HierDyac0s1z15","2ufgfxgetv","msl000300","motor","","65","img/motor_1.png","65","motor","1","176","1","0","0","",""
"null","","6791761","HierDyac0s1z15","2ufgfxgetv","msl000300","iti","","null","img/motor_1.png","65","motor","","","","","","",""
"741","","6792510","HierDyac0s1z15","2ufgfxgetv","msl000300","motor","","76","img/motor_8.png","76","motor","8","177","1","0","0","",""
"null","","6792625","HierDyac0s1z15","2ufgfxgetv","msl000300","iti","","null","img/motor_8.png","76","motor","","","","","","",""
"485","","6793117","HierDyac0s1z15","2ufgfxgetv","msl000300","motor","","75","img/motor_7.png","75","motor","7","178","1","0","0","",""
"null","","6793232","HierDyac0s1z15","2ufgfxgetv","msl000300","iti","","null","img/motor_7.png","75","motor","","","","","","",""
"566","","6793812","HierDyac0s1z15","2ufgfxgetv","msl000300","motor","","68","img/motor_3.png","68","motor","3","179","1","0","0","",""
"null","","6793922","HierDyac0s1z15","2ufgfxgetv","msl000300","iti","","null","img/motor_3.png","68","motor","","","","","","",""
"620","","6794556","HierDyac0s1z15","2ufgfxgetv","msl000300","motor","","76","img/motor_8.png","76","motor","8","180","1","0","0","",""
"null","","6794672","HierDyac0s1z15","2ufgfxgetv","msl000300","iti","","null","img/motor_8.png","76","motor","","","","","","",""
"549","","6795229","HierDyac0s1z15","2ufgfxgetv","msl000300","motor","","65","img/motor_1.png","65","motor","1","181","1","0","0","",""
"null","","6795345","HierDyac0s1z15","2ufgfxgetv","msl000300","iti","","null","img/motor_1.png","65","motor","","","","","","",""
"572","","6795926","HierDyac0s1z15","2ufgfxgetv","msl000300","motor","","68","img/motor_3.png","68","motor","3","182","1","0","0","",""
"null","","6796034","HierDyac0s1z15","2ufgfxgetv","msl000300","iti","","null","img/motor_3.png","68","motor","","","","","","",""
"492","","6796540","HierDyac0s1z15","2ufgfxgetv","msl000300","motor","","83","img/motor_2.png","83","motor","2","183","1","0","0","",""
"null","","6796655","HierDyac0s1z15","2ufgfxgetv","msl000300","iti","","null","img/motor_2.png","83","motor","","","","","","",""
"478","","6797141","HierDyac0s1z15","2ufgfxgetv","msl000300","motor","","70","img/motor_4.png","70","motor","4","184","1","0","0","",""
"null","","6797250","HierDyac0s1z15","2ufgfxgetv","msl000300","iti","","null","img/motor_4.png","70","motor","","","","","","",""
"492","","6797756","HierDyac0s1z15","2ufgfxgetv","msl000300","motor","","83","img/motor_2.png","83","motor","2","185","1","0","0","",""
"null","","6797865","HierDyac0s1z15","2ufgfxgetv","msl000300","iti","","null","img/motor_2.png","83","motor","","","","","","",""
"420","","6798301","HierDyac0s1z15","2ufgfxgetv","msl000300","motor","","68","img/motor_3.png","68","motor","3","186","1","0","0","",""
"null","","6798416","HierDyac0s1z15","2ufgfxgetv","msl000300","iti","","null","img/motor_3.png","68","motor","","","","","","",""
"413","","6798837","HierDyac0s1z15","2ufgfxgetv","msl000300","motor","","68","img/motor_3.png","68","motor","3","187","1","0","0","",""
"null","","6798945","HierDyac0s1z15","2ufgfxgetv","msl000300","iti","","null","img/motor_3.png","68","motor","","","","","","",""
"548","","6799502","HierDyac0s1z15","2ufgfxgetv","msl000300","motor","","74","img/motor_5.png","72","motor","5","188","0","1","0","",""
"400","","6799916","HierDyac0s1z15","2ufgfxgetv","msl000300","motorRepeat","","72","img/motor_5.png","72","motor","5","188","1","0","0","",""
"null","","6800032","HierDyac0s1z15","2ufgfxgetv","msl000300","iti","","null","img/motor_5.png","72","motor","","","","","","",""
"630","","6800670","HierDyac0s1z15","2ufgfxgetv","msl000300","motor","","70","img/motor_4.png","70","motor","4","189","1","0","0","",""
"null","","6800785","HierDyac0s1z15","2ufgfxgetv","msl000300","iti","","null","img/motor_4.png","70","motor","","","","","","",""
"501","","6801300","HierDyac0s1z15","2ufgfxgetv","msl000300","motor","","83","img/motor_2.png","83","motor","2","190","1","0","0","",""
"null","","6801415","HierDyac0s1z15","2ufgfxgetv","msl000300","iti","","null","img/motor_2.png","83","motor","","","","","","",""
"454","","6801884","HierDyac0s1z15","2ufgfxgetv","msl000300","motor","","70","img/motor_4.png","70","motor","4","191","1","0","0","",""
"null","","6802000","HierDyac0s1z15","2ufgfxgetv","msl000300","iti","","null","img/motor_4.png","70","motor","","","","","","",""
"636","","6802646","HierDyac0s1z15","2ufgfxgetv","msl000300","motor","","72","img/motor_5.png","72","motor","5","192","1","0","0","",""
"null","","6802754","HierDyac0s1z15","2ufgfxgetv","msl000300","iti","","null","img/motor_5.png","72","motor","","","","","","",""
"524","","6803286","HierDyac0s1z15","2ufgfxgetv","msl000300","motor","","76","img/motor_8.png","76","motor","8","193","1","0","0","",""
"null","","6803394","HierDyac0s1z15","2ufgfxgetv","msl000300","iti","","null","img/motor_8.png","76","motor","","","","","","",""
"749","","6804156","HierDyac0s1z15","2ufgfxgetv","msl000300","motor","","68","img/motor_3.png","68","motor","3","194","1","0","0","",""
"null","","6804265","HierDyac0s1z15","2ufgfxgetv","msl000300","iti","","null","img/motor_3.png","68","motor","","","","","","",""
"501","","6804774","HierDyac0s1z15","2ufgfxgetv","msl000300","motor","","83","img/motor_2.png","83","motor","2","195","1","0","0","",""
"null","","6804882","HierDyac0s1z15","2ufgfxgetv","msl000300","iti","","null","img/motor_2.png","83","motor","","","","","","",""
"6036","","6810926","HierDyac0s1z15","2ufgfxgetv","msl000300","motor","","74","img/motor_6.png","74","motor","6","196","1","0","0","",""
"null","","6811041","HierDyac0s1z15","2ufgfxgetv","msl000300","iti","","null","img/motor_6.png","74","motor","","","","","","",""
"1436","","6812486","HierDyac0s1z15","2ufgfxgetv","msl000300","motor","","72","img/motor_5.png","72","motor","5","197","1","0","0","",""
"null","","6812600","HierDyac0s1z15","2ufgfxgetv","msl000300","iti","","null","img/motor_5.png","72","motor","","","","","","",""
"1517","","6814126","HierDyac0s1z15","2ufgfxgetv","msl000300","motor","","70","img/motor_4.png","70","motor","4","198","1","0","0","",""
"null","","6814234","HierDyac0s1z15","2ufgfxgetv","msl000300","iti","","null","img/motor_4.png","70","motor","","","","","","",""
"763","","6815005","HierDyac0s1z15","2ufgfxgetv","msl000300","motor","","74","img/motor_6.png","74","motor","6","199","1","0","0","",""
"null","","6815121","HierDyac0s1z15","2ufgfxgetv","msl000300","iti","","null","img/motor_6.png","74","motor","","","","","","",""
"436","","6815566","HierDyac0s1z15","2ufgfxgetv","msl000300","motor","","75","img/motor_7.png","75","motor","7","200","1","0","0","",""
"null","","6815674","HierDyac0s1z15","2ufgfxgetv","msl000300","iti","","null","img/motor_7.png","75","motor","","","","","","",""
"708","","6816391","HierDyac0s1z15","2ufgfxgetv","msl000300","motor","","72","img/motor_2.png","83","motor","2","201","0","1","0","",""
"472","","6816876","HierDyac0s1z15","2ufgfxgetv","msl000300","motorRepeat","","83","img/motor_2.png","83","motor","2","201","1","0","0","",""
"null","","6816986","HierDyac0s1z15","2ufgfxgetv","msl000300","iti","","null","img/motor_2.png","83","motor","","","","","","",""
"676","","6817676","HierDyac0s1z15","2ufgfxgetv","msl000300","motor","","70","img/motor_4.png","70","motor","4","202","1","0","0","",""
"null","","6817786","HierDyac0s1z15","2ufgfxgetv","msl000300","iti","","null","img/motor_4.png","70","motor","","","","","","",""
"765","","6818558","HierDyac0s1z15","2ufgfxgetv","msl000300","motor","","75","img/motor_8.png","76","motor","8","203","0","1","0","",""
"488","","6819061","HierDyac0s1z15","2ufgfxgetv","msl000300","motorRepeat","","76","img/motor_8.png","76","motor","8","203","1","0","0","",""
"null","","6819169","HierDyac0s1z15","2ufgfxgetv","msl000300","iti","","null","img/motor_8.png","76","motor","","","","","","",""
"764","","6819941","HierDyac0s1z15","2ufgfxgetv","msl000300","motor","","65","img/motor_1.png","65","motor","1","204","1","0","0","",""
"null","","6820049","HierDyac0s1z15","2ufgfxgetv","msl000300","iti","","null","img/motor_1.png","65","motor","","","","","","",""
"572","","6820630","HierDyac0s1z15","2ufgfxgetv","msl000300","motor","","65","img/motor_1.png","65","motor","1","205","1","0","0","",""
"null","","6820739","HierDyac0s1z15","2ufgfxgetv","msl000300","iti","","null","img/motor_1.png","65","motor","","","","","","",""
"748","","6821500","HierDyac0s1z15","2ufgfxgetv","msl000300","motor","","75","img/motor_7.png","75","motor","7","206","1","0","0","",""
"null","","6821615","HierDyac0s1z15","2ufgfxgetv","msl000300","iti","","null","img/motor_7.png","75","motor","","","","","","",""
"734","","6822357","HierDyac0s1z15","2ufgfxgetv","msl000300","motor","","70","img/motor_4.png","70","motor","4","207","1","0","0","",""
"null","","6822472","HierDyac0s1z15","2ufgfxgetv","msl000300","iti","","null","img/motor_4.png","70","motor","","","","","","",""
"597","","6823078","HierDyac0s1z15","2ufgfxgetv","msl000300","motor","","68","img/motor_3.png","68","motor","3","208","1","0","0","",""
"null","","6823192","HierDyac0s1z15","2ufgfxgetv","msl000300","iti","","null","img/motor_3.png","68","motor","","","","","","",""
"701","","6823908","HierDyac0s1z15","2ufgfxgetv","msl000300","motor","","74","img/motor_6.png","74","motor","6","209","1","0","0","",""
"null","","6824018","HierDyac0s1z15","2ufgfxgetv","msl000300","iti","","null","img/motor_6.png","74","motor","","","","","","",""
"1157","","6825188","HierDyac0s1z15","2ufgfxgetv","msl000300","motor","","83","img/motor_2.png","83","motor","2","210","1","0","0","",""
"null","","6825303","HierDyac0s1z15","2ufgfxgetv","msl000300","iti","","null","img/motor_2.png","83","motor","","","","","","",""
"606","","6825918","HierDyac0s1z15","2ufgfxgetv","msl000300","motor","","72","img/motor_5.png","72","motor","5","211","1","0","0","",""
"null","","6826027","HierDyac0s1z15","2ufgfxgetv","msl000300","iti","","null","img/motor_5.png","72","motor","","","","","","",""
"459","","6826494","HierDyac0s1z15","2ufgfxgetv","msl000300","motor","","75","img/motor_7.png","75","motor","7","212","1","0","0","",""
"null","","6826602","HierDyac0s1z15","2ufgfxgetv","msl000300","iti","","null","img/motor_7.png","75","motor","","","","","","",""
"867","","6827479","HierDyac0s1z15","2ufgfxgetv","msl000300","motor","","68","img/motor_3.png","68","motor","3","213","1","0","0","",""
"null","","6827594","HierDyac0s1z15","2ufgfxgetv","msl000300","iti","","null","img/motor_3.png","68","motor","","","","","","",""
"364","","6827965","HierDyac0s1z15","2ufgfxgetv","msl000300","motor","","65","img/motor_1.png","65","motor","1","214","1","0","0","",""
"null","","6828081","HierDyac0s1z15","2ufgfxgetv","msl000300","iti","","null","img/motor_1.png","65","motor","","","","","","",""
"733","","6828829","HierDyac0s1z15","2ufgfxgetv","msl000300","motor","","74","img/motor_6.png","74","motor","6","215","1","0","0","",""
"null","","6828944","HierDyac0s1z15","2ufgfxgetv","msl000300","iti","","null","img/motor_6.png","74","motor","","","","","","",""
"565","","6829518","HierDyac0s1z15","2ufgfxgetv","msl000300","motor","","76","img/motor_8.png","76","motor","8","216","1","0","0","",""
"null","","6829632","HierDyac0s1z15","2ufgfxgetv","msl000300","iti","","null","img/motor_8.png","76","motor","","","","","","",""
"1461","","6831102","HierDyac0s1z15","2ufgfxgetv","msl000300","motor","","70","img/motor_4.png","70","motor","4","217","1","0","0","",""
"null","","6831217","HierDyac0s1z15","2ufgfxgetv","msl000300","iti","","null","img/motor_4.png","70","motor","","","","","","",""
"636","","6831862","HierDyac0s1z15","2ufgfxgetv","msl000300","motor","","76","img/motor_8.png","76","motor","8","218","1","0","0","",""
"null","","6831970","HierDyac0s1z15","2ufgfxgetv","msl000300","iti","","null","img/motor_8.png","76","motor","","","","","","",""
"1052","","6833030","HierDyac0s1z15","2ufgfxgetv","msl000300","motor","","65","img/motor_1.png","65","motor","1","219","1","0","0","",""
"null","","6833139","HierDyac0s1z15","2ufgfxgetv","msl000300","iti","","null","img/motor_1.png","65","motor","","","","","","",""
"635","","6833788","HierDyac0s1z15","2ufgfxgetv","msl000300","motor","","68","img/motor_3.png","68","motor","3","220","1","0","0","",""
"null","","6833897","HierDyac0s1z15","2ufgfxgetv","msl000300","iti","","null","img/motor_3.png","68","motor","","","","","","",""
"597","","6834502","HierDyac0s1z15","2ufgfxgetv","msl000300","motor","","65","img/motor_1.png","65","motor","1","221","1","0","0","",""
"null","","6834611","HierDyac0s1z15","2ufgfxgetv","msl000300","iti","","null","img/motor_1.png","65","motor","","","","","","",""
"651","","6835277","HierDyac0s1z15","2ufgfxgetv","msl000300","motor","","72","img/motor_5.png","72","motor","5","222","1","0","0","",""
"null","","6835392","HierDyac0s1z15","2ufgfxgetv","msl000300","iti","","null","img/motor_5.png","72","motor","","","","","","",""
"1062","","6836468","HierDyac0s1z15","2ufgfxgetv","msl000300","motor","","76","img/motor_8.png","76","motor","8","223","1","0","0","",""
"null","","6836584","HierDyac0s1z15","2ufgfxgetv","msl000300","iti","","null","img/motor_8.png","76","motor","","","","","","",""
"477","","6837077","HierDyac0s1z15","2ufgfxgetv","msl000300","motor","","76","img/motor_8.png","76","motor","8","224","1","0","0","",""
"null","","6837185","HierDyac0s1z15","2ufgfxgetv","msl000300","iti","","null","img/motor_8.png","76","motor","","","","","","",""
"1022","","6838221","HierDyac0s1z15","2ufgfxgetv","msl000300","motor","","83","img/motor_2.png","83","motor","2","225","1","0","0","",""
"null","","6838337","HierDyac0s1z15","2ufgfxgetv","msl000300","iti","","null","img/motor_2.png","83","motor","","","","","","",""
"644","","6838990","HierDyac0s1z15","2ufgfxgetv","msl000300","motor","","72","img/motor_5.png","72","motor","5","226","1","0","0","",""
"null","","6839104","HierDyac0s1z15","2ufgfxgetv","msl000300","iti","","null","img/motor_5.png","72","motor","","","","","","",""
"501","","6839614","HierDyac0s1z15","2ufgfxgetv","msl000300","motor","","74","img/motor_6.png","74","motor","6","227","1","0","0","",""
"null","","6839722","HierDyac0s1z15","2ufgfxgetv","msl000300","iti","","null","img/motor_6.png","74","motor","","","","","","",""
"379","","6840117","HierDyac0s1z15","2ufgfxgetv","msl000300","motor","","75","img/motor_7.png","75","motor","7","228","1","0","0","",""
"null","","6840226","HierDyac0s1z15","2ufgfxgetv","msl000300","iti","","null","img/motor_7.png","75","motor","","","","","","",""
"316","","6840550","HierDyac0s1z15","2ufgfxgetv","msl000300","motor","","76","img/motor_8.png","76","motor","8","229","1","0","0","",""
"null","","6840665","HierDyac0s1z15","2ufgfxgetv","msl000300","iti","","null","img/motor_8.png","76","motor","","","","","","",""
"628","","6841309","HierDyac0s1z15","2ufgfxgetv","msl000300","motor","","74","img/motor_7.png","75","motor","7","230","0","1","0","",""
"361","","6841679","HierDyac0s1z15","2ufgfxgetv","msl000300","motorRepeat","","75","img/motor_7.png","75","motor","7","230","1","0","0","",""
"null","","6841793","HierDyac0s1z15","2ufgfxgetv","msl000300","iti","","null","img/motor_7.png","75","motor","","","","","","",""
"453","","6842254","HierDyac0s1z15","2ufgfxgetv","msl000300","motor","","75","img/motor_7.png","75","motor","7","231","1","0","0","",""
"null","","6842369","HierDyac0s1z15","2ufgfxgetv","msl000300","iti","","null","img/motor_7.png","75","motor","","","","","","",""
"653","","6843029","HierDyac0s1z15","2ufgfxgetv","msl000300","motor","","76","img/motor_8.png","76","motor","8","232","1","0","0","",""
"null","","6843144","HierDyac0s1z15","2ufgfxgetv","msl000300","iti","","null","img/motor_8.png","76","motor","","","","","","",""
"701","","6843853","HierDyac0s1z15","2ufgfxgetv","msl000300","motor","","70","img/motor_4.png","70","motor","4","233","1","0","0","",""
"null","","6843968","HierDyac0s1z15","2ufgfxgetv","msl000300","iti","","null","img/motor_4.png","70","motor","","","","","","",""
"613","","6844597","HierDyac0s1z15","2ufgfxgetv","msl000300","motor","","83","img/motor_2.png","83","motor","2","234","1","0","0","",""
"null","","6844712","HierDyac0s1z15","2ufgfxgetv","msl000300","iti","","null","img/motor_2.png","83","motor","","","","","","",""
"510","","6845229","HierDyac0s1z15","2ufgfxgetv","msl000300","motor","","68","img/motor_3.png","68","motor","3","235","1","0","0","",""
"null","","6845338","HierDyac0s1z15","2ufgfxgetv","msl000300","iti","","null","img/motor_3.png","68","motor","","","","","","",""
"797","","6846142","HierDyac0s1z15","2ufgfxgetv","msl000300","motor","","75","img/motor_7.png","75","motor","7","236","1","0","0","",""
"null","","6846256","HierDyac0s1z15","2ufgfxgetv","msl000300","iti","","null","img/motor_7.png","75","motor","","","","","","",""
"437","","6846708","HierDyac0s1z15","2ufgfxgetv","msl000300","motor","","76","img/motor_8.png","76","motor","8","237","1","0","0","",""
"null","","6846818","HierDyac0s1z15","2ufgfxgetv","msl000300","iti","","null","img/motor_8.png","76","motor","","","","","","",""
"684","","6847517","HierDyac0s1z15","2ufgfxgetv","msl000300","motor","","72","img/motor_5.png","72","motor","5","238","1","0","0","",""
"null","","6847625","HierDyac0s1z15","2ufgfxgetv","msl000300","iti","","null","img/motor_5.png","72","motor","","","","","","",""
"732","","6848373","HierDyac0s1z15","2ufgfxgetv","msl000300","motor","","76","img/motor_8.png","76","motor","8","239","1","0","0","",""
"null","","6848481","HierDyac0s1z15","2ufgfxgetv","msl000300","iti","","null","img/motor_8.png","76","motor","","","","","","",""
"612","","6849108","HierDyac0s1z15","2ufgfxgetv","msl000300","motor","","70","img/motor_4.png","70","motor","4","240","1","0","0","",""
"null","","6849218","HierDyac0s1z15","2ufgfxgetv","msl000300","iti","","null","img/motor_4.png","70","motor","","","","","","",""
"548","","6849781","HierDyac0s1z15","2ufgfxgetv","msl000300","motor","","68","img/motor_3.png","68","motor","3","241","1","0","0","",""
"null","","6849896","HierDyac0s1z15","2ufgfxgetv","msl000300","iti","","null","img/motor_3.png","68","motor","","","","","","",""
"501","","6850413","HierDyac0s1z15","2ufgfxgetv","msl000300","motor","","65","img/motor_1.png","65","motor","1","242","1","0","0","",""
"null","","6850522","HierDyac0s1z15","2ufgfxgetv","msl000300","iti","","null","img/motor_1.png","65","motor","","","","","","",""
"692","","6851222","HierDyac0s1z15","2ufgfxgetv","msl000300","motor","","74","img/motor_6.png","74","motor","6","243","1","0","0","",""
"null","","6851330","HierDyac0s1z15","2ufgfxgetv","msl000300","iti","","null","img/motor_6.png","74","motor","","","","","","",""
"435","","6851775","HierDyac0s1z15","2ufgfxgetv","msl000300","motor","","75","img/motor_7.png","75","motor","7","244","1","0","0","",""
"null","","6851890","HierDyac0s1z15","2ufgfxgetv","msl000300","iti","","null","img/motor_7.png","75","motor","","","","","","",""
"691","","6852590","HierDyac0s1z15","2ufgfxgetv","msl000300","motor","","72","img/motor_5.png","72","motor","5","245","1","0","0","",""
"null","","6852699","HierDyac0s1z15","2ufgfxgetv","msl000300","iti","","null","img/motor_5.png","72","motor","","","","","","",""
"595","","6853303","HierDyac0s1z15","2ufgfxgetv","msl000300","motor","","75","img/motor_7.png","75","motor","7","246","1","0","0","",""
"null","","6853417","HierDyac0s1z15","2ufgfxgetv","msl000300","iti","","null","img/motor_7.png","75","motor","","","","","","",""
"533","","6853959","HierDyac0s1z15","2ufgfxgetv","msl000300","motor","","76","img/motor_8.png","76","motor","8","247","1","0","0","",""
"null","","6854067","HierDyac0s1z15","2ufgfxgetv","msl000300","iti","","null","img/motor_8.png","76","motor","","","","","","",""
"699","","6854774","HierDyac0s1z15","2ufgfxgetv","msl000300","motor","","70","img/motor_4.png","70","motor","4","248","1","0","0","",""
"null","","6854882","HierDyac0s1z15","2ufgfxgetv","msl000300","iti","","null","img/motor_4.png","70","motor","","","","","","",""
"445","","6855341","HierDyac0s1z15","2ufgfxgetv","msl000300","motor","","70","img/motor_4.png","70","motor","4","249","1","0","0","",""
"null","","6855450","HierDyac0s1z15","2ufgfxgetv","msl000300","iti","","null","img/motor_4.png","70","motor","","","","","","",""
"629","","6856087","HierDyac0s1z15","2ufgfxgetv","msl000300","motor","","76","img/motor_8.png","76","motor","8","250","1","0","0","",""
"null","","6856201","HierDyac0s1z15","2ufgfxgetv","msl000300","iti","","null","img/motor_8.png","76","motor","","","","","","",""
"412","","6856628","HierDyac0s1z15","2ufgfxgetv","msl000300","motor","","76","img/motor_8.png","76","motor","8","251","1","0","0","",""
"null","","6856738","HierDyac0s1z15","2ufgfxgetv","msl000300","iti","","null","img/motor_8.png","76","motor","","","","","","",""
"588","","6857334","HierDyac0s1z15","2ufgfxgetv","msl000300","motor","","65","img/motor_1.png","65","motor","1","252","1","0","0","",""
"null","","6857449","HierDyac0s1z15","2ufgfxgetv","msl000300","iti","","null","img/motor_1.png","65","motor","","","","","","",""
"645","","6858109","HierDyac0s1z15","2ufgfxgetv","msl000300","motor","","83","img/motor_2.png","83","motor","2","253","1","0","0","",""
"null","","6858219","HierDyac0s1z15","2ufgfxgetv","msl000300","iti","","null","img/motor_2.png","83","motor","","","","","","",""
"971","","6859205","HierDyac0s1z15","2ufgfxgetv","msl000300","motor","","75","img/motor_7.png","75","motor","7","254","1","0","0","",""
"null","","6859321","HierDyac0s1z15","2ufgfxgetv","msl000300","iti","","null","img/motor_7.png","75","motor","","","","","","",""
"724","","6860054","HierDyac0s1z15","2ufgfxgetv","msl000300","motor","","72","img/motor_5.png","72","motor","5","255","1","0","0","",""
"null","","6860169","HierDyac0s1z15","2ufgfxgetv","msl000300","iti","","null","img/motor_5.png","72","motor","","","","","","",""
"621","","6860798","HierDyac0s1z15","2ufgfxgetv","msl000300","motor","","68","img/motor_3.png","68","motor","3","256","1","0","0","",""
"null","","6860905","HierDyac0s1z15","2ufgfxgetv","msl000300","iti","","null","img/motor_3.png","68","motor","","","","","","",""
"740","","6861654","HierDyac0s1z15","2ufgfxgetv","msl000300","motor","","75","img/motor_7.png","75","motor","7","257","1","0","0","",""
"null","","6861769","HierDyac0s1z15","2ufgfxgetv","msl000300","iti","","null","img/motor_7.png","75","motor","","","","","","",""
"918","","6862695","HierDyac0s1z15","2ufgfxgetv","msl000300","motor","","68","img/motor_3.png","68","motor","3","258","1","0","0","",""
"null","","6862810","HierDyac0s1z15","2ufgfxgetv","msl000300","iti","","null","img/motor_3.png","68","motor","","","","","","",""
"692","","6863518","HierDyac0s1z15","2ufgfxgetv","msl000300","motor","","76","img/motor_8.png","76","motor","8","259","1","0","0","",""
"null","","6863626","HierDyac0s1z15","2ufgfxgetv","msl000300","iti","","null","img/motor_8.png","76","motor","","","","","","",""
"813","","6864454","HierDyac0s1z15","2ufgfxgetv","msl000300","motor","","83","img/motor_2.png","83","motor","2","260","1","0","0","",""
"null","","6864563","HierDyac0s1z15","2ufgfxgetv","msl000300","iti","","null","img/motor_2.png","83","motor","","","","","","",""
"756","","6865326","HierDyac0s1z15","2ufgfxgetv","msl000300","motor","","74","img/motor_6.png","74","motor","6","261","1","0","0","",""
"null","","6865441","HierDyac0s1z15","2ufgfxgetv","msl000300","iti","","null","img/motor_6.png","74","motor","","","","","","",""
"614","","6866063","HierDyac0s1z15","2ufgfxgetv","msl000300","motor","","68","img/motor_3.png","68","motor","3","262","1","0","0","",""
"null","","6866172","HierDyac0s1z15","2ufgfxgetv","msl000300","iti","","null","img/motor_3.png","68","motor","","","","","","",""
"515","","6866695","HierDyac0s1z15","2ufgfxgetv","msl000300","motor","","74","img/motor_6.png","74","motor","6","263","1","0","0","",""
"null","","6866809","HierDyac0s1z15","2ufgfxgetv","msl000300","iti","","null","img/motor_6.png","74","motor","","","","","","",""
"412","","6867231","HierDyac0s1z15","2ufgfxgetv","msl000300","motor","","74","img/motor_6.png","74","motor","6","264","1","0","0","",""
"null","","6867339","HierDyac0s1z15","2ufgfxgetv","msl000300","iti","","null","img/motor_6.png","74","motor","","","","","","",""
"811","","6868159","HierDyac0s1z15","2ufgfxgetv","msl000300","motor","","83","img/motor_2.png","83","motor","2","265","1","0","0","",""
"null","","6868267","HierDyac0s1z15","2ufgfxgetv","msl000300","iti","","null","img/motor_2.png","83","motor","","","","","","",""
"364","","6868638","HierDyac0s1z15","2ufgfxgetv","msl000300","motor","","83","img/motor_2.png","83","motor","2","266","1","0","0","",""
"null","","6868754","HierDyac0s1z15","2ufgfxgetv","msl000300","iti","","null","img/motor_2.png","83","motor","","","","","","",""
"523","","6869287","HierDyac0s1z15","2ufgfxgetv","msl000300","motor","","75","img/motor_7.png","75","motor","7","267","1","0","0","",""
"null","","6869395","HierDyac0s1z15","2ufgfxgetv","msl000300","iti","","null","img/motor_7.png","75","motor","","","","","","",""
"675","","6870078","HierDyac0s1z15","2ufgfxgetv","msl000300","motor","","65","img/motor_1.png","65","motor","1","268","1","0","0","",""
"null","","6870186","HierDyac0s1z15","2ufgfxgetv","msl000300","iti","","null","img/motor_1.png","65","motor","","","","","","",""
"715","","6870917","HierDyac0s1z15","2ufgfxgetv","msl000300","motor","","72","img/motor_5.png","72","motor","5","269","1","0","0","",""
"null","","6871032","HierDyac0s1z15","2ufgfxgetv","msl000300","iti","","null","img/motor_5.png","72","motor","","","","","","",""
"390","","6871430","HierDyac0s1z15","2ufgfxgetv","msl000300","motor","","72","img/motor_5.png","72","motor","5","270","1","0","0","",""
"null","","6871545","HierDyac0s1z15","2ufgfxgetv","msl000300","iti","","null","img/motor_5.png","72","motor","","","","","","",""
"581","","6872135","HierDyac0s1z15","2ufgfxgetv","msl000300","motor","","76","img/motor_8.png","76","motor","8","271","1","0","0","",""
"null","","6872243","HierDyac0s1z15","2ufgfxgetv","msl000300","iti","","null","img/motor_8.png","76","motor","","","","","","",""
"675","","6872927","HierDyac0s1z15","2ufgfxgetv","msl000300","motor","","83","img/motor_2.png","83","motor","2","272","1","0","0","",""
"null","","6873042","HierDyac0s1z15","2ufgfxgetv","msl000300","iti","","null","img/motor_2.png","83","motor","","","","","","",""
"669","","6873719","HierDyac0s1z15","2ufgfxgetv","msl000300","motor","","70","img/motor_4.png","70","motor","4","273","1","0","0","",""
"null","","6873834","HierDyac0s1z15","2ufgfxgetv","msl000300","iti","","null","img/motor_4.png","70","motor","","","","","","",""
"411","","6874254","HierDyac0s1z15","2ufgfxgetv","msl000300","motor","","70","img/motor_4.png","70","motor","4","274","1","0","0","",""
"null","","6874363","HierDyac0s1z15","2ufgfxgetv","msl000300","iti","","null","img/motor_4.png","70","motor","","","","","","",""
"579","","6874949","HierDyac0s1z15","2ufgfxgetv","msl000300","motor","","75","img/motor_7.png","75","motor","7","275","1","0","0","",""
"null","","6875057","HierDyac0s1z15","2ufgfxgetv","msl000300","iti","","null","img/motor_7.png","75","motor","","","","","","",""
"604","","6875670","HierDyac0s1z15","2ufgfxgetv","msl000300","motor","","70","img/motor_4.png","70","motor","4","276","1","0","0","",""
"null","","6875778","HierDyac0s1z15","2ufgfxgetv","msl000300","iti","","null","img/motor_4.png","70","motor","","","","","","",""
"507","","6876294","HierDyac0s1z15","2ufgfxgetv","msl000300","motor","","83","img/motor_2.png","83","motor","2","277","1","0","0","",""
"null","","6876403","HierDyac0s1z15","2ufgfxgetv","msl000300","iti","","null","img/motor_2.png","83","motor","","","","","","",""
"483","","6876894","HierDyac0s1z15","2ufgfxgetv","msl000300","motor","","65","img/motor_1.png","65","motor","1","278","1","0","0","",""
"null","","6877009","HierDyac0s1z15","2ufgfxgetv","msl000300","iti","","null","img/motor_1.png","65","motor","","","","","","",""
"525","","6877549","HierDyac0s1z15","2ufgfxgetv","msl000300","motor","","70","img/motor_4.png","70","motor","4","279","1","0","0","",""
"null","","6877657","HierDyac0s1z15","2ufgfxgetv","msl000300","iti","","null","img/motor_4.png","70","motor","","","","","","",""
"740","","6878413","HierDyac0s1z15","2ufgfxgetv","msl000300","motor","","72","img/motor_5.png","72","motor","5","280","1","0","0","",""
"null","","6878522","HierDyac0s1z15","2ufgfxgetv","msl000300","iti","","null","img/motor_5.png","72","motor","","","","","","",""
"645","","6879181","HierDyac0s1z15","2ufgfxgetv","msl000300","motor","","83","img/motor_2.png","83","motor","2","281","1","0","0","",""
"null","","6879297","HierDyac0s1z15","2ufgfxgetv","msl000300","iti","","null","img/motor_2.png","83","motor","","","","","","",""
"885","","6880197","HierDyac0s1z15","2ufgfxgetv","msl000300","motor","","74","img/motor_6.png","74","motor","6","282","1","0","0","",""
"null","","6880313","HierDyac0s1z15","2ufgfxgetv","msl000300","iti","","null","img/motor_6.png","74","motor","","","","","","",""
"821","","6881149","HierDyac0s1z15","2ufgfxgetv","msl000300","motor","","70","img/motor_4.png","70","motor","4","283","1","0","0","",""
"null","","6881265","HierDyac0s1z15","2ufgfxgetv","msl000300","iti","","null","img/motor_4.png","70","motor","","","","","","",""
"1229","","6882509","HierDyac0s1z15","2ufgfxgetv","msl000300","motor","","72","img/motor_5.png","72","motor","5","284","1","0","0","",""
"null","","6882625","HierDyac0s1z15","2ufgfxgetv","msl000300","iti","","null","img/motor_5.png","72","motor","","","","","","",""
"605","","6883238","HierDyac0s1z15","2ufgfxgetv","msl000300","motor","","70","img/motor_4.png","70","motor","4","285","1","0","0","",""
"null","","6883347","HierDyac0s1z15","2ufgfxgetv","msl000300","iti","","null","img/motor_4.png","70","motor","","","","","","",""
"572","","6883926","HierDyac0s1z15","2ufgfxgetv","msl000300","motor","","68","img/motor_3.png","68","motor","3","286","1","0","0","",""
"null","","6884035","HierDyac0s1z15","2ufgfxgetv","msl000300","iti","","null","img/motor_3.png","68","motor","","","","","","",""
"708","","6884751","HierDyac0s1z15","2ufgfxgetv","msl000300","motor","","75","img/motor_7.png","75","motor","7","287","1","0","0","",""
"null","","6884866","HierDyac0s1z15","2ufgfxgetv","msl000300","iti","","null","img/motor_7.png","75","motor","","","","","","",""
"572","","6885454","HierDyac0s1z15","2ufgfxgetv","msl000300","motor","","72","img/motor_5.png","72","motor","5","288","1","0","0","",""
"null","","6885570","HierDyac0s1z15","2ufgfxgetv","msl000300","iti","","null","img/motor_5.png","72","motor","","","","","","",""
"484","","6886070","HierDyac0s1z15","2ufgfxgetv","msl000300","motor","","74","img/motor_6.png","74","motor","6","289","1","0","0","",""
"null","","6886185","HierDyac0s1z15","2ufgfxgetv","msl000300","iti","","null","img/motor_6.png","74","motor","","","","","","",""
"1101","","6887302","HierDyac0s1z15","2ufgfxgetv","msl000300","motor","","83","img/motor_2.png","83","motor","2","290","1","0","0","",""
"null","","6887417","HierDyac0s1z15","2ufgfxgetv","msl000300","iti","","null","img/motor_2.png","83","motor","","","","","","",""
"675","","6888109","HierDyac0s1z15","2ufgfxgetv","msl000300","motor","","74","img/motor_6.png","74","motor","6","291","1","0","0","",""
"null","","6888219","HierDyac0s1z15","2ufgfxgetv","msl000300","iti","","null","img/motor_6.png","74","motor","","","","","","",""
"980","","6889205","HierDyac0s1z15","2ufgfxgetv","msl000300","motor","","68","img/motor_3.png","68","motor","3","292","1","0","0","",""
"null","","6889321","HierDyac0s1z15","2ufgfxgetv","msl000300","iti","","null","img/motor_3.png","68","motor","","","","","","",""
"709","","6890039","HierDyac0s1z15","2ufgfxgetv","msl000300","motor","","70","img/motor_4.png","70","motor","4","293","1","0","0","",""
"null","","6890148","HierDyac0s1z15","2ufgfxgetv","msl000300","iti","","null","img/motor_4.png","70","motor","","","","","","",""
"1220","","6891374","HierDyac0s1z15","2ufgfxgetv","msl000300","motor","","74","img/motor_6.png","74","motor","6","294","1","0","0","",""
"null","","6891483","HierDyac0s1z15","2ufgfxgetv","msl000300","iti","","null","img/motor_6.png","74","motor","","","","","","",""
"362","","6891854","HierDyac0s1z15","2ufgfxgetv","msl000300","motor","","74","img/motor_6.png","74","motor","6","295","1","0","0","",""
"null","","6891962","HierDyac0s1z15","2ufgfxgetv","msl000300","iti","","null","img/motor_6.png","74","motor","","","","","","",""
"571","","6892538","HierDyac0s1z15","2ufgfxgetv","msl000300","motor","","75","img/motor_7.png","75","motor","7","296","1","0","0","",""
"null","","6892647","HierDyac0s1z15","2ufgfxgetv","msl000300","iti","","null","img/motor_7.png","75","motor","","","","","","",""
"598","","6893261","HierDyac0s1z15","2ufgfxgetv","msl000300","motor","","74","img/motor_6.png","74","motor","6","297","1","0","0","",""
"null","","6893377","HierDyac0s1z15","2ufgfxgetv","msl000300","iti","","null","img/motor_6.png","74","motor","","","","","","",""
"644","","6894031","HierDyac0s1z15","2ufgfxgetv","msl000300","motor","","68","img/motor_3.png","68","motor","3","298","1","0","0","",""
"null","","6894140","HierDyac0s1z15","2ufgfxgetv","msl000300","iti","","null","img/motor_3.png","68","motor","","","","","","",""
"844","","6894990","HierDyac0s1z15","2ufgfxgetv","msl000300","motor","","75","img/motor_7.png","75","motor","7","299","1","0","0","",""
"null","","6895098","HierDyac0s1z15","2ufgfxgetv","msl000300","iti","","null","img/motor_7.png","75","motor","","","","","","",""
"789","","6895894","HierDyac0s1z15","2ufgfxgetv","msl000300","motor","","65","img/motor_1.png","65","motor","1","300","1","0","0","",""
"null","","6896010","HierDyac0s1z15","2ufgfxgetv","msl000300","iti","","null","img/motor_1.png","65","motor","","","","","","",""
"860","","6896878","HierDyac0s1z15","2ufgfxgetv","msl000300","motor","","68","img/motor_3.png","68","motor","3","301","1","0","0","",""
"null","","6896994","HierDyac0s1z15","2ufgfxgetv","msl000300","iti","","null","img/motor_3.png","68","motor","","","","","","",""
"780","","6897782","HierDyac0s1z15","2ufgfxgetv","msl000300","motor","","72","img/motor_5.png","72","motor","5","302","1","0","0","",""
"null","","6897891","HierDyac0s1z15","2ufgfxgetv","msl000300","iti","","null","img/motor_5.png","72","motor","","","","","","",""
"596","","6898495","HierDyac0s1z15","2ufgfxgetv","msl000300","motor","","83","img/motor_2.png","83","motor","2","303","1","0","0","",""
"null","","6898610","HierDyac0s1z15","2ufgfxgetv","msl000300","iti","","null","img/motor_2.png","83","motor","","","","","","",""
"556","","6899174","HierDyac0s1z15","2ufgfxgetv","msl000300","motor","","72","img/motor_5.png","72","motor","5","304","1","0","0","",""
"null","","6899290","HierDyac0s1z15","2ufgfxgetv","msl000300","iti","","null","img/motor_5.png","72","motor","","","","","","",""
"540","","6899838","HierDyac0s1z15","2ufgfxgetv","msl000300","motor","","75","img/motor_7.png","75","motor","7","305","1","0","0","",""
"null","","6899954","HierDyac0s1z15","2ufgfxgetv","msl000300","iti","","null","img/motor_7.png","75","motor","","","","","","",""
"421","","6900390","HierDyac0s1z15","2ufgfxgetv","msl000300","motor","","75","img/motor_7.png","75","motor","7","306","1","0","0","",""
"null","","6900499","HierDyac0s1z15","2ufgfxgetv","msl000300","iti","","null","img/motor_7.png","75","motor","","","","","","",""
"444","","6900950","HierDyac0s1z15","2ufgfxgetv","msl000300","motor","","76","img/motor_8.png","76","motor","8","307","1","0","0","",""
"null","","6901059","HierDyac0s1z15","2ufgfxgetv","msl000300","iti","","null","img/motor_8.png","76","motor","","","","","","",""
"548","","6901615","HierDyac0s1z15","2ufgfxgetv","msl000300","motor","","75","img/motor_7.png","75","motor","7","308","1","0","0","",""
"null","","6901724","HierDyac0s1z15","2ufgfxgetv","msl000300","iti","","null","img/motor_7.png","75","motor","","","","","","",""
"619","","6902358","HierDyac0s1z15","2ufgfxgetv","msl000300","motor","","68","img/motor_3.png","68","motor","3","309","1","0","0","",""
"null","","6902473","HierDyac0s1z15","2ufgfxgetv","msl000300","iti","","null","img/motor_3.png","68","motor","","","","","","",""
"637","","6903119","HierDyac0s1z15","2ufgfxgetv","msl000300","motor","","70","img/motor_4.png","70","motor","4","310","1","0","0","",""
"null","","6903227","HierDyac0s1z15","2ufgfxgetv","msl000300","iti","","null","img/motor_4.png","70","motor","","","","","","",""
"611","","6903847","HierDyac0s1z15","2ufgfxgetv","msl000300","motor","","75","img/motor_7.png","75","motor","7","311","1","0","0","",""
"null","","6903962","HierDyac0s1z15","2ufgfxgetv","msl000300","iti","","null","img/motor_7.png","75","motor","","","","","","",""
"636","","6904608","HierDyac0s1z15","2ufgfxgetv","msl000300","motor","","70","img/motor_4.png","70","motor","4","312","1","0","0","",""
"null","","6904723","HierDyac0s1z15","2ufgfxgetv","msl000300","iti","","null","img/motor_4.png","70","motor","","","","","","",""
"403","","6905134","HierDyac0s1z15","2ufgfxgetv","msl000300","motor","","70","img/motor_4.png","70","motor","4","313","1","0","0","",""
"null","","6905244","HierDyac0s1z15","2ufgfxgetv","msl000300","iti","","null","img/motor_4.png","70","motor","","","","","","",""
"676","","6905926","HierDyac0s1z15","2ufgfxgetv","msl000300","motor","","75","img/motor_7.png","75","motor","7","314","1","0","0","",""
"null","","6906035","HierDyac0s1z15","2ufgfxgetv","msl000300","iti","","null","img/motor_7.png","75","motor","","","","","","",""
"604","","6906653","HierDyac0s1z15","2ufgfxgetv","msl000300","motor","","74","img/motor_6.png","74","motor","6","315","1","0","0","",""
"null","","6906762","HierDyac0s1z15","2ufgfxgetv","msl000300","iti","","null","img/motor_6.png","74","motor","","","","","","",""
"629","","6907398","HierDyac0s1z15","2ufgfxgetv","msl000300","motor","","76","img/motor_8.png","76","motor","8","316","1","0","0","",""
"null","","6907507","HierDyac0s1z15","2ufgfxgetv","msl000300","iti","","null","img/motor_8.png","76","motor","","","","","","",""
"876","","6908391","HierDyac0s1z15","2ufgfxgetv","msl000300","motor","","68","img/motor_3.png","68","motor","3","317","1","0","0","",""
"null","","6908506","HierDyac0s1z15","2ufgfxgetv","msl000300","iti","","null","img/motor_3.png","68","motor","","","","","","",""
"452","","6908974","HierDyac0s1z15","2ufgfxgetv","msl000300","motor","","83","img/motor_2.png","83","motor","2","318","1","0","0","",""
"null","","6909082","HierDyac0s1z15","2ufgfxgetv","msl000300","iti","","null","img/motor_2.png","83","motor","","","","","","",""
"756","","6909847","HierDyac0s1z15","2ufgfxgetv","msl000300","motor","","75","img/motor_7.png","75","motor","7","319","1","0","0","",""
"null","","6909962","HierDyac0s1z15","2ufgfxgetv","msl000300","iti","","null","img/motor_7.png","75","motor","","","","","","",""
"588","","6910558","HierDyac0s1z15","2ufgfxgetv","msl000300","motor","","83","img/motor_2.png","83","motor","2","320","1","0","0","",""
"null","","6910672","HierDyac0s1z15","2ufgfxgetv","msl000300","iti","","null","img/motor_2.png","83","motor","","","","","","",""
"533","","6911215","HierDyac0s1z15","2ufgfxgetv","msl000300","motor","","68","img/motor_3.png","68","motor","3","321","1","0","0","",""
"null","","6911324","HierDyac0s1z15","2ufgfxgetv","msl000300","iti","","null","img/motor_3.png","68","motor","","","","","","",""
"707","","6912046","HierDyac0s1z15","2ufgfxgetv","msl000300","motor","","74","img/motor_6.png","74","motor","6","322","1","0","0","",""
"null","","6912162","HierDyac0s1z15","2ufgfxgetv","msl000300","iti","","null","img/motor_6.png","74","motor","","","","","","",""
"564","","6912741","HierDyac0s1z15","2ufgfxgetv","msl000300","motor","","83","img/motor_2.png","83","motor","2","323","1","0","0","",""
"null","","6912857","HierDyac0s1z15","2ufgfxgetv","msl000300","iti","","null","img/motor_2.png","83","motor","","","","","","",""
"677","","6913542","HierDyac0s1z15","2ufgfxgetv","msl000300","motor","","76","img/motor_8.png","76","motor","8","324","1","0","0","",""
"null","","6913651","HierDyac0s1z15","2ufgfxgetv","msl000300","iti","","null","img/motor_8.png","76","motor","","","","","","",""
"396","","6914062","HierDyac0s1z15","2ufgfxgetv","msl000300","motor","","76","img/motor_8.png","76","motor","8","325","1","0","0","",""
"null","","6914171","HierDyac0s1z15","2ufgfxgetv","msl000300","iti","","null","img/motor_8.png","76","motor","","","","","","",""
"596","","6914775","HierDyac0s1z15","2ufgfxgetv","msl000300","motor","","74","img/motor_6.png","74","motor","6","326","1","0","0","",""
"null","","6914884","HierDyac0s1z15","2ufgfxgetv","msl000300","iti","","null","img/motor_6.png","74","motor","","","","","","",""
"476","","6915367","HierDyac0s1z15","2ufgfxgetv","msl000300","motor","","65","img/motor_1.png","65","motor","1","327","1","0","0","",""
"null","","6915476","HierDyac0s1z15","2ufgfxgetv","msl000300","iti","","null","img/motor_1.png","65","motor","","","","","","",""
"468","","6915958","HierDyac0s1z15","2ufgfxgetv","msl000300","motor","","65","img/motor_1.png","65","motor","1","328","1","0","0","",""
"null","","6916067","HierDyac0s1z15","2ufgfxgetv","msl000300","iti","","null","img/motor_1.png","65","motor","","","","","","",""
"588","","6916663","HierDyac0s1z15","2ufgfxgetv","msl000300","motor","","68","img/motor_3.png","68","motor","3","329","1","0","0","",""
"null","","6916778","HierDyac0s1z15","2ufgfxgetv","msl000300","iti","","null","img/motor_3.png","68","motor","","","","","","",""
"843","","6917631","HierDyac0s1z15","2ufgfxgetv","msl000300","motor","","75","img/motor_7.png","75","motor","7","330","1","0","0","",""
"null","","6917740","HierDyac0s1z15","2ufgfxgetv","msl000300","iti","","null","img/motor_7.png","75","motor","","","","","","",""
"515","","6918263","HierDyac0s1z15","2ufgfxgetv","msl000300","motor","","65","img/motor_1.png","65","motor","1","331","1","0","0","",""
"null","","6918378","HierDyac0s1z15","2ufgfxgetv","msl000300","iti","","null","img/motor_1.png","65","motor","","","","","","",""
"620","","6919007","HierDyac0s1z15","2ufgfxgetv","msl000300","motor","","75","img/motor_7.png","75","motor","7","332","1","0","0","",""
"null","","6919115","HierDyac0s1z15","2ufgfxgetv","msl000300","iti","","null","img/motor_7.png","75","motor","","","","","","",""
"651","","6919774","HierDyac0s1z15","2ufgfxgetv","msl000300","motor","","74","img/motor_6.png","74","motor","6","333","1","0","0","",""
"null","","6919883","HierDyac0s1z15","2ufgfxgetv","msl000300","iti","","null","img/motor_6.png","74","motor","","","","","","",""
"580","","6920471","HierDyac0s1z15","2ufgfxgetv","msl000300","motor","","75","img/motor_8.png","76","motor","8","334","0","1","0","",""
"400","","6920885","HierDyac0s1z15","2ufgfxgetv","msl000300","motorRepeat","","76","img/motor_8.png","76","motor","8","334","1","0","0","",""
"null","","6920994","HierDyac0s1z15","2ufgfxgetv","msl000300","iti","","null","img/motor_8.png","76","motor","","","","","","",""
"540","","6921543","HierDyac0s1z15","2ufgfxgetv","msl000300","motor","","74","img/motor_6.png","74","motor","6","335","1","0","0","",""
"null","","6921658","HierDyac0s1z15","2ufgfxgetv","msl000300","iti","","null","img/motor_6.png","74","motor","","","","","","",""
"660","","6922327","HierDyac0s1z15","2ufgfxgetv","msl000300","motor","","72","img/motor_5.png","72","motor","5","336","1","0","0","",""
"null","","6922436","HierDyac0s1z15","2ufgfxgetv","msl000300","iti","","null","img/motor_5.png","72","motor","","","","","","",""
"530","","6922975","HierDyac0s1z15","2ufgfxgetv","msl000300","motor","","76","img/motor_8.png","76","motor","8","337","1","0","0","",""
"null","","6923083","HierDyac0s1z15","2ufgfxgetv","msl000300","iti","","null","img/motor_8.png","76","motor","","","","","","",""
"651","","6923743","HierDyac0s1z15","2ufgfxgetv","msl000300","motor","","83","img/motor_2.png","83","motor","2","338","1","0","0","",""
"null","","6923858","HierDyac0s1z15","2ufgfxgetv","msl000300","iti","","null","img/motor_2.png","83","motor","","","","","","",""
"388","","6924262","HierDyac0s1z15","2ufgfxgetv","msl000300","motor","","68","img/motor_3.png","68","motor","3","339","1","0","0","",""
"null","","6924377","HierDyac0s1z15","2ufgfxgetv","msl000300","iti","","null","img/motor_3.png","68","motor","","","","","","",""
"701","","6925087","HierDyac0s1z15","2ufgfxgetv","msl000300","motor","","76","img/motor_8.png","76","motor","8","340","1","0","0","",""
"null","","6925202","HierDyac0s1z15","2ufgfxgetv","msl000300","iti","","null","img/motor_8.png","76","motor","","","","","","",""
"820","","6926038","HierDyac0s1z15","2ufgfxgetv","msl000300","motor","","74","img/motor_6.png","74","motor","6","341","1","0","0","",""
"null","","6926153","HierDyac0s1z15","2ufgfxgetv","msl000300","iti","","null","img/motor_6.png","74","motor","","","","","","",""
"525","","6926693","HierDyac0s1z15","2ufgfxgetv","msl000300","motor","","83","img/motor_2.png","83","motor","2","342","1","0","0","",""
"null","","6926802","HierDyac0s1z15","2ufgfxgetv","msl000300","iti","","null","img/motor_2.png","83","motor","","","","","","",""
"356","","6927174","HierDyac0s1z15","2ufgfxgetv","msl000300","motor","","83","img/motor_2.png","83","motor","2","343","1","0","0","",""
"null","","6927289","HierDyac0s1z15","2ufgfxgetv","msl000300","iti","","null","img/motor_2.png","83","motor","","","","","","",""
"813","","6928110","HierDyac0s1z15","2ufgfxgetv","msl000300","motor","","72","img/motor_5.png","72","motor","5","344","1","0","0","",""
"null","","6928226","HierDyac0s1z15","2ufgfxgetv","msl000300","iti","","null","img/motor_5.png","72","motor","","","","","","",""
"500","","6928735","HierDyac0s1z15","2ufgfxgetv","msl000300","motor","","83","img/motor_2.png","83","motor","2","345","1","0","0","",""
"null","","6928851","HierDyac0s1z15","2ufgfxgetv","msl000300","iti","","null","img/motor_2.png","83","motor","","","","","","",""
"516","","6929374","HierDyac0s1z15","2ufgfxgetv","msl000300","motor","","65","img/motor_1.png","65","motor","1","346","1","0","0","",""
"null","","6929490","HierDyac0s1z15","2ufgfxgetv","msl000300","iti","","null","img/motor_1.png","65","motor","","","","","","",""
"620","","6930126","HierDyac0s1z15","2ufgfxgetv","msl000300","motor","","68","img/motor_3.png","68","motor","3","347","1","0","0","",""
"null","","6930235","HierDyac0s1z15","2ufgfxgetv","msl000300","iti","","null","img/motor_3.png","68","motor","","","","","","",""
"484","","6930727","HierDyac0s1z15","2ufgfxgetv","msl000300","motor","","65","img/motor_1.png","65","motor","1","348","1","0","0","",""
"null","","6930842","HierDyac0s1z15","2ufgfxgetv","msl000300","iti","","null","img/motor_1.png","65","motor","","","","","","",""
"828","","6931679","HierDyac0s1z15","2ufgfxgetv","msl000300","motor","","74","img/motor_6.png","74","motor","6","349","1","0","0","",""
"null","","6931794","HierDyac0s1z15","2ufgfxgetv","msl000300","iti","","null","img/motor_6.png","74","motor","","","","","","",""
"596","","6932400","HierDyac0s1z15","2ufgfxgetv","msl000300","motor","","65","img/motor_1.png","65","motor","1","350","1","0","0","",""
"null","","6932514","HierDyac0s1z15","2ufgfxgetv","msl000300","iti","","null","img/motor_1.png","65","motor","","","","","","",""
"676","","6933198","HierDyac0s1z15","2ufgfxgetv","msl000300","motor","","75","img/motor_7.png","75","motor","7","351","1","0","0","",""
"null","","6933314","HierDyac0s1z15","2ufgfxgetv","msl000300","iti","","null","img/motor_7.png","75","motor","","","","","","",""
"1397","","6934719","HierDyac0s1z15","2ufgfxgetv","msl000300","motor","","68","img/motor_3.png","68","motor","3","352","1","0","0","",""
"null","","6934833","HierDyac0s1z15","2ufgfxgetv","msl000300","iti","","null","img/motor_3.png","68","motor","","","","","","",""
"437","","6935279","HierDyac0s1z15","2ufgfxgetv","msl000300","motor","","70","img/motor_4.png","70","motor","4","353","1","0","0","",""
"null","","6935395","HierDyac0s1z15","2ufgfxgetv","msl000300","iti","","null","img/motor_4.png","70","motor","","","","","","",""
"604","","6936006","HierDyac0s1z15","2ufgfxgetv","msl000300","motor","","75","img/motor_7.png","75","motor","7","354","1","0","0","",""
"null","","6936115","HierDyac0s1z15","2ufgfxgetv","msl000300","iti","","null","img/motor_7.png","75","motor","","","","","","",""
"460","","6936590","HierDyac0s1z15","2ufgfxgetv","msl000300","motor","","76","img/motor_8.png","76","motor","8","355","1","0","0","",""
"null","","6936699","HierDyac0s1z15","2ufgfxgetv","msl000300","iti","","null","img/motor_8.png","76","motor","","","","","","",""
"580","","6937287","HierDyac0s1z15","2ufgfxgetv","msl000300","motor","","70","img/motor_4.png","70","motor","4","356","1","0","0","",""
"null","","6937403","HierDyac0s1z15","2ufgfxgetv","msl000300","iti","","null","img/motor_4.png","70","motor","","","","","","",""
"652","","6938064","HierDyac0s1z15","2ufgfxgetv","msl000300","motor","","76","img/motor_8.png","76","motor","8","357","1","0","0","",""
"null","","6938179","HierDyac0s1z15","2ufgfxgetv","msl000300","iti","","null","img/motor_8.png","76","motor","","","","","","",""
"811","","6939000","HierDyac0s1z15","2ufgfxgetv","msl000300","motor","","83","img/motor_2.png","83","motor","2","358","1","0","0","",""
"null","","6939115","HierDyac0s1z15","2ufgfxgetv","msl000300","iti","","null","img/motor_2.png","83","motor","","","","","","",""
"811","","6939935","HierDyac0s1z15","2ufgfxgetv","msl000300","motor","","74","img/motor_6.png","74","motor","6","359","1","0","0","",""
"null","","6940044","HierDyac0s1z15","2ufgfxgetv","msl000300","iti","","null","img/motor_6.png","74","motor","","","","","","",""
"619","","6940678","HierDyac0s1z15","2ufgfxgetv","msl000300","motor","","83","img/motor_2.png","83","motor","2","360","1","0","0","",""
"null","","6940786","HierDyac0s1z15","2ufgfxgetv","msl000300","iti","","null","img/motor_2.png","83","motor","","","","","","",""
"564","","6941359","HierDyac0s1z15","2ufgfxgetv","msl000300","motor","","83","img/motor_2.png","83","motor","2","361","1","0","0","",""
"null","","6941468","HierDyac0s1z15","2ufgfxgetv","msl000300","iti","","null","img/motor_2.png","83","motor","","","","","","",""
"883","","6942366","HierDyac0s1z15","2ufgfxgetv","msl000300","motor","","72","img/motor_5.png","72","motor","5","362","1","0","0","",""
"null","","6942475","HierDyac0s1z15","2ufgfxgetv","msl000300","iti","","null","img/motor_5.png","72","motor","","","","","","",""
"724","","6943213","HierDyac0s1z15","2ufgfxgetv","msl000300","motor","","68","img/motor_3.png","68","motor","3","363","1","0","0","",""
"null","","6943324","HierDyac0s1z15","2ufgfxgetv","msl000300","iti","","null","img/motor_3.png","68","motor","","","","","","",""
"468","","6943806","HierDyac0s1z15","2ufgfxgetv","msl000300","motor","","83","img/motor_2.png","83","motor","2","364","1","0","0","",""
"null","","6943916","HierDyac0s1z15","2ufgfxgetv","msl000300","iti","","null","img/motor_2.png","83","motor","","","","","","",""
"605","","6944527","HierDyac0s1z15","2ufgfxgetv","msl000300","motor","","70","img/motor_4.png","70","motor","4","365","1","0","0","",""
"null","","6944643","HierDyac0s1z15","2ufgfxgetv","msl000300","iti","","null","img/motor_4.png","70","motor","","","","","","",""
"483","","6945136","HierDyac0s1z15","2ufgfxgetv","msl000300","motor","","65","img/motor_1.png","65","motor","1","366","1","0","0","",""
