"rt","responses","time_elapsed","subject","prolificID","demoID","trialType","question_order","key_press","stim","corrresp","phase","stimNum","trialNum","corr","repeatTrial","motorSwitch","pracCounter","hierarchy"
"163974","{""Q0"":""msl000389""}","164009","HierDynkgob6s5","2luwxai4u4","msl000389","","","","","","","","","","","","",""
"122213","","286239","HierDynkgob6s5","2luwxai4u4","msl000389","","","","","","","","","","","","",""
"","","290032","HierDynkgob6s5","2luwxai4u4","msl000389","fullscreen","","","","","","","","","","","",""
"13585","{""Vision"":""Yes"",""Handedness"":""Right"",""Gender"":""female""}","303630","HierDynkgob6s5","2luwxai4u4","msl000389","","[0,1,2]","","","","","","","","","","",""
"5654","{""Q0"":""19""}","309298","HierDynkgob6s5","2luwxai4u4","msl000389","","","","","","","","","","","","",""
"61099","","370412","HierDynkgob6s5","2luwxai4u4","msl000389","","","","","","","","","","","","",""
"4096","","374521","HierDynkgob6s5","2luwxai4u4","msl000389","motor","","83","img/motor_2.png","83","motor","2","1","1","0","0","",""
"null","","374635","HierDynkgob6s5","2luwxai4u4","msl000389","iti","","null","img/motor_2.png","83","motor","","","","","","",""
"1218","","375864","HierDynkgob6s5","2luwxai4u4","msl000389","motor","","72","img/motor_5.png","72","motor","5","2","1","0","0","",""
"null","","375976","HierDynkgob6s5","2luwxai4u4","msl000389","iti","","null","img/motor_5.png","72","motor","","","","","","",""
"548","","376536","HierDynkgob6s5","2luwxai4u4","msl000389","motor","","74","img/motor_6.png","74","motor","6","3","1","0","0","",""
"null","","376648","HierDynkgob6s5","2luwxai4u4","msl000389","iti","","null","img/motor_6.png","74","motor","","","","","","",""
"669","","377329","HierDynkgob6s5","2luwxai4u4","msl000389","motor","","83","img/motor_2.png","83","motor","2","4","1","0","0","",""
"null","","377442","HierDynkgob6s5","2luwxai4u4","msl000389","iti","","null","img/motor_2.png","83","motor","","","","","","",""
"758","","378211","HierDynkgob6s5","2luwxai4u4","msl000389","motor","","68","img/motor_3.png","68","motor","3","5","1","0","0","",""
"null","","378324","HierDynkgob6s5","2luwxai4u4","msl000389","iti","","null","img/motor_3.png","68","motor","","","","","","",""
"626","","378962","HierDynkgob6s5","2luwxai4u4","msl000389","motor","","74","img/motor_6.png","74","motor","6","6","1","0","0","",""
"null","","379075","HierDynkgob6s5","2luwxai4u4","msl000389","iti","","null","img/motor_6.png","74","motor","","","","","","",""
"634","","379720","HierDynkgob6s5","2luwxai4u4","msl000389","motor","","72","img/motor_5.png","72","motor","5","7","1","0","0","",""
"null","","379831","HierDynkgob6s5","2luwxai4u4","msl000389","iti","","null","img/motor_5.png","72","motor","","","","","","",""
"623","","380467","HierDynkgob6s5","2luwxai4u4","msl000389","motor","","68","img/motor_2.png","83","motor","2","8","0","1","0","",""
"415","","380895","HierDynkgob6s5","2luwxai4u4","msl000389","motorRepeat","","83","img/motor_2.png","83","motor","2","8","1","0","0","",""
"null","","381008","HierDynkgob6s5","2luwxai4u4","msl000389","iti","","null","img/motor_2.png","83","motor","","","","","","",""
"810","","381831","HierDynkgob6s5","2luwxai4u4","msl000389","motor","","70","img/motor_4.png","70","motor","4","9","1","0","0","",""
"null","","381944","HierDynkgob6s5","2luwxai4u4","msl000389","iti","","null","img/motor_4.png","70","motor","","","","","","",""
"1000","","382956","HierDynkgob6s5","2luwxai4u4","msl000389","motor","","75","img/motor_7.png","75","motor","7","10","1","0","0","",""
"null","","383068","HierDynkgob6s5","2luwxai4u4","msl000389","iti","","null","img/motor_7.png","75","motor","","","","","","",""
"488","","383568","HierDynkgob6s5","2luwxai4u4","msl000389","motor","","75","img/motor_7.png","75","motor","7","11","1","0","0","",""
"null","","383680","HierDynkgob6s5","2luwxai4u4","msl000389","iti","","null","img/motor_7.png","75","motor","","","","","","",""
"675","","384366","HierDynkgob6s5","2luwxai4u4","msl000389","motor","","83","img/motor_2.png","83","motor","2","12","1","0","0","",""
"null","","384479","HierDynkgob6s5","2luwxai4u4","msl000389","iti","","null","img/motor_2.png","83","motor","","","","","","",""
"669","","385159","HierDynkgob6s5","2luwxai4u4","msl000389","motor","","75","img/motor_7.png","75","motor","7","13","1","0","0","",""
"null","","385273","HierDynkgob6s5","2luwxai4u4","msl000389","iti","","null","img/motor_7.png","75","motor","","","","","","",""
"775","","386059","HierDynkgob6s5","2luwxai4u4","msl000389","motor","","72","img/motor_5.png","72","motor","5","14","1","0","0","",""
"null","","386172","HierDynkgob6s5","2luwxai4u4","msl000389","iti","","null","img/motor_5.png","72","motor","","","","","","",""
"869","","387053","HierDynkgob6s5","2luwxai4u4","msl000389","motor","","65","img/motor_1.png","65","motor","1","15","1","0","0","",""
"null","","387165","HierDynkgob6s5","2luwxai4u4","msl000389","iti","","null","img/motor_1.png","65","motor","","","","","","",""
"544","","387720","HierDynkgob6s5","2luwxai4u4","msl000389","motor","","65","img/motor_1.png","65","motor","1","16","1","0","0","",""
"null","","387832","HierDynkgob6s5","2luwxai4u4","msl000389","iti","","null","img/motor_1.png","65","motor","","","","","","",""
"1126","","388968","HierDynkgob6s5","2luwxai4u4","msl000389","motor","","74","img/motor_6.png","74","motor","6","17","1","0","0","",""
"null","","389082","HierDynkgob6s5","2luwxai4u4","msl000389","iti","","null","img/motor_6.png","74","motor","","","","","","",""
"634","","389727","HierDynkgob6s5","2luwxai4u4","msl000389","motor","","74","img/motor_6.png","74","motor","6","18","1","0","0","",""
"null","","389840","HierDynkgob6s5","2luwxai4u4","msl000389","iti","","null","img/motor_6.png","74","motor","","","","","","",""
"750","","390604","HierDynkgob6s5","2luwxai4u4","msl000389","motor","","83","img/motor_2.png","83","motor","2","19","1","0","0","",""
"null","","390717","HierDynkgob6s5","2luwxai4u4","msl000389","iti","","null","img/motor_2.png","83","motor","","","","","","",""
"990","","391720","HierDynkgob6s5","2luwxai4u4","msl000389","motor","","74","img/motor_6.png","74","motor","6","20","1","0","0","",""
"null","","391832","HierDynkgob6s5","2luwxai4u4","msl000389","iti","","null","img/motor_6.png","74","motor","","","","","","",""
"719","","392563","HierDynkgob6s5","2luwxai4u4","msl000389","motor","","70","img/motor_4.png","70","motor","4","21","1","0","0","",""
"null","","392676","HierDynkgob6s5","2luwxai4u4","msl000389","iti","","null","img/motor_4.png","70","motor","","","","","","",""
"990","","393677","HierDynkgob6s5","2luwxai4u4","msl000389","motor","","76","img/motor_8.png","76","motor","8","22","1","0","0","",""
"null","","393789","HierDynkgob6s5","2luwxai4u4","msl000389","iti","","null","img/motor_8.png","76","motor","","","","","","",""
"709","","394514","HierDynkgob6s5","2luwxai4u4","msl000389","motor","","70","img/motor_4.png","70","motor","4","23","1","0","0","",""
"null","","394627","HierDynkgob6s5","2luwxai4u4","msl000389","iti","","null","img/motor_4.png","70","motor","","","","","","",""
"609","","395248","HierDynkgob6s5","2luwxai4u4","msl000389","motor","","72","img/motor_5.png","72","motor","5","24","1","0","0","",""
"null","","395362","HierDynkgob6s5","2luwxai4u4","msl000389","iti","","null","img/motor_5.png","72","motor","","","","","","",""
"544","","395917","HierDynkgob6s5","2luwxai4u4","msl000389","motor","","76","img/motor_8.png","76","motor","8","25","1","0","0","",""
"null","","396031","HierDynkgob6s5","2luwxai4u4","msl000389","iti","","null","img/motor_8.png","76","motor","","","","","","",""
"732","","396774","HierDynkgob6s5","2luwxai4u4","msl000389","motor","","74","img/motor_6.png","74","motor","6","26","1","0","0","",""
"null","","396886","HierDynkgob6s5","2luwxai4u4","msl000389","iti","","null","img/motor_6.png","74","motor","","","","","","",""
"598","","397496","HierDynkgob6s5","2luwxai4u4","msl000389","motor","","76","img/motor_8.png","76","motor","8","27","1","0","0","",""
"null","","397609","HierDynkgob6s5","2luwxai4u4","msl000389","iti","","null","img/motor_8.png","76","motor","","","","","","",""
"1433","","399052","HierDynkgob6s5","2luwxai4u4","msl000389","motor","","68","img/motor_3.png","68","motor","3","28","1","0","0","",""
"null","","399165","HierDynkgob6s5","2luwxai4u4","msl000389","iti","","null","img/motor_3.png","68","motor","","","","","","",""
"787","","399964","HierDynkgob6s5","2luwxai4u4","msl000389","motor","","76","img/motor_8.png","76","motor","8","29","1","0","0","",""
"null","","400076","HierDynkgob6s5","2luwxai4u4","msl000389","iti","","null","img/motor_8.png","76","motor","","","","","","",""
"786","","400874","HierDynkgob6s5","2luwxai4u4","msl000389","motor","","74","img/motor_6.png","74","motor","6","30","1","0","0","",""
"null","","400987","HierDynkgob6s5","2luwxai4u4","msl000389","iti","","null","img/motor_6.png","74","motor","","","","","","",""
"563","","401562","HierDynkgob6s5","2luwxai4u4","msl000389","motor","","75","img/motor_7.png","75","motor","7","31","1","0","0","",""
"null","","401675","HierDynkgob6s5","2luwxai4u4","msl000389","iti","","null","img/motor_7.png","75","motor","","","","","","",""
"815","","402500","HierDynkgob6s5","2luwxai4u4","msl000389","motor","","83","img/motor_2.png","83","motor","2","32","1","0","0","",""
"null","","402613","HierDynkgob6s5","2luwxai4u4","msl000389","iti","","null","img/motor_2.png","83","motor","","","","","","",""
"771","","403395","HierDynkgob6s5","2luwxai4u4","msl000389","motor","","72","img/motor_5.png","72","motor","5","33","1","0","0","",""
"null","","403509","HierDynkgob6s5","2luwxai4u4","msl000389","iti","","null","img/motor_5.png","72","motor","","","","","","",""
"763","","404282","HierDynkgob6s5","2luwxai4u4","msl000389","motor","","70","img/motor_4.png","70","motor","4","34","1","0","0","",""
"null","","404395","HierDynkgob6s5","2luwxai4u4","msl000389","iti","","null","img/motor_4.png","70","motor","","","","","","",""
"594","","405000","HierDynkgob6s5","2luwxai4u4","msl000389","motor","","76","img/motor_8.png","76","motor","8","35","1","0","0","",""
"null","","405113","HierDynkgob6s5","2luwxai4u4","msl000389","iti","","null","img/motor_8.png","76","motor","","","","","","",""
"506","","405630","HierDynkgob6s5","2luwxai4u4","msl000389","motor","","72","img/motor_5.png","72","motor","5","36","1","0","0","",""
"null","","405742","HierDynkgob6s5","2luwxai4u4","msl000389","iti","","null","img/motor_5.png","72","motor","","","","","","",""
"511","","406266","HierDynkgob6s5","2luwxai4u4","msl000389","motor","","76","img/motor_8.png","76","motor","8","37","1","0","0","",""
"null","","406379","HierDynkgob6s5","2luwxai4u4","msl000389","iti","","null","img/motor_8.png","76","motor","","","","","","",""
"652","","407042","HierDynkgob6s5","2luwxai4u4","msl000389","motor","","75","img/motor_7.png","75","motor","7","38","1","0","0","",""
"null","","407155","HierDynkgob6s5","2luwxai4u4","msl000389","iti","","null","img/motor_7.png","75","motor","","","","","","",""
"786","","407952","HierDynkgob6s5","2luwxai4u4","msl000389","motor","","68","img/motor_3.png","68","motor","3","39","1","0","0","",""
"null","","408064","HierDynkgob6s5","2luwxai4u4","msl000389","iti","","null","img/motor_3.png","68","motor","","","","","","",""
"539","","408615","HierDynkgob6s5","2luwxai4u4","msl000389","motor","","83","img/motor_2.png","83","motor","2","40","1","0","0","",""
"null","","408728","HierDynkgob6s5","2luwxai4u4","msl000389","iti","","null","img/motor_2.png","83","motor","","","","","","",""
"447","","409186","HierDynkgob6s5","2luwxai4u4","msl000389","motor","","75","img/motor_6.png","74","motor","6","41","0","1","0","",""
"397","","409594","HierDynkgob6s5","2luwxai4u4","msl000389","motorRepeat","","74","img/motor_6.png","74","motor","6","41","1","0","0","",""
"null","","409707","HierDynkgob6s5","2luwxai4u4","msl000389","iti","","null","img/motor_6.png","74","motor","","","","","","",""
"639","","410357","HierDynkgob6s5","2luwxai4u4","msl000389","motor","","65","img/motor_1.png","65","motor","1","42","1","0","0","",""
"null","","410470","HierDynkgob6s5","2luwxai4u4","msl000389","iti","","null","img/motor_1.png","65","motor","","","","","","",""
"682","","411163","HierDynkgob6s5","2luwxai4u4","msl000389","motor","","76","img/motor_8.png","76","motor","8","43","1","0","0","",""
"null","","411275","HierDynkgob6s5","2luwxai4u4","msl000389","iti","","null","img/motor_8.png","76","motor","","","","","","",""
"703","","411988","HierDynkgob6s5","2luwxai4u4","msl000389","motor","","70","img/motor_4.png","70","motor","4","44","1","0","0","",""
"null","","412100","HierDynkgob6s5","2luwxai4u4","msl000389","iti","","null","img/motor_4.png","70","motor","","","","","","",""
"718","","412829","HierDynkgob6s5","2luwxai4u4","msl000389","motor","","83","img/motor_2.png","83","motor","2","45","1","0","0","",""
"null","","412942","HierDynkgob6s5","2luwxai4u4","msl000389","iti","","null","img/motor_2.png","83","motor","","","","","","",""
"834","","413789","HierDynkgob6s5","2luwxai4u4","msl000389","motor","","74","img/motor_6.png","74","motor","6","46","1","0","0","",""
"null","","413900","HierDynkgob6s5","2luwxai4u4","msl000389","iti","","null","img/motor_6.png","74","motor","","","","","","",""
"630","","414542","HierDynkgob6s5","2luwxai4u4","msl000389","motor","","72","img/motor_5.png","72","motor","5","47","1","0","0","",""
"null","","414656","HierDynkgob6s5","2luwxai4u4","msl000389","iti","","null","img/motor_5.png","72","motor","","","","","","",""
"743","","415410","HierDynkgob6s5","2luwxai4u4","msl000389","motor","","70","img/motor_4.png","70","motor","4","48","1","0","0","",""
"null","","415523","HierDynkgob6s5","2luwxai4u4","msl000389","iti","","null","img/motor_4.png","70","motor","","","","","","",""
"854","","416388","HierDynkgob6s5","2luwxai4u4","msl000389","motor","","75","img/motor_7.png","75","motor","7","49","1","0","0","",""
"null","","416501","HierDynkgob6s5","2luwxai4u4","msl000389","iti","","null","img/motor_7.png","75","motor","","","","","","",""
"574","","417086","HierDynkgob6s5","2luwxai4u4","msl000389","motor","","76","img/motor_8.png","76","motor","8","50","1","0","0","",""
"null","","417198","HierDynkgob6s5","2luwxai4u4","msl000389","iti","","null","img/motor_8.png","76","motor","","","","","","",""
"1263","","418473","HierDynkgob6s5","2luwxai4u4","msl000389","motor","","68","img/motor_3.png","68","motor","3","51","1","0","0","",""
"null","","418586","HierDynkgob6s5","2luwxai4u4","msl000389","iti","","null","img/motor_3.png","68","motor","","","","","","",""
"688","","419285","HierDynkgob6s5","2luwxai4u4","msl000389","motor","","74","img/motor_6.png","74","motor","6","52","1","0","0","",""
"null","","419398","HierDynkgob6s5","2luwxai4u4","msl000389","iti","","null","img/motor_6.png","74","motor","","","","","","",""
"577","","419987","HierDynkgob6s5","2luwxai4u4","msl000389","motor","","68","img/motor_3.png","68","motor","3","53","1","0","0","",""
"null","","420100","HierDynkgob6s5","2luwxai4u4","msl000389","iti","","null","img/motor_3.png","68","motor","","","","","","",""
"504","","420615","HierDynkgob6s5","2luwxai4u4","msl000389","motor","","74","img/motor_6.png","74","motor","6","54","1","0","0","",""
"null","","420728","HierDynkgob6s5","2luwxai4u4","msl000389","iti","","null","img/motor_6.png","74","motor","","","","","","",""
"578","","421317","HierDynkgob6s5","2luwxai4u4","msl000389","motor","","65","img/motor_1.png","65","motor","1","55","1","0","0","",""
"null","","421430","HierDynkgob6s5","2luwxai4u4","msl000389","iti","","null","img/motor_1.png","65","motor","","","","","","",""
"719","","422160","HierDynkgob6s5","2luwxai4u4","msl000389","motor","","70","img/motor_4.png","70","motor","4","56","1","0","0","",""
"null","","422272","HierDynkgob6s5","2luwxai4u4","msl000389","iti","","null","img/motor_4.png","70","motor","","","","","","",""
"658","","422942","HierDynkgob6s5","2luwxai4u4","msl000389","motor","","68","img/motor_3.png","68","motor","3","57","1","0","0","",""
"null","","423054","HierDynkgob6s5","2luwxai4u4","msl000389","iti","","null","img/motor_3.png","68","motor","","","","","","",""
"576","","423640","HierDynkgob6s5","2luwxai4u4","msl000389","motor","","68","img/motor_3.png","68","motor","3","58","1","0","0","",""
"null","","423755","HierDynkgob6s5","2luwxai4u4","msl000389","iti","","null","img/motor_3.png","68","motor","","","","","","",""
"614","","424379","HierDynkgob6s5","2luwxai4u4","msl000389","motor","","70","img/motor_4.png","70","motor","4","59","1","0","0","",""
"null","","424491","HierDynkgob6s5","2luwxai4u4","msl000389","iti","","null","img/motor_4.png","70","motor","","","","","","",""
"826","","425329","HierDynkgob6s5","2luwxai4u4","msl000389","motor","","72","img/motor_5.png","72","motor","5","60","1","0","0","",""
"null","","425442","HierDynkgob6s5","2luwxai4u4","msl000389","iti","","null","img/motor_5.png","72","motor","","","","","","",""
"843","","426296","HierDynkgob6s5","2luwxai4u4","msl000389","motor","","75","img/motor_7.png","75","motor","7","61","1","0","0","",""
"null","","426409","HierDynkgob6s5","2luwxai4u4","msl000389","iti","","null","img/motor_7.png","75","motor","","","","","","",""
"539","","426959","HierDynkgob6s5","2luwxai4u4","msl000389","motor","","75","img/motor_7.png","75","motor","7","62","1","0","0","",""
"null","","427071","HierDynkgob6s5","2luwxai4u4","msl000389","iti","","null","img/motor_7.png","75","motor","","","","","","",""
"830","","427913","HierDynkgob6s5","2luwxai4u4","msl000389","motor","","68","img/motor_3.png","68","motor","3","63","1","0","0","",""
"null","","428025","HierDynkgob6s5","2luwxai4u4","msl000389","iti","","null","img/motor_3.png","68","motor","","","","","","",""
"755","","428791","HierDynkgob6s5","2luwxai4u4","msl000389","motor","","72","img/motor_5.png","72","motor","5","64","1","0","0","",""
"null","","428904","HierDynkgob6s5","2luwxai4u4","msl000389","iti","","null","img/motor_5.png","72","motor","","","","","","",""
"926","","429842","HierDynkgob6s5","2luwxai4u4","msl000389","motor","","75","img/motor_7.png","75","motor","7","65","1","0","0","",""
"null","","429955","HierDynkgob6s5","2luwxai4u4","msl000389","iti","","null","img/motor_7.png","75","motor","","","","","","",""
"696","","430662","HierDynkgob6s5","2luwxai4u4","msl000389","motor","","74","img/motor_6.png","74","motor","6","66","1","0","0","",""
"null","","430775","HierDynkgob6s5","2luwxai4u4","msl000389","iti","","null","img/motor_6.png","74","motor","","","","","","",""
"1468","","432257","HierDynkgob6s5","2luwxai4u4","msl000389","motor","","68","img/motor_3.png","68","motor","3","67","1","0","0","",""
"null","","432370","HierDynkgob6s5","2luwxai4u4","msl000389","iti","","null","img/motor_3.png","68","motor","","","","","","",""
"652","","433033","HierDynkgob6s5","2luwxai4u4","msl000389","motor","","83","img/motor_2.png","83","motor","2","68","1","0","0","",""
"null","","433145","HierDynkgob6s5","2luwxai4u4","msl000389","iti","","null","img/motor_2.png","83","motor","","","","","","",""
"547","","433705","HierDynkgob6s5","2luwxai4u4","msl000389","motor","","70","img/motor_4.png","70","motor","4","69","1","0","0","",""
"null","","433818","HierDynkgob6s5","2luwxai4u4","msl000389","iti","","null","img/motor_4.png","70","motor","","","","","","",""
"1006","","434837","HierDynkgob6s5","2luwxai4u4","msl000389","motor","","76","img/motor_8.png","76","motor","8","70","1","0","0","",""
"null","","434948","HierDynkgob6s5","2luwxai4u4","msl000389","iti","","null","img/motor_8.png","76","motor","","","","","","",""
"577","","435537","HierDynkgob6s5","2luwxai4u4","msl000389","motor","","70","img/motor_4.png","70","motor","4","71","1","0","0","",""
"null","","435651","HierDynkgob6s5","2luwxai4u4","msl000389","iti","","null","img/motor_4.png","70","motor","","","","","","",""
"678","","436340","HierDynkgob6s5","2luwxai4u4","msl000389","motor","","83","img/motor_2.png","83","motor","2","72","1","0","0","",""
"null","","436453","HierDynkgob6s5","2luwxai4u4","msl000389","iti","","null","img/motor_2.png","83","motor","","","","","","",""
"563","","437028","HierDynkgob6s5","2luwxai4u4","msl000389","motor","","68","img/motor_3.png","68","motor","3","73","1","0","0","",""
"null","","437140","HierDynkgob6s5","2luwxai4u4","msl000389","iti","","null","img/motor_3.png","68","motor","","","","","","",""
"543","","437694","HierDynkgob6s5","2luwxai4u4","msl000389","motor","","68","img/motor_3.png","68","motor","3","74","1","0","0","",""
"null","","437806","HierDynkgob6s5","2luwxai4u4","msl000389","iti","","null","img/motor_3.png","68","motor","","","","","","",""
"628","","438444","HierDynkgob6s5","2luwxai4u4","msl000389","motor","","72","img/motor_5.png","72","motor","5","75","1","0","0","",""
"null","","438558","HierDynkgob6s5","2luwxai4u4","msl000389","iti","","null","img/motor_5.png","72","motor","","","","","","",""
"699","","439267","HierDynkgob6s5","2luwxai4u4","msl000389","motor","","83","img/motor_2.png","83","motor","2","76","1","0","0","",""
"null","","439380","HierDynkgob6s5","2luwxai4u4","msl000389","iti","","null","img/motor_2.png","83","motor","","","","","","",""
"653","","440044","HierDynkgob6s5","2luwxai4u4","msl000389","motor","","70","img/motor_4.png","70","motor","4","77","1","0","0","",""
"null","","440156","HierDynkgob6s5","2luwxai4u4","msl000389","iti","","null","img/motor_4.png","70","motor","","","","","","",""
"598","","440767","HierDynkgob6s5","2luwxai4u4","msl000389","motor","","72","img/motor_5.png","72","motor","5","78","1","0","0","",""
"null","","440880","HierDynkgob6s5","2luwxai4u4","msl000389","iti","","null","img/motor_5.png","72","motor","","","","","","",""
"766","","441657","HierDynkgob6s5","2luwxai4u4","msl000389","motor","","83","img/motor_2.png","83","motor","2","79","1","0","0","",""
"null","","441771","HierDynkgob6s5","2luwxai4u4","msl000389","iti","","null","img/motor_2.png","83","motor","","","","","","",""
"677","","442460","HierDynkgob6s5","2luwxai4u4","msl000389","motor","","65","img/motor_1.png","65","motor","1","80","1","0","0","",""
"null","","442572","HierDynkgob6s5","2luwxai4u4","msl000389","iti","","null","img/motor_1.png","65","motor","","","","","","",""
"661","","443246","HierDynkgob6s5","2luwxai4u4","msl000389","motor","","76","img/motor_8.png","76","motor","8","81","1","0","0","",""
"null","","443359","HierDynkgob6s5","2luwxai4u4","msl000389","iti","","null","img/motor_8.png","76","motor","","","","","","",""
"1171","","444540","HierDynkgob6s5","2luwxai4u4","msl000389","motor","","70","img/motor_4.png","70","motor","4","82","1","0","0","",""
"null","","444653","HierDynkgob6s5","2luwxai4u4","msl000389","iti","","null","img/motor_4.png","70","motor","","","","","","",""
"1314","","445980","HierDynkgob6s5","2luwxai4u4","msl000389","motor","","70","img/motor_4.png","70","motor","4","83","1","0","0","",""
"null","","446091","HierDynkgob6s5","2luwxai4u4","msl000389","iti","","null","img/motor_4.png","70","motor","","","","","","",""
"656","","446758","HierDynkgob6s5","2luwxai4u4","msl000389","motor","","83","img/motor_2.png","83","motor","2","84","1","0","0","",""
"null","","446871","HierDynkgob6s5","2luwxai4u4","msl000389","iti","","null","img/motor_2.png","83","motor","","","","","","",""
"1062","","447945","HierDynkgob6s5","2luwxai4u4","msl000389","motor","","75","img/motor_7.png","75","motor","7","85","1","0","0","",""
"null","","448057","HierDynkgob6s5","2luwxai4u4","msl000389","iti","","null","img/motor_7.png","75","motor","","","","","","",""
"522","","448589","HierDynkgob6s5","2luwxai4u4","msl000389","motor","","74","img/motor_6.png","74","motor","6","86","1","0","0","",""
"null","","448701","HierDynkgob6s5","2luwxai4u4","msl000389","iti","","null","img/motor_6.png","74","motor","","","","","","",""
"578","","449292","HierDynkgob6s5","2luwxai4u4","msl000389","motor","","65","img/motor_1.png","65","motor","1","87","1","0","0","",""
"null","","449404","HierDynkgob6s5","2luwxai4u4","msl000389","iti","","null","img/motor_1.png","65","motor","","","","","","",""
"577","","449993","HierDynkgob6s5","2luwxai4u4","msl000389","motor","","76","img/motor_8.png","76","motor","8","88","1","0","0","",""
"null","","450105","HierDynkgob6s5","2luwxai4u4","msl000389","iti","","null","img/motor_8.png","76","motor","","","","","","",""
"464","","450580","HierDynkgob6s5","2luwxai4u4","msl000389","motor","","76","img/motor_8.png","76","motor","8","89","1","0","0","",""
"null","","450692","HierDynkgob6s5","2luwxai4u4","msl000389","iti","","null","img/motor_8.png","76","motor","","","","","","",""
"568","","451272","HierDynkgob6s5","2luwxai4u4","msl000389","motor","","83","img/motor_2.png","83","motor","2","90","1","0","0","",""
"null","","451384","HierDynkgob6s5","2luwxai4u4","msl000389","iti","","null","img/motor_2.png","83","motor","","","","","","",""
"508","","451904","HierDynkgob6s5","2luwxai4u4","msl000389","motor","","76","img/motor_8.png","76","motor","8","91","1","0","0","",""
"null","","452017","HierDynkgob6s5","2luwxai4u4","msl000389","iti","","null","img/motor_8.png","76","motor","","","","","","",""
"914","","452943","HierDynkgob6s5","2luwxai4u4","msl000389","motor","","68","img/motor_3.png","68","motor","3","92","1","0","0","",""
"null","","453056","HierDynkgob6s5","2luwxai4u4","msl000389","iti","","null","img/motor_3.png","68","motor","","","","","","",""
"665","","453732","HierDynkgob6s5","2luwxai4u4","msl000389","motor","","83","img/motor_2.png","83","motor","2","93","1","0","0","",""
"null","","453845","HierDynkgob6s5","2luwxai4u4","msl000389","iti","","null","img/motor_2.png","83","motor","","","","","","",""
"826","","454686","HierDynkgob6s5","2luwxai4u4","msl000389","motor","","75","img/motor_7.png","75","motor","7","94","1","0","0","",""
"null","","454799","HierDynkgob6s5","2luwxai4u4","msl000389","iti","","null","img/motor_7.png","75","motor","","","","","","",""
"902","","455714","HierDynkgob6s5","2luwxai4u4","msl000389","motor","","83","img/motor_2.png","83","motor","2","95","1","0","0","",""
"null","","455828","HierDynkgob6s5","2luwxai4u4","msl000389","iti","","null","img/motor_2.png","83","motor","","","","","","",""
"431","","456271","HierDynkgob6s5","2luwxai4u4","msl000389","motor","","83","img/motor_2.png","83","motor","2","96","1","0","0","",""
"null","","456385","HierDynkgob6s5","2luwxai4u4","msl000389","iti","","null","img/motor_2.png","83","motor","","","","","","",""
"691","","457090","HierDynkgob6s5","2luwxai4u4","msl000389","motor","","74","img/motor_6.png","74","motor","6","97","1","0","0","",""
"null","","457203","HierDynkgob6s5","2luwxai4u4","msl000389","iti","","null","img/motor_6.png","74","motor","","","","","","",""
"759","","457973","HierDynkgob6s5","2luwxai4u4","msl000389","motor","","72","img/motor_5.png","72","motor","5","98","1","0","0","",""
"null","","458085","HierDynkgob6s5","2luwxai4u4","msl000389","iti","","null","img/motor_5.png","72","motor","","","","","","",""
"653","","458753","HierDynkgob6s5","2luwxai4u4","msl000389","motor","","76","img/motor_8.png","76","motor","8","99","1","0","0","",""
"null","","458866","HierDynkgob6s5","2luwxai4u4","msl000389","iti","","null","img/motor_8.png","76","motor","","","","","","",""
"759","","459639","HierDynkgob6s5","2luwxai4u4","msl000389","motor","","68","img/motor_3.png","68","motor","3","100","1","0","0","",""
"null","","459752","HierDynkgob6s5","2luwxai4u4","msl000389","iti","","null","img/motor_3.png","68","motor","","","","","","",""
"574","","460339","HierDynkgob6s5","2luwxai4u4","msl000389","motor","","75","img/motor_7.png","75","motor","7","101","1","0","0","",""
"null","","460453","HierDynkgob6s5","2luwxai4u4","msl000389","iti","","null","img/motor_7.png","75","motor","","","","","","",""
"2216","","462680","HierDynkgob6s5","2luwxai4u4","msl000389","motor","","72","img/motor_5.png","72","motor","5","102","1","0","0","",""
"null","","462792","HierDynkgob6s5","2luwxai4u4","msl000389","iti","","null","img/motor_5.png","72","motor","","","","","","",""
"761","","463564","HierDynkgob6s5","2luwxai4u4","msl000389","motor","","74","img/motor_6.png","74","motor","6","103","1","0","0","",""
"null","","463677","HierDynkgob6s5","2luwxai4u4","msl000389","iti","","null","img/motor_6.png","74","motor","","","","","","",""
"738","","464426","HierDynkgob6s5","2luwxai4u4","msl000389","motor","","65","img/motor_1.png","65","motor","1","104","1","0","0","",""
"null","","464540","HierDynkgob6s5","2luwxai4u4","msl000389","iti","","null","img/motor_1.png","65","motor","","","","","","",""
"620","","465171","HierDynkgob6s5","2luwxai4u4","msl000389","motor","","83","img/motor_2.png","83","motor","2","105","1","0","0","",""
"null","","465284","HierDynkgob6s5","2luwxai4u4","msl000389","iti","","null","img/motor_2.png","83","motor","","","","","","",""
"392","","465689","HierDynkgob6s5","2luwxai4u4","msl000389","motor","","68","img/motor_3.png","68","motor","3","106","1","0","0","",""
"null","","465800","HierDynkgob6s5","2luwxai4u4","msl000389","iti","","null","img/motor_3.png","68","motor","","","","","","",""
"513","","466324","HierDynkgob6s5","2luwxai4u4","msl000389","motor","","65","img/motor_1.png","65","motor","1","107","1","0","0","",""
"null","","466437","HierDynkgob6s5","2luwxai4u4","msl000389","iti","","null","img/motor_1.png","65","motor","","","","","","",""
"482","","466931","HierDynkgob6s5","2luwxai4u4","msl000389","motor","","72","img/motor_5.png","72","motor","5","108","1","0","0","",""
"null","","467042","HierDynkgob6s5","2luwxai4u4","msl000389","iti","","null","img/motor_5.png","72","motor","","","","","","",""
"604","","467658","HierDynkgob6s5","2luwxai4u4","msl000389","motor","","68","img/motor_3.png","68","motor","3","109","1","0","0","",""
"null","","467771","HierDynkgob6s5","2luwxai4u4","msl000389","iti","","null","img/motor_3.png","68","motor","","","","","","",""
"484","","468266","HierDynkgob6s5","2luwxai4u4","msl000389","motor","","65","img/motor_1.png","65","motor","1","110","1","0","0","",""
"null","","468379","HierDynkgob6s5","2luwxai4u4","msl000389","iti","","null","img/motor_1.png","65","motor","","","","","","",""
"444","","468835","HierDynkgob6s5","2luwxai4u4","msl000389","motor","","72","img/motor_5.png","72","motor","5","111","1","0","0","",""
"null","","468947","HierDynkgob6s5","2luwxai4u4","msl000389","iti","","null","img/motor_5.png","72","motor","","","","","","",""
"497","","469456","HierDynkgob6s5","2luwxai4u4","msl000389","motor","","75","img/motor_7.png","75","motor","7","112","1","0","0","",""
"null","","469568","HierDynkgob6s5","2luwxai4u4","msl000389","iti","","null","img/motor_7.png","75","motor","","","","","","",""
"590","","470171","HierDynkgob6s5","2luwxai4u4","msl000389","motor","","70","img/motor_4.png","70","motor","4","113","1","0","0","",""
"null","","470283","HierDynkgob6s5","2luwxai4u4","msl000389","iti","","null","img/motor_4.png","70","motor","","","","","","",""
"491","","470786","HierDynkgob6s5","2luwxai4u4","msl000389","motor","","70","img/motor_4.png","70","motor","4","114","1","0","0","",""
"null","","470900","HierDynkgob6s5","2luwxai4u4","msl000389","iti","","null","img/motor_4.png","70","motor","","","","","","",""
"662","","471574","HierDynkgob6s5","2luwxai4u4","msl000389","motor","","74","img/motor_6.png","74","motor","6","115","1","0","0","",""
"null","","471686","HierDynkgob6s5","2luwxai4u4","msl000389","iti","","null","img/motor_6.png","74","motor","","","","","","",""
"538","","472237","HierDynkgob6s5","2luwxai4u4","msl000389","motor","","70","img/motor_4.png","70","motor","4","116","1","0","0","",""
"null","","472349","HierDynkgob6s5","2luwxai4u4","msl000389","iti","","null","img/motor_4.png","70","motor","","","","","","",""
"467","","472829","HierDynkgob6s5","2luwxai4u4","msl000389","motor","","68","img/motor_3.png","68","motor","3","117","1","0","0","",""
"null","","472941","HierDynkgob6s5","2luwxai4u4","msl000389","iti","","null","img/motor_3.png","68","motor","","","","","","",""
"438","","473391","HierDynkgob6s5","2luwxai4u4","msl000389","motor","","75","img/motor_8.png","76","motor","8","118","0","1","0","",""
"431","","473833","HierDynkgob6s5","2luwxai4u4","msl000389","motorRepeat","","76","img/motor_8.png","76","motor","8","118","1","0","0","",""
"null","","473945","HierDynkgob6s5","2luwxai4u4","msl000389","iti","","null","img/motor_8.png","76","motor","","","","","","",""
"839","","474796","HierDynkgob6s5","2luwxai4u4","msl000389","motor","","74","img/motor_6.png","74","motor","6","119","1","0","0","",""
"null","","474910","HierDynkgob6s5","2luwxai4u4","msl000389","iti","","null","img/motor_6.png","74","motor","","","","","","",""
"1705","","476630","HierDynkgob6s5","2luwxai4u4","msl000389","motor","","74","img/motor_6.png","74","motor","6","120","1","0","0","",""
"null","","476743","HierDynkgob6s5","2luwxai4u4","msl000389","iti","","null","img/motor_6.png","74","motor","","","","","","",""
"1963","","478719","HierDynkgob6s5","2luwxai4u4","msl000389","motor","","83","img/motor_2.png","83","motor","2","121","1","0","0","",""
"null","","478831","HierDynkgob6s5","2luwxai4u4","msl000389","iti","","null","img/motor_2.png","83","motor","","","","","","",""
"731","","479575","HierDynkgob6s5","2luwxai4u4","msl000389","motor","","72","img/motor_5.png","72","motor","5","122","1","0","0","",""
"null","","479688","HierDynkgob6s5","2luwxai4u4","msl000389","iti","","null","img/motor_5.png","72","motor","","","","","","",""
"402","","480102","HierDynkgob6s5","2luwxai4u4","msl000389","motor","","75","img/motor_7.png","75","motor","7","123","1","0","0","",""
"null","","480214","HierDynkgob6s5","2luwxai4u4","msl000389","iti","","null","img/motor_7.png","75","motor","","","","","","",""
"588","","480814","HierDynkgob6s5","2luwxai4u4","msl000389","motor","","74","img/motor_6.png","74","motor","6","124","1","0","0","",""
"null","","480928","HierDynkgob6s5","2luwxai4u4","msl000389","iti","","null","img/motor_6.png","74","motor","","","","","","",""
"572","","481511","HierDynkgob6s5","2luwxai4u4","msl000389","motor","","76","img/motor_8.png","76","motor","8","125","1","0","0","",""
"null","","481626","HierDynkgob6s5","2luwxai4u4","msl000389","iti","","null","img/motor_8.png","76","motor","","","","","","",""
"603","","482240","HierDynkgob6s5","2luwxai4u4","msl000389","motor","","75","img/motor_7.png","75","motor","7","126","1","0","0","",""
"null","","482352","HierDynkgob6s5","2luwxai4u4","msl000389","iti","","null","img/motor_7.png","75","motor","","","","","","",""
"653","","483017","HierDynkgob6s5","2luwxai4u4","msl000389","motor","","76","img/motor_8.png","76","motor","8","127","1","0","0","",""
"null","","483130","HierDynkgob6s5","2luwxai4u4","msl000389","iti","","null","img/motor_8.png","76","motor","","","","","","",""
"548","","483690","HierDynkgob6s5","2luwxai4u4","msl000389","motor","","75","img/motor_7.png","75","motor","7","128","1","0","0","",""
"null","","483803","HierDynkgob6s5","2luwxai4u4","msl000389","iti","","null","img/motor_7.png","75","motor","","","","","","",""
"583","","484397","HierDynkgob6s5","2luwxai4u4","msl000389","motor","","76","img/motor_8.png","76","motor","8","129","1","0","0","",""
"null","","484510","HierDynkgob6s5","2luwxai4u4","msl000389","iti","","null","img/motor_8.png","76","motor","","","","","","",""
"924","","485447","HierDynkgob6s5","2luwxai4u4","msl000389","motor","","76","img/motor_8.png","76","motor","8","130","1","0","0","",""
"null","","485559","HierDynkgob6s5","2luwxai4u4","msl000389","iti","","null","img/motor_8.png","76","motor","","","","","","",""
"579","","486149","HierDynkgob6s5","2luwxai4u4","msl000389","motor","","65","img/motor_1.png","65","motor","1","131","1","0","0","",""
"null","","486261","HierDynkgob6s5","2luwxai4u4","msl000389","iti","","null","img/motor_1.png","65","motor","","","","","","",""
"475","","486747","HierDynkgob6s5","2luwxai4u4","msl000389","motor","","76","img/motor_8.png","76","motor","8","132","1","0","0","",""
"null","","486859","HierDynkgob6s5","2luwxai4u4","msl000389","iti","","null","img/motor_8.png","76","motor","","","","","","",""
"639","","487510","HierDynkgob6s5","2luwxai4u4","msl000389","motor","","70","img/motor_4.png","70","motor","4","133","1","0","0","",""
"null","","487623","HierDynkgob6s5","2luwxai4u4","msl000389","iti","","null","img/motor_4.png","70","motor","","","","","","",""
"464","","488097","HierDynkgob6s5","2luwxai4u4","msl000389","motor","","65","img/motor_1.png","65","motor","1","134","1","0","0","",""
"null","","488209","HierDynkgob6s5","2luwxai4u4","msl000389","iti","","null","img/motor_1.png","65","motor","","","","","","",""
"1141","","489362","HierDynkgob6s5","2luwxai4u4","msl000389","motor","","68","img/motor_3.png","68","motor","3","135","1","0","0","",""
"null","","489475","HierDynkgob6s5","2luwxai4u4","msl000389","iti","","null","img/motor_3.png","68","motor","","","","","","",""
"2374","","491861","HierDynkgob6s5","2luwxai4u4","msl000389","motor","","74","img/motor_6.png","74","motor","6","136","1","0","0","",""
"null","","491973","HierDynkgob6s5","2luwxai4u4","msl000389","iti","","null","img/motor_6.png","74","motor","","","","","","",""
"854","","492840","HierDynkgob6s5","2luwxai4u4","msl000389","motor","","83","img/motor_2.png","83","motor","2","137","1","0","0","",""
"null","","492953","HierDynkgob6s5","2luwxai4u4","msl000389","iti","","null","img/motor_2.png","83","motor","","","","","","",""
"573","","493537","HierDynkgob6s5","2luwxai4u4","msl000389","motor","","65","img/motor_1.png","65","motor","1","138","1","0","0","",""
"null","","493651","HierDynkgob6s5","2luwxai4u4","msl000389","iti","","null","img/motor_1.png","65","motor","","","","","","",""
"884","","494547","HierDynkgob6s5","2luwxai4u4","msl000389","motor","","68","img/motor_3.png","68","motor","3","139","1","0","0","",""
"null","","494659","HierDynkgob6s5","2luwxai4u4","msl000389","iti","","null","img/motor_3.png","68","motor","","","","","","",""
"635","","495305","HierDynkgob6s5","2luwxai4u4","msl000389","motor","","83","img/motor_2.png","83","motor","2","140","1","0","0","",""
"null","","495418","HierDynkgob6s5","2luwxai4u4","msl000389","iti","","null","img/motor_2.png","83","motor","","","","","","",""
"686","","496117","HierDynkgob6s5","2luwxai4u4","msl000389","motor","","72","img/motor_5.png","72","motor","5","141","1","0","0","",""
"null","","496229","HierDynkgob6s5","2luwxai4u4","msl000389","iti","","null","img/motor_5.png","72","motor","","","","","","",""
"986","","497227","HierDynkgob6s5","2luwxai4u4","msl000389","motor","","75","img/motor_7.png","75","motor","7","142","1","0","0","",""
"null","","497339","HierDynkgob6s5","2luwxai4u4","msl000389","iti","","null","img/motor_7.png","75","motor","","","","","","",""
"655","","498005","HierDynkgob6s5","2luwxai4u4","msl000389","motor","","76","img/motor_8.png","76","motor","8","143","1","0","0","",""
"null","","498119","HierDynkgob6s5","2luwxai4u4","msl000389","iti","","null","img/motor_8.png","76","motor","","","","","","",""
"658","","498789","HierDynkgob6s5","2luwxai4u4","msl000389","motor","","70","img/motor_4.png","70","motor","4","144","1","0","0","",""
"null","","498902","HierDynkgob6s5","2luwxai4u4","msl000389","iti","","null","img/motor_4.png","70","motor","","","","","","",""
"573","","499486","HierDynkgob6s5","2luwxai4u4","msl000389","motor","","65","img/motor_1.png","65","motor","1","145","1","0","0","",""
"null","","499599","HierDynkgob6s5","2luwxai4u4","msl000389","iti","","null","img/motor_1.png","65","motor","","","","","","",""
"1204","","500816","HierDynkgob6s5","2luwxai4u4","msl000389","motor","","72","img/motor_5.png","72","motor","5","146","1","0","0","",""
"null","","500930","HierDynkgob6s5","2luwxai4u4","msl000389","iti","","null","img/motor_5.png","72","motor","","","","","","",""
"1231","","502172","HierDynkgob6s5","2luwxai4u4","msl000389","motor","","68","img/motor_3.png","68","motor","3","147","1","0","0","",""
"null","","502284","HierDynkgob6s5","2luwxai4u4","msl000389","iti","","null","img/motor_3.png","68","motor","","","","","","",""
"505","","502801","HierDynkgob6s5","2luwxai4u4","msl000389","motor","","65","img/motor_1.png","65","motor","1","148","1","0","0","",""
"null","","502913","HierDynkgob6s5","2luwxai4u4","msl000389","iti","","null","img/motor_1.png","65","motor","","","","","","",""
"1330","","504255","HierDynkgob6s5","2luwxai4u4","msl000389","motor","","83","img/motor_2.png","83","motor","2","149","1","0","0","",""
"null","","504367","HierDynkgob6s5","2luwxai4u4","msl000389","iti","","null","img/motor_2.png","83","motor","","","","","","",""
"563","","504941","HierDynkgob6s5","2luwxai4u4","msl000389","motor","","70","img/motor_4.png","70","motor","4","150","1","0","0","",""
"null","","505054","HierDynkgob6s5","2luwxai4u4","msl000389","iti","","null","img/motor_4.png","70","motor","","","","","","",""
"835","","505901","HierDynkgob6s5","2luwxai4u4","msl000389","motor","","74","img/motor_6.png","74","motor","6","151","1","0","0","",""
"null","","506013","HierDynkgob6s5","2luwxai4u4","msl000389","iti","","null","img/motor_6.png","74","motor","","","","","","",""
"694","","506720","HierDynkgob6s5","2luwxai4u4","msl000389","motor","","83","img/motor_2.png","83","motor","2","152","1","0","0","",""
"null","","506833","HierDynkgob6s5","2luwxai4u4","msl000389","iti","","null","img/motor_2.png","83","motor","","","","","","",""
"562","","507407","HierDynkgob6s5","2luwxai4u4","msl000389","motor","","74","img/motor_6.png","74","motor","6","153","1","0","0","",""
"null","","507519","HierDynkgob6s5","2luwxai4u4","msl000389","iti","","null","img/motor_6.png","74","motor","","","","","","",""
"483","","508013","HierDynkgob6s5","2luwxai4u4","msl000389","motor","","75","img/motor_7.png","75","motor","7","154","1","0","0","",""
"null","","508126","HierDynkgob6s5","2luwxai4u4","msl000389","iti","","null","img/motor_7.png","75","motor","","","","","","",""
"564","","508701","HierDynkgob6s5","2luwxai4u4","msl000389","motor","","65","img/motor_1.png","65","motor","1","155","1","0","0","",""
"null","","508814","HierDynkgob6s5","2luwxai4u4","msl000389","iti","","null","img/motor_1.png","65","motor","","","","","","",""
"669","","509494","HierDynkgob6s5","2luwxai4u4","msl000389","motor","","76","img/motor_8.png","76","motor","8","156","1","0","0","",""
"null","","509607","HierDynkgob6s5","2luwxai4u4","msl000389","iti","","null","img/motor_8.png","76","motor","","","","","","",""
"907","","510525","HierDynkgob6s5","2luwxai4u4","msl000389","motor","","68","img/motor_3.png","68","motor","3","157","1","0","0","",""
"null","","510637","HierDynkgob6s5","2luwxai4u4","msl000389","iti","","null","img/motor_3.png","68","motor","","","","","","",""
"573","","511222","HierDynkgob6s5","2luwxai4u4","msl000389","motor","","83","img/motor_2.png","83","motor","2","158","1","0","0","",""
"null","","511334","HierDynkgob6s5","2luwxai4u4","msl000389","iti","","null","img/motor_2.png","83","motor","","","","","","",""
"493","","511838","HierDynkgob6s5","2luwxai4u4","msl000389","motor","","65","img/motor_1.png","65","motor","1","159","1","0","0","",""
"null","","511950","HierDynkgob6s5","2luwxai4u4","msl000389","iti","","null","img/motor_1.png","65","motor","","","","","","",""
"755","","512717","HierDynkgob6s5","2luwxai4u4","msl000389","motor","","72","img/motor_5.png","72","motor","5","160","1","0","0","",""
"null","","512830","HierDynkgob6s5","2luwxai4u4","msl000389","iti","","null","img/motor_5.png","72","motor","","","","","","",""
"829","","513670","HierDynkgob6s5","2luwxai4u4","msl000389","motor","","83","img/motor_2.png","83","motor","2","161","1","0","0","",""
"null","","513782","HierDynkgob6s5","2luwxai4u4","msl000389","iti","","null","img/motor_2.png","83","motor","","","","","","",""
"501","","514295","HierDynkgob6s5","2luwxai4u4","msl000389","motor","","83","img/motor_2.png","83","motor","2","162","1","0","0","",""
"null","","514407","HierDynkgob6s5","2luwxai4u4","msl000389","iti","","null","img/motor_2.png","83","motor","","","","","","",""
"807","","515226","HierDynkgob6s5","2luwxai4u4","msl000389","motor","","75","img/motor_7.png","75","motor","7","163","1","0","0","",""
"null","","515338","HierDynkgob6s5","2luwxai4u4","msl000389","iti","","null","img/motor_7.png","75","motor","","","","","","",""
"47","","515397","HierDynkgob6s5","2luwxai4u4","msl000389","motor","","75","img/motor_6.png","74","motor","6","164","0","1","0","",""
"1426","","516835","HierDynkgob6s5","2luwxai4u4","msl000389","motorRepeat","","74","img/motor_6.png","74","motor","6","164","1","0","0","",""
"null","","516948","HierDynkgob6s5","2luwxai4u4","msl000389","iti","","null","img/motor_6.png","74","motor","","","","","","",""
"1119","","518080","HierDynkgob6s5","2luwxai4u4","msl000389","motor","","70","img/motor_4.png","70","motor","4","165","1","0","0","",""
"null","","518192","HierDynkgob6s5","2luwxai4u4","msl000389","iti","","null","img/motor_4.png","70","motor","","","","","","",""
"728","","518934","HierDynkgob6s5","2luwxai4u4","msl000389","motor","","72","img/motor_5.png","72","motor","5","166","1","0","0","",""
"null","","519048","HierDynkgob6s5","2luwxai4u4","msl000389","iti","","null","img/motor_5.png","72","motor","","","","","","",""
"664","","519725","HierDynkgob6s5","2luwxai4u4","msl000389","motor","","76","img/motor_8.png","76","motor","8","167","1","0","0","",""
"null","","519837","HierDynkgob6s5","2luwxai4u4","msl000389","iti","","null","img/motor_8.png","76","motor","","","","","","",""
"1149","","520999","HierDynkgob6s5","2luwxai4u4","msl000389","motor","","75","img/motor_7.png","75","motor","7","168","1","0","0","",""
"null","","521112","HierDynkgob6s5","2luwxai4u4","msl000389","iti","","null","img/motor_7.png","75","motor","","","","","","",""
"1446","","522570","HierDynkgob6s5","2luwxai4u4","msl000389","motor","","70","img/motor_4.png","70","motor","4","169","1","0","0","",""
"null","","522684","HierDynkgob6s5","2luwxai4u4","msl000389","iti","","null","img/motor_4.png","70","motor","","","","","","",""
"508","","523208","HierDynkgob6s5","2luwxai4u4","msl000389","motor","","70","img/motor_4.png","70","motor","4","170","1","0","0","",""
"null","","523320","HierDynkgob6s5","2luwxai4u4","msl000389","iti","","null","img/motor_4.png","70","motor","","","","","","",""
"718","","524052","HierDynkgob6s5","2luwxai4u4","msl000389","motor","","68","img/motor_3.png","68","motor","3","171","1","0","0","",""
"null","","524165","HierDynkgob6s5","2luwxai4u4","msl000389","iti","","null","img/motor_3.png","68","motor","","","","","","",""
"588","","524764","HierDynkgob6s5","2luwxai4u4","msl000389","motor","","74","img/motor_6.png","74","motor","6","172","1","0","0","",""
"null","","524878","HierDynkgob6s5","2luwxai4u4","msl000389","iti","","null","img/motor_6.png","74","motor","","","","","","",""
"668","","525557","HierDynkgob6s5","2luwxai4u4","msl000389","motor","","72","img/motor_5.png","72","motor","5","173","1","0","0","",""
"null","","525670","HierDynkgob6s5","2luwxai4u4","msl000389","iti","","null","img/motor_5.png","72","motor","","","","","","",""
"652","","526334","HierDynkgob6s5","2luwxai4u4","msl000389","motor","","76","img/motor_8.png","76","motor","8","174","1","0","0","",""
"null","","526446","HierDynkgob6s5","2luwxai4u4","msl000389","iti","","null","img/motor_8.png","76","motor","","","","","","",""
"815","","527273","HierDynkgob6s5","2luwxai4u4","msl000389","motor","","75","img/motor_7.png","75","motor","7","175","1","0","0","",""
"null","","527386","HierDynkgob6s5","2luwxai4u4","msl000389","iti","","null","img/motor_7.png","75","motor","","","","","","",""
"799","","528196","HierDynkgob6s5","2luwxai4u4","msl000389","motor","","70","img/motor_4.png","70","motor","4","176","1","0","0","",""
"null","","528309","HierDynkgob6s5","2luwxai4u4","msl000389","iti","","null","img/motor_4.png","70","motor","","","","","","",""
"936","","529257","HierDynkgob6s5","2luwxai4u4","msl000389","motor","","68","img/motor_3.png","68","motor","3","177","1","0","0","",""
"null","","529370","HierDynkgob6s5","2luwxai4u4","msl000389","iti","","null","img/motor_3.png","68","motor","","","","","","",""
"716","","530097","HierDynkgob6s5","2luwxai4u4","msl000389","motor","","83","img/motor_2.png","83","motor","2","178","1","0","0","",""
"null","","530210","HierDynkgob6s5","2luwxai4u4","msl000389","iti","","null","img/motor_2.png","83","motor","","","","","","",""
"656","","530878","HierDynkgob6s5","2luwxai4u4","msl000389","motor","","76","img/motor_8.png","76","motor","8","179","1","0","0","",""
"null","","530990","HierDynkgob6s5","2luwxai4u4","msl000389","iti","","null","img/motor_8.png","76","motor","","","","","","",""
"1813","","532815","HierDynkgob6s5","2luwxai4u4","msl000389","motor","","74","img/motor_6.png","74","motor","6","180","1","0","0","",""
"null","","532929","HierDynkgob6s5","2luwxai4u4","msl000389","iti","","null","img/motor_6.png","74","motor","","","","","","",""
"506","","533448","HierDynkgob6s5","2luwxai4u4","msl000389","motor","","72","img/motor_5.png","72","motor","5","181","1","0","0","",""
"null","","533561","HierDynkgob6s5","2luwxai4u4","msl000389","iti","","null","img/motor_5.png","72","motor","","","","","","",""
"617","","534191","HierDynkgob6s5","2luwxai4u4","msl000389","motor","","75","img/motor_7.png","75","motor","7","182","1","0","0","",""
"null","","534302","HierDynkgob6s5","2luwxai4u4","msl000389","iti","","null","img/motor_7.png","75","motor","","","","","","",""
"489","","534804","HierDynkgob6s5","2luwxai4u4","msl000389","motor","","72","img/motor_5.png","72","motor","5","183","1","0","0","",""
"null","","534917","HierDynkgob6s5","2luwxai4u4","msl000389","iti","","null","img/motor_5.png","72","motor","","","","","","",""
"660","","535591","HierDynkgob6s5","2luwxai4u4","msl000389","motor","","70","img/motor_4.png","70","motor","4","184","1","0","0","",""
"null","","535703","HierDynkgob6s5","2luwxai4u4","msl000389","iti","","null","img/motor_4.png","70","motor","","","","","","",""
"643","","536359","HierDynkgob6s5","2luwxai4u4","msl000389","motor","","74","img/motor_5.png","72","motor","5","185","0","1","0","",""
"706","","537077","HierDynkgob6s5","2luwxai4u4","msl000389","motorRepeat","","72","img/motor_5.png","72","motor","5","185","1","0","0","",""
"null","","537191","HierDynkgob6s5","2luwxai4u4","msl000389","iti","","null","img/motor_5.png","72","motor","","","","","","",""
"580","","537783","HierDynkgob6s5","2luwxai4u4","msl000389","motor","","65","img/motor_1.png","65","motor","1","186","1","0","0","",""
"null","","537896","HierDynkgob6s5","2luwxai4u4","msl000389","iti","","null","img/motor_1.png","65","motor","","","","","","",""
"1001","","538911","HierDynkgob6s5","2luwxai4u4","msl000389","motor","","68","img/motor_3.png","68","motor","3","187","1","0","0","",""
"null","","539025","HierDynkgob6s5","2luwxai4u4","msl000389","iti","","null","img/motor_3.png","68","motor","","","","","","",""
"495","","539532","HierDynkgob6s5","2luwxai4u4","msl000389","motor","","68","img/motor_3.png","68","motor","3","188","1","0","0","",""
"null","","539645","HierDynkgob6s5","2luwxai4u4","msl000389","iti","","null","img/motor_3.png","68","motor","","","","","","",""
"724","","540379","HierDynkgob6s5","2luwxai4u4","msl000389","motor","","76","img/motor_8.png","76","motor","8","189","1","0","0","",""
"null","","540492","HierDynkgob6s5","2luwxai4u4","msl000389","iti","","null","img/motor_8.png","76","motor","","","","","","",""
"716","","541219","HierDynkgob6s5","2luwxai4u4","msl000389","motor","","75","img/motor_7.png","75","motor","7","190","1","0","0","",""
"null","","541333","HierDynkgob6s5","2luwxai4u4","msl000389","iti","","null","img/motor_7.png","75","motor","","","","","","",""
"565","","541909","HierDynkgob6s5","2luwxai4u4","msl000389","motor","","65","img/motor_1.png","65","motor","1","191","1","0","0","",""
"null","","542022","HierDynkgob6s5","2luwxai4u4","msl000389","iti","","null","img/motor_1.png","65","motor","","","","","","",""
"854","","542888","HierDynkgob6s5","2luwxai4u4","msl000389","motor","","70","img/motor_4.png","70","motor","4","192","1","0","0","",""
"null","","543000","HierDynkgob6s5","2luwxai4u4","msl000389","iti","","null","img/motor_4.png","70","motor","","","","","","",""
"1578","","544591","HierDynkgob6s5","2luwxai4u4","msl000389","motor","","74","img/motor_6.png","74","motor","6","193","1","0","0","",""
"null","","544704","HierDynkgob6s5","2luwxai4u4","msl000389","iti","","null","img/motor_6.png","74","motor","","","","","","",""
"837","","545552","HierDynkgob6s5","2luwxai4u4","msl000389","motor","","70","img/motor_4.png","70","motor","4","194","1","0","0","",""
"null","","545665","HierDynkgob6s5","2luwxai4u4","msl000389","iti","","null","img/motor_4.png","70","motor","","","","","","",""
"636","","546312","HierDynkgob6s5","2luwxai4u4","msl000389","motor","","65","img/motor_1.png","65","motor","1","195","1","0","0","",""
"null","","546425","HierDynkgob6s5","2luwxai4u4","msl000389","iti","","null","img/motor_1.png","65","motor","","","","","","",""
"578","","547014","HierDynkgob6s5","2luwxai4u4","msl000389","motor","","65","img/motor_1.png","65","motor","1","196","1","0","0","",""
"null","","547127","HierDynkgob6s5","2luwxai4u4","msl000389","iti","","null","img/motor_1.png","65","motor","","","","","","",""
"829","","547969","HierDynkgob6s5","2luwxai4u4","msl000389","motor","","75","img/motor_7.png","75","motor","7","197","1","0","0","",""
"null","","548082","HierDynkgob6s5","2luwxai4u4","msl000389","iti","","null","img/motor_7.png","75","motor","","","","","","",""
"551","","548646","HierDynkgob6s5","2luwxai4u4","msl000389","motor","","75","img/motor_7.png","75","motor","7","198","1","0","0","",""
"null","","548758","HierDynkgob6s5","2luwxai4u4","msl000389","iti","","null","img/motor_7.png","75","motor","","","","","","",""
"1583","","550354","HierDynkgob6s5","2luwxai4u4","msl000389","motor","","83","img/motor_2.png","83","motor","2","199","1","0","0","",""
"null","","550466","HierDynkgob6s5","2luwxai4u4","msl000389","iti","","null","img/motor_2.png","83","motor","","","","","","",""
"643","","551121","HierDynkgob6s5","2luwxai4u4","msl000389","motor","","70","img/motor_4.png","70","motor","4","200","1","0","0","",""
"null","","551233","HierDynkgob6s5","2luwxai4u4","msl000389","iti","","null","img/motor_4.png","70","motor","","","","","","",""
"723","","551968","HierDynkgob6s5","2luwxai4u4","msl000389","motor","","76","img/motor_8.png","76","motor","8","201","1","0","0","",""
"null","","552082","HierDynkgob6s5","2luwxai4u4","msl000389","iti","","null","img/motor_8.png","76","motor","","","","","","",""
"1000","","553094","HierDynkgob6s5","2luwxai4u4","msl000389","motor","","83","img/motor_2.png","83","motor","2","202","1","0","0","",""
"null","","553207","HierDynkgob6s5","2luwxai4u4","msl000389","iti","","null","img/motor_2.png","83","motor","","","","","","",""
"612","","553831","HierDynkgob6s5","2luwxai4u4","msl000389","motor","","65","img/motor_1.png","65","motor","1","203","1","0","0","",""
"null","","553944","HierDynkgob6s5","2luwxai4u4","msl000389","iti","","null","img/motor_1.png","65","motor","","","","","","",""
"1242","","555198","HierDynkgob6s5","2luwxai4u4","msl000389","motor","","74","img/motor_6.png","74","motor","6","204","1","0","0","",""
"null","","555311","HierDynkgob6s5","2luwxai4u4","msl000389","iti","","null","img/motor_6.png","74","motor","","","","","","",""
"675","","555999","HierDynkgob6s5","2luwxai4u4","msl000389","motor","","70","img/motor_4.png","70","motor","4","205","1","0","0","",""
"null","","556111","HierDynkgob6s5","2luwxai4u4","msl000389","iti","","null","img/motor_4.png","70","motor","","","","","","",""
"1151","","557275","HierDynkgob6s5","2luwxai4u4","msl000389","motor","","68","img/motor_3.png","68","motor","3","206","1","0","0","",""
"null","","557387","HierDynkgob6s5","2luwxai4u4","msl000389","iti","","null","img/motor_3.png","68","motor","","","","","","",""
"759","","558159","HierDynkgob6s5","2luwxai4u4","msl000389","motor","","75","img/motor_7.png","75","motor","7","207","1","0","0","",""
"null","","558272","HierDynkgob6s5","2luwxai4u4","msl000389","iti","","null","img/motor_7.png","75","motor","","","","","","",""
"839","","559122","HierDynkgob6s5","2luwxai4u4","msl000389","motor","","68","img/motor_3.png","68","motor","3","208","1","0","0","",""
"null","","559234","HierDynkgob6s5","2luwxai4u4","msl000389","iti","","null","img/motor_3.png","68","motor","","","","","","",""
"618","","559865","HierDynkgob6s5","2luwxai4u4","msl000389","motor","","75","img/motor_7.png","75","motor","7","209","1","0","0","",""
"null","","559977","HierDynkgob6s5","2luwxai4u4","msl000389","iti","","null","img/motor_7.png","75","motor","","","","","","",""
"678","","560667","HierDynkgob6s5","2luwxai4u4","msl000389","motor","","70","img/motor_4.png","70","motor","4","210","1","0","0","",""
"null","","560780","HierDynkgob6s5","2luwxai4u4","msl000389","iti","","null","img/motor_4.png","70","motor","","","","","","",""
"692","","561486","HierDynkgob6s5","2luwxai4u4","msl000389","motor","","72","img/motor_5.png","72","motor","5","211","1","0","0","",""
"null","","561599","HierDynkgob6s5","2luwxai4u4","msl000389","iti","","null","img/motor_5.png","72","motor","","","","","","",""
"608","","562219","HierDynkgob6s5","2luwxai4u4","msl000389","motor","","75","img/motor_7.png","75","motor","7","212","1","0","0","",""
"null","","562332","HierDynkgob6s5","2luwxai4u4","msl000389","iti","","null","img/motor_7.png","75","motor","","","","","","",""
"617","","562960","HierDynkgob6s5","2luwxai4u4","msl000389","motor","","70","img/motor_4.png","70","motor","4","213","1","0","0","",""
"null","","563073","HierDynkgob6s5","2luwxai4u4","msl000389","iti","","null","img/motor_4.png","70","motor","","","","","","",""
"872","","563957","HierDynkgob6s5","2luwxai4u4","msl000389","motor","","68","img/motor_3.png","68","motor","3","214","1","0","0","",""
"null","","564069","HierDynkgob6s5","2luwxai4u4","msl000389","iti","","null","img/motor_3.png","68","motor","","","","","","",""
"1408","","565490","HierDynkgob6s5","2luwxai4u4","msl000389","motor","","72","img/motor_5.png","72","motor","5","215","1","0","0","",""
"null","","565604","HierDynkgob6s5","2luwxai4u4","msl000389","iti","","null","img/motor_5.png","72","motor","","","","","","",""
"1478","","567093","HierDynkgob6s5","2luwxai4u4","msl000389","motor","","70","img/motor_4.png","70","motor","4","216","1","0","0","",""
"null","","567206","HierDynkgob6s5","2luwxai4u4","msl000389","iti","","null","img/motor_4.png","70","motor","","","","","","",""
"677","","567896","HierDynkgob6s5","2luwxai4u4","msl000389","motor","","76","img/motor_8.png","76","motor","8","217","1","0","0","",""
"null","","568009","HierDynkgob6s5","2luwxai4u4","msl000389","iti","","null","img/motor_8.png","76","motor","","","","","","",""
"784","","568804","HierDynkgob6s5","2luwxai4u4","msl000389","motor","","68","img/motor_3.png","68","motor","3","218","1","0","0","",""
"null","","568917","HierDynkgob6s5","2luwxai4u4","msl000389","iti","","null","img/motor_3.png","68","motor","","","","","","",""
"437","","569365","HierDynkgob6s5","2luwxai4u4","msl000389","motor","","76","img/motor_8.png","76","motor","8","219","1","0","0","",""
"null","","569478","HierDynkgob6s5","2luwxai4u4","msl000389","iti","","null","img/motor_8.png","76","motor","","","","","","",""
"1373","","570862","HierDynkgob6s5","2luwxai4u4","msl000389","motor","","83","img/motor_2.png","83","motor","2","220","1","0","0","",""
"null","","570976","HierDynkgob6s5","2luwxai4u4","msl000389","iti","","null","img/motor_2.png","83","motor","","","","","","",""
"668","","571656","HierDynkgob6s5","2luwxai4u4","msl000389","motor","","75","img/motor_7.png","75","motor","7","221","1","0","0","",""
"null","","571770","HierDynkgob6s5","2luwxai4u4","msl000389","iti","","null","img/motor_7.png","75","motor","","","","","","",""
"617","","572399","HierDynkgob6s5","2luwxai4u4","msl000389","motor","","72","img/motor_5.png","72","motor","5","222","1","0","0","",""
"null","","572511","HierDynkgob6s5","2luwxai4u4","msl000389","iti","","null","img/motor_5.png","72","motor","","","","","","",""
"1306","","573827","HierDynkgob6s5","2luwxai4u4","msl000389","motor","","70","img/motor_4.png","70","motor","4","223","1","0","0","",""
"null","","573941","HierDynkgob6s5","2luwxai4u4","msl000389","iti","","null","img/motor_4.png","70","motor","","","","","","",""
"1083","","575035","HierDynkgob6s5","2luwxai4u4","msl000389","motor","","74","img/motor_6.png","74","motor","6","224","1","0","0","",""
"null","","575149","HierDynkgob6s5","2luwxai4u4","msl000389","iti","","null","img/motor_6.png","74","motor","","","","","","",""
"555","","575716","HierDynkgob6s5","2luwxai4u4","msl000389","motor","","76","img/motor_8.png","76","motor","8","225","1","0","0","",""
"null","","575829","HierDynkgob6s5","2luwxai4u4","msl000389","iti","","null","img/motor_8.png","76","motor","","","","","","",""
"682","","576524","HierDynkgob6s5","2luwxai4u4","msl000389","motor","","65","img/motor_1.png","65","motor","1","226","1","0","0","",""
"null","","576637","HierDynkgob6s5","2luwxai4u4","msl000389","iti","","null","img/motor_1.png","65","motor","","","","","","",""
"678","","577327","HierDynkgob6s5","2luwxai4u4","msl000389","motor","","70","img/motor_4.png","70","motor","4","227","1","0","0","",""
"null","","577440","HierDynkgob6s5","2luwxai4u4","msl000389","iti","","null","img/motor_4.png","70","motor","","","","","","",""
"541","","577994","HierDynkgob6s5","2luwxai4u4","msl000389","motor","","76","img/motor_8.png","76","motor","8","228","1","0","0","",""
"null","","578107","HierDynkgob6s5","2luwxai4u4","msl000389","iti","","null","img/motor_8.png","76","motor","","","","","","",""
"650","","578769","HierDynkgob6s5","2luwxai4u4","msl000389","motor","","72","img/motor_5.png","72","motor","5","229","1","0","0","",""
"null","","578883","HierDynkgob6s5","2luwxai4u4","msl000389","iti","","null","img/motor_5.png","72","motor","","","","","","",""
"515","","579410","HierDynkgob6s5","2luwxai4u4","msl000389","motor","","70","img/motor_4.png","70","motor","4","230","1","0","0","",""
"null","","579524","HierDynkgob6s5","2luwxai4u4","msl000389","iti","","null","img/motor_4.png","70","motor","","","","","","",""
"1481","","581016","HierDynkgob6s5","2luwxai4u4","msl000389","motor","","83","img/motor_2.png","83","motor","2","231","1","0","0","",""
"null","","581128","HierDynkgob6s5","2luwxai4u4","msl000389","iti","","null","img/motor_2.png","83","motor","","","","","","",""
"573","","581713","HierDynkgob6s5","2luwxai4u4","msl000389","motor","","75","img/motor_7.png","75","motor","7","232","1","0","0","",""
"null","","581827","HierDynkgob6s5","2luwxai4u4","msl000389","iti","","null","img/motor_7.png","75","motor","","","","","","",""
"526","","582366","HierDynkgob6s5","2luwxai4u4","msl000389","motor","","74","img/motor_6.png","74","motor","6","233","1","0","0","",""
"null","","582479","HierDynkgob6s5","2luwxai4u4","msl000389","iti","","null","img/motor_6.png","74","motor","","","","","","",""
"577","","583071","HierDynkgob6s5","2luwxai4u4","msl000389","motor","","68","img/motor_3.png","68","motor","3","234","1","0","0","",""
"null","","583185","HierDynkgob6s5","2luwxai4u4","msl000389","iti","","null","img/motor_3.png","68","motor","","","","","","",""
"617","","583817","HierDynkgob6s5","2luwxai4u4","msl000389","motor","","83","img/motor_2.png","83","motor","2","235","1","0","0","",""
"null","","583931","HierDynkgob6s5","2luwxai4u4","msl000389","iti","","null","img/motor_2.png","83","motor","","","","","","",""
"584","","584526","HierDynkgob6s5","2luwxai4u4","msl000389","motor","","75","img/motor_7.png","75","motor","7","236","1","0","0","",""
"null","","584641","HierDynkgob6s5","2luwxai4u4","msl000389","iti","","null","img/motor_7.png","75","motor","","","","","","",""
"614","","585268","HierDynkgob6s5","2luwxai4u4","msl000389","motor","","68","img/motor_3.png","68","motor","3","237","1","0","0","",""
"null","","585380","HierDynkgob6s5","2luwxai4u4","msl000389","iti","","null","img/motor_3.png","68","motor","","","","","","",""
"690","","586081","HierDynkgob6s5","2luwxai4u4","msl000389","motor","","70","img/motor_4.png","70","motor","4","238","1","0","0","",""
"null","","586195","HierDynkgob6s5","2luwxai4u4","msl000389","iti","","null","img/motor_4.png","70","motor","","","","","","",""
"1008","","587217","HierDynkgob6s5","2luwxai4u4","msl000389","motor","","83","img/motor_2.png","83","motor","2","239","1","0","0","",""
"null","","587334","HierDynkgob6s5","2luwxai4u4","msl000389","iti","","null","img/motor_2.png","83","motor","","","","","","",""
"561","","587908","HierDynkgob6s5","2luwxai4u4","msl000389","motor","","70","img/motor_4.png","70","motor","4","240","1","0","0","",""
"null","","588021","HierDynkgob6s5","2luwxai4u4","msl000389","iti","","null","img/motor_4.png","70","motor","","","","","","",""
"556","","588589","HierDynkgob6s5","2luwxai4u4","msl000389","motor","","76","img/motor_8.png","76","motor","8","241","1","0","0","",""
"null","","588702","HierDynkgob6s5","2luwxai4u4","msl000389","iti","","null","img/motor_8.png","76","motor","","","","","","",""
"653","","589368","HierDynkgob6s5","2luwxai4u4","msl000389","motor","","72","img/motor_5.png","72","motor","5","242","1","0","0","",""
"null","","589480","HierDynkgob6s5","2luwxai4u4","msl000389","iti","","null","img/motor_5.png","72","motor","","","","","","",""
"451","","589945","HierDynkgob6s5","2luwxai4u4","msl000389","motor","","72","img/motor_5.png","72","motor","5","243","1","0","0","",""
"null","","590057","HierDynkgob6s5","2luwxai4u4","msl000389","iti","","null","img/motor_5.png","72","motor","","","","","","",""
"567","","590639","HierDynkgob6s5","2luwxai4u4","msl000389","motor","","74","img/motor_6.png","74","motor","6","244","1","0","0","",""
"null","","590753","HierDynkgob6s5","2luwxai4u4","msl000389","iti","","null","img/motor_6.png","74","motor","","","","","","",""
"785","","591550","HierDynkgob6s5","2luwxai4u4","msl000389","motor","","68","img/motor_3.png","68","motor","3","245","1","0","0","",""
"null","","591662","HierDynkgob6s5","2luwxai4u4","msl000389","iti","","null","img/motor_3.png","68","motor","","","","","","",""
"1226","","592902","HierDynkgob6s5","2luwxai4u4","msl000389","motor","","65","img/motor_1.png","65","motor","1","246","1","0","0","",""
"null","","593015","HierDynkgob6s5","2luwxai4u4","msl000389","iti","","null","img/motor_1.png","65","motor","","","","","","",""
"811","","593838","HierDynkgob6s5","2luwxai4u4","msl000389","motor","","75","img/motor_7.png","75","motor","7","247","1","0","0","",""
"null","","593950","HierDynkgob6s5","2luwxai4u4","msl000389","iti","","null","img/motor_7.png","75","motor","","","","","","",""
"589","","594552","HierDynkgob6s5","2luwxai4u4","msl000389","motor","","68","img/motor_2.png","83","motor","2","248","0","1","0","",""
"328","","594893","HierDynkgob6s5","2luwxai4u4","msl000389","motorRepeat","","83","img/motor_2.png","83","motor","2","248","1","0","0","",""
"null","","595006","HierDynkgob6s5","2luwxai4u4","msl000389","iti","","null","img/motor_2.png","83","motor","","","","","","",""
"508","","595527","HierDynkgob6s5","2luwxai4u4","msl000389","motor","","68","img/motor_3.png","68","motor","3","249","1","0","0","",""
"null","","595641","HierDynkgob6s5","2luwxai4u4","msl000389","iti","","null","img/motor_3.png","68","motor","","","","","","",""
"557","","596210","HierDynkgob6s5","2luwxai4u4","msl000389","motor","","74","img/motor_6.png","74","motor","6","250","1","0","0","",""
"null","","596322","HierDynkgob6s5","2luwxai4u4","msl000389","iti","","null","img/motor_6.png","74","motor","","","","","","",""
"455","","596791","HierDynkgob6s5","2luwxai4u4","msl000389","motor","","65","img/motor_1.png","65","motor","1","251","1","0","0","",""
"null","","596904","HierDynkgob6s5","2luwxai4u4","msl000389","iti","","null","img/motor_1.png","65","motor","","","","","","",""
"541","","597457","HierDynkgob6s5","2luwxai4u4","msl000389","motor","","65","img/motor_1.png","65","motor","1","252","1","0","0","",""
"null","","597570","HierDynkgob6s5","2luwxai4u4","msl000389","iti","","null","img/motor_1.png","65","motor","","","","","","",""
"824","","598406","HierDynkgob6s5","2luwxai4u4","msl000389","motor","","68","img/motor_3.png","68","motor","3","253","1","0","0","",""
"null","","598519","HierDynkgob6s5","2luwxai4u4","msl000389","iti","","null","img/motor_3.png","68","motor","","","","","","",""
"559","","599091","HierDynkgob6s5","2luwxai4u4","msl000389","motor","","68","img/motor_3.png","68","motor","3","254","1","0","0","",""
"null","","599204","HierDynkgob6s5","2luwxai4u4","msl000389","iti","","null","img/motor_3.png","68","motor","","","","","","",""
"585","","599802","HierDynkgob6s5","2luwxai4u4","msl000389","motor","","70","img/motor_4.png","70","motor","4","255","1","0","0","",""
"null","","599915","HierDynkgob6s5","2luwxai4u4","msl000389","iti","","null","img/motor_4.png","70","motor","","","","","","",""
"478","","600405","HierDynkgob6s5","2luwxai4u4","msl000389","motor","","70","img/motor_4.png","70","motor","4","256","1","0","0","",""
"null","","600517","HierDynkgob6s5","2luwxai4u4","msl000389","iti","","null","img/motor_4.png","70","motor","","","","","","",""
"699","","601228","HierDynkgob6s5","2luwxai4u4","msl000389","motor","","68","img/motor_3.png","68","motor","3","257","1","0","0","",""
"null","","601341","HierDynkgob6s5","2luwxai4u4","msl000389","iti","","null","img/motor_3.png","68","motor","","","","","","",""
"628","","601980","HierDynkgob6s5","2luwxai4u4","msl000389","motor","","74","img/motor_6.png","74","motor","6","258","1","0","0","",""
"null","","602092","HierDynkgob6s5","2luwxai4u4","msl000389","iti","","null","img/motor_6.png","74","motor","","","","","","",""
"558","","602663","HierDynkgob6s5","2luwxai4u4","msl000389","motor","","68","img/motor_3.png","68","motor","3","259","1","0","0","",""
"null","","602776","HierDynkgob6s5","2luwxai4u4","msl000389","iti","","null","img/motor_3.png","68","motor","","","","","","",""
"724","","603513","HierDynkgob6s5","2luwxai4u4","msl000389","motor","","68","img/motor_3.png","68","motor","3","260","1","0","0","",""
"null","","603625","HierDynkgob6s5","2luwxai4u4","msl000389","iti","","null","img/motor_3.png","68","motor","","","","","","",""
"523","","604160","HierDynkgob6s5","2luwxai4u4","msl000389","motor","","65","img/motor_1.png","65","motor","1","261","1","0","0","",""
"null","","604273","HierDynkgob6s5","2luwxai4u4","msl000389","iti","","null","img/motor_1.png","65","motor","","","","","","",""
"481","","604767","HierDynkgob6s5","2luwxai4u4","msl000389","motor","","68","img/motor_3.png","68","motor","3","262","1","0","0","",""
"null","","604880","HierDynkgob6s5","2luwxai4u4","msl000389","iti","","null","img/motor_3.png","68","motor","","","","","","",""
"859","","605752","HierDynkgob6s5","2luwxai4u4","msl000389","motor","","72","img/motor_5.png","72","motor","5","263","1","0","0","",""
"null","","605865","HierDynkgob6s5","2luwxai4u4","msl000389","iti","","null","img/motor_5.png","72","motor","","","","","","",""
"526","","606402","HierDynkgob6s5","2luwxai4u4","msl000389","motor","","76","img/motor_8.png","76","motor","8","264","1","0","0","",""
"null","","606515","HierDynkgob6s5","2luwxai4u4","msl000389","iti","","null","img/motor_8.png","76","motor","","","","","","",""
"743","","607271","HierDynkgob6s5","2luwxai4u4","msl000389","motor","","65","img/motor_1.png","65","motor","1","265","1","0","0","",""
"null","","607384","HierDynkgob6s5","2luwxai4u4","msl000389","iti","","null","img/motor_1.png","65","motor","","","","","","",""
"607","","608004","HierDynkgob6s5","2luwxai4u4","msl000389","motor","","75","img/motor_7.png","75","motor","7","266","1","0","0","",""
"null","","608117","HierDynkgob6s5","2luwxai4u4","msl000389","iti","","null","img/motor_7.png","75","motor","","","","","","",""
"1476","","609605","HierDynkgob6s5","2luwxai4u4","msl000389","motor","","83","img/motor_2.png","83","motor","2","267","1","0","0","",""
"null","","609718","HierDynkgob6s5","2luwxai4u4","msl000389","iti","","null","img/motor_2.png","83","motor","","","","","","",""
"490","","610220","HierDynkgob6s5","2luwxai4u4","msl000389","motor","","65","img/motor_1.png","65","motor","1","268","1","0","0","",""
"null","","610333","HierDynkgob6s5","2luwxai4u4","msl000389","iti","","null","img/motor_1.png","65","motor","","","","","","",""
"771","","611116","HierDynkgob6s5","2luwxai4u4","msl000389","motor","","70","img/motor_4.png","70","motor","4","269","1","0","0","",""
"null","","611230","HierDynkgob6s5","2luwxai4u4","msl000389","iti","","null","img/motor_4.png","70","motor","","","","","","",""
"973","","612216","HierDynkgob6s5","2luwxai4u4","msl000389","motor","","68","img/motor_3.png","68","motor","3","270","1","0","0","",""
"null","","612329","HierDynkgob6s5","2luwxai4u4","msl000389","iti","","null","img/motor_3.png","68","motor","","","","","","",""
"502","","612844","HierDynkgob6s5","2luwxai4u4","msl000389","motor","","65","img/motor_1.png","65","motor","1","271","1","0","0","",""
"null","","612958","HierDynkgob6s5","2luwxai4u4","msl000389","iti","","null","img/motor_1.png","65","motor","","","","","","",""
"782","","613752","HierDynkgob6s5","2luwxai4u4","msl000389","motor","","74","img/motor_6.png","74","motor","6","272","1","0","0","",""
"null","","613866","HierDynkgob6s5","2luwxai4u4","msl000389","iti","","null","img/motor_6.png","74","motor","","","","","","",""
"535","","614412","HierDynkgob6s5","2luwxai4u4","msl000389","motor","","65","img/motor_1.png","65","motor","1","273","1","0","0","",""
"null","","614525","HierDynkgob6s5","2luwxai4u4","msl000389","iti","","null","img/motor_1.png","65","motor","","","","","","",""
"519","","615057","HierDynkgob6s5","2luwxai4u4","msl000389","motor","","65","img/motor_1.png","65","motor","1","274","1","0","0","",""
"null","","615170","HierDynkgob6s5","2luwxai4u4","msl000389","iti","","null","img/motor_1.png","65","motor","","","","","","",""
"508","","615691","HierDynkgob6s5","2luwxai4u4","msl000389","motor","","68","img/motor_2.png","83","motor","2","275","0","1","0","",""
"558","","616261","HierDynkgob6s5","2luwxai4u4","msl000389","motorRepeat","","83","img/motor_2.png","83","motor","2","275","1","0","0","",""
"null","","616375","HierDynkgob6s5","2luwxai4u4","msl000389","iti","","null","img/motor_2.png","83","motor","","","","","","",""
"675","","617063","HierDynkgob6s5","2luwxai4u4","msl000389","motor","","76","img/motor_8.png","76","motor","8","276","1","0","0","",""
"null","","617176","HierDynkgob6s5","2luwxai4u4","msl000389","iti","","null","img/motor_8.png","76","motor","","","","","","",""
"879","","618068","HierDynkgob6s5","2luwxai4u4","msl000389","motor","","65","img/motor_1.png","65","motor","1","277","1","0","0","",""
"null","","618182","HierDynkgob6s5","2luwxai4u4","msl000389","iti","","null","img/motor_1.png","65","motor","","","","","","",""
"958","","619152","HierDynkgob6s5","2luwxai4u4","msl000389","motor","","75","img/motor_7.png","75","motor","7","278","1","0","0","",""
"null","","619265","HierDynkgob6s5","2luwxai4u4","msl000389","iti","","null","img/motor_7.png","75","motor","","","","","","",""
"557","","619834","HierDynkgob6s5","2luwxai4u4","msl000389","motor","","68","img/motor_3.png","68","motor","3","279","1","0","0","",""
"null","","619948","HierDynkgob6s5","2luwxai4u4","msl000389","iti","","null","img/motor_3.png","68","motor","","","","","","",""
"978","","620938","HierDynkgob6s5","2luwxai4u4","msl000389","motor","","75","img/motor_7.png","75","motor","7","280","1","0","0","",""
"null","","621052","HierDynkgob6s5","2luwxai4u4","msl000389","iti","","null","img/motor_7.png","75","motor","","","","","","",""
"798","","621862","HierDynkgob6s5","2luwxai4u4","msl000389","motor","","74","img/motor_6.png","74","motor","6","281","1","0","0","",""
"null","","621975","HierDynkgob6s5","2luwxai4u4","msl000389","iti","","null","img/motor_6.png","74","motor","","","","","","",""
"557","","622545","HierDynkgob6s5","2luwxai4u4","msl000389","motor","","75","img/motor_7.png","75","motor","7","282","1","0","0","",""
"null","","622658","HierDynkgob6s5","2luwxai4u4","msl000389","iti","","null","img/motor_7.png","75","motor","","","","","","",""
"554","","623224","HierDynkgob6s5","2luwxai4u4","msl000389","motor","","74","img/motor_6.png","74","motor","6","283","1","0","0","",""
"null","","623337","HierDynkgob6s5","2luwxai4u4","msl000389","iti","","null","img/motor_6.png","74","motor","","","","","","",""
"873","","624222","HierDynkgob6s5","2luwxai4u4","msl000389","motor","","72","img/motor_5.png","72","motor","5","284","1","0","0","",""
"null","","624334","HierDynkgob6s5","2luwxai4u4","msl000389","iti","","null","img/motor_5.png","72","motor","","","","","","",""
"823","","625170","HierDynkgob6s5","2luwxai4u4","msl000389","motor","","74","img/motor_6.png","74","motor","6","285","1","0","0","",""
"null","","625284","HierDynkgob6s5","2luwxai4u4","msl000389","iti","","null","img/motor_6.png","74","motor","","","","","","",""
"646","","625944","HierDynkgob6s5","2luwxai4u4","msl000389","motor","","72","img/motor_5.png","72","motor","5","286","1","0","0","",""
"null","","626058","HierDynkgob6s5","2luwxai4u4","msl000389","iti","","null","img/motor_5.png","72","motor","","","","","","",""
"986","","627057","HierDynkgob6s5","2luwxai4u4","msl000389","motor","","68","img/motor_2.png","83","motor","2","287","0","1","0","",""
"552","","627620","HierDynkgob6s5","2luwxai4u4","msl000389","motorRepeat","","83","img/motor_2.png","83","motor","2","287","1","0","0","",""
"null","","627733","HierDynkgob6s5","2luwxai4u4","msl000389","iti","","null","img/motor_2.png","83","motor","","","","","","",""
"732","","628479","HierDynkgob6s5","2luwxai4u4","msl000389","motor","","70","img/motor_4.png","70","motor","4","288","1","0","0","",""
"null","","628593","HierDynkgob6s5","2luwxai4u4","msl000389","iti","","null","img/motor_4.png","70","motor","","","","","","",""
"456","","629062","HierDynkgob6s5","2luwxai4u4","msl000389","motor","","65","img/motor_1.png","65","motor","1","289","1","0","0","",""
"null","","629174","HierDynkgob6s5","2luwxai4u4","msl000389","iti","","null","img/motor_1.png","65","motor","","","","","","",""
"419","","629604","HierDynkgob6s5","2luwxai4u4","msl000389","motor","","70","img/motor_4.png","70","motor","4","290","1","0","0","",""
"null","","629716","HierDynkgob6s5","2luwxai4u4","msl000389","iti","","null","img/motor_4.png","70","motor","","","","","","",""
"492","","630220","HierDynkgob6s5","2luwxai4u4","msl000389","motor","","72","img/motor_5.png","72","motor","5","291","1","0","0","",""
"null","","630333","HierDynkgob6s5","2luwxai4u4","msl000389","iti","","null","img/motor_5.png","72","motor","","","","","","",""
"432","","630777","HierDynkgob6s5","2luwxai4u4","msl000389","motor","","72","img/motor_5.png","72","motor","5","292","1","0","0","",""
"null","","630890","HierDynkgob6s5","2luwxai4u4","msl000389","iti","","null","img/motor_5.png","72","motor","","","","","","",""
"602","","631504","HierDynkgob6s5","2luwxai4u4","msl000389","motor","","70","img/motor_4.png","70","motor","4","293","1","0","0","",""
"null","","631618","HierDynkgob6s5","2luwxai4u4","msl000389","iti","","null","img/motor_4.png","70","motor","","","","","","",""
"463","","632094","HierDynkgob6s5","2luwxai4u4","msl000389","motor","","70","img/motor_4.png","70","motor","4","294","1","0","0","",""
"null","","632207","HierDynkgob6s5","2luwxai4u4","msl000389","iti","","null","img/motor_4.png","70","motor","","","","","","",""
"750","","632970","HierDynkgob6s5","2luwxai4u4","msl000389","motor","","75","img/motor_7.png","75","motor","7","295","1","0","0","",""
"null","","633083","HierDynkgob6s5","2luwxai4u4","msl000389","iti","","null","img/motor_7.png","75","motor","","","","","","",""
"738","","633832","HierDynkgob6s5","2luwxai4u4","msl000389","motor","","72","img/motor_5.png","72","motor","5","296","1","0","0","",""
"null","","633946","HierDynkgob6s5","2luwxai4u4","msl000389","iti","","null","img/motor_5.png","72","motor","","","","","","",""
"738","","634696","HierDynkgob6s5","2luwxai4u4","msl000389","motor","","68","img/motor_3.png","68","motor","3","297","1","0","0","",""
"null","","634809","HierDynkgob6s5","2luwxai4u4","msl000389","iti","","null","img/motor_3.png","68","motor","","","","","","",""
"633","","635454","HierDynkgob6s5","2luwxai4u4","msl000389","motor","","72","img/motor_5.png","72","motor","5","298","1","0","0","",""
"null","","635567","HierDynkgob6s5","2luwxai4u4","msl000389","iti","","null","img/motor_5.png","72","motor","","","","","","",""
"608","","636188","HierDynkgob6s5","2luwxai4u4","msl000389","motor","","75","img/motor_7.png","75","motor","7","299","1","0","0","",""
"null","","636301","HierDynkgob6s5","2luwxai4u4","msl000389","iti","","null","img/motor_7.png","75","motor","","","","","","",""
"521","","636835","HierDynkgob6s5","2luwxai4u4","msl000389","motor","","75","img/motor_7.png","75","motor","7","300","1","0","0","",""
"null","","636948","HierDynkgob6s5","2luwxai4u4","msl000389","iti","","null","img/motor_7.png","75","motor","","","","","","",""
"683","","637645","HierDynkgob6s5","2luwxai4u4","msl000389","motor","","70","img/motor_4.png","70","motor","4","301","1","0","0","",""
"null","","637758","HierDynkgob6s5","2luwxai4u4","msl000389","iti","","null","img/motor_4.png","70","motor","","","","","","",""
"846","","638616","HierDynkgob6s5","2luwxai4u4","msl000389","motor","","83","img/motor_2.png","83","motor","2","302","1","0","0","",""
"null","","638729","HierDynkgob6s5","2luwxai4u4","msl000389","iti","","null","img/motor_2.png","83","motor","","","","","","",""
"894","","639636","HierDynkgob6s5","2luwxai4u4","msl000389","motor","","74","img/motor_6.png","74","motor","6","303","1","0","0","",""
"null","","639748","HierDynkgob6s5","2luwxai4u4","msl000389","iti","","null","img/motor_6.png","74","motor","","","","","","",""
"447","","640209","HierDynkgob6s5","2luwxai4u4","msl000389","motor","","75","img/motor_7.png","75","motor","7","304","1","0","0","",""
"null","","640322","HierDynkgob6s5","2luwxai4u4","msl000389","iti","","null","img/motor_7.png","75","motor","","","","","","",""
"591","","640926","HierDynkgob6s5","2luwxai4u4","msl000389","motor","","72","img/motor_5.png","72","motor","5","305","1","0","0","",""
"null","","641039","HierDynkgob6s5","2luwxai4u4","msl000389","iti","","null","img/motor_5.png","72","motor","","","","","","",""
"417","","641468","HierDynkgob6s5","2luwxai4u4","msl000389","motor","","65","img/motor_1.png","65","motor","1","306","1","0","0","",""
"null","","641581","HierDynkgob6s5","2luwxai4u4","msl000389","iti","","null","img/motor_1.png","65","motor","","","","","","",""
"486","","642080","HierDynkgob6s5","2luwxai4u4","msl000389","motor","","70","img/motor_4.png","70","motor","4","307","1","0","0","",""
"null","","642193","HierDynkgob6s5","2luwxai4u4","msl000389","iti","","null","img/motor_4.png","70","motor","","","","","","",""
"537","","642742","HierDynkgob6s5","2luwxai4u4","msl000389","motor","","65","img/motor_1.png","65","motor","1","308","1","0","0","",""
"null","","642855","HierDynkgob6s5","2luwxai4u4","msl000389","iti","","null","img/motor_1.png","65","motor","","","","","","",""
"1099","","643967","HierDynkgob6s5","2luwxai4u4","msl000389","motor","","68","img/motor_3.png","68","motor","3","309","1","0","0","",""
"null","","644080","HierDynkgob6s5","2luwxai4u4","msl000389","iti","","null","img/motor_3.png","68","motor","","","","","","",""
"602","","644695","HierDynkgob6s5","2luwxai4u4","msl000389","motor","","70","img/motor_4.png","70","motor","4","310","1","0","0","",""
"null","","644808","HierDynkgob6s5","2luwxai4u4","msl000389","iti","","null","img/motor_4.png","70","motor","","","","","","",""
"592","","645413","HierDynkgob6s5","2luwxai4u4","msl000389","motor","","74","img/motor_6.png","74","motor","6","311","1","0","0","",""
"null","","645527","HierDynkgob6s5","2luwxai4u4","msl000389","iti","","null","img/motor_6.png","74","motor","","","","","","",""
"640","","646179","HierDynkgob6s5","2luwxai4u4","msl000389","motor","","70","img/motor_4.png","70","motor","4","312","1","0","0","",""
"null","","646292","HierDynkgob6s5","2luwxai4u4","msl000389","iti","","null","img/motor_4.png","70","motor","","","","","","",""
"792","","647095","HierDynkgob6s5","2luwxai4u4","msl000389","motor","","75","img/motor_7.png","75","motor","7","313","1","0","0","",""
"null","","647209","HierDynkgob6s5","2luwxai4u4","msl000389","iti","","null","img/motor_7.png","75","motor","","","","","","",""
"577","","647800","HierDynkgob6s5","2luwxai4u4","msl000389","motor","","76","img/motor_8.png","76","motor","8","314","1","0","0","",""
"null","","647914","HierDynkgob6s5","2luwxai4u4","msl000389","iti","","null","img/motor_8.png","76","motor","","","","","","",""
"459","","648385","HierDynkgob6s5","2luwxai4u4","msl000389","motor","","65","img/motor_1.png","65","motor","1","315","1","0","0","",""
"null","","648498","HierDynkgob6s5","2luwxai4u4","msl000389","iti","","null","img/motor_1.png","65","motor","","","","","","",""
"725","","649235","HierDynkgob6s5","2luwxai4u4","msl000389","motor","","76","img/motor_8.png","76","motor","8","316","1","0","0","",""
"null","","649348","HierDynkgob6s5","2luwxai4u4","msl000389","iti","","null","img/motor_8.png","76","motor","","","","","","",""
"1790","","651151","HierDynkgob6s5","2luwxai4u4","msl000389","motor","","74","img/motor_6.png","74","motor","6","317","1","0","0","",""
"null","","651264","HierDynkgob6s5","2luwxai4u4","msl000389","iti","","null","img/motor_6.png","74","motor","","","","","","",""
"737","","652016","HierDynkgob6s5","2luwxai4u4","msl000389","motor","","75","img/motor_7.png","75","motor","7","318","1","0","0","",""
"null","","652131","HierDynkgob6s5","2luwxai4u4","msl000389","iti","","null","img/motor_7.png","75","motor","","","","","","",""
"625","","652770","HierDynkgob6s5","2luwxai4u4","msl000389","motor","","65","img/motor_1.png","65","motor","1","319","1","0","0","",""
"null","","652884","HierDynkgob6s5","2luwxai4u4","msl000389","iti","","null","img/motor_1.png","65","motor","","","","","","",""
"744","","653640","HierDynkgob6s5","2luwxai4u4","msl000389","motor","","72","img/motor_5.png","72","motor","5","320","1","0","0","",""
"null","","653753","HierDynkgob6s5","2luwxai4u4","msl000389","iti","","null","img/motor_5.png","72","motor","","","","","","",""
"591","","654358","HierDynkgob6s5","2luwxai4u4","msl000389","motor","","68","img/motor_3.png","68","motor","3","321","1","0","0","",""
"null","","654471","HierDynkgob6s5","2luwxai4u4","msl000389","iti","","null","img/motor_3.png","68","motor","","","","","","",""
"825","","655308","HierDynkgob6s5","2luwxai4u4","msl000389","motor","","75","img/motor_7.png","75","motor","7","322","1","0","0","",""
"null","","655421","HierDynkgob6s5","2luwxai4u4","msl000389","iti","","null","img/motor_7.png","75","motor","","","","","","",""
"746","","656180","HierDynkgob6s5","2luwxai4u4","msl000389","motor","","76","img/motor_8.png","76","motor","8","323","1","0","0","",""
"null","","656292","HierDynkgob6s5","2luwxai4u4","msl000389","iti","","null","img/motor_8.png","76","motor","","","","","","",""
"840","","657144","HierDynkgob6s5","2luwxai4u4","msl000389","motor","","83","img/motor_2.png","83","motor","2","324","1","0","0","",""
"null","","657256","HierDynkgob6s5","2luwxai4u4","msl000389","iti","","null","img/motor_2.png","83","motor","","","","","","",""
"704","","657974","HierDynkgob6s5","2luwxai4u4","msl000389","motor","","68","img/motor_3.png","68","motor","3","325","1","0","0","",""
"null","","658086","HierDynkgob6s5","2luwxai4u4","msl000389","iti","","null","img/motor_3.png","68","motor","","","","","","",""
"1365","","659464","HierDynkgob6s5","2luwxai4u4","msl000389","motor","","72","img/motor_5.png","72","motor","5","326","1","0","0","",""
"null","","659577","HierDynkgob6s5","2luwxai4u4","msl000389","iti","","null","img/motor_5.png","72","motor","","","","","","",""
"586","","660176","HierDynkgob6s5","2luwxai4u4","msl000389","motor","","76","img/motor_8.png","76","motor","8","327","1","0","0","",""
"null","","660289","HierDynkgob6s5","2luwxai4u4","msl000389","iti","","null","img/motor_8.png","76","motor","","","","","","",""
"499","","660799","HierDynkgob6s5","2luwxai4u4","msl000389","motor","","72","img/motor_5.png","72","motor","5","328","1","0","0","",""
"null","","660912","HierDynkgob6s5","2luwxai4u4","msl000389","iti","","null","img/motor_5.png","72","motor","","","","","","",""
"827","","661753","HierDynkgob6s5","2luwxai4u4","msl000389","motor","","83","img/motor_2.png","83","motor","2","329","1","0","0","",""
"null","","661866","HierDynkgob6s5","2luwxai4u4","msl000389","iti","","null","img/motor_2.png","83","motor","","","","","","",""
"393","","662271","HierDynkgob6s5","2luwxai4u4","msl000389","motor","","68","img/motor_3.png","68","motor","3","330","1","0","0","",""
"null","","662384","HierDynkgob6s5","2luwxai4u4","msl000389","iti","","null","img/motor_3.png","68","motor","","","","","","",""
"552","","662949","HierDynkgob6s5","2luwxai4u4","msl000389","motor","","70","img/motor_4.png","70","motor","4","331","1","0","0","",""
"null","","663062","HierDynkgob6s5","2luwxai4u4","msl000389","iti","","null","img/motor_4.png","70","motor","","","","","","",""
"695","","663769","HierDynkgob6s5","2luwxai4u4","msl000389","motor","","83","img/motor_2.png","83","motor","2","332","1","0","0","",""
"null","","663883","HierDynkgob6s5","2luwxai4u4","msl000389","iti","","null","img/motor_2.png","83","motor","","","","","","",""
"694","","664587","HierDynkgob6s5","2luwxai4u4","msl000389","motor","","76","img/motor_8.png","76","motor","8","333","1","0","0","",""
"null","","664699","HierDynkgob6s5","2luwxai4u4","msl000389","iti","","null","img/motor_8.png","76","motor","","","","","","",""
"488","","665200","HierDynkgob6s5","2luwxai4u4","msl000389","motor","","65","img/motor_1.png","65","motor","1","334","1","0","0","",""
"null","","665313","HierDynkgob6s5","2luwxai4u4","msl000389","iti","","null","img/motor_1.png","65","motor","","","","","","",""
"669","","665995","HierDynkgob6s5","2luwxai4u4","msl000389","motor","","75","img/motor_7.png","75","motor","7","335","1","0","0","",""
"null","","666108","HierDynkgob6s5","2luwxai4u4","msl000389","iti","","null","img/motor_7.png","75","motor","","","","","","",""
"646","","666766","HierDynkgob6s5","2luwxai4u4","msl000389","motor","","68","img/motor_3.png","68","motor","3","336","1","0","0","",""
"null","","666879","HierDynkgob6s5","2luwxai4u4","msl000389","iti","","null","img/motor_3.png","68","motor","","","","","","",""
"509","","667399","HierDynkgob6s5","2luwxai4u4","msl000389","motor","","65","img/motor_1.png","65","motor","1","337","1","0","0","",""
"null","","667512","HierDynkgob6s5","2luwxai4u4","msl000389","iti","","null","img/motor_1.png","65","motor","","","","","","",""
"592","","668117","HierDynkgob6s5","2luwxai4u4","msl000389","motor","","76","img/motor_8.png","76","motor","8","338","1","0","0","",""
"null","","668229","HierDynkgob6s5","2luwxai4u4","msl000389","iti","","null","img/motor_8.png","76","motor","","","","","","",""
"486","","668729","HierDynkgob6s5","2luwxai4u4","msl000389","motor","","68","img/motor_4.png","70","motor","4","339","0","1","0","",""
"480","","669220","HierDynkgob6s5","2luwxai4u4","msl000389","motorRepeat","","70","img/motor_4.png","70","motor","4","339","1","0","0","",""
"null","","669332","HierDynkgob6s5","2luwxai4u4","msl000389","iti","","null","img/motor_4.png","70","motor","","","","","","",""
"1020","","670365","HierDynkgob6s5","2luwxai4u4","msl000389","motor","","75","img/motor_7.png","75","motor","7","340","1","0","0","",""
"null","","670478","HierDynkgob6s5","2luwxai4u4","msl000389","iti","","null","img/motor_7.png","75","motor","","","","","","",""
"708","","671198","HierDynkgob6s5","2luwxai4u4","msl000389","motor","","70","img/motor_4.png","70","motor","4","341","1","0","0","",""
"null","","671312","HierDynkgob6s5","2luwxai4u4","msl000389","iti","","null","img/motor_4.png","70","motor","","","","","","",""
"703","","672027","HierDynkgob6s5","2luwxai4u4","msl000389","motor","","74","img/motor_6.png","74","motor","6","342","1","0","0","",""
"null","","672140","HierDynkgob6s5","2luwxai4u4","msl000389","iti","","null","img/motor_6.png","74","motor","","","","","","",""
"422","","672573","HierDynkgob6s5","2luwxai4u4","msl000389","motor","","75","img/motor_7.png","75","motor","7","343","1","0","0","",""
"null","","672686","HierDynkgob6s5","2luwxai4u4","msl000389","iti","","null","img/motor_7.png","75","motor","","","","","","",""
"383","","673083","HierDynkgob6s5","2luwxai4u4","msl000389","motor","","65","img/motor_1.png","65","motor","1","344","1","0","0","",""
"null","","673194","HierDynkgob6s5","2luwxai4u4","msl000389","iti","","null","img/motor_1.png","65","motor","","","","","","",""
"718","","673924","HierDynkgob6s5","2luwxai4u4","msl000389","motor","","65","img/motor_1.png","65","motor","1","345","1","0","0","",""
"null","","674037","HierDynkgob6s5","2luwxai4u4","msl000389","iti","","null","img/motor_1.png","65","motor","","","","","","",""
"638","","674688","HierDynkgob6s5","2luwxai4u4","msl000389","motor","","75","img/motor_7.png","75","motor","7","346","1","0","0","",""
"null","","674801","HierDynkgob6s5","2luwxai4u4","msl000389","iti","","null","img/motor_7.png","75","motor","","","","","","",""
"566","","675379","HierDynkgob6s5","2luwxai4u4","msl000389","motor","","72","img/motor_5.png","72","motor","5","347","1","0","0","",""
"null","","675492","HierDynkgob6s5","2luwxai4u4","msl000389","iti","","null","img/motor_5.png","72","motor","","","","","","",""
"483","","675988","HierDynkgob6s5","2luwxai4u4","msl000389","motor","","74","img/motor_6.png","74","motor","6","348","1","0","0","",""
"null","","676101","HierDynkgob6s5","2luwxai4u4","msl000389","iti","","null","img/motor_6.png","74","motor","","","","","","",""
"803","","676917","HierDynkgob6s5","2luwxai4u4","msl000389","motor","","70","img/motor_4.png","70","motor","4","349","1","0","0","",""
"null","","677029","HierDynkgob6s5","2luwxai4u4","msl000389","iti","","null","img/motor_4.png","70","motor","","","","","","",""
"557","","677599","HierDynkgob6s5","2luwxai4u4","msl000389","motor","","65","img/motor_1.png","65","motor","1","350","1","0","0","",""
"null","","677711","HierDynkgob6s5","2luwxai4u4","msl000389","iti","","null","img/motor_1.png","65","motor","","","","","","",""
"523","","678245","HierDynkgob6s5","2luwxai4u4","msl000389","motor","","74","img/motor_6.png","74","motor","6","351","1","0","0","",""
"null","","678359","HierDynkgob6s5","2luwxai4u4","msl000389","iti","","null","img/motor_6.png","74","motor","","","","","","",""
"568","","678938","HierDynkgob6s5","2luwxai4u4","msl000389","motor","","76","img/motor_8.png","76","motor","8","352","1","0","0","",""
"null","","679051","HierDynkgob6s5","2luwxai4u4","msl000389","iti","","null","img/motor_8.png","76","motor","","","","","","",""
"839","","679902","HierDynkgob6s5","2luwxai4u4","msl000389","motor","","68","img/motor_3.png","68","motor","3","353","1","0","0","",""
"null","","680016","HierDynkgob6s5","2luwxai4u4","msl000389","iti","","null","img/motor_3.png","68","motor","","","","","","",""
"651","","680680","HierDynkgob6s5","2luwxai4u4","msl000389","motor","","76","img/motor_8.png","76","motor","8","354","1","0","0","",""
"null","","680792","HierDynkgob6s5","2luwxai4u4","msl000389","iti","","null","img/motor_8.png","76","motor","","","","","","",""
"548","","681352","HierDynkgob6s5","2luwxai4u4","msl000389","motor","","65","img/motor_1.png","65","motor","1","355","1","0","0","",""
"null","","681465","HierDynkgob6s5","2luwxai4u4","msl000389","iti","","null","img/motor_1.png","65","motor","","","","","","",""
"1050","","682527","HierDynkgob6s5","2luwxai4u4","msl000389","motor","","83","img/motor_2.png","83","motor","2","356","1","0","0","",""
"null","","682640","HierDynkgob6s5","2luwxai4u4","msl000389","iti","","null","img/motor_2.png","83","motor","","","","","","",""
"628","","683280","HierDynkgob6s5","2luwxai4u4","msl000389","motor","","65","img/motor_1.png","65","motor","1","357","1","0","0","",""
"null","","683392","HierDynkgob6s5","2luwxai4u4","msl000389","iti","","null","img/motor_1.png","65","motor","","","","","","",""
"1989","","685393","HierDynkgob6s5","2luwxai4u4","msl000389","motor","","72","img/motor_5.png","72","motor","5","358","1","0","0","",""
"null","","685506","HierDynkgob6s5","2luwxai4u4","msl000389","iti","","null","img/motor_5.png","72","motor","","","","","","",""
"663","","686181","HierDynkgob6s5","2luwxai4u4","msl000389","motor","","74","img/motor_6.png","74","motor","6","359","1","0","0","",""
"null","","686293","HierDynkgob6s5","2luwxai4u4","msl000389","iti","","null","img/motor_6.png","74","motor","","","","","","",""
"711","","687017","HierDynkgob6s5","2luwxai4u4","msl000389","motor","","76","img/motor_8.png","76","motor","8","360","1","0","0","",""
"null","","687130","HierDynkgob6s5","2luwxai4u4","msl000389","iti","","null","img/motor_8.png","76","motor","","","","","","",""
"594","","687737","HierDynkgob6s5","2luwxai4u4","msl000389","motor","","70","img/motor_4.png","70","motor","4","361","1","0","0","",""
"null","","687851","HierDynkgob6s5","2luwxai4u4","msl000389","iti","","null","img/motor_4.png","70","motor","","","","","","",""
"804","","688666","HierDynkgob6s5","2luwxai4u4","msl000389","motor","","74","img/motor_6.png","74","motor","6","362","1","0","0","",""
"null","","688779","HierDynkgob6s5","2luwxai4u4","msl000389","iti","","null","img/motor_6.png","74","motor","","","","","","",""
"798","","689590","HierDynkgob6s5","2luwxai4u4","msl000389","motor","","76","img/motor_8.png","76","motor","8","363","1","0","0","",""
"null","","689702","HierDynkgob6s5","2luwxai4u4","msl000389","iti","","null","img/motor_8.png","76","motor","","","","","","",""
"755","","690471","HierDynkgob6s5","2luwxai4u4","msl000389","motor","","76","img/motor_8.png","76","motor","8","364","1","0","0","",""
"null","","690585","HierDynkgob6s5","2luwxai4u4","msl000389","iti","","null","img/motor_8.png","76","motor","","","","","","",""
"776","","691376","HierDynkgob6s5","2luwxai4u4","msl000389","motor","","83","img/motor_2.png","83","motor","2","365","1","0","0","",""
"null","","691489","HierDynkgob6s5","2luwxai4u4","msl000389","iti","","null","img/motor_2.png","83","motor","","","","","","",""
"557","","692059","HierDynkgob6s5","2luwxai4u4","msl000389","motor","","72","img/motor_5.png","72","motor","5","366","1","0","0","",""
"null","","692172","HierDynkgob6s5","2luwxai4u4","msl000389","iti","","null","img/motor_5.png","72","motor","","","","","","",""
"844","","693030","HierDynkgob6s5","2luwxai4u4","msl000389","motor","","83","img/motor_2.png","83","motor","2","367","1","0","0","",""
"null","","693142","HierDynkgob6s5","2luwxai4u4","msl000389","iti","","null","img/motor_2.png","83","motor","","","","","","",""
"1329","","694484","HierDynkgob6s5","2luwxai4u4","msl000389","motor","","74","img/motor_6.png","74","motor","6","368","1","0","0","",""
