rt,responses,time_elapsed,subject,prolificID,demoID,trialType,question_order,key_press,stim,corrresp,phase,stimNum,trialNum,corr,repeatTrial,motorSwitch,pracCounter,hierarchy
138011,"{""Q0"":""ms1000269""}",138043,HierDygnsoggh1,1snfqmhhvp,ms1000269,,,,,,,,,,,,,
8750,,146802,HierDygnsoggh1,1snfqmhhvp,ms1000269,,,,,,,,,,,,,
,,149427,HierDygnsoggh1,1snfqmhhvp,ms1000269,fullscreen,,,,,,,,,,,,
11171,"{""Vision"":""Yes"",""Handedness"":""Right"",""Gender"":""male""}",160615,HierDygnsoggh1,1snfqmhhvp,ms1000269,,"[0,1,2]",,,,,,,,,,,
1625,"{""Q0"":""22""}",162250,HierDygnsoggh1,1snfqmhhvp,ms1000269,,,,,,,,,,,,,
146471,,308741,HierDygnsoggh1,1snfqmhhvp,ms1000269,,,,,,,,,,,,,
641,,309392,HierDygnsoggh1,1snfqmhhvp,ms1000269,motor,,68,img/motor_3.png,68,motor,3,1,1,0,0,,
null,,309501,HierDygnsoggh1,1snfqmhhvp,ms1000269,iti,,null,img/motor_3.png,68,motor,,,,,,,
643,,310157,HierDygnsoggh1,1snfqmhhvp,ms1000269,motor,,75,img/motor_7.png,75,motor,7,2,1,0,0,,
null,,310267,HierDygnsoggh1,1snfqmhhvp,ms1000269,iti,,null,img/motor_7.png,75,motor,,,,,,,
452,,310727,HierDygnsoggh1,1snfqmhhvp,ms1000269,motor,,65,img/motor_1.png,65,motor,1,3,1,0,0,,
null,,310836,HierDygnsoggh1,1snfqmhhvp,ms1000269,iti,,null,img/motor_1.png,65,motor,,,,,,,
524,,311368,HierDygnsoggh1,1snfqmhhvp,ms1000269,motor,,74,img/motor_6.png,74,motor,6,4,1,0,0,,
null,,311482,HierDygnsoggh1,1snfqmhhvp,ms1000269,iti,,null,img/motor_6.png,74,motor,,,,,,,
500,,311990,HierDygnsoggh1,1snfqmhhvp,ms1000269,motor,,72,img/motor_5.png,72,motor,5,5,1,0,0,,
null,,312104,HierDygnsoggh1,1snfqmhhvp,ms1000269,iti,,null,img/motor_5.png,72,motor,,,,,,,
486,,312600,HierDygnsoggh1,1snfqmhhvp,ms1000269,motor,,68,img/motor_3.png,68,motor,3,6,1,0,0,,
null,,312714,HierDygnsoggh1,1snfqmhhvp,ms1000269,iti,,null,img/motor_3.png,68,motor,,,,,,,
516,,313240,HierDygnsoggh1,1snfqmhhvp,ms1000269,motor,,83,img/motor_2.png,83,motor,2,7,1,0,0,,
null,,313348,HierDygnsoggh1,1snfqmhhvp,ms1000269,iti,,null,img/motor_2.png,83,motor,,,,,,,
468,,313823,HierDygnsoggh1,1snfqmhhvp,ms1000269,motor,,70,img/motor_4.png,70,motor,4,8,1,0,0,,
null,,313931,HierDygnsoggh1,1snfqmhhvp,ms1000269,iti,,null,img/motor_4.png,70,motor,,,,,,,
540,,314479,HierDygnsoggh1,1snfqmhhvp,ms1000269,motor,,72,img/motor_5.png,72,motor,5,9,1,0,0,,
null,,314593,HierDygnsoggh1,1snfqmhhvp,ms1000269,iti,,null,img/motor_5.png,72,motor,,,,,,,
446,,315054,HierDygnsoggh1,1snfqmhhvp,ms1000269,motor,,68,img/motor_3.png,68,motor,3,10,1,0,0,,
null,,315163,HierDygnsoggh1,1snfqmhhvp,ms1000269,iti,,null,img/motor_3.png,68,motor,,,,,,,
429,,315599,HierDygnsoggh1,1snfqmhhvp,ms1000269,motor,,70,img/motor_4.png,70,motor,4,11,1,0,0,,
null,,315708,HierDygnsoggh1,1snfqmhhvp,ms1000269,iti,,null,img/motor_4.png,70,motor,,,,,,,
396,,316111,HierDygnsoggh1,1snfqmhhvp,ms1000269,motor,,70,img/motor_4.png,70,motor,4,12,1,0,0,,
null,,316219,HierDygnsoggh1,1snfqmhhvp,ms1000269,iti,,null,img/motor_4.png,70,motor,,,,,,,
477,,316703,HierDygnsoggh1,1snfqmhhvp,ms1000269,motor,,74,img/motor_6.png,74,motor,6,13,1,0,0,,
null,,316817,HierDygnsoggh1,1snfqmhhvp,ms1000269,iti,,null,img/motor_6.png,74,motor,,,,,,,
397,,317223,HierDygnsoggh1,1snfqmhhvp,ms1000269,motor,,72,img/motor_5.png,72,motor,5,14,1,0,0,,
null,,317330,HierDygnsoggh1,1snfqmhhvp,ms1000269,iti,,null,img/motor_5.png,72,motor,,,,,,,
436,,317774,HierDygnsoggh1,1snfqmhhvp,ms1000269,motor,,75,img/motor_7.png,75,motor,7,15,1,0,0,,
null,,317882,HierDygnsoggh1,1snfqmhhvp,ms1000269,iti,,null,img/motor_7.png,75,motor,,,,,,,
557,,318453,HierDygnsoggh1,1snfqmhhvp,ms1000269,motor,,83,img/motor_2.png,83,motor,2,16,1,0,0,,
null,,318562,HierDygnsoggh1,1snfqmhhvp,ms1000269,iti,,null,img/motor_2.png,83,motor,,,,,,,
501,,319077,HierDygnsoggh1,1snfqmhhvp,ms1000269,motor,,70,img/motor_4.png,70,motor,4,17,1,0,0,,
null,,319192,HierDygnsoggh1,1snfqmhhvp,ms1000269,iti,,null,img/motor_4.png,70,motor,,,,,,,
471,,319677,HierDygnsoggh1,1snfqmhhvp,ms1000269,motor,,74,img/motor_6.png,74,motor,6,18,1,0,0,,
null,,319793,HierDygnsoggh1,1snfqmhhvp,ms1000269,iti,,null,img/motor_6.png,74,motor,,,,,,,
391,,320198,HierDygnsoggh1,1snfqmhhvp,ms1000269,motor,,65,img/motor_1.png,65,motor,1,19,1,0,0,,
null,,320313,HierDygnsoggh1,1snfqmhhvp,ms1000269,iti,,null,img/motor_1.png,65,motor,,,,,,,
461,,320783,HierDygnsoggh1,1snfqmhhvp,ms1000269,motor,,72,img/motor_5.png,72,motor,5,20,1,0,0,,
null,,320898,HierDygnsoggh1,1snfqmhhvp,ms1000269,iti,,null,img/motor_5.png,72,motor,,,,,,,
444,,321357,HierDygnsoggh1,1snfqmhhvp,ms1000269,motor,,74,img/motor_6.png,74,motor,6,21,1,0,0,,
null,,321466,HierDygnsoggh1,1snfqmhhvp,ms1000269,iti,,null,img/motor_6.png,74,motor,,,,,,,
446,,321920,HierDygnsoggh1,1snfqmhhvp,ms1000269,motor,,76,img/motor_8.png,76,motor,8,22,1,0,0,,
null,,322028,HierDygnsoggh1,1snfqmhhvp,ms1000269,iti,,null,img/motor_8.png,76,motor,,,,,,,
499,,322535,HierDygnsoggh1,1snfqmhhvp,ms1000269,motor,,70,img/motor_4.png,70,motor,4,23,1,0,0,,
null,,322643,HierDygnsoggh1,1snfqmhhvp,ms1000269,iti,,null,img/motor_4.png,70,motor,,,,,,,
499,,323151,HierDygnsoggh1,1snfqmhhvp,ms1000269,motor,,72,img/motor_5.png,72,motor,5,24,1,0,0,,
null,,323266,HierDygnsoggh1,1snfqmhhvp,ms1000269,iti,,null,img/motor_5.png,72,motor,,,,,,,
525,,323806,HierDygnsoggh1,1snfqmhhvp,ms1000269,motor,,83,img/motor_2.png,83,motor,2,25,1,0,0,,
null,,323915,HierDygnsoggh1,1snfqmhhvp,ms1000269,iti,,null,img/motor_2.png,83,motor,,,,,,,
445,,324368,HierDygnsoggh1,1snfqmhhvp,ms1000269,motor,,83,img/motor_2.png,83,motor,2,26,1,0,0,,
null,,324483,HierDygnsoggh1,1snfqmhhvp,ms1000269,iti,,null,img/motor_2.png,83,motor,,,,,,,
524,,325016,HierDygnsoggh1,1snfqmhhvp,ms1000269,motor,,76,img/motor_8.png,76,motor,8,27,1,0,0,,
null,,325130,HierDygnsoggh1,1snfqmhhvp,ms1000269,iti,,null,img/motor_8.png,76,motor,,,,,,,
509,,325660,HierDygnsoggh1,1snfqmhhvp,ms1000269,motor,,70,img/motor_4.png,70,motor,4,28,1,0,0,,
null,,325775,HierDygnsoggh1,1snfqmhhvp,ms1000269,iti,,null,img/motor_4.png,70,motor,,,,,,,
493,,326286,HierDygnsoggh1,1snfqmhhvp,ms1000269,motor,,68,img/motor_3.png,68,motor,3,29,1,0,0,,
null,,326395,HierDygnsoggh1,1snfqmhhvp,ms1000269,iti,,null,img/motor_3.png,68,motor,,,,,,,
452,,326862,HierDygnsoggh1,1snfqmhhvp,ms1000269,motor,,68,img/motor_3.png,68,motor,3,30,1,0,0,,
null,,326972,HierDygnsoggh1,1snfqmhhvp,ms1000269,iti,,null,img/motor_3.png,68,motor,,,,,,,
412,,327392,HierDygnsoggh1,1snfqmhhvp,ms1000269,motor,,65,img/motor_1.png,65,motor,1,31,1,0,0,,
null,,327500,HierDygnsoggh1,1snfqmhhvp,ms1000269,iti,,null,img/motor_1.png,65,motor,,,,,,,
587,,328096,HierDygnsoggh1,1snfqmhhvp,ms1000269,motor,,72,img/motor_5.png,72,motor,5,32,1,0,0,,
null,,328204,HierDygnsoggh1,1snfqmhhvp,ms1000269,iti,,null,img/motor_5.png,72,motor,,,,,,,
458,,328671,HierDygnsoggh1,1snfqmhhvp,ms1000269,motor,,76,img/motor_8.png,76,motor,8,33,1,0,0,,
null,,328779,HierDygnsoggh1,1snfqmhhvp,ms1000269,iti,,null,img/motor_8.png,76,motor,,,,,,,
508,,329295,HierDygnsoggh1,1snfqmhhvp,ms1000269,motor,,68,img/motor_2.png,83,motor,2,34,0,1,0,,
344,,329653,HierDygnsoggh1,1snfqmhhvp,ms1000269,motorRepeat,,83,img/motor_2.png,83,motor,2,34,1,0,0,,
null,,329769,HierDygnsoggh1,1snfqmhhvp,ms1000269,iti,,null,img/motor_2.png,83,motor,,,,,,,
709,,330494,HierDygnsoggh1,1snfqmhhvp,ms1000269,motor,,68,img/motor_3.png,68,motor,3,35,1,0,0,,
null,,330603,HierDygnsoggh1,1snfqmhhvp,ms1000269,iti,,null,img/motor_3.png,68,motor,,,,,,,
429,,331040,HierDygnsoggh1,1snfqmhhvp,ms1000269,motor,,65,img/motor_1.png,65,motor,1,36,1,0,0,,
null,,331147,HierDygnsoggh1,1snfqmhhvp,ms1000269,iti,,null,img/motor_1.png,65,motor,,,,,,,
460,,331621,HierDygnsoggh1,1snfqmhhvp,ms1000269,motor,,72,img/motor_5.png,72,motor,5,37,1,0,0,,
null,,331737,HierDygnsoggh1,1snfqmhhvp,ms1000269,iti,,null,img/motor_5.png,72,motor,,,,,,,
446,,332192,HierDygnsoggh1,1snfqmhhvp,ms1000269,motor,,76,img/motor_8.png,76,motor,8,38,1,0,0,,
null,,332306,HierDygnsoggh1,1snfqmhhvp,ms1000269,iti,,null,img/motor_8.png,76,motor,,,,,,,
525,,332839,HierDygnsoggh1,1snfqmhhvp,ms1000269,motor,,83,img/motor_2.png,83,motor,2,39,1,0,0,,
null,,332948,HierDygnsoggh1,1snfqmhhvp,ms1000269,iti,,null,img/motor_2.png,83,motor,,,,,,,
468,,333424,HierDygnsoggh1,1snfqmhhvp,ms1000269,motor,,83,img/motor_2.png,83,motor,2,40,1,0,0,,
null,,333537,HierDygnsoggh1,1snfqmhhvp,ms1000269,iti,,null,img/motor_2.png,83,motor,,,,,,,
469,,334022,HierDygnsoggh1,1snfqmhhvp,ms1000269,motor,,76,img/motor_8.png,76,motor,8,41,1,0,0,,
null,,334137,HierDygnsoggh1,1snfqmhhvp,ms1000269,iti,,null,img/motor_8.png,76,motor,,,,,,,
398,,334550,HierDygnsoggh1,1snfqmhhvp,ms1000269,motor,,65,img/motor_1.png,65,motor,1,42,1,0,0,,
null,,334665,HierDygnsoggh1,1snfqmhhvp,ms1000269,iti,,null,img/motor_1.png,65,motor,,,,,,,
422,,335095,HierDygnsoggh1,1snfqmhhvp,ms1000269,motor,,65,img/motor_1.png,65,motor,1,43,1,0,0,,
null,,335209,HierDygnsoggh1,1snfqmhhvp,ms1000269,iti,,null,img/motor_1.png,65,motor,,,,,,,
517,,335735,HierDygnsoggh1,1snfqmhhvp,ms1000269,motor,,72,img/motor_5.png,72,motor,5,44,1,0,0,,
null,,335849,HierDygnsoggh1,1snfqmhhvp,ms1000269,iti,,null,img/motor_5.png,72,motor,,,,,,,
422,,336280,HierDygnsoggh1,1snfqmhhvp,ms1000269,motor,,74,img/motor_6.png,74,motor,6,45,1,0,0,,
null,,336394,HierDygnsoggh1,1snfqmhhvp,ms1000269,iti,,null,img/motor_6.png,74,motor,,,,,,,
501,,336910,HierDygnsoggh1,1snfqmhhvp,ms1000269,motor,,68,img/motor_3.png,68,motor,3,46,1,0,0,,
null,,337025,HierDygnsoggh1,1snfqmhhvp,ms1000269,iti,,null,img/motor_3.png,68,motor,,,,,,,
430,,337469,HierDygnsoggh1,1snfqmhhvp,ms1000269,motor,,83,img/motor_2.png,83,motor,2,47,1,0,0,,
null,,337585,HierDygnsoggh1,1snfqmhhvp,ms1000269,iti,,null,img/motor_2.png,83,motor,,,,,,,
415,,338008,HierDygnsoggh1,1snfqmhhvp,ms1000269,motor,,74,img/motor_6.png,74,motor,6,48,1,0,0,,
null,,338116,HierDygnsoggh1,1snfqmhhvp,ms1000269,iti,,null,img/motor_6.png,74,motor,,,,,,,
484,,338608,HierDygnsoggh1,1snfqmhhvp,ms1000269,motor,,65,img/motor_1.png,65,motor,1,49,1,0,0,,
null,,338722,HierDygnsoggh1,1snfqmhhvp,ms1000269,iti,,null,img/motor_1.png,65,motor,,,,,,,
581,,339312,HierDygnsoggh1,1snfqmhhvp,ms1000269,motor,,75,img/motor_7.png,75,motor,7,50,1,0,0,,
null,,339426,HierDygnsoggh1,1snfqmhhvp,ms1000269,iti,,null,img/motor_7.png,75,motor,,,,,,,
500,,339935,HierDygnsoggh1,1snfqmhhvp,ms1000269,motor,,72,img/motor_5.png,72,motor,5,51,1,0,0,,
null,,340049,HierDygnsoggh1,1snfqmhhvp,ms1000269,iti,,null,img/motor_5.png,72,motor,,,,,,,
502,,340566,HierDygnsoggh1,1snfqmhhvp,ms1000269,motor,,68,img/motor_3.png,68,motor,3,52,1,0,0,,
null,,340674,HierDygnsoggh1,1snfqmhhvp,ms1000269,iti,,null,img/motor_3.png,68,motor,,,,,,,
501,,341189,HierDygnsoggh1,1snfqmhhvp,ms1000269,motor,,70,img/motor_4.png,70,motor,4,53,1,0,0,,
null,,341298,HierDygnsoggh1,1snfqmhhvp,ms1000269,iti,,null,img/motor_4.png,70,motor,,,,,,,
525,,341832,HierDygnsoggh1,1snfqmhhvp,ms1000269,motor,,74,img/motor_7.png,75,motor,7,54,0,1,0,,
352,,342191,HierDygnsoggh1,1snfqmhhvp,ms1000269,motorRepeat,,75,img/motor_7.png,75,motor,7,54,1,0,0,,
null,,342306,HierDygnsoggh1,1snfqmhhvp,ms1000269,iti,,null,img/motor_7.png,75,motor,,,,,,,
509,,342830,HierDygnsoggh1,1snfqmhhvp,ms1000269,motor,,72,img/motor_6.png,74,motor,6,55,0,1,0,,
320,,343166,HierDygnsoggh1,1snfqmhhvp,ms1000269,motorRepeat,,74,img/motor_6.png,74,motor,6,55,1,0,0,,
null,,343281,HierDygnsoggh1,1snfqmhhvp,ms1000269,iti,,null,img/motor_6.png,74,motor,,,,,,,
582,,343878,HierDygnsoggh1,1snfqmhhvp,ms1000269,motor,,75,img/motor_7.png,75,motor,7,56,1,0,0,,
null,,343986,HierDygnsoggh1,1snfqmhhvp,ms1000269,iti,,null,img/motor_7.png,75,motor,,,,,,,
573,,344574,HierDygnsoggh1,1snfqmhhvp,ms1000269,motor,,76,img/motor_8.png,76,motor,8,57,1,0,0,,
null,,344683,HierDygnsoggh1,1snfqmhhvp,ms1000269,iti,,null,img/motor_8.png,76,motor,,,,,,,
469,,345159,HierDygnsoggh1,1snfqmhhvp,ms1000269,motor,,74,img/motor_6.png,74,motor,6,58,1,0,0,,
null,,345268,HierDygnsoggh1,1snfqmhhvp,ms1000269,iti,,null,img/motor_6.png,74,motor,,,,,,,
572,,345854,HierDygnsoggh1,1snfqmhhvp,ms1000269,motor,,75,img/motor_7.png,75,motor,7,59,1,0,0,,
null,,345969,HierDygnsoggh1,1snfqmhhvp,ms1000269,iti,,null,img/motor_7.png,75,motor,,,,,,,
582,,346559,HierDygnsoggh1,1snfqmhhvp,ms1000269,motor,,68,img/motor_3.png,68,motor,3,60,1,0,0,,
null,,346673,HierDygnsoggh1,1snfqmhhvp,ms1000269,iti,,null,img/motor_3.png,68,motor,,,,,,,
486,,347174,HierDygnsoggh1,1snfqmhhvp,ms1000269,motor,,76,img/motor_8.png,76,motor,8,61,1,0,0,,
null,,347289,HierDygnsoggh1,1snfqmhhvp,ms1000269,iti,,null,img/motor_8.png,76,motor,,,,,,,
455,,347751,HierDygnsoggh1,1snfqmhhvp,ms1000269,motor,,65,img/motor_1.png,65,motor,1,62,1,0,0,,
null,,347865,HierDygnsoggh1,1snfqmhhvp,ms1000269,iti,,null,img/motor_1.png,65,motor,,,,,,,
503,,348375,HierDygnsoggh1,1snfqmhhvp,ms1000269,motor,,76,img/motor_8.png,76,motor,8,63,1,0,0,,
null,,348489,HierDygnsoggh1,1snfqmhhvp,ms1000269,iti,,null,img/motor_8.png,76,motor,,,,,,,
566,,349070,HierDygnsoggh1,1snfqmhhvp,ms1000269,motor,,68,img/motor_3.png,68,motor,3,64,1,0,0,,
null,,349184,HierDygnsoggh1,1snfqmhhvp,ms1000269,iti,,null,img/motor_3.png,68,motor,,,,,,,
687,,349878,HierDygnsoggh1,1snfqmhhvp,ms1000269,motor,,74,img/motor_6.png,74,motor,6,65,1,0,0,,
null,,349992,HierDygnsoggh1,1snfqmhhvp,ms1000269,iti,,null,img/motor_6.png,74,motor,,,,,,,
550,,350558,HierDygnsoggh1,1snfqmhhvp,ms1000269,motor,,75,img/motor_7.png,75,motor,7,66,1,0,0,,
null,,350673,HierDygnsoggh1,1snfqmhhvp,ms1000269,iti,,null,img/motor_7.png,75,motor,,,,,,,
663,,351344,HierDygnsoggh1,1snfqmhhvp,ms1000269,motor,,83,img/motor_2.png,83,motor,2,67,1,0,0,,
null,,351458,HierDygnsoggh1,1snfqmhhvp,ms1000269,iti,,null,img/motor_2.png,83,motor,,,,,,,
653,,352120,HierDygnsoggh1,1snfqmhhvp,ms1000269,motor,,70,img/motor_4.png,70,motor,4,68,1,0,0,,
null,,352234,HierDygnsoggh1,1snfqmhhvp,ms1000269,iti,,null,img/motor_4.png,70,motor,,,,,,,
461,,352703,HierDygnsoggh1,1snfqmhhvp,ms1000269,motor,,65,img/motor_1.png,65,motor,1,69,1,0,0,,
null,,352811,HierDygnsoggh1,1snfqmhhvp,ms1000269,iti,,null,img/motor_1.png,65,motor,,,,,,,
684,,353510,HierDygnsoggh1,1snfqmhhvp,ms1000269,motor,,68,img/motor_3.png,68,motor,3,70,1,0,0,,
null,,353618,HierDygnsoggh1,1snfqmhhvp,ms1000269,iti,,null,img/motor_3.png,68,motor,,,,,,,
477,,354104,HierDygnsoggh1,1snfqmhhvp,ms1000269,motor,,68,img/motor_3.png,68,motor,3,71,1,0,0,,
null,,354218,HierDygnsoggh1,1snfqmhhvp,ms1000269,iti,,null,img/motor_3.png,68,motor,,,,,,,
469,,354702,HierDygnsoggh1,1snfqmhhvp,ms1000269,motor,,83,img/motor_2.png,83,motor,2,72,1,0,0,,
null,,354817,HierDygnsoggh1,1snfqmhhvp,ms1000269,iti,,null,img/motor_2.png,83,motor,,,,,,,
583,,355408,HierDygnsoggh1,1snfqmhhvp,ms1000269,motor,,70,img/motor_4.png,70,motor,4,73,1,0,0,,
null,,355516,HierDygnsoggh1,1snfqmhhvp,ms1000269,iti,,null,img/motor_4.png,70,motor,,,,,,,
747,,356278,HierDygnsoggh1,1snfqmhhvp,ms1000269,motor,,75,img/motor_7.png,75,motor,7,74,1,0,0,,
null,,356395,HierDygnsoggh1,1snfqmhhvp,ms1000269,iti,,null,img/motor_7.png,75,motor,,,,,,,
420,,356823,HierDygnsoggh1,1snfqmhhvp,ms1000269,motor,,75,img/motor_7.png,75,motor,7,75,1,0,0,,
null,,356938,HierDygnsoggh1,1snfqmhhvp,ms1000269,iti,,null,img/motor_7.png,75,motor,,,,,,,
510,,357462,HierDygnsoggh1,1snfqmhhvp,ms1000269,motor,,74,img/motor_6.png,74,motor,6,76,1,0,0,,
null,,357577,HierDygnsoggh1,1snfqmhhvp,ms1000269,iti,,null,img/motor_6.png,74,motor,,,,,,,
590,,358182,HierDygnsoggh1,1snfqmhhvp,ms1000269,motor,,68,img/motor_3.png,68,motor,3,77,1,0,0,,
null,,358291,HierDygnsoggh1,1snfqmhhvp,ms1000269,iti,,null,img/motor_3.png,68,motor,,,,,,,
549,,358854,HierDygnsoggh1,1snfqmhhvp,ms1000269,motor,,83,img/motor_2.png,83,motor,2,78,1,0,0,,
null,,358969,HierDygnsoggh1,1snfqmhhvp,ms1000269,iti,,null,img/motor_2.png,83,motor,,,,,,,
406,,359382,HierDygnsoggh1,1snfqmhhvp,ms1000269,motor,,65,img/motor_1.png,65,motor,1,79,1,0,0,,
null,,359491,HierDygnsoggh1,1snfqmhhvp,ms1000269,iti,,null,img/motor_1.png,65,motor,,,,,,,
652,,360159,HierDygnsoggh1,1snfqmhhvp,ms1000269,motor,,72,img/motor_5.png,72,motor,5,80,1,0,0,,
null,,360267,HierDygnsoggh1,1snfqmhhvp,ms1000269,iti,,null,img/motor_5.png,72,motor,,,,,,,
494,,360767,HierDygnsoggh1,1snfqmhhvp,ms1000269,motor,,74,img/motor_6.png,74,motor,6,81,1,0,0,,
null,,360875,HierDygnsoggh1,1snfqmhhvp,ms1000269,iti,,null,img/motor_6.png,74,motor,,,,,,,
485,,361374,HierDygnsoggh1,1snfqmhhvp,ms1000269,motor,,68,img/motor_2.png,83,motor,2,82,0,1,0,,
281,,361670,HierDygnsoggh1,1snfqmhhvp,ms1000269,motorRepeat,,83,img/motor_2.png,83,motor,2,82,1,0,0,,
null,,361779,HierDygnsoggh1,1snfqmhhvp,ms1000269,iti,,null,img/motor_2.png,83,motor,,,,,,,
556,,362350,HierDygnsoggh1,1snfqmhhvp,ms1000269,motor,,72,img/motor_5.png,72,motor,5,83,1,0,0,,
null,,362459,HierDygnsoggh1,1snfqmhhvp,ms1000269,iti,,null,img/motor_5.png,72,motor,,,,,,,
484,,362951,HierDygnsoggh1,1snfqmhhvp,ms1000269,motor,,65,img/motor_1.png,65,motor,1,84,1,0,0,,
null,,363059,HierDygnsoggh1,1snfqmhhvp,ms1000269,iti,,null,img/motor_1.png,65,motor,,,,,,,
557,,363630,HierDygnsoggh1,1snfqmhhvp,ms1000269,motor,,70,img/motor_4.png,70,motor,4,85,1,0,0,,
null,,363739,HierDygnsoggh1,1snfqmhhvp,ms1000269,iti,,null,img/motor_4.png,70,motor,,,,,,,
461,,364207,HierDygnsoggh1,1snfqmhhvp,ms1000269,motor,,68,img/motor_3.png,68,motor,3,86,1,0,0,,
null,,364322,HierDygnsoggh1,1snfqmhhvp,ms1000269,iti,,null,img/motor_3.png,68,motor,,,,,,,
686,,365022,HierDygnsoggh1,1snfqmhhvp,ms1000269,motor,,75,img/motor_7.png,75,motor,7,87,1,0,0,,
null,,365137,HierDygnsoggh1,1snfqmhhvp,ms1000269,iti,,null,img/motor_7.png,75,motor,,,,,,,
367,,365518,HierDygnsoggh1,1snfqmhhvp,ms1000269,motor,,65,img/motor_1.png,65,motor,1,88,1,0,0,,
null,,365633,HierDygnsoggh1,1snfqmhhvp,ms1000269,iti,,null,img/motor_1.png,65,motor,,,,,,,
582,,366225,HierDygnsoggh1,1snfqmhhvp,ms1000269,motor,,70,img/motor_4.png,70,motor,4,89,1,0,0,,
null,,366333,HierDygnsoggh1,1snfqmhhvp,ms1000269,iti,,null,img/motor_4.png,70,motor,,,,,,,
476,,366816,HierDygnsoggh1,1snfqmhhvp,ms1000269,motor,,65,img/motor_1.png,65,motor,1,90,1,0,0,,
null,,366925,HierDygnsoggh1,1snfqmhhvp,ms1000269,iti,,null,img/motor_1.png,65,motor,,,,,,,
739,,367678,HierDygnsoggh1,1snfqmhhvp,ms1000269,motor,,68,img/motor_3.png,68,motor,3,91,1,0,0,,
null,,367793,HierDygnsoggh1,1snfqmhhvp,ms1000269,iti,,null,img/motor_3.png,68,motor,,,,,,,
423,,368224,HierDygnsoggh1,1snfqmhhvp,ms1000269,motor,,65,img/motor_1.png,65,motor,1,92,1,0,0,,
null,,368339,HierDygnsoggh1,1snfqmhhvp,ms1000269,iti,,null,img/motor_1.png,65,motor,,,,,,,
524,,368872,HierDygnsoggh1,1snfqmhhvp,ms1000269,motor,,76,img/motor_8.png,76,motor,8,93,1,0,0,,
null,,368980,HierDygnsoggh1,1snfqmhhvp,ms1000269,iti,,null,img/motor_8.png,76,motor,,,,,,,
420,,369407,HierDygnsoggh1,1snfqmhhvp,ms1000269,motor,,72,img/motor_5.png,72,motor,5,94,1,0,0,,
null,,369521,HierDygnsoggh1,1snfqmhhvp,ms1000269,iti,,null,img/motor_5.png,72,motor,,,,,,,
493,,370030,HierDygnsoggh1,1snfqmhhvp,ms1000269,motor,,68,img/motor_4.png,70,motor,4,95,0,1,0,,
264,,370310,HierDygnsoggh1,1snfqmhhvp,ms1000269,motorRepeat,,70,img/motor_4.png,70,motor,4,95,1,0,0,,
null,,370419,HierDygnsoggh1,1snfqmhhvp,ms1000269,iti,,null,img/motor_4.png,70,motor,,,,,,,
565,,370998,HierDygnsoggh1,1snfqmhhvp,ms1000269,motor,,75,img/motor_7.png,75,motor,7,96,1,0,0,,
null,,371113,HierDygnsoggh1,1snfqmhhvp,ms1000269,iti,,null,img/motor_7.png,75,motor,,,,,,,
630,,371758,HierDygnsoggh1,1snfqmhhvp,ms1000269,motor,,70,img/motor_4.png,70,motor,4,97,1,0,0,,
null,,371873,HierDygnsoggh1,1snfqmhhvp,ms1000269,iti,,null,img/motor_4.png,70,motor,,,,,,,
575,,372456,HierDygnsoggh1,1snfqmhhvp,ms1000269,motor,,72,img/motor_5.png,72,motor,5,98,1,0,0,,
null,,372564,HierDygnsoggh1,1snfqmhhvp,ms1000269,iti,,null,img/motor_5.png,72,motor,,,,,,,
515,,373088,HierDygnsoggh1,1snfqmhhvp,ms1000269,motor,,76,img/motor_8.png,76,motor,8,99,1,0,0,,
null,,373203,HierDygnsoggh1,1snfqmhhvp,ms1000269,iti,,null,img/motor_8.png,76,motor,,,,,,,
412,,373630,HierDygnsoggh1,1snfqmhhvp,ms1000269,motor,,65,img/motor_1.png,65,motor,1,100,1,0,0,,
null,,373738,HierDygnsoggh1,1snfqmhhvp,ms1000269,iti,,null,img/motor_1.png,65,motor,,,,,,,
468,,374215,HierDygnsoggh1,1snfqmhhvp,ms1000269,motor,,72,img/motor_5.png,72,motor,5,101,1,0,0,,
null,,374323,HierDygnsoggh1,1snfqmhhvp,ms1000269,iti,,null,img/motor_5.png,72,motor,,,,,,,
500,,374832,HierDygnsoggh1,1snfqmhhvp,ms1000269,motor,,76,img/motor_8.png,76,motor,8,102,1,0,0,,
null,,374940,HierDygnsoggh1,1snfqmhhvp,ms1000269,iti,,null,img/motor_8.png,76,motor,,,,,,,
420,,375368,HierDygnsoggh1,1snfqmhhvp,ms1000269,motor,,65,img/motor_1.png,65,motor,1,103,1,0,0,,
null,,375483,HierDygnsoggh1,1snfqmhhvp,ms1000269,iti,,null,img/motor_1.png,65,motor,,,,,,,
549,,376040,HierDygnsoggh1,1snfqmhhvp,ms1000269,motor,,68,img/motor_3.png,68,motor,3,104,1,0,0,,
null,,376148,HierDygnsoggh1,1snfqmhhvp,ms1000269,iti,,null,img/motor_3.png,68,motor,,,,,,,
460,,376616,HierDygnsoggh1,1snfqmhhvp,ms1000269,motor,,65,img/motor_1.png,65,motor,1,105,1,0,0,,
null,,376730,HierDygnsoggh1,1snfqmhhvp,ms1000269,iti,,null,img/motor_1.png,65,motor,,,,,,,
533,,377278,HierDygnsoggh1,1snfqmhhvp,ms1000269,motor,,76,img/motor_8.png,76,motor,8,106,1,0,0,,
null,,377388,HierDygnsoggh1,1snfqmhhvp,ms1000269,iti,,null,img/motor_8.png,76,motor,,,,,,,
629,,378024,HierDygnsoggh1,1snfqmhhvp,ms1000269,motor,,70,img/motor_4.png,70,motor,4,107,1,0,0,,
null,,378132,HierDygnsoggh1,1snfqmhhvp,ms1000269,iti,,null,img/motor_4.png,70,motor,,,,,,,
500,,378640,HierDygnsoggh1,1snfqmhhvp,ms1000269,motor,,68,img/motor_3.png,68,motor,3,108,1,0,0,,
null,,378754,HierDygnsoggh1,1snfqmhhvp,ms1000269,iti,,null,img/motor_3.png,68,motor,,,,,,,
669,,379438,HierDygnsoggh1,1snfqmhhvp,ms1000269,motor,,74,img/motor_6.png,74,motor,6,109,1,0,0,,
null,,379553,HierDygnsoggh1,1snfqmhhvp,ms1000269,iti,,null,img/motor_6.png,74,motor,,,,,,,
550,,380118,HierDygnsoggh1,1snfqmhhvp,ms1000269,motor,,68,img/motor_3.png,68,motor,3,110,1,0,0,,
null,,380233,HierDygnsoggh1,1snfqmhhvp,ms1000269,iti,,null,img/motor_3.png,68,motor,,,,,,,
477,,380719,HierDygnsoggh1,1snfqmhhvp,ms1000269,motor,,74,img/motor_6.png,74,motor,6,111,1,0,0,,
null,,380834,HierDygnsoggh1,1snfqmhhvp,ms1000269,iti,,null,img/motor_6.png,74,motor,,,,,,,
693,,381542,HierDygnsoggh1,1snfqmhhvp,ms1000269,motor,,70,img/motor_4.png,70,motor,4,112,1,0,0,,
null,,381657,HierDygnsoggh1,1snfqmhhvp,ms1000269,iti,,null,img/motor_4.png,70,motor,,,,,,,
598,,382270,HierDygnsoggh1,1snfqmhhvp,ms1000269,motor,,83,img/motor_2.png,83,motor,2,113,1,0,0,,
null,,382385,HierDygnsoggh1,1snfqmhhvp,ms1000269,iti,,null,img/motor_2.png,83,motor,,,,,,,
471,,382864,HierDygnsoggh1,1snfqmhhvp,ms1000269,motor,,72,img/motor_5.png,72,motor,5,114,1,0,0,,
null,,382978,HierDygnsoggh1,1snfqmhhvp,ms1000269,iti,,null,img/motor_5.png,72,motor,,,,,,,
630,,383615,HierDygnsoggh1,1snfqmhhvp,ms1000269,motor,,83,img/motor_2.png,83,motor,2,115,1,0,0,,
null,,383729,HierDygnsoggh1,1snfqmhhvp,ms1000269,iti,,null,img/motor_2.png,83,motor,,,,,,,
525,,384263,HierDygnsoggh1,1snfqmhhvp,ms1000269,motor,,75,img/motor_7.png,75,motor,7,116,1,0,0,,
null,,384378,HierDygnsoggh1,1snfqmhhvp,ms1000269,iti,,null,img/motor_7.png,75,motor,,,,,,,
725,,385118,HierDygnsoggh1,1snfqmhhvp,ms1000269,motor,,74,img/motor_6.png,74,motor,6,117,1,0,0,,
null,,385233,HierDygnsoggh1,1snfqmhhvp,ms1000269,iti,,null,img/motor_6.png,74,motor,,,,,,,
486,,385727,HierDygnsoggh1,1snfqmhhvp,ms1000269,motor,,65,img/motor_1.png,65,motor,1,118,1,0,0,,
null,,385840,HierDygnsoggh1,1snfqmhhvp,ms1000269,iti,,null,img/motor_1.png,65,motor,,,,,,,
424,,386278,HierDygnsoggh1,1snfqmhhvp,ms1000269,motor,,74,img/motor_6.png,74,motor,6,119,1,0,0,,
null,,386393,HierDygnsoggh1,1snfqmhhvp,ms1000269,iti,,null,img/motor_6.png,74,motor,,,,,,,
471,,386872,HierDygnsoggh1,1snfqmhhvp,ms1000269,motor,,65,img/motor_1.png,65,motor,1,120,1,0,0,,
null,,386987,HierDygnsoggh1,1snfqmhhvp,ms1000269,iti,,null,img/motor_1.png,65,motor,,,,,,,
573,,387568,HierDygnsoggh1,1snfqmhhvp,ms1000269,motor,,83,img/motor_2.png,83,motor,2,121,1,0,0,,
null,,387683,HierDygnsoggh1,1snfqmhhvp,ms1000269,iti,,null,img/motor_2.png,83,motor,,,,,,,
500,,388192,HierDygnsoggh1,1snfqmhhvp,ms1000269,motor,,72,img/motor_5.png,72,motor,5,122,1,0,0,,
null,,388306,HierDygnsoggh1,1snfqmhhvp,ms1000269,iti,,null,img/motor_5.png,72,motor,,,,,,,
446,,388766,HierDygnsoggh1,1snfqmhhvp,ms1000269,motor,,76,img/motor_8.png,76,motor,8,123,1,0,0,,
null,,388875,HierDygnsoggh1,1snfqmhhvp,ms1000269,iti,,null,img/motor_8.png,76,motor,,,,,,,
478,,389360,HierDygnsoggh1,1snfqmhhvp,ms1000269,motor,,74,img/motor_6.png,74,motor,6,124,1,0,0,,
null,,389474,HierDygnsoggh1,1snfqmhhvp,ms1000269,iti,,null,img/motor_6.png,74,motor,,,,,,,
484,,389981,HierDygnsoggh1,1snfqmhhvp,ms1000269,motor,,74,img/motor_6.png,74,motor,6,125,1,0,0,,
null,,390090,HierDygnsoggh1,1snfqmhhvp,ms1000269,iti,,null,img/motor_6.png,74,motor,,,,,,,
485,,390584,HierDygnsoggh1,1snfqmhhvp,ms1000269,motor,,75,img/motor_7.png,75,motor,7,126,1,0,0,,
null,,390699,HierDygnsoggh1,1snfqmhhvp,ms1000269,iti,,null,img/motor_7.png,75,motor,,,,,,,
708,,391423,HierDygnsoggh1,1snfqmhhvp,ms1000269,motor,,70,img/motor_4.png,70,motor,4,127,1,0,0,,
null,,391533,HierDygnsoggh1,1snfqmhhvp,ms1000269,iti,,null,img/motor_4.png,70,motor,,,,,,,
530,,392071,HierDygnsoggh1,1snfqmhhvp,ms1000269,motor,,72,img/motor_5.png,72,motor,5,128,1,0,0,,
null,,392181,HierDygnsoggh1,1snfqmhhvp,ms1000269,iti,,null,img/motor_5.png,72,motor,,,,,,,
404,,392598,HierDygnsoggh1,1snfqmhhvp,ms1000269,motor,,65,img/motor_1.png,65,motor,1,129,1,0,0,,
null,,392707,HierDygnsoggh1,1snfqmhhvp,ms1000269,iti,,null,img/motor_1.png,65,motor,,,,,,,
460,,393183,HierDygnsoggh1,1snfqmhhvp,ms1000269,motor,,74,img/motor_5.png,72,motor,5,130,0,1,0,,
351,,393544,HierDygnsoggh1,1snfqmhhvp,ms1000269,motorRepeat,,72,img/motor_5.png,72,motor,5,130,1,0,0,,
null,,393658,HierDygnsoggh1,1snfqmhhvp,ms1000269,iti,,null,img/motor_5.png,72,motor,,,,,,,
501,,394175,HierDygnsoggh1,1snfqmhhvp,ms1000269,motor,,68,img/motor_3.png,68,motor,3,131,1,0,0,,
null,,394290,HierDygnsoggh1,1snfqmhhvp,ms1000269,iti,,null,img/motor_3.png,68,motor,,,,,,,
661,,394967,HierDygnsoggh1,1snfqmhhvp,ms1000269,motor,,74,img/motor_6.png,74,motor,6,132,1,0,0,,
null,,395082,HierDygnsoggh1,1snfqmhhvp,ms1000269,iti,,null,img/motor_6.png,74,motor,,,,,,,
582,,395679,HierDygnsoggh1,1snfqmhhvp,ms1000269,motor,,83,img/motor_2.png,83,motor,2,133,1,0,0,,
null,,395795,HierDygnsoggh1,1snfqmhhvp,ms1000269,iti,,null,img/motor_2.png,83,motor,,,,,,,
612,,396423,HierDygnsoggh1,1snfqmhhvp,ms1000269,motor,,74,img/motor_6.png,74,motor,6,134,1,0,0,,
null,,396538,HierDygnsoggh1,1snfqmhhvp,ms1000269,iti,,null,img/motor_6.png,74,motor,,,,,,,
573,,397126,HierDygnsoggh1,1snfqmhhvp,ms1000269,motor,,68,img/motor_3.png,68,motor,3,135,1,0,0,,
null,,397242,HierDygnsoggh1,1snfqmhhvp,ms1000269,iti,,null,img/motor_3.png,68,motor,,,,,,,
509,,397759,HierDygnsoggh1,1snfqmhhvp,ms1000269,motor,,74,img/motor_6.png,74,motor,6,136,1,0,0,,
null,,397874,HierDygnsoggh1,1snfqmhhvp,ms1000269,iti,,null,img/motor_6.png,74,motor,,,,,,,
494,,398375,HierDygnsoggh1,1snfqmhhvp,ms1000269,motor,,76,img/motor_8.png,76,motor,8,137,1,0,0,,
null,,398483,HierDygnsoggh1,1snfqmhhvp,ms1000269,iti,,null,img/motor_8.png,76,motor,,,,,,,
365,,398862,HierDygnsoggh1,1snfqmhhvp,ms1000269,motor,,65,img/motor_1.png,65,motor,1,138,1,0,0,,
null,,398972,HierDygnsoggh1,1snfqmhhvp,ms1000269,iti,,null,img/motor_1.png,65,motor,,,,,,,
525,,399504,HierDygnsoggh1,1snfqmhhvp,ms1000269,motor,,70,img/motor_4.png,70,motor,4,139,1,0,0,,
null,,399612,HierDygnsoggh1,1snfqmhhvp,ms1000269,iti,,null,img/motor_4.png,70,motor,,,,,,,
548,,400174,HierDygnsoggh1,1snfqmhhvp,ms1000269,motor,,75,img/motor_7.png,75,motor,7,140,1,0,0,,
null,,400284,HierDygnsoggh1,1snfqmhhvp,ms1000269,iti,,null,img/motor_7.png,75,motor,,,,,,,
580,,400872,HierDygnsoggh1,1snfqmhhvp,ms1000269,motor,,74,img/motor_6.png,74,motor,6,141,1,0,0,,
null,,400980,HierDygnsoggh1,1snfqmhhvp,ms1000269,iti,,null,img/motor_6.png,74,motor,,,,,,,
484,,401479,HierDygnsoggh1,1snfqmhhvp,ms1000269,motor,,72,img/motor_5.png,72,motor,5,142,1,0,0,,
null,,401588,HierDygnsoggh1,1snfqmhhvp,ms1000269,iti,,null,img/motor_5.png,72,motor,,,,,,,
493,,402088,HierDygnsoggh1,1snfqmhhvp,ms1000269,motor,,70,img/motor_4.png,70,motor,4,143,1,0,0,,
null,,402203,HierDygnsoggh1,1snfqmhhvp,ms1000269,iti,,null,img/motor_4.png,70,motor,,,,,,,
461,,402678,HierDygnsoggh1,1snfqmhhvp,ms1000269,motor,,76,img/motor_8.png,76,motor,8,144,1,0,0,,
null,,402787,HierDygnsoggh1,1snfqmhhvp,ms1000269,iti,,null,img/motor_8.png,76,motor,,,,,,,
597,,403391,HierDygnsoggh1,1snfqmhhvp,ms1000269,motor,,68,img/motor_3.png,68,motor,3,145,1,0,0,,
null,,403506,HierDygnsoggh1,1snfqmhhvp,ms1000269,iti,,null,img/motor_3.png,68,motor,,,,,,,
334,,403848,HierDygnsoggh1,1snfqmhhvp,ms1000269,motor,,65,img/motor_1.png,65,motor,1,146,1,0,0,,
null,,403963,HierDygnsoggh1,1snfqmhhvp,ms1000269,iti,,null,img/motor_1.png,65,motor,,,,,,,
660,,404632,HierDygnsoggh1,1snfqmhhvp,ms1000269,motor,,75,img/motor_7.png,75,motor,7,147,1,0,0,,
null,,404740,HierDygnsoggh1,1snfqmhhvp,ms1000269,iti,,null,img/motor_7.png,75,motor,,,,,,,
651,,405400,HierDygnsoggh1,1snfqmhhvp,ms1000269,motor,,70,img/motor_4.png,70,motor,4,148,1,0,0,,
null,,405514,HierDygnsoggh1,1snfqmhhvp,ms1000269,iti,,null,img/motor_4.png,70,motor,,,,,,,
637,,406160,HierDygnsoggh1,1snfqmhhvp,ms1000269,motor,,83,img/motor_3.png,68,motor,3,149,0,1,0,,
264,,406438,HierDygnsoggh1,1snfqmhhvp,ms1000269,motorRepeat,,68,img/motor_3.png,68,motor,3,149,1,0,0,,
null,,406547,HierDygnsoggh1,1snfqmhhvp,ms1000269,iti,,null,img/motor_3.png,68,motor,,,,,,,
581,,407136,HierDygnsoggh1,1snfqmhhvp,ms1000269,motor,,70,img/motor_4.png,70,motor,4,150,1,0,0,,
null,,407244,HierDygnsoggh1,1snfqmhhvp,ms1000269,iti,,null,img/motor_4.png,70,motor,,,,,,,
556,,407815,HierDygnsoggh1,1snfqmhhvp,ms1000269,motor,,83,img/motor_2.png,83,motor,2,151,1,0,0,,
null,,407930,HierDygnsoggh1,1snfqmhhvp,ms1000269,iti,,null,img/motor_2.png,83,motor,,,,,,,
422,,408360,HierDygnsoggh1,1snfqmhhvp,ms1000269,motor,,65,img/motor_1.png,65,motor,1,152,1,0,0,,
null,,408468,HierDygnsoggh1,1snfqmhhvp,ms1000269,iti,,null,img/motor_1.png,65,motor,,,,,,,
435,,408913,HierDygnsoggh1,1snfqmhhvp,ms1000269,motor,,76,img/motor_8.png,76,motor,8,153,1,0,0,,
null,,409027,HierDygnsoggh1,1snfqmhhvp,ms1000269,iti,,null,img/motor_8.png,76,motor,,,,,,,
436,,409478,HierDygnsoggh1,1snfqmhhvp,ms1000269,motor,,74,img/motor_6.png,74,motor,6,154,1,0,0,,
null,,409593,HierDygnsoggh1,1snfqmhhvp,ms1000269,iti,,null,img/motor_6.png,74,motor,,,,,,,
510,,410113,HierDygnsoggh1,1snfqmhhvp,ms1000269,motor,,76,img/motor_8.png,76,motor,8,155,1,0,0,,
null,,410227,HierDygnsoggh1,1snfqmhhvp,ms1000269,iti,,null,img/motor_8.png,76,motor,,,,,,,
645,,410880,HierDygnsoggh1,1snfqmhhvp,ms1000269,motor,,68,img/motor_3.png,68,motor,3,156,1,0,0,,
null,,410988,HierDygnsoggh1,1snfqmhhvp,ms1000269,iti,,null,img/motor_3.png,68,motor,,,,,,,
477,,411478,HierDygnsoggh1,1snfqmhhvp,ms1000269,motor,,70,img/motor_4.png,70,motor,4,157,1,0,0,,
null,,411593,HierDygnsoggh1,1snfqmhhvp,ms1000269,iti,,null,img/motor_4.png,70,motor,,,,,,,
494,,412096,HierDygnsoggh1,1snfqmhhvp,ms1000269,motor,,76,img/motor_8.png,76,motor,8,158,1,0,0,,
null,,412211,HierDygnsoggh1,1snfqmhhvp,ms1000269,iti,,null,img/motor_8.png,76,motor,,,,,,,
709,,412934,HierDygnsoggh1,1snfqmhhvp,ms1000269,motor,,83,img/motor_2.png,83,motor,2,159,1,0,0,,
null,,413050,HierDygnsoggh1,1snfqmhhvp,ms1000269,iti,,null,img/motor_2.png,83,motor,,,,,,,
438,,413502,HierDygnsoggh1,1snfqmhhvp,ms1000269,motor,,70,img/motor_4.png,70,motor,4,160,1,0,0,,
null,,413618,HierDygnsoggh1,1snfqmhhvp,ms1000269,iti,,null,img/motor_4.png,70,motor,,,,,,,
541,,414169,HierDygnsoggh1,1snfqmhhvp,ms1000269,motor,,83,img/motor_2.png,83,motor,2,161,1,0,0,,
null,,414283,HierDygnsoggh1,1snfqmhhvp,ms1000269,iti,,null,img/motor_2.png,83,motor,,,,,,,
493,,414791,HierDygnsoggh1,1snfqmhhvp,ms1000269,motor,,83,img/motor_2.png,83,motor,2,162,1,0,0,,
null,,414899,HierDygnsoggh1,1snfqmhhvp,ms1000269,iti,,null,img/motor_2.png,83,motor,,,,,,,
533,,415447,HierDygnsoggh1,1snfqmhhvp,ms1000269,motor,,74,img/motor_6.png,74,motor,6,163,1,0,0,,
null,,415556,HierDygnsoggh1,1snfqmhhvp,ms1000269,iti,,null,img/motor_6.png,74,motor,,,,,,,
461,,416031,HierDygnsoggh1,1snfqmhhvp,ms1000269,motor,,76,img/motor_8.png,76,motor,8,164,1,0,0,,
null,,416146,HierDygnsoggh1,1snfqmhhvp,ms1000269,iti,,null,img/motor_8.png,76,motor,,,,,,,
621,,416776,HierDygnsoggh1,1snfqmhhvp,ms1000269,motor,,70,img/motor_5.png,72,motor,5,165,0,1,0,,
447,,417238,HierDygnsoggh1,1snfqmhhvp,ms1000269,motorRepeat,,72,img/motor_5.png,72,motor,5,165,1,0,0,,
null,,417347,HierDygnsoggh1,1snfqmhhvp,ms1000269,iti,,null,img/motor_5.png,72,motor,,,,,,,
476,,417832,HierDygnsoggh1,1snfqmhhvp,ms1000269,motor,,72,img/motor_5.png,72,motor,5,166,1,0,0,,
null,,417946,HierDygnsoggh1,1snfqmhhvp,ms1000269,iti,,null,img/motor_5.png,72,motor,,,,,,,
621,,418576,HierDygnsoggh1,1snfqmhhvp,ms1000269,motor,,76,img/motor_8.png,76,motor,8,167,1,0,0,,
null,,418691,HierDygnsoggh1,1snfqmhhvp,ms1000269,iti,,null,img/motor_8.png,76,motor,,,,,,,
389,,419088,HierDygnsoggh1,1snfqmhhvp,ms1000269,motor,,72,img/motor_5.png,72,motor,5,168,1,0,0,,
null,,419203,HierDygnsoggh1,1snfqmhhvp,ms1000269,iti,,null,img/motor_5.png,72,motor,,,,,,,
356,,419568,HierDygnsoggh1,1snfqmhhvp,ms1000269,motor,,72,img/motor_5.png,72,motor,5,169,1,0,0,,
null,,419682,HierDygnsoggh1,1snfqmhhvp,ms1000269,iti,,null,img/motor_5.png,72,motor,,,,,,,
478,,420175,HierDygnsoggh1,1snfqmhhvp,ms1000269,motor,,65,img/motor_1.png,65,motor,1,170,1,0,0,,
null,,420290,HierDygnsoggh1,1snfqmhhvp,ms1000269,iti,,null,img/motor_1.png,65,motor,,,,,,,
589,,420889,HierDygnsoggh1,1snfqmhhvp,ms1000269,motor,,74,img/motor_7.png,75,motor,7,171,0,1,0,,
327,,421231,HierDygnsoggh1,1snfqmhhvp,ms1000269,motorRepeat,,75,img/motor_7.png,75,motor,7,171,1,0,0,,
null,,421346,HierDygnsoggh1,1snfqmhhvp,ms1000269,iti,,null,img/motor_7.png,75,motor,,,,,,,
766,,422126,HierDygnsoggh1,1snfqmhhvp,ms1000269,motor,,83,img/motor_2.png,83,motor,2,172,1,0,0,,
null,,422236,HierDygnsoggh1,1snfqmhhvp,ms1000269,iti,,null,img/motor_2.png,83,motor,,,,,,,
596,,422839,HierDygnsoggh1,1snfqmhhvp,ms1000269,motor,,68,img/motor_3.png,68,motor,3,173,1,0,0,,
null,,422948,HierDygnsoggh1,1snfqmhhvp,ms1000269,iti,,null,img/motor_3.png,68,motor,,,,,,,
405,,423361,HierDygnsoggh1,1snfqmhhvp,ms1000269,motor,,68,img/motor_3.png,68,motor,3,174,1,0,0,,
null,,423476,HierDygnsoggh1,1snfqmhhvp,ms1000269,iti,,null,img/motor_3.png,68,motor,,,,,,,
460,,423951,HierDygnsoggh1,1snfqmhhvp,ms1000269,motor,,76,img/motor_8.png,76,motor,8,175,1,0,0,,
null,,424066,HierDygnsoggh1,1snfqmhhvp,ms1000269,iti,,null,img/motor_8.png,76,motor,,,,,,,
414,,424488,HierDygnsoggh1,1snfqmhhvp,ms1000269,motor,,76,img/motor_8.png,76,motor,8,176,1,0,0,,
null,,424602,HierDygnsoggh1,1snfqmhhvp,ms1000269,iti,,null,img/motor_8.png,76,motor,,,,,,,
693,,425305,HierDygnsoggh1,1snfqmhhvp,ms1000269,motor,,75,img/motor_7.png,75,motor,7,177,1,0,0,,
null,,425413,HierDygnsoggh1,1snfqmhhvp,ms1000269,iti,,null,img/motor_7.png,75,motor,,,,,,,
555,,425976,HierDygnsoggh1,1snfqmhhvp,ms1000269,motor,,70,img/motor_4.png,70,motor,4,178,1,0,0,,
null,,426085,HierDygnsoggh1,1snfqmhhvp,ms1000269,iti,,null,img/motor_4.png,70,motor,,,,,,,
475,,426575,HierDygnsoggh1,1snfqmhhvp,ms1000269,motor,,76,img/motor_8.png,76,motor,8,179,1,0,0,,
null,,426690,HierDygnsoggh1,1snfqmhhvp,ms1000269,iti,,null,img/motor_8.png,76,motor,,,,,,,
550,,427249,HierDygnsoggh1,1snfqmhhvp,ms1000269,motor,,68,img/motor_3.png,68,motor,3,180,1,0,0,,
null,,427363,HierDygnsoggh1,1snfqmhhvp,ms1000269,iti,,null,img/motor_3.png,68,motor,,,,,,,
541,,427913,HierDygnsoggh1,1snfqmhhvp,ms1000269,motor,,75,img/motor_7.png,75,motor,7,181,1,0,0,,
null,,428021,HierDygnsoggh1,1snfqmhhvp,ms1000269,iti,,null,img/motor_7.png,75,motor,,,,,,,
500,,428535,HierDygnsoggh1,1snfqmhhvp,ms1000269,motor,,72,img/motor_5.png,72,motor,5,182,1,0,0,,
null,,428644,HierDygnsoggh1,1snfqmhhvp,ms1000269,iti,,null,img/motor_5.png,72,motor,,,,,,,
469,,429120,HierDygnsoggh1,1snfqmhhvp,ms1000269,motor,,72,img/motor_5.png,72,motor,5,183,1,0,0,,
null,,429236,HierDygnsoggh1,1snfqmhhvp,ms1000269,iti,,null,img/motor_5.png,72,motor,,,,,,,
452,,429702,HierDygnsoggh1,1snfqmhhvp,ms1000269,motor,,65,img/motor_1.png,65,motor,1,184,1,0,0,,
null,,429812,HierDygnsoggh1,1snfqmhhvp,ms1000269,iti,,null,img/motor_1.png,65,motor,,,,,,,
563,,430385,HierDygnsoggh1,1snfqmhhvp,ms1000269,motor,,75,img/motor_7.png,75,motor,7,185,1,0,0,,
null,,430499,HierDygnsoggh1,1snfqmhhvp,ms1000269,iti,,null,img/motor_7.png,75,motor,,,,,,,
581,,431094,HierDygnsoggh1,1snfqmhhvp,ms1000269,motor,,68,img/motor_3.png,68,motor,3,186,1,0,0,,
null,,431210,HierDygnsoggh1,1snfqmhhvp,ms1000269,iti,,null,img/motor_3.png,68,motor,,,,,,,
487,,431711,HierDygnsoggh1,1snfqmhhvp,ms1000269,motor,,76,img/motor_8.png,76,motor,8,187,1,0,0,,
null,,431820,HierDygnsoggh1,1snfqmhhvp,ms1000269,iti,,null,img/motor_8.png,76,motor,,,,,,,
548,,432383,HierDygnsoggh1,1snfqmhhvp,ms1000269,motor,,70,img/motor_4.png,70,motor,4,188,1,0,0,,
null,,432492,HierDygnsoggh1,1snfqmhhvp,ms1000269,iti,,null,img/motor_4.png,70,motor,,,,,,,
533,,433032,HierDygnsoggh1,1snfqmhhvp,ms1000269,motor,,75,img/motor_7.png,75,motor,7,189,1,0,0,,
null,,433147,HierDygnsoggh1,1snfqmhhvp,ms1000269,iti,,null,img/motor_7.png,75,motor,,,,,,,
573,,433735,HierDygnsoggh1,1snfqmhhvp,ms1000269,motor,,83,img/motor_2.png,83,motor,2,190,1,0,0,,
null,,433850,HierDygnsoggh1,1snfqmhhvp,ms1000269,iti,,null,img/motor_2.png,83,motor,,,,,,,
517,,434376,HierDygnsoggh1,1snfqmhhvp,ms1000269,motor,,76,img/motor_8.png,76,motor,8,191,1,0,0,,
null,,434491,HierDygnsoggh1,1snfqmhhvp,ms1000269,iti,,null,img/motor_8.png,76,motor,,,,,,,
541,,435040,HierDygnsoggh1,1snfqmhhvp,ms1000269,motor,,70,img/motor_4.png,70,motor,4,192,1,0,0,,
null,,435149,HierDygnsoggh1,1snfqmhhvp,ms1000269,iti,,null,img/motor_4.png,70,motor,,,,,,,
531,,435689,HierDygnsoggh1,1snfqmhhvp,ms1000269,motor,,68,img/motor_3.png,68,motor,3,193,1,0,0,,
null,,435797,HierDygnsoggh1,1snfqmhhvp,ms1000269,iti,,null,img/motor_3.png,68,motor,,,,,,,
483,,436296,HierDygnsoggh1,1snfqmhhvp,ms1000269,motor,,75,img/motor_7.png,75,motor,7,194,1,0,0,,
null,,436411,HierDygnsoggh1,1snfqmhhvp,ms1000269,iti,,null,img/motor_7.png,75,motor,,,,,,,
645,,437071,HierDygnsoggh1,1snfqmhhvp,ms1000269,motor,,83,img/motor_2.png,83,motor,2,195,1,0,0,,
null,,437180,HierDygnsoggh1,1snfqmhhvp,ms1000269,iti,,null,img/motor_2.png,83,motor,,,,,,,
453,,437641,HierDygnsoggh1,1snfqmhhvp,ms1000269,motor,,65,img/motor_1.png,65,motor,1,196,1,0,0,,
null,,437756,HierDygnsoggh1,1snfqmhhvp,ms1000269,iti,,null,img/motor_1.png,65,motor,,,,,,,
524,,438294,HierDygnsoggh1,1snfqmhhvp,ms1000269,motor,,75,img/motor_7.png,75,motor,7,197,1,0,0,,
null,,438410,HierDygnsoggh1,1snfqmhhvp,ms1000269,iti,,null,img/motor_7.png,75,motor,,,,,,,
478,,438903,HierDygnsoggh1,1snfqmhhvp,ms1000269,motor,,72,img/motor_5.png,72,motor,5,198,1,0,0,,
null,,439018,HierDygnsoggh1,1snfqmhhvp,ms1000269,iti,,null,img/motor_5.png,72,motor,,,,,,,
582,,439607,HierDygnsoggh1,1snfqmhhvp,ms1000269,motor,,83,img/motor_2.png,83,motor,2,199,1,0,0,,
null,,439722,HierDygnsoggh1,1snfqmhhvp,ms1000269,iti,,null,img/motor_2.png,83,motor,,,,,,,
486,,440222,HierDygnsoggh1,1snfqmhhvp,ms1000269,motor,,76,img/motor_8.png,76,motor,8,200,1,0,0,,
null,,440338,HierDygnsoggh1,1snfqmhhvp,ms1000269,iti,,null,img/motor_8.png,76,motor,,,,,,,
566,,440919,HierDygnsoggh1,1snfqmhhvp,ms1000269,motor,,75,img/motor_6.png,74,motor,6,201,0,1,0,,
305,,441239,HierDygnsoggh1,1snfqmhhvp,ms1000269,motorRepeat,,74,img/motor_6.png,74,motor,6,201,1,0,0,,
null,,441348,HierDygnsoggh1,1snfqmhhvp,ms1000269,iti,,null,img/motor_6.png,74,motor,,,,,,,
515,,441873,HierDygnsoggh1,1snfqmhhvp,ms1000269,motor,,76,img/motor_8.png,76,motor,8,202,1,0,0,,
null,,441981,HierDygnsoggh1,1snfqmhhvp,ms1000269,iti,,null,img/motor_8.png,76,motor,,,,,,,
484,,442473,HierDygnsoggh1,1snfqmhhvp,ms1000269,motor,,76,img/motor_8.png,76,motor,8,203,1,0,0,,
null,,442588,HierDygnsoggh1,1snfqmhhvp,ms1000269,iti,,null,img/motor_8.png,76,motor,,,,,,,
748,,443351,HierDygnsoggh1,1snfqmhhvp,ms1000269,motor,,68,img/motor_3.png,68,motor,3,204,1,0,0,,
null,,443467,HierDygnsoggh1,1snfqmhhvp,ms1000269,iti,,null,img/motor_3.png,68,motor,,,,,,,
541,,444022,HierDygnsoggh1,1snfqmhhvp,ms1000269,motor,,76,img/motor_8.png,76,motor,8,205,1,0,0,,
null,,444138,HierDygnsoggh1,1snfqmhhvp,ms1000269,iti,,null,img/motor_8.png,76,motor,,,,,,,
574,,444727,HierDygnsoggh1,1snfqmhhvp,ms1000269,motor,,70,img/motor_4.png,70,motor,4,206,1,0,0,,
null,,444843,HierDygnsoggh1,1snfqmhhvp,ms1000269,iti,,null,img/motor_4.png,70,motor,,,,,,,
469,,445327,HierDygnsoggh1,1snfqmhhvp,ms1000269,motor,,65,img/motor_1.png,65,motor,1,207,1,0,0,,
null,,445436,HierDygnsoggh1,1snfqmhhvp,ms1000269,iti,,null,img/motor_1.png,65,motor,,,,,,,
589,,446039,HierDygnsoggh1,1snfqmhhvp,ms1000269,motor,,76,img/motor_8.png,76,motor,8,208,1,0,0,,
null,,446147,HierDygnsoggh1,1snfqmhhvp,ms1000269,iti,,null,img/motor_8.png,76,motor,,,,,,,
541,,446696,HierDygnsoggh1,1snfqmhhvp,ms1000269,motor,,72,img/motor_5.png,72,motor,5,209,1,0,0,,
null,,446804,HierDygnsoggh1,1snfqmhhvp,ms1000269,iti,,null,img/motor_5.png,72,motor,,,,,,,
444,,447263,HierDygnsoggh1,1snfqmhhvp,ms1000269,motor,,65,img/motor_1.png,65,motor,1,210,1,0,0,,
null,,447377,HierDygnsoggh1,1snfqmhhvp,ms1000269,iti,,null,img/motor_1.png,65,motor,,,,,,,
398,,447784,HierDygnsoggh1,1snfqmhhvp,ms1000269,motor,,65,img/motor_1.png,65,motor,1,211,1,0,0,,
null,,447899,HierDygnsoggh1,1snfqmhhvp,ms1000269,iti,,null,img/motor_1.png,65,motor,,,,,,,
717,,448631,HierDygnsoggh1,1snfqmhhvp,ms1000269,motor,,75,img/motor_7.png,75,motor,7,212,1,0,0,,
null,,448747,HierDygnsoggh1,1snfqmhhvp,ms1000269,iti,,null,img/motor_7.png,75,motor,,,,,,,
453,,449208,HierDygnsoggh1,1snfqmhhvp,ms1000269,motor,,75,img/motor_7.png,75,motor,7,213,1,0,0,,
null,,449322,HierDygnsoggh1,1snfqmhhvp,ms1000269,iti,,null,img/motor_7.png,75,motor,,,,,,,
502,,449840,HierDygnsoggh1,1snfqmhhvp,ms1000269,motor,,72,img/motor_5.png,72,motor,5,214,1,0,0,,
null,,449949,HierDygnsoggh1,1snfqmhhvp,ms1000269,iti,,null,img/motor_5.png,72,motor,,,,,,,
540,,450497,HierDygnsoggh1,1snfqmhhvp,ms1000269,motor,,75,img/motor_7.png,75,motor,7,215,1,0,0,,
null,,450605,HierDygnsoggh1,1snfqmhhvp,ms1000269,iti,,null,img/motor_7.png,75,motor,,,,,,,
571,,451185,HierDygnsoggh1,1snfqmhhvp,ms1000269,motor,,83,img/motor_2.png,83,motor,2,216,1,0,0,,
null,,451299,HierDygnsoggh1,1snfqmhhvp,ms1000269,iti,,null,img/motor_2.png,83,motor,,,,,,,
556,,451870,HierDygnsoggh1,1snfqmhhvp,ms1000269,motor,,72,img/motor_5.png,72,motor,5,217,1,0,0,,
null,,451986,HierDygnsoggh1,1snfqmhhvp,ms1000269,iti,,null,img/motor_5.png,72,motor,,,,,,,
509,,452504,HierDygnsoggh1,1snfqmhhvp,ms1000269,motor,,75,img/motor_7.png,75,motor,7,218,1,0,0,,
null,,452612,HierDygnsoggh1,1snfqmhhvp,ms1000269,iti,,null,img/motor_7.png,75,motor,,,,,,,
388,,453008,HierDygnsoggh1,1snfqmhhvp,ms1000269,motor,,75,img/motor_7.png,75,motor,7,219,1,0,0,,
null,,453117,HierDygnsoggh1,1snfqmhhvp,ms1000269,iti,,null,img/motor_7.png,75,motor,,,,,,,
611,,453738,HierDygnsoggh1,1snfqmhhvp,ms1000269,motor,,68,img/motor_3.png,68,motor,3,220,1,0,0,,
null,,453846,HierDygnsoggh1,1snfqmhhvp,ms1000269,iti,,null,img/motor_3.png,68,motor,,,,,,,
547,,454413,HierDygnsoggh1,1snfqmhhvp,ms1000269,motor,,72,img/motor_5.png,72,motor,5,221,1,0,0,,
null,,454523,HierDygnsoggh1,1snfqmhhvp,ms1000269,iti,,null,img/motor_5.png,72,motor,,,,,,,
582,,455120,HierDygnsoggh1,1snfqmhhvp,ms1000269,motor,,83,img/motor_2.png,83,motor,2,222,1,0,0,,
null,,455236,HierDygnsoggh1,1snfqmhhvp,ms1000269,iti,,null,img/motor_2.png,83,motor,,,,,,,
396,,455648,HierDygnsoggh1,1snfqmhhvp,ms1000269,motor,,83,img/motor_2.png,83,motor,2,223,1,0,0,,
null,,455766,HierDygnsoggh1,1snfqmhhvp,ms1000269,iti,,null,img/motor_2.png,83,motor,,,,,,,
521,,456296,HierDygnsoggh1,1snfqmhhvp,ms1000269,motor,,72,img/motor_5.png,72,motor,5,224,1,0,0,,
null,,456412,HierDygnsoggh1,1snfqmhhvp,ms1000269,iti,,null,img/motor_5.png,72,motor,,,,,,,
404,,456824,HierDygnsoggh1,1snfqmhhvp,ms1000269,motor,,72,img/motor_5.png,72,motor,5,225,1,0,0,,
null,,456933,HierDygnsoggh1,1snfqmhhvp,ms1000269,iti,,null,img/motor_5.png,72,motor,,,,,,,
484,,457432,HierDygnsoggh1,1snfqmhhvp,ms1000269,motor,,70,img/motor_4.png,70,motor,4,226,1,0,0,,
null,,457547,HierDygnsoggh1,1snfqmhhvp,ms1000269,iti,,null,img/motor_4.png,70,motor,,,,,,,
509,,458063,HierDygnsoggh1,1snfqmhhvp,ms1000269,motor,,75,img/motor_7.png,75,motor,7,227,1,0,0,,
null,,458178,HierDygnsoggh1,1snfqmhhvp,ms1000269,iti,,null,img/motor_7.png,75,motor,,,,,,,
397,,458591,HierDygnsoggh1,1snfqmhhvp,ms1000269,motor,,72,img/motor_5.png,72,motor,5,228,1,0,0,,
null,,458701,HierDygnsoggh1,1snfqmhhvp,ms1000269,iti,,null,img/motor_5.png,72,motor,,,,,,,
412,,459121,HierDygnsoggh1,1snfqmhhvp,ms1000269,motor,,72,img/motor_5.png,72,motor,5,229,1,0,0,,
null,,459235,HierDygnsoggh1,1snfqmhhvp,ms1000269,iti,,null,img/motor_5.png,72,motor,,,,,,,
1203,,460455,HierDygnsoggh1,1snfqmhhvp,ms1000269,motor,,75,img/motor_6.png,74,motor,6,230,0,1,0,,
1048,,461520,HierDygnsoggh1,1snfqmhhvp,ms1000269,motorRepeat,,75,img/motor_6.png,74,motor,6,230,0,1,0,,
487,,462024,HierDygnsoggh1,1snfqmhhvp,ms1000269,motorRepeat,,74,img/motor_6.png,74,motor,6,230,1,0,0,,
null,,462133,HierDygnsoggh1,1snfqmhhvp,ms1000269,iti,,null,img/motor_6.png,74,motor,,,,,,,
676,,462823,HierDygnsoggh1,1snfqmhhvp,ms1000269,motor,,72,img/motor_4.png,70,motor,4,231,0,1,0,,
1032,,463864,HierDygnsoggh1,1snfqmhhvp,ms1000269,motorRepeat,,70,img/motor_4.png,70,motor,4,231,1,0,0,,
null,,463973,HierDygnsoggh1,1snfqmhhvp,ms1000269,iti,,null,img/motor_4.png,70,motor,,,,,,,
628,,464615,HierDygnsoggh1,1snfqmhhvp,ms1000269,motor,,76,img/motor_8.png,76,motor,8,232,1,0,0,,
null,,464731,HierDygnsoggh1,1snfqmhhvp,ms1000269,iti,,null,img/motor_8.png,76,motor,,,,,,,
365,,465111,HierDygnsoggh1,1snfqmhhvp,ms1000269,motor,,76,img/motor_8.png,76,motor,8,233,1,0,0,,
null,,465226,HierDygnsoggh1,1snfqmhhvp,ms1000269,iti,,null,img/motor_8.png,76,motor,,,,,,,
582,,465824,HierDygnsoggh1,1snfqmhhvp,ms1000269,motor,,74,img/motor_6.png,74,motor,6,234,1,0,0,,
null,,465933,HierDygnsoggh1,1snfqmhhvp,ms1000269,iti,,null,img/motor_6.png,74,motor,,,,,,,
612,,466553,HierDygnsoggh1,1snfqmhhvp,ms1000269,motor,,70,img/motor_4.png,70,motor,4,235,1,0,0,,
null,,466668,HierDygnsoggh1,1snfqmhhvp,ms1000269,iti,,null,img/motor_4.png,70,motor,,,,,,,
491,,467169,HierDygnsoggh1,1snfqmhhvp,ms1000269,motor,,76,img/motor_8.png,76,motor,8,236,1,0,0,,
null,,467278,HierDygnsoggh1,1snfqmhhvp,ms1000269,iti,,null,img/motor_8.png,76,motor,,,,,,,
524,,467815,HierDygnsoggh1,1snfqmhhvp,ms1000269,motor,,70,img/motor_4.png,70,motor,4,237,1,0,0,,
null,,467924,HierDygnsoggh1,1snfqmhhvp,ms1000269,iti,,null,img/motor_4.png,70,motor,,,,,,,
757,,468688,HierDygnsoggh1,1snfqmhhvp,ms1000269,motor,,70,img/motor_2.png,83,motor,2,238,0,1,0,,
248,,468944,HierDygnsoggh1,1snfqmhhvp,ms1000269,motorRepeat,,83,img/motor_2.png,83,motor,2,238,1,0,0,,
null,,469052,HierDygnsoggh1,1snfqmhhvp,ms1000269,iti,,null,img/motor_2.png,83,motor,,,,,,,
685,,469746,HierDygnsoggh1,1snfqmhhvp,ms1000269,motor,,70,img/motor_4.png,70,motor,4,239,1,0,0,,
null,,469854,HierDygnsoggh1,1snfqmhhvp,ms1000269,iti,,null,img/motor_4.png,70,motor,,,,,,,
747,,470616,HierDygnsoggh1,1snfqmhhvp,ms1000269,motor,,75,img/motor_7.png,75,motor,7,240,1,0,0,,
null,,470725,HierDygnsoggh1,1snfqmhhvp,ms1000269,iti,,null,img/motor_7.png,75,motor,,,,,,,
572,,471305,HierDygnsoggh1,1snfqmhhvp,ms1000269,motor,,74,img/motor_6.png,74,motor,6,241,1,0,0,,
null,,471420,HierDygnsoggh1,1snfqmhhvp,ms1000269,iti,,null,img/motor_6.png,74,motor,,,,,,,
764,,472193,HierDygnsoggh1,1snfqmhhvp,ms1000269,motor,,75,img/motor_7.png,75,motor,7,242,1,0,0,,
null,,472302,HierDygnsoggh1,1snfqmhhvp,ms1000269,iti,,null,img/motor_7.png,75,motor,,,,,,,
700,,473016,HierDygnsoggh1,1snfqmhhvp,ms1000269,motor,,83,img/motor_2.png,83,motor,2,243,1,0,0,,
null,,473132,HierDygnsoggh1,1snfqmhhvp,ms1000269,iti,,null,img/motor_2.png,83,motor,,,,,,,
548,,473689,HierDygnsoggh1,1snfqmhhvp,ms1000269,motor,,75,img/motor_7.png,75,motor,7,244,1,0,0,,
null,,473798,HierDygnsoggh1,1snfqmhhvp,ms1000269,iti,,null,img/motor_7.png,75,motor,,,,,,,
516,,474328,HierDygnsoggh1,1snfqmhhvp,ms1000269,motor,,72,img/motor_5.png,72,motor,5,245,1,0,0,,
null,,474443,HierDygnsoggh1,1snfqmhhvp,ms1000269,iti,,null,img/motor_5.png,72,motor,,,,,,,
436,,474896,HierDygnsoggh1,1snfqmhhvp,ms1000269,motor,,70,img/motor_4.png,70,motor,4,246,1,0,0,,
null,,475011,HierDygnsoggh1,1snfqmhhvp,ms1000269,iti,,null,img/motor_4.png,70,motor,,,,,,,
518,,475538,HierDygnsoggh1,1snfqmhhvp,ms1000269,motor,,72,img/motor_5.png,72,motor,5,247,1,0,0,,
null,,475652,HierDygnsoggh1,1snfqmhhvp,ms1000269,iti,,null,img/motor_5.png,72,motor,,,,,,,
491,,476153,HierDygnsoggh1,1snfqmhhvp,ms1000269,motor,,83,img/motor_2.png,83,motor,2,248,1,0,0,,
null,,476267,HierDygnsoggh1,1snfqmhhvp,ms1000269,iti,,null,img/motor_2.png,83,motor,,,,,,,
540,,476817,HierDygnsoggh1,1snfqmhhvp,ms1000269,motor,,75,img/motor_7.png,75,motor,7,249,1,0,0,,
null,,476931,HierDygnsoggh1,1snfqmhhvp,ms1000269,iti,,null,img/motor_7.png,75,motor,,,,,,,
620,,477567,HierDygnsoggh1,1snfqmhhvp,ms1000269,motor,,68,img/motor_3.png,68,motor,3,250,1,0,0,,
null,,477677,HierDygnsoggh1,1snfqmhhvp,ms1000269,iti,,null,img/motor_3.png,68,motor,,,,,,,
411,,478104,HierDygnsoggh1,1snfqmhhvp,ms1000269,motor,,65,img/motor_1.png,65,motor,1,251,1,0,0,,
null,,478213,HierDygnsoggh1,1snfqmhhvp,ms1000269,iti,,null,img/motor_1.png,65,motor,,,,,,,
604,,478831,HierDygnsoggh1,1snfqmhhvp,ms1000269,motor,,83,img/motor_2.png,83,motor,2,252,1,0,0,,
null,,478941,HierDygnsoggh1,1snfqmhhvp,ms1000269,iti,,null,img/motor_2.png,83,motor,,,,,,,
436,,479386,HierDygnsoggh1,1snfqmhhvp,ms1000269,motor,,70,img/motor_4.png,70,motor,4,253,1,0,0,,
null,,479501,HierDygnsoggh1,1snfqmhhvp,ms1000269,iti,,null,img/motor_4.png,70,motor,,,,,,,
492,,480001,HierDygnsoggh1,1snfqmhhvp,ms1000269,motor,,70,img/motor_4.png,70,motor,4,254,1,0,0,,
null,,480109,HierDygnsoggh1,1snfqmhhvp,ms1000269,iti,,null,img/motor_4.png,70,motor,,,,,,,
467,,480585,HierDygnsoggh1,1snfqmhhvp,ms1000269,motor,,83,img/motor_2.png,83,motor,2,255,1,0,0,,
null,,480700,HierDygnsoggh1,1snfqmhhvp,ms1000269,iti,,null,img/motor_2.png,83,motor,,,,,,,
572,,481281,HierDygnsoggh1,1snfqmhhvp,ms1000269,motor,,75,img/motor_7.png,75,motor,7,256,1,0,0,,
null,,481389,HierDygnsoggh1,1snfqmhhvp,ms1000269,iti,,null,img/motor_7.png,75,motor,,,,,,,
708,,482105,HierDygnsoggh1,1snfqmhhvp,ms1000269,motor,,68,img/motor_3.png,68,motor,3,257,1,0,0,,
null,,482213,HierDygnsoggh1,1snfqmhhvp,ms1000269,iti,,null,img/motor_3.png,68,motor,,,,,,,
692,,482914,HierDygnsoggh1,1snfqmhhvp,ms1000269,motor,,72,img/motor_5.png,72,motor,5,258,1,0,0,,
null,,483029,HierDygnsoggh1,1snfqmhhvp,ms1000269,iti,,null,img/motor_5.png,72,motor,,,,,,,
629,,483672,HierDygnsoggh1,1snfqmhhvp,ms1000269,motor,,70,img/motor_4.png,70,motor,4,259,1,0,0,,
null,,483781,HierDygnsoggh1,1snfqmhhvp,ms1000269,iti,,null,img/motor_4.png,70,motor,,,,,,,
667,,484457,HierDygnsoggh1,1snfqmhhvp,ms1000269,motor,,68,img/motor_3.png,68,motor,3,260,1,0,0,,
null,,484566,HierDygnsoggh1,1snfqmhhvp,ms1000269,iti,,null,img/motor_3.png,68,motor,,,,,,,
674,,485255,HierDygnsoggh1,1snfqmhhvp,ms1000269,motor,,75,img/motor_7.png,75,motor,7,261,1,0,0,,
null,,485372,HierDygnsoggh1,1snfqmhhvp,ms1000269,iti,,null,img/motor_7.png,75,motor,,,,,,,
436,,485823,HierDygnsoggh1,1snfqmhhvp,ms1000269,motor,,65,img/motor_1.png,65,motor,1,262,1,0,0,,
null,,485939,HierDygnsoggh1,1snfqmhhvp,ms1000269,iti,,null,img/motor_1.png,65,motor,,,,,,,
557,,486505,HierDygnsoggh1,1snfqmhhvp,ms1000269,motor,,76,img/motor_8.png,76,motor,8,263,1,0,0,,
null,,486620,HierDygnsoggh1,1snfqmhhvp,ms1000269,iti,,null,img/motor_8.png,76,motor,,,,,,,
547,,487178,HierDygnsoggh1,1snfqmhhvp,ms1000269,motor,,68,img/motor_3.png,68,motor,3,264,1,0,0,,
null,,487293,HierDygnsoggh1,1snfqmhhvp,ms1000269,iti,,null,img/motor_3.png,68,motor,,,,,,,
436,,487744,HierDygnsoggh1,1snfqmhhvp,ms1000269,motor,,75,img/motor_7.png,75,motor,7,265,1,0,0,,
null,,487853,HierDygnsoggh1,1snfqmhhvp,ms1000269,iti,,null,img/motor_7.png,75,motor,,,,,,,
380,,488241,HierDygnsoggh1,1snfqmhhvp,ms1000269,motor,,75,img/motor_7.png,75,motor,7,266,1,0,0,,
null,,488350,HierDygnsoggh1,1snfqmhhvp,ms1000269,iti,,null,img/motor_7.png,75,motor,,,,,,,
538,,488897,HierDygnsoggh1,1snfqmhhvp,ms1000269,motor,,70,img/motor_4.png,70,motor,4,267,1,0,0,,
null,,489013,HierDygnsoggh1,1snfqmhhvp,ms1000269,iti,,null,img/motor_4.png,70,motor,,,,,,,
476,,489503,HierDygnsoggh1,1snfqmhhvp,ms1000269,motor,,74,img/motor_6.png,74,motor,6,268,1,0,0,,
null,,489613,HierDygnsoggh1,1snfqmhhvp,ms1000269,iti,,null,img/motor_6.png,74,motor,,,,,,,
452,,490080,HierDygnsoggh1,1snfqmhhvp,ms1000269,motor,,65,img/motor_1.png,65,motor,1,269,1,0,0,,
null,,490196,HierDygnsoggh1,1snfqmhhvp,ms1000269,iti,,null,img/motor_1.png,65,motor,,,,,,,
740,,490945,HierDygnsoggh1,1snfqmhhvp,ms1000269,motor,,68,img/motor_2.png,83,motor,2,270,0,1,0,,
376,,491328,HierDygnsoggh1,1snfqmhhvp,ms1000269,motorRepeat,,83,img/motor_2.png,83,motor,2,270,1,0,0,,
null,,491444,HierDygnsoggh1,1snfqmhhvp,ms1000269,iti,,null,img/motor_2.png,83,motor,,,,,,,
651,,492105,HierDygnsoggh1,1snfqmhhvp,ms1000269,motor,,75,img/motor_7.png,75,motor,7,271,1,0,0,,
null,,492221,HierDygnsoggh1,1snfqmhhvp,ms1000269,iti,,null,img/motor_7.png,75,motor,,,,,,,
683,,492920,HierDygnsoggh1,1snfqmhhvp,ms1000269,motor,,68,img/motor_3.png,68,motor,3,272,1,0,0,,
null,,493030,HierDygnsoggh1,1snfqmhhvp,ms1000269,iti,,null,img/motor_3.png,68,motor,,,,,,,
469,,493512,HierDygnsoggh1,1snfqmhhvp,ms1000269,motor,,83,img/motor_2.png,83,motor,2,273,1,0,0,,
null,,493621,HierDygnsoggh1,1snfqmhhvp,ms1000269,iti,,null,img/motor_2.png,83,motor,,,,,,,
605,,494233,HierDygnsoggh1,1snfqmhhvp,ms1000269,motor,,74,img/motor_6.png,74,motor,6,274,1,0,0,,
null,,494341,HierDygnsoggh1,1snfqmhhvp,ms1000269,iti,,null,img/motor_6.png,74,motor,,,,,,,
572,,494921,HierDygnsoggh1,1snfqmhhvp,ms1000269,motor,,70,img/motor_4.png,70,motor,4,275,1,0,0,,
null,,495036,HierDygnsoggh1,1snfqmhhvp,ms1000269,iti,,null,img/motor_4.png,70,motor,,,,,,,
524,,495569,HierDygnsoggh1,1snfqmhhvp,ms1000269,motor,,83,img/motor_2.png,83,motor,2,276,1,0,0,,
null,,495676,HierDygnsoggh1,1snfqmhhvp,ms1000269,iti,,null,img/motor_2.png,83,motor,,,,,,,
509,,496193,HierDygnsoggh1,1snfqmhhvp,ms1000269,motor,,75,img/motor_7.png,75,motor,7,277,1,0,0,,
null,,496308,HierDygnsoggh1,1snfqmhhvp,ms1000269,iti,,null,img/motor_7.png,75,motor,,,,,,,
412,,496735,HierDygnsoggh1,1snfqmhhvp,ms1000269,motor,,65,img/motor_1.png,65,motor,1,278,1,0,0,,
null,,496851,HierDygnsoggh1,1snfqmhhvp,ms1000269,iti,,null,img/motor_1.png,65,motor,,,,,,,
534,,497393,HierDygnsoggh1,1snfqmhhvp,ms1000269,motor,,70,img/motor_4.png,70,motor,4,279,1,0,0,,
null,,497508,HierDygnsoggh1,1snfqmhhvp,ms1000269,iti,,null,img/motor_4.png,70,motor,,,,,,,
541,,498064,HierDygnsoggh1,1snfqmhhvp,ms1000269,motor,,74,img/motor_6.png,74,motor,6,280,1,0,0,,
null,,498180,HierDygnsoggh1,1snfqmhhvp,ms1000269,iti,,null,img/motor_6.png,74,motor,,,,,,,
701,,498896,HierDygnsoggh1,1snfqmhhvp,ms1000269,motor,,68,img/motor_3.png,68,motor,3,281,1,0,0,,
null,,499011,HierDygnsoggh1,1snfqmhhvp,ms1000269,iti,,null,img/motor_3.png,68,motor,,,,,,,
453,,499479,HierDygnsoggh1,1snfqmhhvp,ms1000269,motor,,76,img/motor_8.png,76,motor,8,282,1,0,0,,
null,,499596,HierDygnsoggh1,1snfqmhhvp,ms1000269,iti,,null,img/motor_8.png,76,motor,,,,,,,
517,,500128,HierDygnsoggh1,1snfqmhhvp,ms1000269,motor,,74,img/motor_6.png,74,motor,6,283,1,0,0,,
null,,500238,HierDygnsoggh1,1snfqmhhvp,ms1000269,iti,,null,img/motor_6.png,74,motor,,,,,,,
595,,500841,HierDygnsoggh1,1snfqmhhvp,ms1000269,motor,,83,img/motor_2.png,83,motor,2,284,1,0,0,,
null,,500950,HierDygnsoggh1,1snfqmhhvp,ms1000269,iti,,null,img/motor_2.png,83,motor,,,,,,,
548,,501505,HierDygnsoggh1,1snfqmhhvp,ms1000269,motor,,68,img/motor_3.png,68,motor,3,285,1,0,0,,
null,,501620,HierDygnsoggh1,1snfqmhhvp,ms1000269,iti,,null,img/motor_3.png,68,motor,,,,,,,
460,,502096,HierDygnsoggh1,1snfqmhhvp,ms1000269,motor,,83,img/motor_2.png,83,motor,2,286,1,0,0,,
null,,502212,HierDygnsoggh1,1snfqmhhvp,ms1000269,iti,,null,img/motor_2.png,83,motor,,,,,,,
692,,502912,HierDygnsoggh1,1snfqmhhvp,ms1000269,motor,,74,img/motor_6.png,74,motor,6,287,1,0,0,,
null,,503027,HierDygnsoggh1,1snfqmhhvp,ms1000269,iti,,null,img/motor_6.png,74,motor,,,,,,,
596,,503633,HierDygnsoggh1,1snfqmhhvp,ms1000269,motor,,83,img/motor_2.png,83,motor,2,288,1,0,0,,
null,,503748,HierDygnsoggh1,1snfqmhhvp,ms1000269,iti,,null,img/motor_2.png,83,motor,,,,,,,
605,,504360,HierDygnsoggh1,1snfqmhhvp,ms1000269,motor,,74,img/motor_6.png,74,motor,6,289,1,0,0,,
null,,504476,HierDygnsoggh1,1snfqmhhvp,ms1000269,iti,,null,img/motor_6.png,74,motor,,,,,,,
364,,504850,HierDygnsoggh1,1snfqmhhvp,ms1000269,motor,,74,img/motor_6.png,74,motor,6,290,1,0,0,,
null,,504957,HierDygnsoggh1,1snfqmhhvp,ms1000269,iti,,null,img/motor_6.png,74,motor,,,,,,,
556,,505529,HierDygnsoggh1,1snfqmhhvp,ms1000269,motor,,68,img/motor_3.png,68,motor,3,291,1,0,0,,
null,,505644,HierDygnsoggh1,1snfqmhhvp,ms1000269,iti,,null,img/motor_3.png,68,motor,,,,,,,
507,,506162,HierDygnsoggh1,1snfqmhhvp,ms1000269,motor,,74,img/motor_6.png,74,motor,6,292,1,0,0,,
null,,506270,HierDygnsoggh1,1snfqmhhvp,ms1000269,iti,,null,img/motor_6.png,74,motor,,,,,,,
435,,506713,HierDygnsoggh1,1snfqmhhvp,ms1000269,motor,,75,img/motor_7.png,75,motor,7,293,1,0,0,,
null,,506822,HierDygnsoggh1,1snfqmhhvp,ms1000269,iti,,null,img/motor_7.png,75,motor,,,,,,,
547,,507384,HierDygnsoggh1,1snfqmhhvp,ms1000269,motor,,83,img/motor_2.png,83,motor,2,294,1,0,0,,
null,,507493,HierDygnsoggh1,1snfqmhhvp,ms1000269,iti,,null,img/motor_2.png,83,motor,,,,,,,
460,,507967,HierDygnsoggh1,1snfqmhhvp,ms1000269,motor,,76,img/motor_8.png,76,motor,8,295,1,0,0,,
null,,508077,HierDygnsoggh1,1snfqmhhvp,ms1000269,iti,,null,img/motor_8.png,76,motor,,,,,,,
476,,508568,HierDygnsoggh1,1snfqmhhvp,ms1000269,motor,,72,img/motor_5.png,72,motor,5,296,1,0,0,,
null,,508684,HierDygnsoggh1,1snfqmhhvp,ms1000269,iti,,null,img/motor_5.png,72,motor,,,,,,,
589,,509281,HierDygnsoggh1,1snfqmhhvp,ms1000269,motor,,83,img/motor_2.png,83,motor,2,297,1,0,0,,
null,,509396,HierDygnsoggh1,1snfqmhhvp,ms1000269,iti,,null,img/motor_2.png,83,motor,,,,,,,
468,,509880,HierDygnsoggh1,1snfqmhhvp,ms1000269,motor,,65,img/motor_1.png,65,motor,1,298,1,0,0,,
null,,509995,HierDygnsoggh1,1snfqmhhvp,ms1000269,iti,,null,img/motor_1.png,65,motor,,,,,,,
356,,510368,HierDygnsoggh1,1snfqmhhvp,ms1000269,motor,,76,img/motor_8.png,76,motor,8,299,1,0,0,,
null,,510485,HierDygnsoggh1,1snfqmhhvp,ms1000269,iti,,null,img/motor_8.png,76,motor,,,,,,,
461,,510961,HierDygnsoggh1,1snfqmhhvp,ms1000269,motor,,65,img/motor_1.png,65,motor,1,300,1,0,0,,
null,,511076,HierDygnsoggh1,1snfqmhhvp,ms1000269,iti,,null,img/motor_1.png,65,motor,,,,,,,
660,,511746,HierDygnsoggh1,1snfqmhhvp,ms1000269,motor,,74,img/motor_6.png,74,motor,6,301,1,0,0,,
null,,511860,HierDygnsoggh1,1snfqmhhvp,ms1000269,iti,,null,img/motor_6.png,74,motor,,,,,,,
613,,512489,HierDygnsoggh1,1snfqmhhvp,ms1000269,motor,,72,img/motor_5.png,72,motor,5,302,1,0,0,,
null,,512603,HierDygnsoggh1,1snfqmhhvp,ms1000269,iti,,null,img/motor_5.png,72,motor,,,,,,,
517,,513136,HierDygnsoggh1,1snfqmhhvp,ms1000269,motor,,75,img/motor_7.png,75,motor,7,303,1,0,0,,
null,,513252,HierDygnsoggh1,1snfqmhhvp,ms1000269,iti,,null,img/motor_7.png,75,motor,,,,,,,
701,,513960,HierDygnsoggh1,1snfqmhhvp,ms1000269,motor,,74,img/motor_6.png,74,motor,6,304,1,0,0,,
null,,514075,HierDygnsoggh1,1snfqmhhvp,ms1000269,iti,,null,img/motor_6.png,74,motor,,,,,,,
621,,514705,HierDygnsoggh1,1snfqmhhvp,ms1000269,motor,,70,img/motor_4.png,70,motor,4,305,1,0,0,,
null,,514821,HierDygnsoggh1,1snfqmhhvp,ms1000269,iti,,null,img/motor_4.png,70,motor,,,,,,,
435,,515272,HierDygnsoggh1,1snfqmhhvp,ms1000269,motor,,68,img/motor_3.png,68,motor,3,306,1,0,0,,
null,,515382,HierDygnsoggh1,1snfqmhhvp,ms1000269,iti,,null,img/motor_3.png,68,motor,,,,,,,
491,,515881,HierDygnsoggh1,1snfqmhhvp,ms1000269,motor,,76,img/motor_8.png,76,motor,8,307,1,0,0,,
null,,515996,HierDygnsoggh1,1snfqmhhvp,ms1000269,iti,,null,img/motor_8.png,76,motor,,,,,,,
780,,516792,HierDygnsoggh1,1snfqmhhvp,ms1000269,motor,,68,img/motor_3.png,68,motor,3,308,1,0,0,,
null,,516907,HierDygnsoggh1,1snfqmhhvp,ms1000269,iti,,null,img/motor_3.png,68,motor,,,,,,,
517,,517434,HierDygnsoggh1,1snfqmhhvp,ms1000269,motor,,72,img/motor_5.png,72,motor,5,309,1,0,0,,
null,,517548,HierDygnsoggh1,1snfqmhhvp,ms1000269,iti,,null,img/motor_5.png,72,motor,,,,,,,
549,,518112,HierDygnsoggh1,1snfqmhhvp,ms1000269,motor,,75,img/motor_7.png,75,motor,7,310,1,0,0,,
null,,518228,HierDygnsoggh1,1snfqmhhvp,ms1000269,iti,,null,img/motor_7.png,75,motor,,,,,,,
572,,518812,HierDygnsoggh1,1snfqmhhvp,ms1000269,motor,,74,img/motor_6.png,74,motor,6,311,1,0,0,,
null,,518921,HierDygnsoggh1,1snfqmhhvp,ms1000269,iti,,null,img/motor_6.png,74,motor,,,,,,,
430,,519368,HierDygnsoggh1,1snfqmhhvp,ms1000269,motor,,83,img/motor_2.png,83,motor,2,312,1,0,0,,
null,,519484,HierDygnsoggh1,1snfqmhhvp,ms1000269,iti,,null,img/motor_2.png,83,motor,,,,,,,
412,,519912,HierDygnsoggh1,1snfqmhhvp,ms1000269,motor,,65,img/motor_1.png,65,motor,1,313,1,0,0,,
null,,520030,HierDygnsoggh1,1snfqmhhvp,ms1000269,iti,,null,img/motor_1.png,65,motor,,,,,,,
393,,520433,HierDygnsoggh1,1snfqmhhvp,ms1000269,motor,,70,img/motor_4.png,70,motor,4,314,1,0,0,,
null,,520549,HierDygnsoggh1,1snfqmhhvp,ms1000269,iti,,null,img/motor_4.png,70,motor,,,,,,,
435,,521001,HierDygnsoggh1,1snfqmhhvp,ms1000269,motor,,70,img/motor_4.png,70,motor,4,315,1,0,0,,
null,,521117,HierDygnsoggh1,1snfqmhhvp,ms1000269,iti,,null,img/motor_4.png,70,motor,,,,,,,
508,,521641,HierDygnsoggh1,1snfqmhhvp,ms1000269,motor,,74,img/motor_6.png,74,motor,6,316,1,0,0,,
null,,521750,HierDygnsoggh1,1snfqmhhvp,ms1000269,iti,,null,img/motor_6.png,74,motor,,,,,,,
419,,522176,HierDygnsoggh1,1snfqmhhvp,ms1000269,motor,,72,img/motor_6.png,74,motor,6,317,0,1,0,,
408,,522599,HierDygnsoggh1,1snfqmhhvp,ms1000269,motorRepeat,,72,img/motor_6.png,74,motor,6,317,0,1,0,,
1002,,523616,HierDygnsoggh1,1snfqmhhvp,ms1000269,motorRepeat,,74,img/motor_6.png,74,motor,6,317,1,0,0,,
null,,523726,HierDygnsoggh1,1snfqmhhvp,ms1000269,iti,,null,img/motor_6.png,74,motor,,,,,,,
483,,524225,HierDygnsoggh1,1snfqmhhvp,ms1000269,motor,,65,img/motor_1.png,65,motor,1,318,1,0,0,,
null,,524333,HierDygnsoggh1,1snfqmhhvp,ms1000269,iti,,null,img/motor_1.png,65,motor,,,,,,,
556,,524897,HierDygnsoggh1,1snfqmhhvp,ms1000269,motor,,83,img/motor_2.png,83,motor,2,319,1,0,0,,
null,,525012,HierDygnsoggh1,1snfqmhhvp,ms1000269,iti,,null,img/motor_2.png,83,motor,,,,,,,
565,,525586,HierDygnsoggh1,1snfqmhhvp,ms1000269,motor,,70,img/motor_4.png,70,motor,4,320,1,0,0,,
null,,525694,HierDygnsoggh1,1snfqmhhvp,ms1000269,iti,,null,img/motor_4.png,70,motor,,,,,,,
483,,526185,HierDygnsoggh1,1snfqmhhvp,ms1000269,motor,,70,img/motor_4.png,70,motor,4,321,1,0,0,,
null,,526293,HierDygnsoggh1,1snfqmhhvp,ms1000269,iti,,null,img/motor_4.png,70,motor,,,,,,,
508,,526808,HierDygnsoggh1,1snfqmhhvp,ms1000269,motor,,83,img/motor_2.png,83,motor,2,322,1,0,0,,
null,,526917,HierDygnsoggh1,1snfqmhhvp,ms1000269,iti,,null,img/motor_2.png,83,motor,,,,,,,
507,,527440,HierDygnsoggh1,1snfqmhhvp,ms1000269,motor,,68,img/motor_3.png,68,motor,3,323,1,0,0,,
null,,527556,HierDygnsoggh1,1snfqmhhvp,ms1000269,iti,,null,img/motor_3.png,68,motor,,,,,,,
452,,528025,HierDygnsoggh1,1snfqmhhvp,ms1000269,motor,,68,img/motor_3.png,68,motor,3,324,1,0,0,,
null,,528134,HierDygnsoggh1,1snfqmhhvp,ms1000269,iti,,null,img/motor_3.png,68,motor,,,,,,,
380,,528528,HierDygnsoggh1,1snfqmhhvp,ms1000269,motor,,65,img/motor_1.png,65,motor,1,325,1,0,0,,
null,,528644,HierDygnsoggh1,1snfqmhhvp,ms1000269,iti,,null,img/motor_1.png,65,motor,,,,,,,
429,,529089,HierDygnsoggh1,1snfqmhhvp,ms1000269,motor,,76,img/motor_8.png,76,motor,8,326,1,0,0,,
null,,529205,HierDygnsoggh1,1snfqmhhvp,ms1000269,iti,,null,img/motor_8.png,76,motor,,,,,,,
476,,529696,HierDygnsoggh1,1snfqmhhvp,ms1000269,motor,,74,img/motor_7.png,75,motor,7,327,0,1,0,,
337,,530042,HierDygnsoggh1,1snfqmhhvp,ms1000269,motorRepeat,,75,img/motor_7.png,75,motor,7,327,1,0,0,,
null,,530156,HierDygnsoggh1,1snfqmhhvp,ms1000269,iti,,null,img/motor_7.png,75,motor,,,,,,,
572,,530737,HierDygnsoggh1,1snfqmhhvp,ms1000269,motor,,68,img/motor_3.png,68,motor,3,328,1,0,0,,
null,,530853,HierDygnsoggh1,1snfqmhhvp,ms1000269,iti,,null,img/motor_3.png,68,motor,,,,,,,
677,,531538,HierDygnsoggh1,1snfqmhhvp,ms1000269,motor,,75,img/motor_7.png,75,motor,7,329,1,0,0,,
null,,531653,HierDygnsoggh1,1snfqmhhvp,ms1000269,iti,,null,img/motor_7.png,75,motor,,,,,,,
452,,532113,HierDygnsoggh1,1snfqmhhvp,ms1000269,motor,,72,img/motor_5.png,72,motor,5,330,1,0,0,,
null,,532229,HierDygnsoggh1,1snfqmhhvp,ms1000269,iti,,null,img/motor_5.png,72,motor,,,,,,,
454,,532690,HierDygnsoggh1,1snfqmhhvp,ms1000269,motor,,68,img/motor_3.png,68,motor,3,331,1,0,0,,
null,,532798,HierDygnsoggh1,1snfqmhhvp,ms1000269,iti,,null,img/motor_3.png,68,motor,,,,,,,
538,,533345,HierDygnsoggh1,1snfqmhhvp,ms1000269,motor,,70,img/motor_4.png,70,motor,4,332,1,0,0,,
null,,533453,HierDygnsoggh1,1snfqmhhvp,ms1000269,iti,,null,img/motor_4.png,70,motor,,,,,,,
556,,534024,HierDygnsoggh1,1snfqmhhvp,ms1000269,motor,,72,img/motor_5.png,72,motor,5,333,1,0,0,,
null,,534133,HierDygnsoggh1,1snfqmhhvp,ms1000269,iti,,null,img/motor_5.png,72,motor,,,,,,,
523,,534665,HierDygnsoggh1,1snfqmhhvp,ms1000269,motor,,68,img/motor_4.png,70,motor,4,334,0,1,0,,
296,,534976,HierDygnsoggh1,1snfqmhhvp,ms1000269,motorRepeat,,70,img/motor_4.png,70,motor,4,334,1,0,0,,
null,,535092,HierDygnsoggh1,1snfqmhhvp,ms1000269,iti,,null,img/motor_4.png,70,motor,,,,,,,
421,,535528,HierDygnsoggh1,1snfqmhhvp,ms1000269,motor,,65,img/motor_1.png,65,motor,1,335,1,0,0,,
null,,535645,HierDygnsoggh1,1snfqmhhvp,ms1000269,iti,,null,img/motor_1.png,65,motor,,,,,,,
572,,536232,HierDygnsoggh1,1snfqmhhvp,ms1000269,motor,,68,img/motor_3.png,68,motor,3,336,1,0,0,,
null,,536349,HierDygnsoggh1,1snfqmhhvp,ms1000269,iti,,null,img/motor_3.png,68,motor,,,,,,,
532,,536889,HierDygnsoggh1,1snfqmhhvp,ms1000269,motor,,70,img/motor_4.png,70,motor,4,337,1,0,0,,
null,,537005,HierDygnsoggh1,1snfqmhhvp,ms1000269,iti,,null,img/motor_4.png,70,motor,,,,,,,
571,,537593,HierDygnsoggh1,1snfqmhhvp,ms1000269,motor,,74,img/motor_6.png,74,motor,6,338,1,0,0,,
null,,537702,HierDygnsoggh1,1snfqmhhvp,ms1000269,iti,,null,img/motor_6.png,74,motor,,,,,,,
556,,538272,HierDygnsoggh1,1snfqmhhvp,ms1000269,motor,,76,img/motor_8.png,76,motor,8,339,1,0,0,,
null,,538388,HierDygnsoggh1,1snfqmhhvp,ms1000269,iti,,null,img/motor_8.png,76,motor,,,,,,,
405,,538801,HierDygnsoggh1,1snfqmhhvp,ms1000269,motor,,72,img/motor_5.png,72,motor,5,340,1,0,0,,
null,,538909,HierDygnsoggh1,1snfqmhhvp,ms1000269,iti,,null,img/motor_5.png,72,motor,,,,,,,
588,,539506,HierDygnsoggh1,1snfqmhhvp,ms1000269,motor,,83,img/motor_2.png,83,motor,2,341,1,0,0,,
null,,539621,HierDygnsoggh1,1snfqmhhvp,ms1000269,iti,,null,img/motor_2.png,83,motor,,,,,,,
476,,540105,HierDygnsoggh1,1snfqmhhvp,ms1000269,motor,,65,img/motor_1.png,65,motor,1,342,1,0,0,,
null,,540220,HierDygnsoggh1,1snfqmhhvp,ms1000269,iti,,null,img/motor_1.png,65,motor,,,,,,,
485,,540720,HierDygnsoggh1,1snfqmhhvp,ms1000269,motor,,65,img/motor_1.png,65,motor,1,343,1,0,0,,
null,,540829,HierDygnsoggh1,1snfqmhhvp,ms1000269,iti,,null,img/motor_1.png,65,motor,,,,,,,
628,,541472,HierDygnsoggh1,1snfqmhhvp,ms1000269,motor,,68,img/motor_3.png,68,motor,3,344,1,0,0,,
null,,541589,HierDygnsoggh1,1snfqmhhvp,ms1000269,iti,,null,img/motor_3.png,68,motor,,,,,,,
524,,542128,HierDygnsoggh1,1snfqmhhvp,ms1000269,motor,,70,img/motor_4.png,70,motor,4,345,1,0,0,,
null,,542245,HierDygnsoggh1,1snfqmhhvp,ms1000269,iti,,null,img/motor_4.png,70,motor,,,,,,,
667,,542922,HierDygnsoggh1,1snfqmhhvp,ms1000269,motor,,72,img/motor_5.png,72,motor,5,346,1,0,0,,
null,,543030,HierDygnsoggh1,1snfqmhhvp,ms1000269,iti,,null,img/motor_5.png,72,motor,,,,,,,
468,,543505,HierDygnsoggh1,1snfqmhhvp,ms1000269,motor,,65,img/motor_1.png,65,motor,1,347,1,0,0,,
null,,543620,HierDygnsoggh1,1snfqmhhvp,ms1000269,iti,,null,img/motor_1.png,65,motor,,,,,,,
597,,544232,HierDygnsoggh1,1snfqmhhvp,ms1000269,motor,,83,img/motor_2.png,83,motor,2,348,1,0,0,,
null,,544341,HierDygnsoggh1,1snfqmhhvp,ms1000269,iti,,null,img/motor_2.png,83,motor,,,,,,,
573,,544929,HierDygnsoggh1,1snfqmhhvp,ms1000269,motor,,75,img/motor_7.png,75,motor,7,349,1,0,0,,
null,,545038,HierDygnsoggh1,1snfqmhhvp,ms1000269,iti,,null,img/motor_7.png,75,motor,,,,,,,
403,,545448,HierDygnsoggh1,1snfqmhhvp,ms1000269,motor,,65,img/motor_1.png,65,motor,1,350,1,0,0,,
null,,545558,HierDygnsoggh1,1snfqmhhvp,ms1000269,iti,,null,img/motor_1.png,65,motor,,,,,,,
589,,546161,HierDygnsoggh1,1snfqmhhvp,ms1000269,motor,,70,img/motor_4.png,70,motor,4,351,1,0,0,,
null,,546276,HierDygnsoggh1,1snfqmhhvp,ms1000269,iti,,null,img/motor_4.png,70,motor,,,,,,,
541,,546833,HierDygnsoggh1,1snfqmhhvp,ms1000269,motor,,83,img/motor_2.png,83,motor,2,352,1,0,0,,
null,,546942,HierDygnsoggh1,1snfqmhhvp,ms1000269,iti,,null,img/motor_2.png,83,motor,,,,,,,
499,,547457,HierDygnsoggh1,1snfqmhhvp,ms1000269,motor,,72,img/motor_5.png,72,motor,5,353,1,0,0,,
null,,547572,HierDygnsoggh1,1snfqmhhvp,ms1000269,iti,,null,img/motor_5.png,72,motor,,,,,,,
501,,548088,HierDygnsoggh1,1snfqmhhvp,ms1000269,motor,,76,img/motor_8.png,76,motor,8,354,1,0,0,,
null,,548197,HierDygnsoggh1,1snfqmhhvp,ms1000269,iti,,null,img/motor_8.png,76,motor,,,,,,,
684,,548897,HierDygnsoggh1,1snfqmhhvp,ms1000269,motor,,74,img/motor_6.png,74,motor,6,355,1,0,0,,
null,,549006,HierDygnsoggh1,1snfqmhhvp,ms1000269,iti,,null,img/motor_6.png,74,motor,,,,,,,
507,,549529,HierDygnsoggh1,1snfqmhhvp,ms1000269,motor,,72,img/motor_5.png,72,motor,5,356,1,0,0,,
null,,549638,HierDygnsoggh1,1snfqmhhvp,ms1000269,iti,,null,img/motor_5.png,72,motor,,,,,,,
596,,550249,HierDygnsoggh1,1snfqmhhvp,ms1000269,motor,,68,img/motor_3.png,68,motor,3,357,1,0,0,,
null,,550358,HierDygnsoggh1,1snfqmhhvp,ms1000269,iti,,null,img/motor_3.png,68,motor,,,,,,,
499,,550866,HierDygnsoggh1,1snfqmhhvp,ms1000269,motor,,72,img/motor_5.png,72,motor,5,358,1,0,0,,
null,,550980,HierDygnsoggh1,1snfqmhhvp,ms1000269,iti,,null,img/motor_5.png,72,motor,,,,,,,
427,,551423,HierDygnsoggh1,1snfqmhhvp,ms1000269,motor,,65,img/motor_1.png,65,motor,1,359,1,0,0,,
null,,551533,HierDygnsoggh1,1snfqmhhvp,ms1000269,iti,,null,img/motor_1.png,65,motor,,,,,,,
612,,552161,HierDygnsoggh1,1snfqmhhvp,ms1000269,motor,,74,img/motor_6.png,74,motor,6,360,1,0,0,,
null,,552269,HierDygnsoggh1,1snfqmhhvp,ms1000269,iti,,null,img/motor_6.png,74,motor,,,,,,,
492,,552770,HierDygnsoggh1,1snfqmhhvp,ms1000269,motor,,70,img/motor_4.png,70,motor,4,361,1,0,0,,
null,,552879,HierDygnsoggh1,1snfqmhhvp,ms1000269,iti,,null,img/motor_4.png,70,motor,,,,,,,
435,,553320,HierDygnsoggh1,1snfqmhhvp,ms1000269,motor,,65,img/motor_1.png,65,motor,1,362,1,0,0,,
null,,553429,HierDygnsoggh1,1snfqmhhvp,ms1000269,iti,,null,img/motor_1.png,65,motor,,,,,,,
684,,554128,HierDygnsoggh1,1snfqmhhvp,ms1000269,motor,,68,img/motor_3.png,68,motor,3,363,1,0,0,,
null,,554245,HierDygnsoggh1,1snfqmhhvp,ms1000269,iti,,null,img/motor_3.png,68,motor,,,,,,,
452,,554705,HierDygnsoggh1,1snfqmhhvp,ms1000269,motor,,83,img/motor_2.png,83,motor,2,364,1,0,0,,
null,,554821,HierDygnsoggh1,1snfqmhhvp,ms1000269,iti,,null,img/motor_2.png,83,motor,,,,,,,
860,,555697,HierDygnsoggh1,1snfqmhhvp,ms1000269,motor,,68,img/motor_3.png,68,motor,3,365,1,0,0,,
null,,555806,HierDygnsoggh1,1snfqmhhvp,ms1000269,iti,,null,img/motor_3.png,68,motor,,,,,,,
491,,556306,HierDygnsoggh1,1snfqmhhvp,ms1000269,motor,,75,img/motor_7.png,75,motor,7,366,1,0,0,,
null,,556421,HierDygnsoggh1,1snfqmhhvp,ms1000269,iti,,null,img/motor_7.png,75,motor,,,,,,,
444,,556880,HierDygnsoggh1,1snfqmhhvp,ms1000269,motor,,65,img/motor_1.png,65,motor,1,367,1,0,0,,
null,,556997,HierDygnsoggh1,1snfqmhhvp,ms1000269,iti,,null,img/motor_1.png,65,motor,,,,,,,
564,,557577,HierDygnsoggh1,1snfqmhhvp,ms1000269,motor,,65,img/motor_1.png,65,motor,1,368,1,0,0,,
null,,557685,HierDygnsoggh1,1snfqmhhvp,ms1000269,iti,,null,img/motor_1.png,65,motor,,,,,,,
733,,558426,HierDygnsoggh1,1snfqmhhvp,ms1000269,motor,,75,img/motor_7.png,75,motor,7,369,1,0,0,,
null,,558534,HierDygnsoggh1,1snfqmhhvp,ms1000269,iti,,null,img/motor_7.png,75,motor,,,,,,,
587,,559137,HierDygnsoggh1,1snfqmhhvp,ms1000269,motor,,76,img/motor_8.png,76,motor,8,370,1,0,0,,
null,,559246,HierDygnsoggh1,1snfqmhhvp,ms1000269,iti,,null,img/motor_8.png,76,motor,,,,,,,
691,,559953,HierDygnsoggh1,1snfqmhhvp,ms1000269,motor,,70,img/motor_4.png,70,motor,4,371,1,0,0,,
null,,560062,HierDygnsoggh1,1snfqmhhvp,ms1000269,iti,,null,img/motor_4.png,70,motor,,,,,,,
588,,560658,HierDygnsoggh1,1snfqmhhvp,ms1000269,motor,,68,img/motor_3.png,68,motor,3,372,1,0,0,,
null,,560767,HierDygnsoggh1,1snfqmhhvp,ms1000269,iti,,null,img/motor_3.png,68,motor,,,,,,,
555,,561330,HierDygnsoggh1,1snfqmhhvp,ms1000269,motor,,74,img/motor_6.png,74,motor,6,373,1,0,0,,
null,,561438,HierDygnsoggh1,1snfqmhhvp,ms1000269,iti,,null,img/motor_6.png,74,motor,,,,,,,
636,,562082,HierDygnsoggh1,1snfqmhhvp,ms1000269,motor,,68,img/motor_3.png,68,motor,3,374,1,0,0,,
null,,562197,HierDygnsoggh1,1snfqmhhvp,ms1000269,iti,,null,img/motor_3.png,68,motor,,,,,,,
612,,562817,HierDygnsoggh1,1snfqmhhvp,ms1000269,motor,,72,img/motor_5.png,72,motor,5,375,1,0,0,,
null,,562926,HierDygnsoggh1,1snfqmhhvp,ms1000269,iti,,null,img/motor_5.png,72,motor,,,,,,,
644,,563584,HierDygnsoggh1,1snfqmhhvp,ms1000269,motor,,70,img/motor_4.png,70,motor,4,376,1,0,0,,
null,,563694,HierDygnsoggh1,1snfqmhhvp,ms1000269,iti,,null,img/motor_4.png,70,motor,,,,,,,
467,,564171,HierDygnsoggh1,1snfqmhhvp,ms1000269,motor,,76,img/motor_8.png,76,motor,8,377,1,0,0,,
null,,564279,HierDygnsoggh1,1snfqmhhvp,ms1000269,iti,,null,img/motor_8.png,76,motor,,,,,,,
547,,564840,HierDygnsoggh1,1snfqmhhvp,ms1000269,motor,,75,img/motor_7.png,75,motor,7,378,1,0,0,,
null,,564952,HierDygnsoggh1,1snfqmhhvp,ms1000269,iti,,null,img/motor_7.png,75,motor,,,,,,,
435,,565401,HierDygnsoggh1,1snfqmhhvp,ms1000269,motor,,65,img/motor_1.png,65,motor,1,379,1,0,0,,
null,,565510,HierDygnsoggh1,1snfqmhhvp,ms1000269,iti,,null,img/motor_1.png,65,motor,,,,,,,
765,,566289,HierDygnsoggh1,1snfqmhhvp,ms1000269,motor,,83,img/motor_2.png,83,motor,2,380,1,0,0,,
null,,566405,HierDygnsoggh1,1snfqmhhvp,ms1000269,iti,,null,img/motor_2.png,83,motor,,,,,,,
524,,566938,HierDygnsoggh1,1snfqmhhvp,ms1000269,motor,,72,img/motor_5.png,72,motor,5,381,1,0,0,,
null,,567053,HierDygnsoggh1,1snfqmhhvp,ms1000269,iti,,null,img/motor_5.png,72,motor,,,,,,,
532,,567593,HierDygnsoggh1,1snfqmhhvp,ms1000269,motor,,74,img/motor_6.png,74,motor,6,382,1,0,0,,
null,,567708,HierDygnsoggh1,1snfqmhhvp,ms1000269,iti,,null,img/motor_6.png,74,motor,,,,,,,
525,,568248,HierDygnsoggh1,1snfqmhhvp,ms1000269,motor,,76,img/motor_8.png,76,motor,8,383,1,0,0,,
null,,568358,HierDygnsoggh1,1snfqmhhvp,ms1000269,iti,,null,img/motor_8.png,76,motor,,,,,,,
539,,568905,HierDygnsoggh1,1snfqmhhvp,ms1000269,motor,,75,img/motor_7.png,75,motor,7,384,1,0,0,,
null,,569013,HierDygnsoggh1,1snfqmhhvp,ms1000269,iti,,null,img/motor_7.png,75,motor,,,,,,,
684,,569705,HierDygnsoggh1,1snfqmhhvp,ms1000269,motor,,74,img/motor_6.png,74,motor,6,385,1,0,0,,
null,,569813,HierDygnsoggh1,1snfqmhhvp,ms1000269,iti,,null,img/motor_6.png,74,motor,,,,,,,
516,,570344,HierDygnsoggh1,1snfqmhhvp,ms1000269,motor,,65,img/motor_1.png,65,motor,1,386,1,0,0,,
null,,570454,HierDygnsoggh1,1snfqmhhvp,ms1000269,iti,,null,img/motor_1.png,65,motor,,,,,,,
507,,570976,HierDygnsoggh1,1snfqmhhvp,ms1000269,motor,,70,img/motor_4.png,70,motor,4,387,1,0,0,,
null,,571087,HierDygnsoggh1,1snfqmhhvp,ms1000269,iti,,null,img/motor_4.png,70,motor,,,,,,,
596,,571698,HierDygnsoggh1,1snfqmhhvp,ms1000269,motor,,74,img/motor_6.png,74,motor,6,388,1,0,0,,
null,,571813,HierDygnsoggh1,1snfqmhhvp,ms1000269,iti,,null,img/motor_6.png,74,motor,,,,,,,
651,,572481,HierDygnsoggh1,1snfqmhhvp,ms1000269,motor,,83,img/motor_2.png,83,motor,2,389,1,0,0,,
null,,572597,HierDygnsoggh1,1snfqmhhvp,ms1000269,iti,,null,img/motor_2.png,83,motor,,,,,,,
700,,573306,HierDygnsoggh1,1snfqmhhvp,ms1000269,motor,,75,img/motor_7.png,75,motor,7,390,1,0,0,,
null,,573422,HierDygnsoggh1,1snfqmhhvp,ms1000269,iti,,null,img/motor_7.png,75,motor,,,,,,,
516,,573953,HierDygnsoggh1,1snfqmhhvp,ms1000269,motor,,76,img/motor_8.png,76,motor,8,391,1,0,0,,
null,,574068,HierDygnsoggh1,1snfqmhhvp,ms1000269,iti,,null,img/motor_8.png,76,motor,,,,,,,
620,,574697,HierDygnsoggh1,1snfqmhhvp,ms1000269,motor,,75,img/motor_7.png,75,motor,7,392,1,0,0,,
null,,574813,HierDygnsoggh1,1snfqmhhvp,ms1000269,iti,,null,img/motor_7.png,75,motor,,,,,,,
581,,575409,HierDygnsoggh1,1snfqmhhvp,ms1000269,motor,,70,img/motor_4.png,70,motor,4,393,1,0,0,,
null,,575525,HierDygnsoggh1,1snfqmhhvp,ms1000269,iti,,null,img/motor_4.png,70,motor,,,,,,,
523,,576066,HierDygnsoggh1,1snfqmhhvp,ms1000269,motor,,74,img/motor_6.png,74,motor,6,394,1,0,0,,
null,,576181,HierDygnsoggh1,1snfqmhhvp,ms1000269,iti,,null,img/motor_6.png,74,motor,,,,,,,
493,,576689,HierDygnsoggh1,1snfqmhhvp,ms1000269,motor,,76,img/motor_8.png,76,motor,8,395,1,0,0,,
null,,576805,HierDygnsoggh1,1snfqmhhvp,ms1000269,iti,,null,img/motor_8.png,76,motor,,,,,,,
540,,577360,HierDygnsoggh1,1snfqmhhvp,ms1000269,motor,,83,img/motor_2.png,83,motor,2,396,1,0,0,,
null,,577477,HierDygnsoggh1,1snfqmhhvp,ms1000269,iti,,null,img/motor_2.png,83,motor,,,,,,,
628,,578114,HierDygnsoggh1,1snfqmhhvp,ms1000269,motor,,68,img/motor_3.png,68,motor,3,397,1,0,0,,
null,,578223,HierDygnsoggh1,1snfqmhhvp,ms1000269,iti,,null,img/motor_3.png,68,motor,,,,,,,
675,,578912,HierDygnsoggh1,1snfqmhhvp,ms1000269,motor,,68,img/motor_3.png,68,motor,3,398,1,0,0,,
null,,579022,HierDygnsoggh1,1snfqmhhvp,ms1000269,iti,,null,img/motor_3.png,68,motor,,,,,,,
500,,579537,HierDygnsoggh1,1snfqmhhvp,ms1000269,motor,,83,img/motor_2.png,83,motor,2,399,1,0,0,,
null,,579646,HierDygnsoggh1,1snfqmhhvp,ms1000269,iti,,null,img/motor_2.png,83,motor,,,,,,,
683,,580345,HierDygnsoggh1,1snfqmhhvp,ms1000269,motor,,74,img/motor_6.png,74,motor,6,400,1,0,0,,
null,,580461,HierDygnsoggh1,1snfqmhhvp,ms1000269,iti,,null,img/motor_6.png,74,motor,,,,,,,
507,,580979,HierDygnsoggh1,1snfqmhhvp,ms1000269,motor,,70,img/motor_4.png,70,motor,4,401,1,0,0,,
null,,581093,HierDygnsoggh1,1snfqmhhvp,ms1000269,iti,,null,img/motor_4.png,70,motor,,,,,,,
403,,581506,HierDygnsoggh1,1snfqmhhvp,ms1000269,motor,,65,img/motor_1.png,65,motor,1,402,1,0,0,,
null,,581614,HierDygnsoggh1,1snfqmhhvp,ms1000269,iti,,null,img/motor_1.png,65,motor,,,,,,,
738,,582362,HierDygnsoggh1,1snfqmhhvp,ms1000269,motor,,70,img/motor_3.png,68,motor,3,403,0,1,0,,
535,,582903,HierDygnsoggh1,1snfqmhhvp,ms1000269,motorRepeat,,68,img/motor_3.png,68,motor,3,403,1,0,0,,
null,,583012,HierDygnsoggh1,1snfqmhhvp,ms1000269,iti,,null,img/motor_3.png,68,motor,,,,,,,
486,,583506,HierDygnsoggh1,1snfqmhhvp,ms1000269,motor,,76,img/motor_8.png,76,motor,8,404,1,0,0,,
null,,583616,HierDygnsoggh1,1snfqmhhvp,ms1000269,iti,,null,img/motor_8.png,76,motor,,,,,,,
546,,584178,HierDygnsoggh1,1snfqmhhvp,ms1000269,motor,,83,img/motor_2.png,83,motor,2,405,1,0,0,,
null,,584295,HierDygnsoggh1,1snfqmhhvp,ms1000269,iti,,null,img/motor_2.png,83,motor,,,,,,,
536,,584843,HierDygnsoggh1,1snfqmhhvp,ms1000269,motor,,76,img/motor_8.png,76,motor,8,406,1,0,0,,
null,,584951,HierDygnsoggh1,1snfqmhhvp,ms1000269,iti,,null,img/motor_8.png,76,motor,,,,,,,
594,,585560,HierDygnsoggh1,1snfqmhhvp,ms1000269,motor,,72,img/motor_5.png,72,motor,5,407,1,0,0,,
null,,585671,HierDygnsoggh1,1snfqmhhvp,ms1000269,iti,,null,img/motor_5.png,72,motor,,,,,,,
507,,586186,HierDygnsoggh1,1snfqmhhvp,ms1000269,motor,,75,img/motor_7.png,75,motor,7,408,1,0,0,,
null,,586295,HierDygnsoggh1,1snfqmhhvp,ms1000269,iti,,null,img/motor_7.png,75,motor,,,,,,,
571,,586874,HierDygnsoggh1,1snfqmhhvp,ms1000269,motor,,68,img/motor_3.png,68,motor,3,409,1,0,0,,
null,,586983,HierDygnsoggh1,1snfqmhhvp,ms1000269,iti,,null,img/motor_3.png,68,motor,,,,,,,
523,,587520,HierDygnsoggh1,1snfqmhhvp,ms1000269,motor,,72,img/motor_5.png,72,motor,5,410,1,0,0,,
null,,587626,HierDygnsoggh1,1snfqmhhvp,ms1000269,iti,,null,img/motor_5.png,72,motor,,,,,,,
416,,588057,HierDygnsoggh1,1snfqmhhvp,ms1000269,motor,,65,img/motor_1.png,65,motor,1,411,1,0,0,,
null,,588174,HierDygnsoggh1,1snfqmhhvp,ms1000269,iti,,null,img/motor_1.png,65,motor,,,,,,,
507,,588690,HierDygnsoggh1,1snfqmhhvp,ms1000269,motor,,74,img/motor_6.png,74,motor,6,412,1,0,0,,
null,,588805,HierDygnsoggh1,1snfqmhhvp,ms1000269,iti,,null,img/motor_6.png,74,motor,,,,,,,
539,,589361,HierDygnsoggh1,1snfqmhhvp,ms1000269,motor,,72,img/motor_5.png,72,motor,5,413,1,0,0,,
null,,589470,HierDygnsoggh1,1snfqmhhvp,ms1000269,iti,,null,img/motor_5.png,72,motor,,,,,,,
492,,589970,HierDygnsoggh1,1snfqmhhvp,ms1000269,motor,,74,img/motor_6.png,74,motor,6,414,1,0,0,,
null,,590086,HierDygnsoggh1,1snfqmhhvp,ms1000269,iti,,null,img/motor_6.png,74,motor,,,,,,,
564,,590658,HierDygnsoggh1,1snfqmhhvp,ms1000269,motor,,74,img/motor_6.png,74,motor,6,415,1,0,0,,
null,,590774,HierDygnsoggh1,1snfqmhhvp,ms1000269,iti,,null,img/motor_6.png,74,motor,,,,,,,
395,,591178,HierDygnsoggh1,1snfqmhhvp,ms1000269,motor,,75,img/motor_7.png,75,motor,7,416,1,0,0,,
null,,591293,HierDygnsoggh1,1snfqmhhvp,ms1000269,iti,,null,img/motor_7.png,75,motor,,,,,,,
556,,591865,HierDygnsoggh1,1snfqmhhvp,ms1000269,motor,,70,img/motor_4.png,70,motor,4,417,1,0,0,,
null,,591981,HierDygnsoggh1,1snfqmhhvp,ms1000269,iti,,null,img/motor_4.png,70,motor,,,,,,,
468,,592458,HierDygnsoggh1,1snfqmhhvp,ms1000269,motor,,76,img/motor_8.png,76,motor,8,418,1,0,0,,
null,,592573,HierDygnsoggh1,1snfqmhhvp,ms1000269,iti,,null,img/motor_8.png,76,motor,,,,,,,
467,,593057,HierDygnsoggh1,1snfqmhhvp,ms1000269,motor,,83,img/motor_2.png,83,motor,2,419,1,0,0,,
null,,593173,HierDygnsoggh1,1snfqmhhvp,ms1000269,iti,,null,img/motor_2.png,83,motor,,,,,,,
604,,593792,HierDygnsoggh1,1snfqmhhvp,ms1000269,motor,,74,img/motor_6.png,74,motor,6,420,1,0,0,,
null,,593902,HierDygnsoggh1,1snfqmhhvp,ms1000269,iti,,null,img/motor_6.png,74,motor,,,,,,,
661,,594570,HierDygnsoggh1,1snfqmhhvp,ms1000269,motor,,70,img/motor_4.png,70,motor,4,421,1,0,0,,
null,,594678,HierDygnsoggh1,1snfqmhhvp,ms1000269,iti,,null,img/motor_4.png,70,motor,,,,,,,
634,,595321,HierDygnsoggh1,1snfqmhhvp,ms1000269,motor,,75,img/motor_7.png,75,motor,7,422,1,0,0,,
null,,595429,HierDygnsoggh1,1snfqmhhvp,ms1000269,iti,,null,img/motor_7.png,75,motor,,,,,,,
491,,595936,HierDygnsoggh1,1snfqmhhvp,ms1000269,motor,,76,img/motor_8.png,76,motor,8,423,1,0,0,,
null,,596053,HierDygnsoggh1,1snfqmhhvp,ms1000269,iti,,null,img/motor_8.png,76,motor,,,,,,,
516,,596578,HierDygnsoggh1,1snfqmhhvp,ms1000269,motor,,76,img/motor_8.png,76,motor,8,424,1,0,0,,
null,,596687,HierDygnsoggh1,1snfqmhhvp,ms1000269,iti,,null,img/motor_8.png,76,motor,,,,,,,
563,,597265,HierDygnsoggh1,1snfqmhhvp,ms1000269,motor,,83,img/motor_2.png,83,motor,2,425,1,0,0,,
null,,597381,HierDygnsoggh1,1snfqmhhvp,ms1000269,iti,,null,img/motor_2.png,83,motor,,,,,,,
516,,597906,HierDygnsoggh1,1snfqmhhvp,ms1000269,motor,,76,img/motor_8.png,76,motor,8,426,1,0,0,,
null,,598014,HierDygnsoggh1,1snfqmhhvp,ms1000269,iti,,null,img/motor_8.png,76,motor,,,,,,,
547,,598570,HierDygnsoggh1,1snfqmhhvp,ms1000269,motor,,68,img/motor_3.png,68,motor,3,427,1,0,0,,
null,,598686,HierDygnsoggh1,1snfqmhhvp,ms1000269,iti,,null,img/motor_3.png,68,motor,,,,,,,
379,,599074,HierDygnsoggh1,1snfqmhhvp,ms1000269,motor,,65,img/motor_1.png,65,motor,1,428,1,0,0,,
null,,599182,HierDygnsoggh1,1snfqmhhvp,ms1000269,iti,,null,img/motor_1.png,65,motor,,,,,,,
619,,599817,HierDygnsoggh1,1snfqmhhvp,ms1000269,motor,,83,img/motor_2.png,83,motor,2,429,1,0,0,,
null,,599926,HierDygnsoggh1,1snfqmhhvp,ms1000269,iti,,null,img/motor_2.png,83,motor,,,,,,,
515,,600450,HierDygnsoggh1,1snfqmhhvp,ms1000269,motor,,65,img/motor_1.png,65,motor,1,430,1,0,0,,
null,,600558,HierDygnsoggh1,1snfqmhhvp,ms1000269,iti,,null,img/motor_1.png,65,motor,,,,,,,
620,,601186,HierDygnsoggh1,1snfqmhhvp,ms1000269,motor,,75,img/motor_7.png,75,motor,7,431,1,0,0,,
null,,601301,HierDygnsoggh1,1snfqmhhvp,ms1000269,iti,,null,img/motor_7.png,75,motor,,,,,,,
484,,601794,HierDygnsoggh1,1snfqmhhvp,ms1000269,motor,,75,img/motor_7.png,75,motor,7,432,1,0,0,,
null,,601909,HierDygnsoggh1,1snfqmhhvp,ms1000269,iti,,null,img/motor_7.png,75,motor,,,,,,,
547,,602466,HierDygnsoggh1,1snfqmhhvp,ms1000269,motor,,70,img/motor_4.png,70,motor,4,433,1,0,0,,
null,,602581,HierDygnsoggh1,1snfqmhhvp,ms1000269,iti,,null,img/motor_4.png,70,motor,,,,,,,
541,,603130,HierDygnsoggh1,1snfqmhhvp,ms1000269,motor,,65,img/motor_1.png,65,motor,1,434,1,0,0,,
null,,603247,HierDygnsoggh1,1snfqmhhvp,ms1000269,iti,,null,img/motor_1.png,65,motor,,,,,,,
594,,603858,HierDygnsoggh1,1snfqmhhvp,ms1000269,motor,,83,img/motor_2.png,83,motor,2,435,1,0,0,,
null,,603974,HierDygnsoggh1,1snfqmhhvp,ms1000269,iti,,null,img/motor_2.png,83,motor,,,,,,,
556,,604538,HierDygnsoggh1,1snfqmhhvp,ms1000269,motor,,72,img/motor_5.png,72,motor,5,436,1,0,0,,
null,,604647,HierDygnsoggh1,1snfqmhhvp,ms1000269,iti,,null,img/motor_5.png,72,motor,,,,,,,
466,,605122,HierDygnsoggh1,1snfqmhhvp,ms1000269,motor,,75,img/motor_7.png,75,motor,7,437,1,0,0,,
null,,605231,HierDygnsoggh1,1snfqmhhvp,ms1000269,iti,,null,img/motor_7.png,75,motor,,,,,,,
620,,605866,HierDygnsoggh1,1snfqmhhvp,ms1000269,motor,,70,img/motor_5.png,72,motor,5,438,0,1,0,,
496,,606370,HierDygnsoggh1,1snfqmhhvp,ms1000269,motorRepeat,,72,img/motor_5.png,72,motor,5,438,1,0,0,,
null,,606479,HierDygnsoggh1,1snfqmhhvp,ms1000269,iti,,null,img/motor_5.png,72,motor,,,,,,,
514,,607002,HierDygnsoggh1,1snfqmhhvp,ms1000269,motor,,83,img/motor_2.png,83,motor,2,439,1,0,0,,
null,,607111,HierDygnsoggh1,1snfqmhhvp,ms1000269,iti,,null,img/motor_2.png,83,motor,,,,,,,
378,,607498,HierDygnsoggh1,1snfqmhhvp,ms1000269,motor,,83,img/motor_2.png,83,motor,2,440,1,0,0,,
null,,607613,HierDygnsoggh1,1snfqmhhvp,ms1000269,iti,,null,img/motor_2.png,83,motor,,,,,,,
675,,608298,HierDygnsoggh1,1snfqmhhvp,ms1000269,motor,,68,img/motor_3.png,68,motor,3,441,1,0,0,,
null,,608414,HierDygnsoggh1,1snfqmhhvp,ms1000269,iti,,null,img/motor_3.png,68,motor,,,,,,,
563,,608994,HierDygnsoggh1,1snfqmhhvp,ms1000269,motor,,70,img/motor_4.png,70,motor,4,442,1,0,0,,
null,,609103,HierDygnsoggh1,1snfqmhhvp,ms1000269,iti,,null,img/motor_4.png,70,motor,,,,,,,
402,,609521,HierDygnsoggh1,1snfqmhhvp,ms1000269,motor,,70,img/motor_4.png,70,motor,4,443,1,0,0,,
null,,609631,HierDygnsoggh1,1snfqmhhvp,ms1000269,iti,,null,img/motor_4.png,70,motor,,,,,,,
515,,610161,HierDygnsoggh1,1snfqmhhvp,ms1000269,motor,,76,img/motor_8.png,76,motor,8,444,1,0,0,,
null,,610270,HierDygnsoggh1,1snfqmhhvp,ms1000269,iti,,null,img/motor_8.png,76,motor,,,,,,,
677,,610961,HierDygnsoggh1,1snfqmhhvp,ms1000269,motor,,72,img/motor_5.png,72,motor,5,445,1,0,0,,
null,,611070,HierDygnsoggh1,1snfqmhhvp,ms1000269,iti,,null,img/motor_5.png,72,motor,,,,,,,
555,,611642,HierDygnsoggh1,1snfqmhhvp,ms1000269,motor,,75,img/motor_6.png,74,motor,6,446,0,1,0,,
289,,611938,HierDygnsoggh1,1snfqmhhvp,ms1000269,motorRepeat,,74,img/motor_6.png,74,motor,6,446,1,0,0,,
null,,612053,HierDygnsoggh1,1snfqmhhvp,ms1000269,iti,,null,img/motor_6.png,74,motor,,,,,,,
819,,612882,HierDygnsoggh1,1snfqmhhvp,ms1000269,motor,,83,img/motor_2.png,83,motor,2,447,1,0,0,,
null,,612997,HierDygnsoggh1,1snfqmhhvp,ms1000269,iti,,null,img/motor_2.png,83,motor,,,,,,,
475,,613489,HierDygnsoggh1,1snfqmhhvp,ms1000269,motor,,76,img/motor_8.png,76,motor,8,448,1,0,0,,
null,,613606,HierDygnsoggh1,1snfqmhhvp,ms1000269,iti,,null,img/motor_8.png,76,motor,,,,,,,
572,,614193,HierDygnsoggh1,1snfqmhhvp,ms1000269,motor,,75,img/motor_7.png,75,motor,7,449,1,0,0,,
null,,614302,HierDygnsoggh1,1snfqmhhvp,ms1000269,iti,,null,img/motor_7.png,75,motor,,,,,,,
500,,614811,HierDygnsoggh1,1snfqmhhvp,ms1000269,motor,,76,img/motor_8.png,76,motor,8,450,1,0,0,,
null,,614927,HierDygnsoggh1,1snfqmhhvp,ms1000269,iti,,null,img/motor_8.png,76,motor,,,,,,,
475,,615410,HierDygnsoggh1,1snfqmhhvp,ms1000269,motor,,75,img/motor_7.png,75,motor,7,451,1,0,0,,
null,,615526,HierDygnsoggh1,1snfqmhhvp,ms1000269,iti,,null,img/motor_7.png,75,motor,,,,,,,
468,,616009,HierDygnsoggh1,1snfqmhhvp,ms1000269,motor,,65,img/motor_1.png,65,motor,1,452,1,0,0,,
null,,616126,HierDygnsoggh1,1snfqmhhvp,ms1000269,iti,,null,img/motor_1.png,65,motor,,,,,,,
947,,617089,HierDygnsoggh1,1snfqmhhvp,ms1000269,motor,,74,img/motor_6.png,74,motor,6,453,1,0,0,,
null,,617206,HierDygnsoggh1,1snfqmhhvp,ms1000269,iti,,null,img/motor_6.png,74,motor,,,,,,,
556,,617771,HierDygnsoggh1,1snfqmhhvp,ms1000269,motor,,70,img/motor_5.png,72,motor,5,454,0,1,0,,
384,,618162,HierDygnsoggh1,1snfqmhhvp,ms1000269,motorRepeat,,72,img/motor_5.png,72,motor,5,454,1,0,0,,
null,,618278,HierDygnsoggh1,1snfqmhhvp,ms1000269,iti,,null,img/motor_5.png,72,motor,,,,,,,
1068,,619354,HierDygnsoggh1,1snfqmhhvp,ms1000269,motor,,68,img/motor_3.png,68,motor,3,455,1,0,0,,
null,,619470,HierDygnsoggh1,1snfqmhhvp,ms1000269,iti,,null,img/motor_3.png,68,motor,,,,,,,
524,,620009,HierDygnsoggh1,1snfqmhhvp,ms1000269,motor,,76,img/motor_8.png,76,motor,8,456,1,0,0,,
null,,620126,HierDygnsoggh1,1snfqmhhvp,ms1000269,iti,,null,img/motor_8.png,76,motor,,,,,,,
1212,,621354,HierDygnsoggh1,1snfqmhhvp,ms1000269,motor,,74,img/motor_6.png,74,motor,6,457,1,0,0,,
null,,621463,HierDygnsoggh1,1snfqmhhvp,ms1000269,iti,,null,img/motor_6.png,74,motor,,,,,,,
683,,622154,HierDygnsoggh1,1snfqmhhvp,ms1000269,motor,,68,img/motor_3.png,68,motor,3,458,1,0,0,,
null,,622264,HierDygnsoggh1,1snfqmhhvp,ms1000269,iti,,null,img/motor_3.png,68,motor,,,,,,,
555,,622833,HierDygnsoggh1,1snfqmhhvp,ms1000269,motor,,72,img/motor_5.png,72,motor,5,459,1,0,0,,
null,,622942,HierDygnsoggh1,1snfqmhhvp,ms1000269,iti,,null,img/motor_5.png,72,motor,,,,,,,
596,,623553,HierDygnsoggh1,1snfqmhhvp,ms1000269,motor,,68,img/motor_3.png,68,motor,3,460,1,0,0,,
null,,623663,HierDygnsoggh1,1snfqmhhvp,ms1000269,iti,,null,img/motor_3.png,68,motor,,,,,,,
643,,624322,HierDygnsoggh1,1snfqmhhvp,ms1000269,motor,,72,img/motor_5.png,72,motor,5,461,1,0,0,,
null,,624430,HierDygnsoggh1,1snfqmhhvp,ms1000269,iti,,null,img/motor_5.png,72,motor,,,,,,,
620,,625059,HierDygnsoggh1,1snfqmhhvp,ms1000269,motor,,70,img/motor_4.png,70,motor,4,462,1,0,0,,
null,,625168,HierDygnsoggh1,1snfqmhhvp,ms1000269,iti,,null,img/motor_4.png,70,motor,,,,,,,
435,,625618,HierDygnsoggh1,1snfqmhhvp,ms1000269,motor,,65,img/motor_1.png,65,motor,1,463,1,0,0,,
null,,625733,HierDygnsoggh1,1snfqmhhvp,ms1000269,iti,,null,img/motor_1.png,65,motor,,,,,,,
652,,626401,HierDygnsoggh1,1snfqmhhvp,ms1000269,motor,,74,img/motor_6.png,74,motor,6,464,1,0,0,,
null,,626510,HierDygnsoggh1,1snfqmhhvp,ms1000269,iti,,null,img/motor_6.png,74,motor,,,,,,,
427,,626953,HierDygnsoggh1,1snfqmhhvp,ms1000269,motor,,65,img/motor_1.png,65,motor,1,465,1,0,0,,
null,,627063,HierDygnsoggh1,1snfqmhhvp,ms1000269,iti,,null,img/motor_1.png,65,motor,,,,,,,
571,,627649,HierDygnsoggh1,1snfqmhhvp,ms1000269,motor,,70,img/motor_4.png,70,motor,4,466,1,0,0,,
null,,627766,HierDygnsoggh1,1snfqmhhvp,ms1000269,iti,,null,img/motor_4.png,70,motor,,,,,,,
524,,628306,HierDygnsoggh1,1snfqmhhvp,ms1000269,motor,,72,img/motor_5.png,72,motor,5,467,1,0,0,,
null,,628415,HierDygnsoggh1,1snfqmhhvp,ms1000269,iti,,null,img/motor_5.png,72,motor,,,,,,,
515,,628939,HierDygnsoggh1,1snfqmhhvp,ms1000269,motor,,74,img/motor_6.png,74,motor,6,468,1,0,0,,
null,,629046,HierDygnsoggh1,1snfqmhhvp,ms1000269,iti,,null,img/motor_6.png,74,motor,,,,,,,
747,,629802,HierDygnsoggh1,1snfqmhhvp,ms1000269,motor,,83,img/motor_2.png,83,motor,2,469,1,0,0,,
null,,629918,HierDygnsoggh1,1snfqmhhvp,ms1000269,iti,,null,img/motor_2.png,83,motor,,,,,,,
442,,630370,HierDygnsoggh1,1snfqmhhvp,ms1000269,motor,,65,img/motor_1.png,65,motor,1,470,1,0,0,,
null,,630478,HierDygnsoggh1,1snfqmhhvp,ms1000269,iti,,null,img/motor_1.png,65,motor,,,,,,,
810,,631298,HierDygnsoggh1,1snfqmhhvp,ms1000269,motor,,68,img/motor_3.png,68,motor,3,471,1,0,0,,
null,,631414,HierDygnsoggh1,1snfqmhhvp,ms1000269,iti,,null,img/motor_3.png,68,motor,,,,,,,
644,,632073,HierDygnsoggh1,1snfqmhhvp,ms1000269,motor,,74,img/motor_6.png,74,motor,6,472,1,0,0,,
null,,632183,HierDygnsoggh1,1snfqmhhvp,ms1000269,iti,,null,img/motor_6.png,74,motor,,,,,,,
940,,633137,HierDygnsoggh1,1snfqmhhvp,ms1000269,motor,,75,img/motor_7.png,75,motor,7,473,1,0,0,,
null,,633247,HierDygnsoggh1,1snfqmhhvp,ms1000269,iti,,null,img/motor_7.png,75,motor,,,,,,,
411,,633674,HierDygnsoggh1,1snfqmhhvp,ms1000269,motor,,75,img/motor_8.png,76,motor,8,474,0,1,0,,
336,,634018,HierDygnsoggh1,1snfqmhhvp,ms1000269,motorRepeat,,76,img/motor_8.png,76,motor,8,474,1,0,0,,
null,,634134,HierDygnsoggh1,1snfqmhhvp,ms1000269,iti,,null,img/motor_8.png,76,motor,,,,,,,
507,,634657,HierDygnsoggh1,1snfqmhhvp,ms1000269,motor,,65,img/motor_1.png,65,motor,1,475,1,0,0,,
null,,634767,HierDygnsoggh1,1snfqmhhvp,ms1000269,iti,,null,img/motor_1.png,65,motor,,,,,,,
483,,635259,HierDygnsoggh1,1snfqmhhvp,ms1000269,motor,,65,img/motor_1.png,65,motor,1,476,1,0,0,,
null,,635368,HierDygnsoggh1,1snfqmhhvp,ms1000269,iti,,null,img/motor_1.png,65,motor,,,,,,,
561,,635945,HierDygnsoggh1,1snfqmhhvp,ms1000269,motor,,72,img/motor_5.png,72,motor,5,477,1,0,0,,
null,,636055,HierDygnsoggh1,1snfqmhhvp,ms1000269,iti,,null,img/motor_5.png,72,motor,,,,,,,
563,,636627,HierDygnsoggh1,1snfqmhhvp,ms1000269,motor,,76,img/motor_8.png,76,motor,8,478,1,0,0,,
null,,636742,HierDygnsoggh1,1snfqmhhvp,ms1000269,iti,,null,img/motor_8.png,76,motor,,,,,,,
563,,637322,HierDygnsoggh1,1snfqmhhvp,ms1000269,motor,,65,img/motor_1.png,65,motor,1,479,1,0,0,,
null,,637439,HierDygnsoggh1,1snfqmhhvp,ms1000269,iti,,null,img/motor_1.png,65,motor,,,,,,,
683,,638131,HierDygnsoggh1,1snfqmhhvp,ms1000269,motor,,74,img/motor_6.png,74,motor,6,480,1,0,0,,
null,,638247,HierDygnsoggh1,1snfqmhhvp,ms1000269,iti,,null,img/motor_6.png,74,motor,,,,,,,
715,,638971,HierDygnsoggh1,1snfqmhhvp,ms1000269,motor,,72,img/motor_5.png,72,motor,5,481,1,0,0,,
null,,639087,HierDygnsoggh1,1snfqmhhvp,ms1000269,iti,,null,img/motor_5.png,72,motor,,,,,,,
499,,639594,HierDygnsoggh1,1snfqmhhvp,ms1000269,motor,,75,img/motor_7.png,75,motor,7,482,1,0,0,,
null,,639710,HierDygnsoggh1,1snfqmhhvp,ms1000269,iti,,null,img/motor_7.png,75,motor,,,,,,,
476,,640201,HierDygnsoggh1,1snfqmhhvp,ms1000269,motor,,76,img/motor_8.png,76,motor,8,483,1,0,0,,
null,,640311,HierDygnsoggh1,1snfqmhhvp,ms1000269,iti,,null,img/motor_8.png,76,motor,,,,,,,
635,,640954,HierDygnsoggh1,1snfqmhhvp,ms1000269,motor,,83,img/motor_2.png,83,motor,2,484,1,0,0,,
null,,641069,HierDygnsoggh1,1snfqmhhvp,ms1000269,iti,,null,img/motor_2.png,83,motor,,,,,,,
677,,641755,HierDygnsoggh1,1snfqmhhvp,ms1000269,motor,,74,img/motor_6.png,74,motor,6,485,1,0,0,,
null,,641871,HierDygnsoggh1,1snfqmhhvp,ms1000269,iti,,null,img/motor_6.png,74,motor,,,,,,,
522,,642402,HierDygnsoggh1,1snfqmhhvp,ms1000269,motor,,74,img/motor_6.png,74,motor,6,486,1,0,0,,
null,,642511,HierDygnsoggh1,1snfqmhhvp,ms1000269,iti,,null,img/motor_6.png,74,motor,,,,,,,
419,,642938,HierDygnsoggh1,1snfqmhhvp,ms1000269,motor,,65,img/motor_1.png,65,motor,1,487,1,0,0,,
null,,643046,HierDygnsoggh1,1snfqmhhvp,ms1000269,iti,,null,img/motor_1.png,65,motor,,,,,,,
39758,,682824,HierDygnsoggh1,1snfqmhhvp,ms1000269,,,,,,,,,,,,,
673,,683507,HierDygnsoggh1,1snfqmhhvp,ms1000269,prac,,74,img/image3.bmp,72,prac,,,0,,,1,
null,,684267,HierDygnsoggh1,1snfqmhhvp,ms1000269,feedback,,null,,na,prac,,,,,,,
2135,,686411,HierDygnsoggh1,1snfqmhhvp,ms1000269,prac,,74,img/image4.bmp,74,prac,,,1,,,1,
null,,687170,HierDygnsoggh1,1snfqmhhvp,ms1000269,feedback,,null,,na,prac,,,,,,,
1055,,688236,HierDygnsoggh1,1snfqmhhvp,ms1000269,prac,,75,img/image5.bmp,75,prac,,,1,,,1,
null,,688995,HierDygnsoggh1,1snfqmhhvp,ms1000269,feedback,,null,,na,prac,,,,,,,
767,,689771,HierDygnsoggh1,1snfqmhhvp,ms1000269,prac,,74,img/image4.bmp,74,prac,,,1,,,1,
null,,690537,HierDygnsoggh1,1snfqmhhvp,ms1000269,feedback,,null,,na,prac,,,,,,,
737,,691283,HierDygnsoggh1,1snfqmhhvp,ms1000269,prac,,74,img/image4.bmp,74,prac,,,1,,,1,
null,,692042,HierDygnsoggh1,1snfqmhhvp,ms1000269,feedback,,null,,na,prac,,,,,,,
680,,692738,HierDygnsoggh1,1snfqmhhvp,ms1000269,prac,,72,img/image3.bmp,72,prac,,,1,,,1,
null,,693498,HierDygnsoggh1,1snfqmhhvp,ms1000269,feedback,,null,,na,prac,,,,,,,
466,,693978,HierDygnsoggh1,1snfqmhhvp,ms1000269,prac,,75,img/image5.bmp,75,prac,,,1,,,1,
null,,694744,HierDygnsoggh1,1snfqmhhvp,ms1000269,feedback,,null,,na,prac,,,,,,,
601,,695362,HierDygnsoggh1,1snfqmhhvp,ms1000269,prac,,74,img/image4.bmp,74,prac,,,1,,,1,
null,,696129,HierDygnsoggh1,1snfqmhhvp,ms1000269,feedback,,null,,na,prac,,,,,,,
40138,,736278,HierDygnsoggh1,1snfqmhhvp,ms1000269,,,,,,prac,,,,,,,
29053,,765340,HierDygnsoggh1,1snfqmhhvp,ms1000269,,,32,,,,,,,,,,
5647,,770996,HierDygnsoggh1,1snfqmhhvp,ms1000269,,,,,,prac,,,,,,,
991,,772003,HierDygnsoggh1,1snfqmhhvp,ms1000269,rl,,65,img/o_s_diag.png,75,test,7,1,0,,,,shape;color;pattern
null,,773013,HierDygnsoggh1,1snfqmhhvp,ms1000269,feedback,,null,,na,test,,,,,,,
894,,773924,HierDygnsoggh1,1snfqmhhvp,ms1000269,rl,,65,img/p_d_check.png,83,test,2,NaN,0,,,,shape;color;pattern
null,,774934,HierDygnsoggh1,1snfqmhhvp,ms1000269,feedback,,null,,na,test,,,,,,,
1108,,776057,HierDygnsoggh1,1snfqmhhvp,ms1000269,rl,,65,img/o_s_check.png,76,test,8,NaN,0,,,,shape;color;pattern
null,,777068,HierDygnsoggh1,1snfqmhhvp,ms1000269,feedback,,null,,na,test,,,,,,,
743,,777819,HierDygnsoggh1,1snfqmhhvp,ms1000269,rl,,65,img/o_d_diag.png,68,test,3,NaN,0,,,,shape;color;pattern
null,,778828,HierDygnsoggh1,1snfqmhhvp,ms1000269,feedback,,null,,na,test,,,,,,,
2039,,780889,HierDygnsoggh1,1snfqmhhvp,ms1000269,rl,,65,img/p_s_check.png,74,test,6,NaN,0,,,,shape;color;pattern
null,,781900,HierDygnsoggh1,1snfqmhhvp,ms1000269,feedback,,null,,na,test,,,,,,,
799,,782716,HierDygnsoggh1,1snfqmhhvp,ms1000269,rl,,65,img/p_d_diag.png,65,test,1,NaN,1,,,,shape;color;pattern
null,,783727,HierDygnsoggh1,1snfqmhhvp,ms1000269,feedback,,null,,na,test,,,,,,,
1028,,784764,HierDygnsoggh1,1snfqmhhvp,ms1000269,rl,,83,img/o_d_check.png,70,test,4,NaN,0,,,,shape;color;pattern
null,,785773,HierDygnsoggh1,1snfqmhhvp,ms1000269,feedback,,null,,na,test,,,,,,,
806,,786587,HierDygnsoggh1,1snfqmhhvp,ms1000269,rl,,83,img/p_s_diag.png,72,test,5,NaN,0,,,,shape;color;pattern
null,,787604,HierDygnsoggh1,1snfqmhhvp,ms1000269,feedback,,null,,na,test,,,,,,,
934,,788555,HierDygnsoggh1,1snfqmhhvp,ms1000269,rl,,68,img/o_s_check.png,76,test,8,NaN,0,,,,shape;color;pattern
null,,789565,HierDygnsoggh1,1snfqmhhvp,ms1000269,feedback,,null,,na,test,,,,,,,
655,,790228,HierDygnsoggh1,1snfqmhhvp,ms1000269,rl,,83,img/p_s_check.png,74,test,6,NaN,0,,,,shape;color;pattern
null,,791237,HierDygnsoggh1,1snfqmhhvp,ms1000269,feedback,,null,,na,test,,,,,,,
2367,,793619,HierDygnsoggh1,1snfqmhhvp,ms1000269,rl,,83,img/o_d_check.png,70,test,4,NaN,0,,,,shape;color;pattern
null,,794636,HierDygnsoggh1,1snfqmhhvp,ms1000269,feedback,,null,,na,test,,,,,,,
433,,795083,HierDygnsoggh1,1snfqmhhvp,ms1000269,rl,,65,img/p_d_check.png,83,test,2,NaN,0,,,,shape;color;pattern
null,,796092,HierDygnsoggh1,1snfqmhhvp,ms1000269,feedback,,null,,na,test,,,,,,,
623,,796724,HierDygnsoggh1,1snfqmhhvp,ms1000269,rl,,83,img/o_s_diag.png,75,test,7,NaN,0,,,,shape;color;pattern
null,,797733,HierDygnsoggh1,1snfqmhhvp,ms1000269,feedback,,null,,na,test,,,,,,,
472,,798219,HierDygnsoggh1,1snfqmhhvp,ms1000269,rl,,83,img/o_s_diag.png,75,test,7,NaN,0,,,,shape;color;pattern
null,,799235,HierDygnsoggh1,1snfqmhhvp,ms1000269,feedback,,null,,na,test,,,,,,,
