"rt","responses","time_elapsed","subject","prolificID","demoID","trialType","question_order","key_press","stim","corrresp","phase","stimNum","trialNum","corr","repeatTrial","motorSwitch","pracCounter","hierarchy"
"7825","{""Q0"":""ms1000406""}","7859","HierDynxfnkstn","7nwru71mqe","ms1000406","","","","","","","","","","","","",""
"1416","","9290","HierDynxfnkstn","7nwru71mqe","ms1000406","","","","","","","","","","","","",""
"","","11933","HierDynxfnkstn","7nwru71mqe","ms1000406","fullscreen","","","","","","","","","","","",""
"18714","{""Vision"":""Yes"",""Handedness"":""Right"",""Gender"":""male""}","30662","HierDynxfnkstn","7nwru71mqe","ms1000406","","[0,1,2]","","","","","","","","","","",""
"4749","{""Q0"":""23""}","35427","HierDynxfnkstn","7nwru71mqe","ms1000406","","","","","","","","","","","","",""
"133765","","169212","HierDynxfnkstn","7nwru71mqe","ms1000406","","","","","","","","","","","","",""
"2746","","171968","HierDynxfnkstn","7nwru71mqe","ms1000406","motor","","76","img/motor_8.png","76","motor","8","1","1","0","0","",""
"null","","172085","HierDynxfnkstn","7nwru71mqe","ms1000406","iti","","null","img/motor_8.png","76","motor","","","","","","",""
"841","","172942","HierDynxfnkstn","7nwru71mqe","ms1000406","motor","","72","img/motor_5.png","72","motor","5","2","1","0","0","",""
"null","","173058","HierDynxfnkstn","7nwru71mqe","ms1000406","iti","","null","img/motor_5.png","72","motor","","","","","","",""
"597","","173664","HierDynxfnkstn","7nwru71mqe","ms1000406","motor","","70","img/motor_4.png","70","motor","4","3","1","0","0","",""
"null","","173778","HierDynxfnkstn","7nwru71mqe","ms1000406","iti","","null","img/motor_4.png","70","motor","","","","","","",""
"1156","","174942","HierDynxfnkstn","7nwru71mqe","ms1000406","motor","","65","img/motor_1.png","65","motor","1","4","1","0","0","",""
"null","","175057","HierDynxfnkstn","7nwru71mqe","ms1000406","iti","","null","img/motor_1.png","65","motor","","","","","","",""
"646","","175712","HierDynxfnkstn","7nwru71mqe","ms1000406","motor","","65","img/motor_1.png","65","motor","1","5","1","0","0","",""
"null","","175827","HierDynxfnkstn","7nwru71mqe","ms1000406","iti","","null","img/motor_1.png","65","motor","","","","","","",""
"548","","176384","HierDynxfnkstn","7nwru71mqe","ms1000406","motor","","76","img/motor_8.png","76","motor","8","6","1","0","0","",""
"null","","176492","HierDynxfnkstn","7nwru71mqe","ms1000406","iti","","null","img/motor_8.png","76","motor","","","","","","",""
"811","","177317","HierDynxfnkstn","7nwru71mqe","ms1000406","motor","","68","img/motor_3.png","68","motor","3","7","1","0","0","",""
"null","","177427","HierDynxfnkstn","7nwru71mqe","ms1000406","iti","","null","img/motor_3.png","68","motor","","","","","","",""
"820","","178262","HierDynxfnkstn","7nwru71mqe","ms1000406","motor","","72","img/motor_5.png","72","motor","5","8","1","0","0","",""
"null","","178372","HierDynxfnkstn","7nwru71mqe","ms1000406","iti","","null","img/motor_5.png","72","motor","","","","","","",""
"572","","178951","HierDynxfnkstn","7nwru71mqe","ms1000406","motor","","74","img/motor_6.png","74","motor","6","9","1","0","0","",""
"null","","179066","HierDynxfnkstn","7nwru71mqe","ms1000406","iti","","null","img/motor_6.png","74","motor","","","","","","",""
"1038","","180119","HierDynxfnkstn","7nwru71mqe","ms1000406","motor","","83","img/motor_2.png","83","motor","2","10","1","0","0","",""
"null","","180227","HierDynxfnkstn","7nwru71mqe","ms1000406","iti","","null","img/motor_2.png","83","motor","","","","","","",""
"548","","180784","HierDynxfnkstn","7nwru71mqe","ms1000406","motor","","76","img/motor_8.png","76","motor","8","11","1","0","0","",""
"null","","180898","HierDynxfnkstn","7nwru71mqe","ms1000406","iti","","null","img/motor_8.png","76","motor","","","","","","",""
"501","","181408","HierDynxfnkstn","7nwru71mqe","ms1000406","motor","","65","img/motor_1.png","65","motor","1","12","1","0","0","",""
"null","","181523","HierDynxfnkstn","7nwru71mqe","ms1000406","iti","","null","img/motor_1.png","65","motor","","","","","","",""
"589","","182126","HierDynxfnkstn","7nwru71mqe","ms1000406","motor","","83","img/motor_2.png","83","motor","2","13","1","0","0","",""
"null","","182241","HierDynxfnkstn","7nwru71mqe","ms1000406","iti","","null","img/motor_2.png","83","motor","","","","","","",""
"494","","182744","HierDynxfnkstn","7nwru71mqe","ms1000406","motor","","83","img/motor_2.png","83","motor","2","14","1","0","0","",""
"null","","182858","HierDynxfnkstn","7nwru71mqe","ms1000406","iti","","null","img/motor_2.png","83","motor","","","","","","",""
"621","","183494","HierDynxfnkstn","7nwru71mqe","ms1000406","motor","","68","img/motor_3.png","68","motor","3","15","1","0","0","",""
"null","","183609","HierDynxfnkstn","7nwru71mqe","ms1000406","iti","","null","img/motor_3.png","68","motor","","","","","","",""
"518","","184135","HierDynxfnkstn","7nwru71mqe","ms1000406","motor","","76","img/motor_8.png","76","motor","8","16","1","0","0","",""
"null","","184250","HierDynxfnkstn","7nwru71mqe","ms1000406","iti","","null","img/motor_8.png","76","motor","","","","","","",""
"533","","184798","HierDynxfnkstn","7nwru71mqe","ms1000406","motor","","72","img/motor_5.png","72","motor","5","17","1","0","0","",""
"null","","184913","HierDynxfnkstn","7nwru71mqe","ms1000406","iti","","null","img/motor_5.png","72","motor","","","","","","",""
"822","","185749","HierDynxfnkstn","7nwru71mqe","ms1000406","motor","","70","img/motor_4.png","70","motor","4","18","1","0","0","",""
"null","","185865","HierDynxfnkstn","7nwru71mqe","ms1000406","iti","","null","img/motor_4.png","70","motor","","","","","","",""
"646","","186520","HierDynxfnkstn","7nwru71mqe","ms1000406","motor","","72","img/motor_5.png","72","motor","5","19","1","0","0","",""
"null","","186634","HierDynxfnkstn","7nwru71mqe","ms1000406","iti","","null","img/motor_5.png","72","motor","","","","","","",""
"805","","187446","HierDynxfnkstn","7nwru71mqe","ms1000406","motor","","75","img/motor_7.png","75","motor","7","20","1","0","0","",""
"null","","187554","HierDynxfnkstn","7nwru71mqe","ms1000406","iti","","null","img/motor_7.png","75","motor","","","","","","",""
"1253","","188822","HierDynxfnkstn","7nwru71mqe","ms1000406","motor","","68","img/motor_3.png","68","motor","3","21","1","0","0","",""
"null","","188931","HierDynxfnkstn","7nwru71mqe","ms1000406","iti","","null","img/motor_3.png","68","motor","","","","","","",""
"573","","189511","HierDynxfnkstn","7nwru71mqe","ms1000406","motor","","65","img/motor_1.png","65","motor","1","22","1","0","0","",""
"null","","189619","HierDynxfnkstn","7nwru71mqe","ms1000406","iti","","null","img/motor_1.png","65","motor","","","","","","",""
"972","","190605","HierDynxfnkstn","7nwru71mqe","ms1000406","motor","","68","img/motor_3.png","68","motor","3","23","1","0","0","",""
"null","","190721","HierDynxfnkstn","7nwru71mqe","ms1000406","iti","","null","img/motor_3.png","68","motor","","","","","","",""
"542","","191272","HierDynxfnkstn","7nwru71mqe","ms1000406","motor","","76","img/motor_8.png","76","motor","8","24","1","0","0","",""
"null","","191380","HierDynxfnkstn","7nwru71mqe","ms1000406","iti","","null","img/motor_8.png","76","motor","","","","","","",""
"635","","192030","HierDynxfnkstn","7nwru71mqe","ms1000406","motor","","75","img/motor_7.png","75","motor","7","25","1","0","0","",""
"null","","192139","HierDynxfnkstn","7nwru71mqe","ms1000406","iti","","null","img/motor_7.png","75","motor","","","","","","",""
"749","","192896","HierDynxfnkstn","7nwru71mqe","ms1000406","motor","","70","img/motor_4.png","70","motor","4","26","1","0","0","",""
"null","","193010","HierDynxfnkstn","7nwru71mqe","ms1000406","iti","","null","img/motor_4.png","70","motor","","","","","","",""
"597","","193622","HierDynxfnkstn","7nwru71mqe","ms1000406","motor","","83","img/motor_2.png","83","motor","2","27","1","0","0","",""
"null","","193737","HierDynxfnkstn","7nwru71mqe","ms1000406","iti","","null","img/motor_2.png","83","motor","","","","","","",""
"486","","194232","HierDynxfnkstn","7nwru71mqe","ms1000406","motor","","75","img/motor_6.png","74","motor","6","28","0","1","0","",""
"448","","194688","HierDynxfnkstn","7nwru71mqe","ms1000406","motorRepeat","","74","img/motor_6.png","74","motor","6","28","1","0","0","",""
"null","","194802","HierDynxfnkstn","7nwru71mqe","ms1000406","iti","","null","img/motor_6.png","74","motor","","","","","","",""
"598","","195415","HierDynxfnkstn","7nwru71mqe","ms1000406","motor","","65","img/motor_1.png","65","motor","1","29","1","0","0","",""
"null","","195530","HierDynxfnkstn","7nwru71mqe","ms1000406","iti","","null","img/motor_1.png","65","motor","","","","","","",""
"566","","196104","HierDynxfnkstn","7nwru71mqe","ms1000406","motor","","83","img/motor_2.png","83","motor","2","30","1","0","0","",""
"null","","196218","HierDynxfnkstn","7nwru71mqe","ms1000406","iti","","null","img/motor_2.png","83","motor","","","","","","",""
"477","","196710","HierDynxfnkstn","7nwru71mqe","ms1000406","motor","","65","img/motor_1.png","65","motor","1","31","1","0","0","",""
"null","","196825","HierDynxfnkstn","7nwru71mqe","ms1000406","iti","","null","img/motor_1.png","65","motor","","","","","","",""
"693","","197539","HierDynxfnkstn","7nwru71mqe","ms1000406","motor","","74","img/motor_6.png","74","motor","6","32","1","0","0","",""
"null","","197655","HierDynxfnkstn","7nwru71mqe","ms1000406","iti","","null","img/motor_6.png","74","motor","","","","","","",""
"1214","","198886","HierDynxfnkstn","7nwru71mqe","ms1000406","motor","","74","img/motor_6.png","74","motor","6","33","1","0","0","",""
"null","","199002","HierDynxfnkstn","7nwru71mqe","ms1000406","iti","","null","img/motor_6.png","74","motor","","","","","","",""
"661","","199672","HierDynxfnkstn","7nwru71mqe","ms1000406","motor","","75","img/motor_7.png","75","motor","7","34","1","0","0","",""
"null","","199781","HierDynxfnkstn","7nwru71mqe","ms1000406","iti","","null","img/motor_7.png","75","motor","","","","","","",""
"859","","200648","HierDynxfnkstn","7nwru71mqe","ms1000406","motor","","72","img/motor_3.png","68","motor","3","35","0","1","0","",""
"449","","201103","HierDynxfnkstn","7nwru71mqe","ms1000406","motorRepeat","","70","img/motor_3.png","68","motor","3","35","0","1","0","",""
"2392","","203511","HierDynxfnkstn","7nwru71mqe","ms1000406","motorRepeat","","68","img/motor_3.png","68","motor","3","35","1","0","0","",""
"null","","203626","HierDynxfnkstn","7nwru71mqe","ms1000406","iti","","null","img/motor_3.png","68","motor","","","","","","",""
"932","","204568","HierDynxfnkstn","7nwru71mqe","ms1000406","motor","","70","img/motor_4.png","70","motor","4","36","1","0","0","",""
"null","","204682","HierDynxfnkstn","7nwru71mqe","ms1000406","iti","","null","img/motor_4.png","70","motor","","","","","","",""
"565","","205255","HierDynxfnkstn","7nwru71mqe","ms1000406","motor","","76","img/motor_8.png","76","motor","8","37","1","0","0","",""
"null","","205371","HierDynxfnkstn","7nwru71mqe","ms1000406","iti","","null","img/motor_8.png","76","motor","","","","","","",""
"789","","206174","HierDynxfnkstn","7nwru71mqe","ms1000406","motor","","70","img/motor_4.png","70","motor","4","38","1","0","0","",""
"null","","206289","HierDynxfnkstn","7nwru71mqe","ms1000406","iti","","null","img/motor_4.png","70","motor","","","","","","",""
"453","","206752","HierDynxfnkstn","7nwru71mqe","ms1000406","motor","","72","img/motor_5.png","72","motor","5","39","1","0","0","",""
"null","","206866","HierDynxfnkstn","7nwru71mqe","ms1000406","iti","","null","img/motor_5.png","72","motor","","","","","","",""
"597","","207478","HierDynxfnkstn","7nwru71mqe","ms1000406","motor","","75","img/motor_7.png","75","motor","7","40","1","0","0","",""
"null","","207587","HierDynxfnkstn","7nwru71mqe","ms1000406","iti","","null","img/motor_7.png","75","motor","","","","","","",""
"957","","208552","HierDynxfnkstn","7nwru71mqe","ms1000406","motor","","72","img/motor_5.png","72","motor","5","41","1","0","0","",""
"null","","208666","HierDynxfnkstn","7nwru71mqe","ms1000406","iti","","null","img/motor_5.png","72","motor","","","","","","",""
"588","","209264","HierDynxfnkstn","7nwru71mqe","ms1000406","motor","","75","img/motor_7.png","75","motor","7","42","1","0","0","",""
"null","","209378","HierDynxfnkstn","7nwru71mqe","ms1000406","iti","","null","img/motor_7.png","75","motor","","","","","","",""
"1069","","210456","HierDynxfnkstn","7nwru71mqe","ms1000406","motor","","83","img/motor_2.png","83","motor","2","43","1","0","0","",""
"null","","210570","HierDynxfnkstn","7nwru71mqe","ms1000406","iti","","null","img/motor_2.png","83","motor","","","","","","",""
"502","","211086","HierDynxfnkstn","7nwru71mqe","ms1000406","motor","","76","img/motor_8.png","76","motor","8","44","1","0","0","",""
"null","","211195","HierDynxfnkstn","7nwru71mqe","ms1000406","iti","","null","img/motor_8.png","76","motor","","","","","","",""
"757","","211960","HierDynxfnkstn","7nwru71mqe","ms1000406","motor","","70","img/motor_4.png","70","motor","4","45","1","0","0","",""
"null","","212075","HierDynxfnkstn","7nwru71mqe","ms1000406","iti","","null","img/motor_4.png","70","motor","","","","","","",""
"1220","","213311","HierDynxfnkstn","7nwru71mqe","ms1000406","motor","","68","img/motor_3.png","68","motor","3","46","1","0","0","",""
"null","","213426","HierDynxfnkstn","7nwru71mqe","ms1000406","iti","","null","img/motor_3.png","68","motor","","","","","","",""
"1022","","214457","HierDynxfnkstn","7nwru71mqe","ms1000406","motor","","74","img/motor_6.png","74","motor","6","47","1","0","0","",""
"null","","214565","HierDynxfnkstn","7nwru71mqe","ms1000406","iti","","null","img/motor_6.png","74","motor","","","","","","",""
"515","","215094","HierDynxfnkstn","7nwru71mqe","ms1000406","motor","","72","img/motor_5.png","72","motor","5","48","1","0","0","",""
"null","","215209","HierDynxfnkstn","7nwru71mqe","ms1000406","iti","","null","img/motor_5.png","72","motor","","","","","","",""
"647","","215870","HierDynxfnkstn","7nwru71mqe","ms1000406","motor","","68","img/motor_3.png","68","motor","3","49","1","0","0","",""
"null","","215985","HierDynxfnkstn","7nwru71mqe","ms1000406","iti","","null","img/motor_3.png","68","motor","","","","","","",""
"693","","216688","HierDynxfnkstn","7nwru71mqe","ms1000406","motor","","75","img/motor_8.png","76","motor","8","50","0","1","0","",""
"256","","216952","HierDynxfnkstn","7nwru71mqe","ms1000406","motorRepeat","","76","img/motor_8.png","76","motor","8","50","1","0","0","",""
"null","","217060","HierDynxfnkstn","7nwru71mqe","ms1000406","iti","","null","img/motor_8.png","76","motor","","","","","","",""
"629","","217702","HierDynxfnkstn","7nwru71mqe","ms1000406","motor","","65","img/motor_2.png","83","motor","2","51","0","1","0","",""
"497","","218208","HierDynxfnkstn","7nwru71mqe","ms1000406","motorRepeat","","83","img/motor_2.png","83","motor","2","51","1","0","0","",""
"null","","218323","HierDynxfnkstn","7nwru71mqe","ms1000406","iti","","null","img/motor_2.png","83","motor","","","","","","",""
"652","","218983","HierDynxfnkstn","7nwru71mqe","ms1000406","motor","","75","img/motor_7.png","75","motor","7","52","1","0","0","",""
"null","","219097","HierDynxfnkstn","7nwru71mqe","ms1000406","iti","","null","img/motor_7.png","75","motor","","","","","","",""
"902","","220007","HierDynxfnkstn","7nwru71mqe","ms1000406","motor","","68","img/motor_3.png","68","motor","3","53","1","0","0","",""
"null","","220122","HierDynxfnkstn","7nwru71mqe","ms1000406","iti","","null","img/motor_3.png","68","motor","","","","","","",""
"470","","220598","HierDynxfnkstn","7nwru71mqe","ms1000406","motor","","68","img/motor_3.png","68","motor","3","54","1","0","0","",""
"null","","220713","HierDynxfnkstn","7nwru71mqe","ms1000406","iti","","null","img/motor_3.png","68","motor","","","","","","",""
"559","","221279","HierDynxfnkstn","7nwru71mqe","ms1000406","motor","","83","img/motor_2.png","83","motor","2","55","1","0","0","",""
"null","","221394","HierDynxfnkstn","7nwru71mqe","ms1000406","iti","","null","img/motor_2.png","83","motor","","","","","","",""
"422","","221824","HierDynxfnkstn","7nwru71mqe","ms1000406","motor","","76","img/motor_8.png","76","motor","8","56","1","0","0","",""
"null","","221932","HierDynxfnkstn","7nwru71mqe","ms1000406","iti","","null","img/motor_8.png","76","motor","","","","","","",""
"629","","222568","HierDynxfnkstn","7nwru71mqe","ms1000406","motor","","83","img/motor_2.png","83","motor","2","57","1","0","0","",""
"null","","222683","HierDynxfnkstn","7nwru71mqe","ms1000406","iti","","null","img/motor_2.png","83","motor","","","","","","",""
"516","","223214","HierDynxfnkstn","7nwru71mqe","ms1000406","motor","","68","img/motor_3.png","68","motor","3","58","1","0","0","",""
"null","","223330","HierDynxfnkstn","7nwru71mqe","ms1000406","iti","","null","img/motor_3.png","68","motor","","","","","","",""
"397","","223743","HierDynxfnkstn","7nwru71mqe","ms1000406","motor","","65","img/motor_1.png","65","motor","1","59","1","0","0","",""
"null","","223851","HierDynxfnkstn","7nwru71mqe","ms1000406","iti","","null","img/motor_1.png","65","motor","","","","","","",""
"477","","224336","HierDynxfnkstn","7nwru71mqe","ms1000406","motor","","70","img/motor_4.png","70","motor","4","60","1","0","0","",""
"null","","224451","HierDynxfnkstn","7nwru71mqe","ms1000406","iti","","null","img/motor_4.png","70","motor","","","","","","",""
"565","","225024","HierDynxfnkstn","7nwru71mqe","ms1000406","motor","","83","img/motor_2.png","83","motor","2","61","1","0","0","",""
"null","","225139","HierDynxfnkstn","7nwru71mqe","ms1000406","iti","","null","img/motor_2.png","83","motor","","","","","","",""
"540","","225688","HierDynxfnkstn","7nwru71mqe","ms1000406","motor","","75","img/motor_7.png","75","motor","7","62","1","0","0","",""
"null","","225796","HierDynxfnkstn","7nwru71mqe","ms1000406","iti","","null","img/motor_7.png","75","motor","","","","","","",""
"675","","226480","HierDynxfnkstn","7nwru71mqe","ms1000406","motor","","70","img/motor_4.png","70","motor","4","63","1","0","0","",""
"null","","226595","HierDynxfnkstn","7nwru71mqe","ms1000406","iti","","null","img/motor_4.png","70","motor","","","","","","",""
"885","","227488","HierDynxfnkstn","7nwru71mqe","ms1000406","motor","","68","img/motor_3.png","68","motor","3","64","1","0","0","",""
"null","","227602","HierDynxfnkstn","7nwru71mqe","ms1000406","iti","","null","img/motor_3.png","68","motor","","","","","","",""
"469","","228086","HierDynxfnkstn","7nwru71mqe","ms1000406","motor","","75","img/motor_7.png","75","motor","7","65","1","0","0","",""
"null","","228202","HierDynxfnkstn","7nwru71mqe","ms1000406","iti","","null","img/motor_7.png","75","motor","","","","","","",""
"550","","228760","HierDynxfnkstn","7nwru71mqe","ms1000406","motor","","68","img/motor_3.png","68","motor","3","66","1","0","0","",""
"null","","228874","HierDynxfnkstn","7nwru71mqe","ms1000406","iti","","null","img/motor_3.png","68","motor","","","","","","",""
"637","","229526","HierDynxfnkstn","7nwru71mqe","ms1000406","motor","","72","img/motor_5.png","72","motor","5","67","1","0","0","",""
"null","","229641","HierDynxfnkstn","7nwru71mqe","ms1000406","iti","","null","img/motor_5.png","72","motor","","","","","","",""
"990","","230640","HierDynxfnkstn","7nwru71mqe","ms1000406","motor","","68","img/motor_3.png","68","motor","3","68","1","0","0","",""
"null","","230754","HierDynxfnkstn","7nwru71mqe","ms1000406","iti","","null","img/motor_3.png","68","motor","","","","","","",""
"469","","231231","HierDynxfnkstn","7nwru71mqe","ms1000406","motor","","68","img/motor_3.png","68","motor","3","69","1","0","0","",""
"null","","231346","HierDynxfnkstn","7nwru71mqe","ms1000406","iti","","null","img/motor_3.png","68","motor","","","","","","",""
"623","","231977","HierDynxfnkstn","7nwru71mqe","ms1000406","motor","","83","img/motor_2.png","83","motor","2","70","1","0","0","",""
"null","","232090","HierDynxfnkstn","7nwru71mqe","ms1000406","iti","","null","img/motor_2.png","83","motor","","","","","","",""
"572","","232672","HierDynxfnkstn","7nwru71mqe","ms1000406","motor","","72","img/motor_5.png","72","motor","5","71","1","0","0","",""
"null","","232781","HierDynxfnkstn","7nwru71mqe","ms1000406","iti","","null","img/motor_5.png","72","motor","","","","","","",""
"692","","233486","HierDynxfnkstn","7nwru71mqe","ms1000406","motor","","65","img/motor_1.png","65","motor","1","72","1","0","0","",""
"null","","233601","HierDynxfnkstn","7nwru71mqe","ms1000406","iti","","null","img/motor_1.png","65","motor","","","","","","",""
"446","","234056","HierDynxfnkstn","7nwru71mqe","ms1000406","motor","","76","img/motor_8.png","76","motor","8","73","1","0","0","",""
"null","","234170","HierDynxfnkstn","7nwru71mqe","ms1000406","iti","","null","img/motor_8.png","76","motor","","","","","","",""
"628","","234808","HierDynxfnkstn","7nwru71mqe","ms1000406","motor","","65","img/motor_1.png","65","motor","1","74","1","0","0","",""
"null","","234923","HierDynxfnkstn","7nwru71mqe","ms1000406","iti","","null","img/motor_1.png","65","motor","","","","","","",""
"422","","235359","HierDynxfnkstn","7nwru71mqe","ms1000406","motor","","76","img/motor_8.png","76","motor","8","75","1","0","0","",""
"null","","235468","HierDynxfnkstn","7nwru71mqe","ms1000406","iti","","null","img/motor_8.png","76","motor","","","","","","",""
"653","","236134","HierDynxfnkstn","7nwru71mqe","ms1000406","motor","","83","img/motor_2.png","83","motor","2","76","1","0","0","",""
"null","","236250","HierDynxfnkstn","7nwru71mqe","ms1000406","iti","","null","img/motor_2.png","83","motor","","","","","","",""
"549","","236814","HierDynxfnkstn","7nwru71mqe","ms1000406","motor","","65","img/motor_1.png","65","motor","1","77","1","0","0","",""
"null","","236930","HierDynxfnkstn","7nwru71mqe","ms1000406","iti","","null","img/motor_1.png","65","motor","","","","","","",""
"484","","237423","HierDynxfnkstn","7nwru71mqe","ms1000406","motor","","83","img/motor_2.png","83","motor","2","78","1","0","0","",""
"null","","237532","HierDynxfnkstn","7nwru71mqe","ms1000406","iti","","null","img/motor_2.png","83","motor","","","","","","",""
"421","","237966","HierDynxfnkstn","7nwru71mqe","ms1000406","motor","","65","img/motor_1.png","65","motor","1","79","1","0","0","",""
"null","","238075","HierDynxfnkstn","7nwru71mqe","ms1000406","iti","","null","img/motor_1.png","65","motor","","","","","","",""
"532","","238623","HierDynxfnkstn","7nwru71mqe","ms1000406","motor","","75","img/motor_7.png","75","motor","7","80","1","0","0","",""
"null","","238738","HierDynxfnkstn","7nwru71mqe","ms1000406","iti","","null","img/motor_7.png","75","motor","","","","","","",""
"927","","239672","HierDynxfnkstn","7nwru71mqe","ms1000406","motor","","74","img/motor_6.png","74","motor","6","81","1","0","0","",""
"null","","239787","HierDynxfnkstn","7nwru71mqe","ms1000406","iti","","null","img/motor_6.png","74","motor","","","","","","",""
"693","","240487","HierDynxfnkstn","7nwru71mqe","ms1000406","motor","","83","img/motor_2.png","83","motor","2","82","1","0","0","",""
"null","","240596","HierDynxfnkstn","7nwru71mqe","ms1000406","iti","","null","img/motor_2.png","83","motor","","","","","","",""
"853","","241456","HierDynxfnkstn","7nwru71mqe","ms1000406","motor","","70","img/motor_4.png","70","motor","4","83","1","0","0","",""
"null","","241564","HierDynxfnkstn","7nwru71mqe","ms1000406","iti","","null","img/motor_4.png","70","motor","","","","","","",""
"644","","242216","HierDynxfnkstn","7nwru71mqe","ms1000406","motor","","76","img/motor_8.png","76","motor","8","84","1","0","0","",""
"null","","242331","HierDynxfnkstn","7nwru71mqe","ms1000406","iti","","null","img/motor_8.png","76","motor","","","","","","",""
"861","","243200","HierDynxfnkstn","7nwru71mqe","ms1000406","motor","","83","img/motor_2.png","83","motor","2","85","1","0","0","",""
"null","","243307","HierDynxfnkstn","7nwru71mqe","ms1000406","iti","","null","img/motor_2.png","83","motor","","","","","","",""
"1348","","244671","HierDynxfnkstn","7nwru71mqe","ms1000406","motor","","70","img/motor_4.png","70","motor","4","86","1","0","0","",""
"null","","244786","HierDynxfnkstn","7nwru71mqe","ms1000406","iti","","null","img/motor_4.png","70","motor","","","","","","",""
"718","","245510","HierDynxfnkstn","7nwru71mqe","ms1000406","motor","","75","img/motor_7.png","75","motor","7","87","1","0","0","",""
"null","","245624","HierDynxfnkstn","7nwru71mqe","ms1000406","iti","","null","img/motor_7.png","75","motor","","","","","","",""
"416","","246054","HierDynxfnkstn","7nwru71mqe","ms1000406","motor","","76","img/motor_8.png","76","motor","8","88","1","0","0","",""
"null","","246163","HierDynxfnkstn","7nwru71mqe","ms1000406","iti","","null","img/motor_8.png","76","motor","","","","","","",""
"620","","246792","HierDynxfnkstn","7nwru71mqe","ms1000406","motor","","72","img/motor_5.png","72","motor","5","89","1","0","0","",""
"null","","246900","HierDynxfnkstn","7nwru71mqe","ms1000406","iti","","null","img/motor_5.png","72","motor","","","","","","",""
"716","","247631","HierDynxfnkstn","7nwru71mqe","ms1000406","motor","","83","img/motor_2.png","83","motor","2","90","1","0","0","",""
"null","","247746","HierDynxfnkstn","7nwru71mqe","ms1000406","iti","","null","img/motor_2.png","83","motor","","","","","","",""
"1006","","248766","HierDynxfnkstn","7nwru71mqe","ms1000406","motor","","72","img/motor_5.png","72","motor","5","91","1","0","0","",""
"null","","248875","HierDynxfnkstn","7nwru71mqe","ms1000406","iti","","null","img/motor_5.png","72","motor","","","","","","",""
"644","","249527","HierDynxfnkstn","7nwru71mqe","ms1000406","motor","","65","img/motor_1.png","65","motor","1","92","1","0","0","",""
"null","","249636","HierDynxfnkstn","7nwru71mqe","ms1000406","iti","","null","img/motor_1.png","65","motor","","","","","","",""
"621","","250264","HierDynxfnkstn","7nwru71mqe","ms1000406","motor","","83","img/motor_2.png","83","motor","2","93","1","0","0","",""
"null","","250379","HierDynxfnkstn","7nwru71mqe","ms1000406","iti","","null","img/motor_2.png","83","motor","","","","","","",""
"1340","","251734","HierDynxfnkstn","7nwru71mqe","ms1000406","motor","","74","img/motor_6.png","74","motor","6","94","1","0","0","",""
"null","","251843","HierDynxfnkstn","7nwru71mqe","ms1000406","iti","","null","img/motor_6.png","74","motor","","","","","","",""
"444","","252296","HierDynxfnkstn","7nwru71mqe","ms1000406","motor","","75","img/motor_7.png","75","motor","7","95","1","0","0","",""
"null","","252411","HierDynxfnkstn","7nwru71mqe","ms1000406","iti","","null","img/motor_7.png","75","motor","","","","","","",""
"772","","253191","HierDynxfnkstn","7nwru71mqe","ms1000406","motor","","74","img/motor_6.png","74","motor","6","96","1","0","0","",""
"null","","253306","HierDynxfnkstn","7nwru71mqe","ms1000406","iti","","null","img/motor_6.png","74","motor","","","","","","",""
"541","","253856","HierDynxfnkstn","7nwru71mqe","ms1000406","motor","","76","img/motor_8.png","76","motor","8","97","1","0","0","",""
"null","","253965","HierDynxfnkstn","7nwru71mqe","ms1000406","iti","","null","img/motor_8.png","76","motor","","","","","","",""
"636","","254615","HierDynxfnkstn","7nwru71mqe","ms1000406","motor","","75","img/motor_7.png","75","motor","7","98","1","0","0","",""
"null","","254723","HierDynxfnkstn","7nwru71mqe","ms1000406","iti","","null","img/motor_7.png","75","motor","","","","","","",""
"917","","255654","HierDynxfnkstn","7nwru71mqe","ms1000406","motor","","83","img/motor_2.png","83","motor","2","99","1","0","0","",""
"null","","255765","HierDynxfnkstn","7nwru71mqe","ms1000406","iti","","null","img/motor_2.png","83","motor","","","","","","",""
"1388","","257161","HierDynxfnkstn","7nwru71mqe","ms1000406","motor","","68","img/motor_4.png","70","motor","4","100","0","1","0","",""
"496","","257671","HierDynxfnkstn","7nwru71mqe","ms1000406","motorRepeat","","70","img/motor_4.png","70","motor","4","100","1","0","0","",""
"null","","257786","HierDynxfnkstn","7nwru71mqe","ms1000406","iti","","null","img/motor_4.png","70","motor","","","","","","",""
"767","","258567","HierDynxfnkstn","7nwru71mqe","ms1000406","motor","","75","img/motor_7.png","75","motor","7","101","1","0","0","",""
"null","","258676","HierDynxfnkstn","7nwru71mqe","ms1000406","iti","","null","img/motor_7.png","75","motor","","","","","","",""
"1188","","259873","HierDynxfnkstn","7nwru71mqe","ms1000406","motor","","83","img/motor_2.png","83","motor","2","102","1","0","0","",""
"null","","259987","HierDynxfnkstn","7nwru71mqe","ms1000406","iti","","null","img/motor_2.png","83","motor","","","","","","",""
"852","","260847","HierDynxfnkstn","7nwru71mqe","ms1000406","motor","","72","img/motor_5.png","72","motor","5","103","1","0","0","",""
"null","","260956","HierDynxfnkstn","7nwru71mqe","ms1000406","iti","","null","img/motor_5.png","72","motor","","","","","","",""
"676","","261643","HierDynxfnkstn","7nwru71mqe","ms1000406","motor","","72","img/motor_5.png","72","motor","5","104","1","0","0","",""
"null","","261757","HierDynxfnkstn","7nwru71mqe","ms1000406","iti","","null","img/motor_5.png","72","motor","","","","","","",""
"751","","262520","HierDynxfnkstn","7nwru71mqe","ms1000406","motor","","74","img/motor_6.png","74","motor","6","105","1","0","0","",""
"null","","262635","HierDynxfnkstn","7nwru71mqe","ms1000406","iti","","null","img/motor_6.png","74","motor","","","","","","",""
"675","","263321","HierDynxfnkstn","7nwru71mqe","ms1000406","motor","","70","img/motor_4.png","70","motor","4","106","1","0","0","",""
"null","","263437","HierDynxfnkstn","7nwru71mqe","ms1000406","iti","","null","img/motor_4.png","70","motor","","","","","","",""
"667","","264112","HierDynxfnkstn","7nwru71mqe","ms1000406","motor","","72","img/motor_5.png","72","motor","5","107","1","0","0","",""
"null","","264220","HierDynxfnkstn","7nwru71mqe","ms1000406","iti","","null","img/motor_5.png","72","motor","","","","","","",""
"788","","265016","HierDynxfnkstn","7nwru71mqe","ms1000406","motor","","83","img/motor_2.png","83","motor","2","108","1","0","0","",""
"null","","265130","HierDynxfnkstn","7nwru71mqe","ms1000406","iti","","null","img/motor_2.png","83","motor","","","","","","",""
"485","","265625","HierDynxfnkstn","7nwru71mqe","ms1000406","motor","","65","img/motor_1.png","65","motor","1","109","1","0","0","",""
"null","","265740","HierDynxfnkstn","7nwru71mqe","ms1000406","iti","","null","img/motor_1.png","65","motor","","","","","","",""
"1043","","266792","HierDynxfnkstn","7nwru71mqe","ms1000406","motor","","72","img/motor_6.png","74","motor","6","110","0","1","0","",""
"415","","267216","HierDynxfnkstn","7nwru71mqe","ms1000406","motorRepeat","","74","img/motor_6.png","74","motor","6","110","1","0","0","",""
"null","","267324","HierDynxfnkstn","7nwru71mqe","ms1000406","iti","","null","img/motor_6.png","74","motor","","","","","","",""
"564","","267896","HierDynxfnkstn","7nwru71mqe","ms1000406","motor","","75","img/motor_7.png","75","motor","7","111","1","0","0","",""
"null","","268003","HierDynxfnkstn","7nwru71mqe","ms1000406","iti","","null","img/motor_7.png","75","motor","","","","","","",""
"1157","","269169","HierDynxfnkstn","7nwru71mqe","ms1000406","motor","","65","img/motor_1.png","65","motor","1","112","1","0","0","",""
"null","","269277","HierDynxfnkstn","7nwru71mqe","ms1000406","iti","","null","img/motor_1.png","65","motor","","","","","","",""
"507","","269799","HierDynxfnkstn","7nwru71mqe","ms1000406","motor","","76","img/motor_8.png","76","motor","8","113","1","0","0","",""
"null","","269908","HierDynxfnkstn","7nwru71mqe","ms1000406","iti","","null","img/motor_8.png","76","motor","","","","","","",""
"1075","","270998","HierDynxfnkstn","7nwru71mqe","ms1000406","motor","","68","img/motor_3.png","68","motor","3","114","1","0","0","",""
"null","","271114","HierDynxfnkstn","7nwru71mqe","ms1000406","iti","","null","img/motor_3.png","68","motor","","","","","","",""
"567","","271694","HierDynxfnkstn","7nwru71mqe","ms1000406","motor","","75","img/motor_7.png","75","motor","7","115","1","0","0","",""
"null","","271810","HierDynxfnkstn","7nwru71mqe","ms1000406","iti","","null","img/motor_7.png","75","motor","","","","","","",""
"661","","272487","HierDynxfnkstn","7nwru71mqe","ms1000406","motor","","74","img/motor_6.png","74","motor","6","116","1","0","0","",""
"null","","272602","HierDynxfnkstn","7nwru71mqe","ms1000406","iti","","null","img/motor_6.png","74","motor","","","","","","",""
"742","","273353","HierDynxfnkstn","7nwru71mqe","ms1000406","motor","","72","img/motor_5.png","72","motor","5","117","1","0","0","",""
"null","","273467","HierDynxfnkstn","7nwru71mqe","ms1000406","iti","","null","img/motor_5.png","72","motor","","","","","","",""
"644","","274121","HierDynxfnkstn","7nwru71mqe","ms1000406","motor","","76","img/motor_8.png","76","motor","8","118","1","0","0","",""
"null","","274235","HierDynxfnkstn","7nwru71mqe","ms1000406","iti","","null","img/motor_8.png","76","motor","","","","","","",""
"933","","275175","HierDynxfnkstn","7nwru71mqe","ms1000406","motor","","70","img/motor_4.png","70","motor","4","119","1","0","0","",""
"null","","275284","HierDynxfnkstn","7nwru71mqe","ms1000406","iti","","null","img/motor_4.png","70","motor","","","","","","",""
"988","","276279","HierDynxfnkstn","7nwru71mqe","ms1000406","motor","","74","img/motor_6.png","74","motor","6","120","1","0","0","",""
"null","","276387","HierDynxfnkstn","7nwru71mqe","ms1000406","iti","","null","img/motor_6.png","74","motor","","","","","","",""
"749","","277144","HierDynxfnkstn","7nwru71mqe","ms1000406","motor","","72","img/motor_5.png","72","motor","5","121","1","0","0","",""
"null","","277252","HierDynxfnkstn","7nwru71mqe","ms1000406","iti","","null","img/motor_5.png","72","motor","","","","","","",""
"1164","","278424","HierDynxfnkstn","7nwru71mqe","ms1000406","motor","","68","img/motor_3.png","68","motor","3","122","1","0","0","",""
"null","","278539","HierDynxfnkstn","7nwru71mqe","ms1000406","iti","","null","img/motor_3.png","68","motor","","","","","","",""
"1004","","279558","HierDynxfnkstn","7nwru71mqe","ms1000406","motor","","74","img/motor_6.png","74","motor","6","123","1","0","0","",""
"null","","279674","HierDynxfnkstn","7nwru71mqe","ms1000406","iti","","null","img/motor_6.png","74","motor","","","","","","",""
"884","","280568","HierDynxfnkstn","7nwru71mqe","ms1000406","motor","","65","img/motor_1.png","65","motor","1","124","1","0","0","",""
"null","","280682","HierDynxfnkstn","7nwru71mqe","ms1000406","iti","","null","img/motor_1.png","65","motor","","","","","","",""
"862","","281552","HierDynxfnkstn","7nwru71mqe","ms1000406","motor","","72","img/motor_5.png","72","motor","5","125","1","0","0","",""
"null","","281661","HierDynxfnkstn","7nwru71mqe","ms1000406","iti","","null","img/motor_5.png","72","motor","","","","","","",""
"578","","282249","HierDynxfnkstn","7nwru71mqe","ms1000406","motor","","74","img/motor_6.png","74","motor","6","126","1","0","0","",""
"null","","282356","HierDynxfnkstn","7nwru71mqe","ms1000406","iti","","null","img/motor_6.png","74","motor","","","","","","",""
"579","","282944","HierDynxfnkstn","7nwru71mqe","ms1000406","motor","","83","img/motor_2.png","83","motor","2","127","1","0","0","",""
"null","","283052","HierDynxfnkstn","7nwru71mqe","ms1000406","iti","","null","img/motor_2.png","83","motor","","","","","","",""
"1051","","284113","HierDynxfnkstn","7nwru71mqe","ms1000406","motor","","70","img/motor_4.png","70","motor","4","128","1","0","0","",""
"null","","284228","HierDynxfnkstn","7nwru71mqe","ms1000406","iti","","null","img/motor_4.png","70","motor","","","","","","",""
"827","","285070","HierDynxfnkstn","7nwru71mqe","ms1000406","motor","","83","img/motor_2.png","83","motor","2","129","1","0","0","",""
"null","","285185","HierDynxfnkstn","7nwru71mqe","ms1000406","iti","","null","img/motor_2.png","83","motor","","","","","","",""
"830","","286024","HierDynxfnkstn","7nwru71mqe","ms1000406","motor","","65","img/motor_1.png","65","motor","1","130","1","0","0","",""
"null","","286139","HierDynxfnkstn","7nwru71mqe","ms1000406","iti","","null","img/motor_1.png","65","motor","","","","","","",""
"997","","287150","HierDynxfnkstn","7nwru71mqe","ms1000406","motor","","74","img/motor_6.png","74","motor","6","131","1","0","0","",""
"null","","287266","HierDynxfnkstn","7nwru71mqe","ms1000406","iti","","null","img/motor_6.png","74","motor","","","","","","",""
"597","","287872","HierDynxfnkstn","7nwru71mqe","ms1000406","motor","","75","img/motor_7.png","75","motor","7","132","1","0","0","",""
"null","","287981","HierDynxfnkstn","7nwru71mqe","ms1000406","iti","","null","img/motor_7.png","75","motor","","","","","","",""
"411","","288401","HierDynxfnkstn","7nwru71mqe","ms1000406","motor","","75","img/motor_7.png","75","motor","7","133","1","0","0","",""
"null","","288508","HierDynxfnkstn","7nwru71mqe","ms1000406","iti","","null","img/motor_7.png","75","motor","","","","","","",""
"636","","289153","HierDynxfnkstn","7nwru71mqe","ms1000406","motor","","70","img/motor_4.png","70","motor","4","134","1","0","0","",""
"null","","289261","HierDynxfnkstn","7nwru71mqe","ms1000406","iti","","null","img/motor_4.png","70","motor","","","","","","",""
"708","","289983","HierDynxfnkstn","7nwru71mqe","ms1000406","motor","","68","img/motor_3.png","68","motor","3","135","1","0","0","",""
"null","","290099","HierDynxfnkstn","7nwru71mqe","ms1000406","iti","","null","img/motor_3.png","68","motor","","","","","","",""
"781","","290889","HierDynxfnkstn","7nwru71mqe","ms1000406","motor","","72","img/motor_5.png","72","motor","5","136","1","0","0","",""
"null","","291003","HierDynxfnkstn","7nwru71mqe","ms1000406","iti","","null","img/motor_5.png","72","motor","","","","","","",""
"509","","291528","HierDynxfnkstn","7nwru71mqe","ms1000406","motor","","76","img/motor_8.png","76","motor","8","137","1","0","0","",""
"null","","291637","HierDynxfnkstn","7nwru71mqe","ms1000406","iti","","null","img/motor_8.png","76","motor","","","","","","",""
"708","","292359","HierDynxfnkstn","7nwru71mqe","ms1000406","motor","","65","img/motor_1.png","65","motor","1","138","1","0","0","",""
"null","","292475","HierDynxfnkstn","7nwru71mqe","ms1000406","iti","","null","img/motor_1.png","65","motor","","","","","","",""
"726","","293215","HierDynxfnkstn","7nwru71mqe","ms1000406","motor","","68","img/motor_3.png","68","motor","3","139","1","0","0","",""
"null","","293331","HierDynxfnkstn","7nwru71mqe","ms1000406","iti","","null","img/motor_3.png","68","motor","","","","","","",""
"405","","293744","HierDynxfnkstn","7nwru71mqe","ms1000406","motor","","68","img/motor_3.png","68","motor","3","140","1","0","0","",""
"null","","293852","HierDynxfnkstn","7nwru71mqe","ms1000406","iti","","null","img/motor_3.png","68","motor","","","","","","",""
"612","","294472","HierDynxfnkstn","7nwru71mqe","ms1000406","motor","","75","img/motor_7.png","75","motor","7","141","1","0","0","",""
"null","","294587","HierDynxfnkstn","7nwru71mqe","ms1000406","iti","","null","img/motor_7.png","75","motor","","","","","","",""
"621","","295217","HierDynxfnkstn","7nwru71mqe","ms1000406","motor","","75","img/motor_7.png","75","motor","7","142","1","0","0","",""
"null","","295325","HierDynxfnkstn","7nwru71mqe","ms1000406","iti","","null","img/motor_7.png","75","motor","","","","","","",""
"676","","296014","HierDynxfnkstn","7nwru71mqe","ms1000406","motor","","83","img/motor_2.png","83","motor","2","143","1","0","0","",""
"null","","296130","HierDynxfnkstn","7nwru71mqe","ms1000406","iti","","null","img/motor_2.png","83","motor","","","","","","",""
"541","","296681","HierDynxfnkstn","7nwru71mqe","ms1000406","motor","","76","img/motor_8.png","76","motor","8","144","1","0","0","",""
"null","","296795","HierDynxfnkstn","7nwru71mqe","ms1000406","iti","","null","img/motor_8.png","76","motor","","","","","","",""
"781","","297591","HierDynxfnkstn","7nwru71mqe","ms1000406","motor","","65","img/motor_1.png","65","motor","1","145","1","0","0","",""
"null","","297700","HierDynxfnkstn","7nwru71mqe","ms1000406","iti","","null","img/motor_1.png","65","motor","","","","","","",""
"676","","298391","HierDynxfnkstn","7nwru71mqe","ms1000406","motor","","68","img/motor_3.png","68","motor","3","146","1","0","0","",""
"null","","298507","HierDynxfnkstn","7nwru71mqe","ms1000406","iti","","null","img/motor_3.png","68","motor","","","","","","",""
"621","","299143","HierDynxfnkstn","7nwru71mqe","ms1000406","motor","","76","img/motor_8.png","76","motor","8","147","1","0","0","",""
"null","","299258","HierDynxfnkstn","7nwru71mqe","ms1000406","iti","","null","img/motor_8.png","76","motor","","","","","","",""
"525","","299799","HierDynxfnkstn","7nwru71mqe","ms1000406","motor","","68","img/motor_3.png","68","motor","3","148","1","0","0","",""
"null","","299914","HierDynxfnkstn","7nwru71mqe","ms1000406","iti","","null","img/motor_3.png","68","motor","","","","","","",""
"574","","300497","HierDynxfnkstn","7nwru71mqe","ms1000406","motor","","76","img/motor_8.png","76","motor","8","149","1","0","0","",""
"null","","300612","HierDynxfnkstn","7nwru71mqe","ms1000406","iti","","null","img/motor_8.png","76","motor","","","","","","",""
"1684","","302311","HierDynxfnkstn","7nwru71mqe","ms1000406","motor","","65","img/motor_1.png","65","motor","1","150","1","0","0","",""
"null","","302426","HierDynxfnkstn","7nwru71mqe","ms1000406","iti","","null","img/motor_1.png","65","motor","","","","","","",""
"717","","303153","HierDynxfnkstn","7nwru71mqe","ms1000406","motor","","75","img/motor_7.png","75","motor","7","151","1","0","0","",""
"null","","303261","HierDynxfnkstn","7nwru71mqe","ms1000406","iti","","null","img/motor_7.png","75","motor","","","","","","",""
"570","","303847","HierDynxfnkstn","7nwru71mqe","ms1000406","motor","","83","img/motor_2.png","83","motor","2","152","1","0","0","",""
"null","","303962","HierDynxfnkstn","7nwru71mqe","ms1000406","iti","","null","img/motor_2.png","83","motor","","","","","","",""
"510","","304481","HierDynxfnkstn","7nwru71mqe","ms1000406","motor","","76","img/motor_8.png","76","motor","8","153","1","0","0","",""
"null","","304596","HierDynxfnkstn","7nwru71mqe","ms1000406","iti","","null","img/motor_8.png","76","motor","","","","","","",""
"604","","305208","HierDynxfnkstn","7nwru71mqe","ms1000406","motor","","75","img/motor_7.png","75","motor","7","154","1","0","0","",""
"null","","305324","HierDynxfnkstn","7nwru71mqe","ms1000406","iti","","null","img/motor_7.png","75","motor","","","","","","",""
"549","","305880","HierDynxfnkstn","7nwru71mqe","ms1000406","motor","","76","img/motor_8.png","76","motor","8","155","1","0","0","",""
"null","","305995","HierDynxfnkstn","7nwru71mqe","ms1000406","iti","","null","img/motor_8.png","76","motor","","","","","","",""
"1053","","307057","HierDynxfnkstn","7nwru71mqe","ms1000406","motor","","74","img/motor_6.png","74","motor","6","156","1","0","0","",""
"null","","307171","HierDynxfnkstn","7nwru71mqe","ms1000406","iti","","null","img/motor_6.png","74","motor","","","","","","",""
"924","","308111","HierDynxfnkstn","7nwru71mqe","ms1000406","motor","","72","img/motor_5.png","72","motor","5","157","1","0","0","",""
"null","","308221","HierDynxfnkstn","7nwru71mqe","ms1000406","iti","","null","img/motor_5.png","72","motor","","","","","","",""
"451","","308680","HierDynxfnkstn","7nwru71mqe","ms1000406","motor","","76","img/motor_8.png","76","motor","8","158","1","0","0","",""
"null","","308795","HierDynxfnkstn","7nwru71mqe","ms1000406","iti","","null","img/motor_8.png","76","motor","","","","","","",""
"821","","309624","HierDynxfnkstn","7nwru71mqe","ms1000406","motor","","74","img/motor_6.png","74","motor","6","159","1","0","0","",""
"null","","309734","HierDynxfnkstn","7nwru71mqe","ms1000406","iti","","null","img/motor_6.png","74","motor","","","","","","",""
"403","","310151","HierDynxfnkstn","7nwru71mqe","ms1000406","motor","","76","img/motor_8.png","76","motor","8","160","1","0","0","",""
"null","","310266","HierDynxfnkstn","7nwru71mqe","ms1000406","iti","","null","img/motor_8.png","76","motor","","","","","","",""
"780","","311057","HierDynxfnkstn","7nwru71mqe","ms1000406","motor","","68","img/motor_3.png","68","motor","3","161","1","0","0","",""
"null","","311171","HierDynxfnkstn","7nwru71mqe","ms1000406","iti","","null","img/motor_3.png","68","motor","","","","","","",""
"613","","311800","HierDynxfnkstn","7nwru71mqe","ms1000406","motor","","83","img/motor_2.png","83","motor","2","162","1","0","0","",""
"null","","311915","HierDynxfnkstn","7nwru71mqe","ms1000406","iti","","null","img/motor_2.png","83","motor","","","","","","",""
"790","","312718","HierDynxfnkstn","7nwru71mqe","ms1000406","motor","","74","img/motor_6.png","74","motor","6","163","1","0","0","",""
"null","","312828","HierDynxfnkstn","7nwru71mqe","ms1000406","iti","","null","img/motor_6.png","74","motor","","","","","","",""
"517","","313359","HierDynxfnkstn","7nwru71mqe","ms1000406","motor","","74","img/motor_6.png","74","motor","6","164","1","0","0","",""
"null","","313468","HierDynxfnkstn","7nwru71mqe","ms1000406","iti","","null","img/motor_6.png","74","motor","","","","","","",""
"829","","314305","HierDynxfnkstn","7nwru71mqe","ms1000406","motor","","75","img/motor_7.png","75","motor","7","165","1","0","0","",""
"null","","314419","HierDynxfnkstn","7nwru71mqe","ms1000406","iti","","null","img/motor_7.png","75","motor","","","","","","",""
"805","","315240","HierDynxfnkstn","7nwru71mqe","ms1000406","motor","","68","img/motor_3.png","68","motor","3","166","1","0","0","",""
"null","","315355","HierDynxfnkstn","7nwru71mqe","ms1000406","iti","","null","img/motor_3.png","68","motor","","","","","","",""
"821","","316190","HierDynxfnkstn","7nwru71mqe","ms1000406","motor","","74","img/motor_6.png","74","motor","6","167","1","0","0","",""
"null","","316300","HierDynxfnkstn","7nwru71mqe","ms1000406","iti","","null","img/motor_6.png","74","motor","","","","","","",""
"653","","316960","HierDynxfnkstn","7nwru71mqe","ms1000406","motor","","68","img/motor_3.png","68","motor","3","168","1","0","0","",""
"null","","317075","HierDynxfnkstn","7nwru71mqe","ms1000406","iti","","null","img/motor_3.png","68","motor","","","","","","",""
"589","","317673","HierDynxfnkstn","7nwru71mqe","ms1000406","motor","","83","img/motor_2.png","83","motor","2","169","1","0","0","",""
"null","","317787","HierDynxfnkstn","7nwru71mqe","ms1000406","iti","","null","img/motor_2.png","83","motor","","","","","","",""
"789","","318592","HierDynxfnkstn","7nwru71mqe","ms1000406","motor","","74","img/motor_6.png","74","motor","6","170","1","0","0","",""
"null","","318707","HierDynxfnkstn","7nwru71mqe","ms1000406","iti","","null","img/motor_6.png","74","motor","","","","","","",""
"1661","","320383","HierDynxfnkstn","7nwru71mqe","ms1000406","motor","","68","img/motor_3.png","68","motor","3","171","1","0","0","",""
"null","","320492","HierDynxfnkstn","7nwru71mqe","ms1000406","iti","","null","img/motor_3.png","68","motor","","","","","","",""
"716","","321216","HierDynxfnkstn","7nwru71mqe","ms1000406","motor","","70","img/motor_4.png","70","motor","4","172","1","0","0","",""
"null","","321324","HierDynxfnkstn","7nwru71mqe","ms1000406","iti","","null","img/motor_4.png","70","motor","","","","","","",""
"660","","321999","HierDynxfnkstn","7nwru71mqe","ms1000406","motor","","72","img/motor_5.png","72","motor","5","173","1","0","0","",""
"null","","322115","HierDynxfnkstn","7nwru71mqe","ms1000406","iti","","null","img/motor_5.png","72","motor","","","","","","",""
"597","","322720","HierDynxfnkstn","7nwru71mqe","ms1000406","motor","","68","img/motor_4.png","70","motor","4","174","0","1","0","",""
"385","","323119","HierDynxfnkstn","7nwru71mqe","ms1000406","motorRepeat","","70","img/motor_4.png","70","motor","4","174","1","0","0","",""
"null","","323234","HierDynxfnkstn","7nwru71mqe","ms1000406","iti","","null","img/motor_4.png","70","motor","","","","","","",""
"573","","323817","HierDynxfnkstn","7nwru71mqe","ms1000406","motor","","65","img/motor_1.png","65","motor","1","175","1","0","0","",""
"null","","323932","HierDynxfnkstn","7nwru71mqe","ms1000406","iti","","null","img/motor_1.png","65","motor","","","","","","",""
"540","","324487","HierDynxfnkstn","7nwru71mqe","ms1000406","motor","","72","img/motor_5.png","72","motor","5","176","1","0","0","",""
"null","","324603","HierDynxfnkstn","7nwru71mqe","ms1000406","iti","","null","img/motor_5.png","72","motor","","","","","","",""
"406","","325017","HierDynxfnkstn","7nwru71mqe","ms1000406","motor","","72","img/motor_5.png","72","motor","5","177","1","0","0","",""
"null","","325126","HierDynxfnkstn","7nwru71mqe","ms1000406","iti","","null","img/motor_5.png","72","motor","","","","","","",""
"612","","325757","HierDynxfnkstn","7nwru71mqe","ms1000406","motor","","68","img/motor_3.png","68","motor","3","178","1","0","0","",""
"null","","325867","HierDynxfnkstn","7nwru71mqe","ms1000406","iti","","null","img/motor_3.png","68","motor","","","","","","",""
"589","","326465","HierDynxfnkstn","7nwru71mqe","ms1000406","motor","","72","img/motor_5.png","72","motor","5","179","1","0","0","",""
"null","","326580","HierDynxfnkstn","7nwru71mqe","ms1000406","iti","","null","img/motor_5.png","72","motor","","","","","","",""
"443","","327033","HierDynxfnkstn","7nwru71mqe","ms1000406","motor","","68","img/motor_4.png","70","motor","4","180","0","1","0","",""
"376","","327416","HierDynxfnkstn","7nwru71mqe","ms1000406","motorRepeat","","70","img/motor_4.png","70","motor","4","180","1","0","0","",""
"null","","327532","HierDynxfnkstn","7nwru71mqe","ms1000406","iti","","null","img/motor_4.png","70","motor","","","","","","",""
"539","","328087","HierDynxfnkstn","7nwru71mqe","ms1000406","motor","","72","img/motor_5.png","72","motor","5","181","1","0","0","",""
"null","","328203","HierDynxfnkstn","7nwru71mqe","ms1000406","iti","","null","img/motor_5.png","72","motor","","","","","","",""
"661","","328879","HierDynxfnkstn","7nwru71mqe","ms1000406","motor","","68","img/motor_3.png","68","motor","3","182","1","0","0","",""
"null","","328988","HierDynxfnkstn","7nwru71mqe","ms1000406","iti","","null","img/motor_3.png","68","motor","","","","","","",""
"524","","329527","HierDynxfnkstn","7nwru71mqe","ms1000406","motor","","65","img/motor_1.png","65","motor","1","183","1","0","0","",""
"null","","329643","HierDynxfnkstn","7nwru71mqe","ms1000406","iti","","null","img/motor_1.png","65","motor","","","","","","",""
"788","","330441","HierDynxfnkstn","7nwru71mqe","ms1000406","motor","","75","img/motor_7.png","75","motor","7","184","1","0","0","",""
"null","","330550","HierDynxfnkstn","7nwru71mqe","ms1000406","iti","","null","img/motor_7.png","75","motor","","","","","","",""
"676","","331232","HierDynxfnkstn","7nwru71mqe","ms1000406","motor","","72","img/motor_5.png","72","motor","5","185","1","0","0","",""
"null","","331347","HierDynxfnkstn","7nwru71mqe","ms1000406","iti","","null","img/motor_5.png","72","motor","","","","","","",""
"437","","331792","HierDynxfnkstn","7nwru71mqe","ms1000406","motor","","72","img/motor_5.png","72","motor","5","186","1","0","0","",""
"null","","331901","HierDynxfnkstn","7nwru71mqe","ms1000406","iti","","null","img/motor_5.png","72","motor","","","","","","",""
"676","","332592","HierDynxfnkstn","7nwru71mqe","ms1000406","motor","","83","img/motor_2.png","83","motor","2","187","1","0","0","",""
"null","","332707","HierDynxfnkstn","7nwru71mqe","ms1000406","iti","","null","img/motor_2.png","83","motor","","","","","","",""
"533","","333255","HierDynxfnkstn","7nwru71mqe","ms1000406","motor","","72","img/motor_5.png","72","motor","5","188","1","0","0","",""
"null","","333371","HierDynxfnkstn","7nwru71mqe","ms1000406","iti","","null","img/motor_5.png","72","motor","","","","","","",""
"437","","333823","HierDynxfnkstn","7nwru71mqe","ms1000406","motor","","75","img/motor_7.png","75","motor","7","189","1","0","0","",""
"null","","333933","HierDynxfnkstn","7nwru71mqe","ms1000406","iti","","null","img/motor_7.png","75","motor","","","","","","",""
"476","","334424","HierDynxfnkstn","7nwru71mqe","ms1000406","motor","","72","img/motor_5.png","72","motor","5","190","1","0","0","",""
"null","","334539","HierDynxfnkstn","7nwru71mqe","ms1000406","iti","","null","img/motor_5.png","72","motor","","","","","","",""
"684","","335233","HierDynxfnkstn","7nwru71mqe","ms1000406","motor","","70","img/motor_4.png","70","motor","4","191","1","0","0","",""
"null","","335347","HierDynxfnkstn","7nwru71mqe","ms1000406","iti","","null","img/motor_4.png","70","motor","","","","","","",""
"532","","335896","HierDynxfnkstn","7nwru71mqe","ms1000406","motor","","70","img/motor_4.png","70","motor","4","192","1","0","0","",""
"null","","336012","HierDynxfnkstn","7nwru71mqe","ms1000406","iti","","null","img/motor_4.png","70","motor","","","","","","",""
"644","","336671","HierDynxfnkstn","7nwru71mqe","ms1000406","motor","","74","img/motor_6.png","74","motor","6","193","1","0","0","",""
"null","","336781","HierDynxfnkstn","7nwru71mqe","ms1000406","iti","","null","img/motor_6.png","74","motor","","","","","","",""
"643","","337439","HierDynxfnkstn","7nwru71mqe","ms1000406","motor","","65","img/motor_1.png","65","motor","1","194","1","0","0","",""
"null","","337556","HierDynxfnkstn","7nwru71mqe","ms1000406","iti","","null","img/motor_1.png","65","motor","","","","","","",""
"500","","338071","HierDynxfnkstn","7nwru71mqe","ms1000406","motor","","70","img/motor_4.png","70","motor","4","195","1","0","0","",""
"null","","338188","HierDynxfnkstn","7nwru71mqe","ms1000406","iti","","null","img/motor_4.png","70","motor","","","","","","",""
"525","","338728","HierDynxfnkstn","7nwru71mqe","ms1000406","motor","","83","img/motor_2.png","83","motor","2","196","1","0","0","",""
"null","","338843","HierDynxfnkstn","7nwru71mqe","ms1000406","iti","","null","img/motor_2.png","83","motor","","","","","","",""
"725","","339576","HierDynxfnkstn","7nwru71mqe","ms1000406","motor","","68","img/motor_3.png","68","motor","3","197","1","0","0","",""
"null","","339691","HierDynxfnkstn","7nwru71mqe","ms1000406","iti","","null","img/motor_3.png","68","motor","","","","","","",""
"556","","340264","HierDynxfnkstn","7nwru71mqe","ms1000406","motor","","75","img/motor_7.png","75","motor","7","198","1","0","0","",""
"null","","340379","HierDynxfnkstn","7nwru71mqe","ms1000406","iti","","null","img/motor_7.png","75","motor","","","","","","",""
"452","","340848","HierDynxfnkstn","7nwru71mqe","ms1000406","motor","","76","img/motor_8.png","76","motor","8","199","1","0","0","",""
"null","","340956","HierDynxfnkstn","7nwru71mqe","ms1000406","iti","","null","img/motor_8.png","76","motor","","","","","","",""
"581","","341551","HierDynxfnkstn","7nwru71mqe","ms1000406","motor","","74","img/motor_7.png","75","motor","7","200","0","1","0","",""
"281","","341848","HierDynxfnkstn","7nwru71mqe","ms1000406","motorRepeat","","75","img/motor_7.png","75","motor","7","200","1","0","0","",""
"null","","341964","HierDynxfnkstn","7nwru71mqe","ms1000406","iti","","null","img/motor_7.png","75","motor","","","","","","",""
"644","","342624","HierDynxfnkstn","7nwru71mqe","ms1000406","motor","","65","img/motor_1.png","65","motor","1","201","1","0","0","",""
"null","","342739","HierDynxfnkstn","7nwru71mqe","ms1000406","iti","","null","img/motor_1.png","65","motor","","","","","","",""
"547","","343297","HierDynxfnkstn","7nwru71mqe","ms1000406","motor","","72","img/motor_5.png","72","motor","5","202","1","0","0","",""
"null","","343405","HierDynxfnkstn","7nwru71mqe","ms1000406","iti","","null","img/motor_5.png","72","motor","","","","","","",""
"636","","344055","HierDynxfnkstn","7nwru71mqe","ms1000406","motor","","65","img/motor_1.png","65","motor","1","203","1","0","0","",""
"null","","344164","HierDynxfnkstn","7nwru71mqe","ms1000406","iti","","null","img/motor_1.png","65","motor","","","","","","",""
"436","","344615","HierDynxfnkstn","7nwru71mqe","ms1000406","motor","","76","img/motor_8.png","76","motor","8","204","1","0","0","",""
"null","","344731","HierDynxfnkstn","7nwru71mqe","ms1000406","iti","","null","img/motor_8.png","76","motor","","","","","","",""
"518","","345257","HierDynxfnkstn","7nwru71mqe","ms1000406","motor","","75","img/motor_7.png","75","motor","7","205","1","0","0","",""
"null","","345372","HierDynxfnkstn","7nwru71mqe","ms1000406","iti","","null","img/motor_7.png","75","motor","","","","","","",""
"732","","346113","HierDynxfnkstn","7nwru71mqe","ms1000406","motor","","74","img/motor_6.png","74","motor","6","206","1","0","0","",""
"null","","346228","HierDynxfnkstn","7nwru71mqe","ms1000406","iti","","null","img/motor_6.png","74","motor","","","","","","",""
"700","","346937","HierDynxfnkstn","7nwru71mqe","ms1000406","motor","","65","img/motor_1.png","65","motor","1","207","1","0","0","",""
"null","","347052","HierDynxfnkstn","7nwru71mqe","ms1000406","iti","","null","img/motor_1.png","65","motor","","","","","","",""
"541","","347601","HierDynxfnkstn","7nwru71mqe","ms1000406","motor","","83","img/motor_2.png","83","motor","2","208","1","0","0","",""
"null","","347709","HierDynxfnkstn","7nwru71mqe","ms1000406","iti","","null","img/motor_2.png","83","motor","","","","","","",""
"548","","348272","HierDynxfnkstn","7nwru71mqe","ms1000406","motor","","76","img/motor_8.png","76","motor","8","209","1","0","0","",""
"null","","348387","HierDynxfnkstn","7nwru71mqe","ms1000406","iti","","null","img/motor_8.png","76","motor","","","","","","",""
"357","","348751","HierDynxfnkstn","7nwru71mqe","ms1000406","motor","","76","img/motor_8.png","76","motor","8","210","1","0","0","",""
"null","","348867","HierDynxfnkstn","7nwru71mqe","ms1000406","iti","","null","img/motor_8.png","76","motor","","","","","","",""
"670","","349552","HierDynxfnkstn","7nwru71mqe","ms1000406","motor","","65","img/motor_1.png","65","motor","1","211","1","0","0","",""
"41","","349661","HierDynxfnkstn","7nwru71mqe","ms1000406","iti","","83","img/motor_1.png","65","motor","","","","","","",""
"843","","350513","HierDynxfnkstn","7nwru71mqe","ms1000406","motor","","68","img/motor_3.png","68","motor","3","212","1","0","0","",""
"7","","350628","HierDynxfnkstn","7nwru71mqe","ms1000406","iti","","83","img/motor_3.png","68","motor","","","","","","",""
"667","","351305","HierDynxfnkstn","7nwru71mqe","ms1000406","motor","","70","img/motor_4.png","70","motor","4","213","1","0","0","",""
"null","","351413","HierDynxfnkstn","7nwru71mqe","ms1000406","iti","","null","img/motor_4.png","70","motor","","","","","","",""
"756","","352177","HierDynxfnkstn","7nwru71mqe","ms1000406","motor","","72","img/motor_5.png","72","motor","5","214","1","0","0","",""
"null","","352292","HierDynxfnkstn","7nwru71mqe","ms1000406","iti","","null","img/motor_5.png","72","motor","","","","","","",""
"2093","","354400","HierDynxfnkstn","7nwru71mqe","ms1000406","motor","","68","img/motor_3.png","68","motor","3","215","1","0","0","",""
"null","","354509","HierDynxfnkstn","7nwru71mqe","ms1000406","iti","","null","img/motor_3.png","68","motor","","","","","","",""
"756","","355273","HierDynxfnkstn","7nwru71mqe","ms1000406","motor","","72","img/motor_5.png","72","motor","5","216","1","0","0","",""
"null","","355388","HierDynxfnkstn","7nwru71mqe","ms1000406","iti","","null","img/motor_5.png","72","motor","","","","","","",""
"597","","356000","HierDynxfnkstn","7nwru71mqe","ms1000406","motor","","74","img/motor_6.png","74","motor","6","217","1","0","0","",""
"null","","356116","HierDynxfnkstn","7nwru71mqe","ms1000406","iti","","null","img/motor_6.png","74","motor","","","","","","",""
"676","","356801","HierDynxfnkstn","7nwru71mqe","ms1000406","motor","","70","img/motor_4.png","70","motor","4","218","1","0","0","",""
"null","","356916","HierDynxfnkstn","7nwru71mqe","ms1000406","iti","","null","img/motor_4.png","70","motor","","","","","","",""
"852","","357777","HierDynxfnkstn","7nwru71mqe","ms1000406","motor","","83","img/motor_2.png","83","motor","2","219","1","0","0","",""
"null","","357885","HierDynxfnkstn","7nwru71mqe","ms1000406","iti","","null","img/motor_2.png","83","motor","","","","","","",""
"555","","358455","HierDynxfnkstn","7nwru71mqe","ms1000406","motor","","75","img/motor_7.png","75","motor","7","220","1","0","0","",""
"null","","358564","HierDynxfnkstn","7nwru71mqe","ms1000406","iti","","null","img/motor_7.png","75","motor","","","","","","",""
"564","","359144","HierDynxfnkstn","7nwru71mqe","ms1000406","motor","","74","img/motor_6.png","74","motor","6","221","1","0","0","",""
"null","","359259","HierDynxfnkstn","7nwru71mqe","ms1000406","iti","","null","img/motor_6.png","74","motor","","","","","","",""
"645","","359920","HierDynxfnkstn","7nwru71mqe","ms1000406","motor","","75","img/motor_7.png","75","motor","7","222","1","0","0","",""
"null","","360030","HierDynxfnkstn","7nwru71mqe","ms1000406","iti","","null","img/motor_7.png","75","motor","","","","","","",""
"1355","","361400","HierDynxfnkstn","7nwru71mqe","ms1000406","motor","","68","img/motor_3.png","68","motor","3","223","1","0","0","",""
"null","","361509","HierDynxfnkstn","7nwru71mqe","ms1000406","iti","","null","img/motor_3.png","68","motor","","","","","","",""
"1276","","362800","HierDynxfnkstn","7nwru71mqe","ms1000406","motor","","70","img/motor_4.png","70","motor","4","224","1","0","0","",""
"null","","362916","HierDynxfnkstn","7nwru71mqe","ms1000406","iti","","null","img/motor_4.png","70","motor","","","","","","",""
"571","","363504","HierDynxfnkstn","7nwru71mqe","ms1000406","motor","","75","img/motor_7.png","75","motor","7","225","1","0","0","",""
"null","","363620","HierDynxfnkstn","7nwru71mqe","ms1000406","iti","","null","img/motor_7.png","75","motor","","","","","","",""
"2220","","365856","HierDynxfnkstn","7nwru71mqe","ms1000406","motor","","68","img/motor_3.png","68","motor","3","226","1","0","0","",""
"null","","365972","HierDynxfnkstn","7nwru71mqe","ms1000406","iti","","null","img/motor_3.png","68","motor","","","","","","",""
"644","","366625","HierDynxfnkstn","7nwru71mqe","ms1000406","motor","","83","img/motor_2.png","83","motor","2","227","1","0","0","",""
"null","","366733","HierDynxfnkstn","7nwru71mqe","ms1000406","iti","","null","img/motor_2.png","83","motor","","","","","","",""
"627","","367369","HierDynxfnkstn","7nwru71mqe","ms1000406","motor","","68","img/motor_3.png","68","motor","3","228","1","0","0","",""
"null","","367484","HierDynxfnkstn","7nwru71mqe","ms1000406","iti","","null","img/motor_3.png","68","motor","","","","","","",""
"509","","368001","HierDynxfnkstn","7nwru71mqe","ms1000406","motor","","76","img/motor_8.png","76","motor","8","229","1","0","0","",""
"null","","368109","HierDynxfnkstn","7nwru71mqe","ms1000406","iti","","null","img/motor_8.png","76","motor","","","","","","",""
"699","","368823","HierDynxfnkstn","7nwru71mqe","ms1000406","motor","","68","img/motor_3.png","68","motor","3","230","1","0","0","",""
"null","","368932","HierDynxfnkstn","7nwru71mqe","ms1000406","iti","","null","img/motor_3.png","68","motor","","","","","","",""
"780","","369728","HierDynxfnkstn","7nwru71mqe","ms1000406","motor","","72","img/motor_5.png","72","motor","5","231","1","0","0","",""
"null","","369837","HierDynxfnkstn","7nwru71mqe","ms1000406","iti","","null","img/motor_5.png","72","motor","","","","","","",""
"492","","370336","HierDynxfnkstn","7nwru71mqe","ms1000406","motor","","74","img/motor_6.png","74","motor","6","232","1","0","0","",""
"null","","370445","HierDynxfnkstn","7nwru71mqe","ms1000406","iti","","null","img/motor_6.png","74","motor","","","","","","",""
"356","","370809","HierDynxfnkstn","7nwru71mqe","ms1000406","motor","","76","img/motor_8.png","76","motor","8","233","1","0","0","",""
"null","","370918","HierDynxfnkstn","7nwru71mqe","ms1000406","iti","","null","img/motor_8.png","76","motor","","","","","","",""
"459","","371385","HierDynxfnkstn","7nwru71mqe","ms1000406","motor","","74","img/motor_6.png","74","motor","6","234","1","0","0","",""
"null","","371493","HierDynxfnkstn","7nwru71mqe","ms1000406","iti","","null","img/motor_6.png","74","motor","","","","","","",""
"445","","371951","HierDynxfnkstn","7nwru71mqe","ms1000406","motor","","68","img/motor_2.png","83","motor","2","235","0","1","0","",""
"289","","372255","HierDynxfnkstn","7nwru71mqe","ms1000406","motorRepeat","","83","img/motor_2.png","83","motor","2","235","1","0","0","",""
"null","","372364","HierDynxfnkstn","7nwru71mqe","ms1000406","iti","","null","img/motor_2.png","83","motor","","","","","","",""
"444","","372818","HierDynxfnkstn","7nwru71mqe","ms1000406","motor","","65","img/motor_1.png","65","motor","1","236","1","0","0","",""
"null","","372925","HierDynxfnkstn","7nwru71mqe","ms1000406","iti","","null","img/motor_1.png","65","motor","","","","","","",""
"411","","373344","HierDynxfnkstn","7nwru71mqe","ms1000406","motor","","65","img/motor_1.png","65","motor","1","237","1","0","0","",""
"null","","373452","HierDynxfnkstn","7nwru71mqe","ms1000406","iti","","null","img/motor_1.png","65","motor","","","","","","",""
"707","","374169","HierDynxfnkstn","7nwru71mqe","ms1000406","motor","","72","img/motor_5.png","72","motor","5","238","1","0","0","",""
"null","","374277","HierDynxfnkstn","7nwru71mqe","ms1000406","iti","","null","img/motor_5.png","72","motor","","","","","","",""
"507","","374800","HierDynxfnkstn","7nwru71mqe","ms1000406","motor","","76","img/motor_8.png","76","motor","8","239","1","0","0","",""
"null","","374910","HierDynxfnkstn","7nwru71mqe","ms1000406","iti","","null","img/motor_8.png","76","motor","","","","","","",""
"627","","375552","HierDynxfnkstn","7nwru71mqe","ms1000406","motor","","70","img/motor_4.png","70","motor","4","240","1","0","0","",""
"null","","375667","HierDynxfnkstn","7nwru71mqe","ms1000406","iti","","null","img/motor_4.png","70","motor","","","","","","",""
"485","","376167","HierDynxfnkstn","7nwru71mqe","ms1000406","motor","","83","img/motor_2.png","83","motor","2","241","1","0","0","",""
"null","","376283","HierDynxfnkstn","7nwru71mqe","ms1000406","iti","","null","img/motor_2.png","83","motor","","","","","","",""
"751","","377048","HierDynxfnkstn","7nwru71mqe","ms1000406","motor","","74","img/motor_6.png","74","motor","6","242","1","0","0","",""
"null","","377163","HierDynxfnkstn","7nwru71mqe","ms1000406","iti","","null","img/motor_6.png","74","motor","","","","","","",""
"1548","","378721","HierDynxfnkstn","7nwru71mqe","ms1000406","motor","","70","img/motor_4.png","70","motor","4","243","1","0","0","",""
"null","","378835","HierDynxfnkstn","7nwru71mqe","ms1000406","iti","","null","img/motor_4.png","70","motor","","","","","","",""
"413","","379258","HierDynxfnkstn","7nwru71mqe","ms1000406","motor","","76","img/motor_8.png","76","motor","8","244","1","0","0","",""
"null","","379366","HierDynxfnkstn","7nwru71mqe","ms1000406","iti","","null","img/motor_8.png","76","motor","","","","","","",""
"444","","379824","HierDynxfnkstn","7nwru71mqe","ms1000406","motor","","72","img/motor_5.png","72","motor","5","245","1","0","0","",""
"null","","379939","HierDynxfnkstn","7nwru71mqe","ms1000406","iti","","null","img/motor_5.png","72","motor","","","","","","",""
"571","","380528","HierDynxfnkstn","7nwru71mqe","ms1000406","motor","","65","img/motor_1.png","65","motor","1","246","1","0","0","",""
"null","","380644","HierDynxfnkstn","7nwru71mqe","ms1000406","iti","","null","img/motor_1.png","65","motor","","","","","","",""
"869","","381527","HierDynxfnkstn","7nwru71mqe","ms1000406","motor","","68","img/motor_3.png","68","motor","3","247","1","0","0","",""
"null","","381643","HierDynxfnkstn","7nwru71mqe","ms1000406","iti","","null","img/motor_3.png","68","motor","","","","","","",""
"572","","382232","HierDynxfnkstn","7nwru71mqe","ms1000406","motor","","65","img/motor_1.png","65","motor","1","248","1","0","0","",""
"null","","382341","HierDynxfnkstn","7nwru71mqe","ms1000406","iti","","null","img/motor_1.png","65","motor","","","","","","",""
"532","","382881","HierDynxfnkstn","7nwru71mqe","ms1000406","motor","","70","img/motor_4.png","70","motor","4","249","1","0","0","",""
"null","","382996","HierDynxfnkstn","7nwru71mqe","ms1000406","iti","","null","img/motor_4.png","70","motor","","","","","","",""
"404","","383409","HierDynxfnkstn","7nwru71mqe","ms1000406","motor","","70","img/motor_4.png","70","motor","4","250","1","0","0","",""
"null","","383518","HierDynxfnkstn","7nwru71mqe","ms1000406","iti","","null","img/motor_4.png","70","motor","","","","","","",""
"851","","384377","HierDynxfnkstn","7nwru71mqe","ms1000406","motor","","68","img/motor_3.png","68","motor","3","251","1","0","0","",""
"null","","384492","HierDynxfnkstn","7nwru71mqe","ms1000406","iti","","null","img/motor_3.png","68","motor","","","","","","",""
"612","","385120","HierDynxfnkstn","7nwru71mqe","ms1000406","motor","","75","img/motor_7.png","75","motor","7","252","1","0","0","",""
"null","","385235","HierDynxfnkstn","7nwru71mqe","ms1000406","iti","","null","img/motor_7.png","75","motor","","","","","","",""
"574","","385824","HierDynxfnkstn","7nwru71mqe","ms1000406","motor","","83","img/motor_2.png","83","motor","2","253","1","0","0","",""
"null","","385940","HierDynxfnkstn","7nwru71mqe","ms1000406","iti","","null","img/motor_2.png","83","motor","","","","","","",""
"580","","386529","HierDynxfnkstn","7nwru71mqe","ms1000406","motor","","72","img/motor_5.png","72","motor","5","254","1","0","0","",""
"null","","386644","HierDynxfnkstn","7nwru71mqe","ms1000406","iti","","null","img/motor_5.png","72","motor","","","","","","",""
"748","","387401","HierDynxfnkstn","7nwru71mqe","ms1000406","motor","","70","img/motor_4.png","70","motor","4","255","1","0","0","",""
"null","","387516","HierDynxfnkstn","7nwru71mqe","ms1000406","iti","","null","img/motor_4.png","70","motor","","","","","","",""
"460","","387992","HierDynxfnkstn","7nwru71mqe","ms1000406","motor","","76","img/motor_8.png","76","motor","8","256","1","0","0","",""
"null","","388107","HierDynxfnkstn","7nwru71mqe","ms1000406","iti","","null","img/motor_8.png","76","motor","","","","","","",""
"654","","388775","HierDynxfnkstn","7nwru71mqe","ms1000406","motor","","83","img/motor_2.png","83","motor","2","257","1","0","0","",""
"null","","388884","HierDynxfnkstn","7nwru71mqe","ms1000406","iti","","null","img/motor_2.png","83","motor","","","","","","",""
"517","","389416","HierDynxfnkstn","7nwru71mqe","ms1000406","motor","","75","img/motor_7.png","75","motor","7","258","1","0","0","",""
"null","","389532","HierDynxfnkstn","7nwru71mqe","ms1000406","iti","","null","img/motor_7.png","75","motor","","","","","","",""
"564","","390118","HierDynxfnkstn","7nwru71mqe","ms1000406","motor","","70","img/motor_4.png","70","motor","4","259","1","0","0","",""
"null","","390234","HierDynxfnkstn","7nwru71mqe","ms1000406","iti","","null","img/motor_4.png","70","motor","","","","","","",""
"499","","390745","HierDynxfnkstn","7nwru71mqe","ms1000406","motor","","76","img/motor_8.png","76","motor","8","260","1","0","0","",""
"null","","390853","HierDynxfnkstn","7nwru71mqe","ms1000406","iti","","null","img/motor_8.png","76","motor","","","","","","",""
"571","","391433","HierDynxfnkstn","7nwru71mqe","ms1000406","motor","","70","img/motor_3.png","68","motor","3","261","0","1","0","",""
"519","","391969","HierDynxfnkstn","7nwru71mqe","ms1000406","motorRepeat","","70","img/motor_3.png","68","motor","3","261","0","1","0","",""
"848","","392825","HierDynxfnkstn","7nwru71mqe","ms1000406","motorRepeat","","68","img/motor_3.png","68","motor","3","261","1","0","0","",""
"null","","392941","HierDynxfnkstn","7nwru71mqe","ms1000406","iti","","null","img/motor_3.png","68","motor","","","","","","",""
"522","","393473","HierDynxfnkstn","7nwru71mqe","ms1000406","motor","","72","img/motor_5.png","72","motor","5","262","1","0","0","",""
"null","","393588","HierDynxfnkstn","7nwru71mqe","ms1000406","iti","","null","img/motor_5.png","72","motor","","","","","","",""
"435","","394041","HierDynxfnkstn","7nwru71mqe","ms1000406","motor","","76","img/motor_8.png","76","motor","8","263","1","0","0","",""
"null","","394146","HierDynxfnkstn","7nwru71mqe","ms1000406","iti","","null","img/motor_8.png","76","motor","","","","","","",""
"607","","394761","HierDynxfnkstn","7nwru71mqe","ms1000406","motor","","76","img/motor_8.png","76","motor","8","264","1","0","0","",""
"null","","394876","HierDynxfnkstn","7nwru71mqe","ms1000406","iti","","null","img/motor_8.png","76","motor","","","","","","",""
"684","","395570","HierDynxfnkstn","7nwru71mqe","ms1000406","motor","","75","img/motor_7.png","75","motor","7","265","1","0","0","",""
"null","","395685","HierDynxfnkstn","7nwru71mqe","ms1000406","iti","","null","img/motor_7.png","75","motor","","","","","","",""
"539","","396232","HierDynxfnkstn","7nwru71mqe","ms1000406","motor","","65","img/motor_1.png","65","motor","1","266","1","0","0","",""
"null","","396342","HierDynxfnkstn","7nwru71mqe","ms1000406","iti","","null","img/motor_1.png","65","motor","","","","","","",""
"700","","397056","HierDynxfnkstn","7nwru71mqe","ms1000406","motor","","75","img/motor_7.png","75","motor","7","267","1","0","0","",""
"null","","397165","HierDynxfnkstn","7nwru71mqe","ms1000406","iti","","null","img/motor_7.png","75","motor","","","","","","",""
"483","","397664","HierDynxfnkstn","7nwru71mqe","ms1000406","motor","","76","img/motor_8.png","76","motor","8","268","1","0","0","",""
"null","","397780","HierDynxfnkstn","7nwru71mqe","ms1000406","iti","","null","img/motor_8.png","76","motor","","","","","","",""
"637","","398425","HierDynxfnkstn","7nwru71mqe","ms1000406","motor","","83","img/motor_2.png","83","motor","2","269","1","0","0","",""
"null","","398540","HierDynxfnkstn","7nwru71mqe","ms1000406","iti","","null","img/motor_2.png","83","motor","","","","","","",""
"548","","399104","HierDynxfnkstn","7nwru71mqe","ms1000406","motor","","83","img/motor_2.png","83","motor","2","270","1","0","0","",""
"null","","399220","HierDynxfnkstn","7nwru71mqe","ms1000406","iti","","null","img/motor_2.png","83","motor","","","","","","",""
"724","","399960","HierDynxfnkstn","7nwru71mqe","ms1000406","motor","","70","img/motor_5.png","72","motor","5","271","0","1","0","",""
"384","","400360","HierDynxfnkstn","7nwru71mqe","ms1000406","motorRepeat","","72","img/motor_5.png","72","motor","5","271","1","0","0","",""
"null","","400470","HierDynxfnkstn","7nwru71mqe","ms1000406","iti","","null","img/motor_5.png","72","motor","","","","","","",""
"700","","401178","HierDynxfnkstn","7nwru71mqe","ms1000406","motor","","68","img/motor_3.png","68","motor","3","272","1","0","0","",""
"null","","401293","HierDynxfnkstn","7nwru71mqe","ms1000406","iti","","null","img/motor_3.png","68","motor","","","","","","",""
"860","","402161","HierDynxfnkstn","7nwru71mqe","ms1000406","motor","","72","img/motor_5.png","72","motor","5","273","1","0","0","",""
"null","","402277","HierDynxfnkstn","7nwru71mqe","ms1000406","iti","","null","img/motor_5.png","72","motor","","","","","","",""
"635","","402928","HierDynxfnkstn","7nwru71mqe","ms1000406","motor","","83","img/motor_2.png","83","motor","2","274","1","0","0","",""
"null","","403037","HierDynxfnkstn","7nwru71mqe","ms1000406","iti","","null","img/motor_2.png","83","motor","","","","","","",""
"699","","403744","HierDynxfnkstn","7nwru71mqe","ms1000406","motor","","75","img/motor_7.png","75","motor","7","275","1","0","0","",""
"null","","403853","HierDynxfnkstn","7nwru71mqe","ms1000406","iti","","null","img/motor_7.png","75","motor","","","","","","",""
"581","","404441","HierDynxfnkstn","7nwru71mqe","ms1000406","motor","","75","img/motor_7.png","75","motor","7","276","1","0","0","",""
"null","","404549","HierDynxfnkstn","7nwru71mqe","ms1000406","iti","","null","img/motor_7.png","75","motor","","","","","","",""
"565","","405121","HierDynxfnkstn","7nwru71mqe","ms1000406","motor","","72","img/motor_5.png","72","motor","5","277","1","0","0","",""
"null","","405230","HierDynxfnkstn","7nwru71mqe","ms1000406","iti","","null","img/motor_5.png","72","motor","","","","","","",""
"1029","","406265","HierDynxfnkstn","7nwru71mqe","ms1000406","motor","","68","img/motor_3.png","68","motor","3","278","1","0","0","",""
"null","","406380","HierDynxfnkstn","7nwru71mqe","ms1000406","iti","","null","img/motor_3.png","68","motor","","","","","","",""
"492","","406888","HierDynxfnkstn","7nwru71mqe","ms1000406","motor","","76","img/motor_8.png","76","motor","8","279","1","0","0","",""
"null","","407003","HierDynxfnkstn","7nwru71mqe","ms1000406","iti","","null","img/motor_8.png","76","motor","","","","","","",""
"510","","407522","HierDynxfnkstn","7nwru71mqe","ms1000406","motor","","75","img/motor_7.png","75","motor","7","280","1","0","0","",""
"null","","407637","HierDynxfnkstn","7nwru71mqe","ms1000406","iti","","null","img/motor_7.png","75","motor","","","","","","",""
"612","","408256","HierDynxfnkstn","7nwru71mqe","ms1000406","motor","","74","img/motor_6.png","74","motor","6","281","1","0","0","",""
"null","","408372","HierDynxfnkstn","7nwru71mqe","ms1000406","iti","","null","img/motor_6.png","74","motor","","","","","","",""
"404","","408792","HierDynxfnkstn","7nwru71mqe","ms1000406","motor","","76","img/motor_8.png","76","motor","8","282","1","0","0","",""
"null","","408901","HierDynxfnkstn","7nwru71mqe","ms1000406","iti","","null","img/motor_8.png","76","motor","","","","","","",""
"619","","409536","HierDynxfnkstn","7nwru71mqe","ms1000406","motor","","70","img/motor_4.png","70","motor","4","283","1","0","0","",""
"null","","409645","HierDynxfnkstn","7nwru71mqe","ms1000406","iti","","null","img/motor_4.png","70","motor","","","","","","",""
"364","","410017","HierDynxfnkstn","7nwru71mqe","ms1000406","motor","","70","img/motor_4.png","70","motor","4","284","1","0","0","",""
"72","","410132","HierDynxfnkstn","7nwru71mqe","ms1000406","iti","","70","img/motor_4.png","70","motor","","","","","","",""
"539","","410688","HierDynxfnkstn","7nwru71mqe","ms1000406","motor","","72","img/motor_6.png","74","motor","6","285","0","1","0","",""
"336","","411040","HierDynxfnkstn","7nwru71mqe","ms1000406","motorRepeat","","74","img/motor_6.png","74","motor","6","285","1","0","0","",""
"null","","411157","HierDynxfnkstn","7nwru71mqe","ms1000406","iti","","null","img/motor_6.png","74","motor","","","","","","",""
"1323","","412490","HierDynxfnkstn","7nwru71mqe","ms1000406","motor","","68","img/motor_3.png","68","motor","3","286","1","0","0","",""
"null","","412598","HierDynxfnkstn","7nwru71mqe","ms1000406","iti","","null","img/motor_3.png","68","motor","","","","","","",""
"572","","413177","HierDynxfnkstn","7nwru71mqe","ms1000406","motor","","65","img/motor_1.png","65","motor","1","287","1","0","0","",""
"null","","413286","HierDynxfnkstn","7nwru71mqe","ms1000406","iti","","null","img/motor_1.png","65","motor","","","","","","",""
"660","","413960","HierDynxfnkstn","7nwru71mqe","ms1000406","motor","","68","img/motor_2.png","83","motor","2","288","0","1","0","",""
"202","","414169","HierDynxfnkstn","7nwru71mqe","ms1000406","motorRepeat","","83","img/motor_2.png","83","motor","2","288","1","0","0","",""
"null","","414277","HierDynxfnkstn","7nwru71mqe","ms1000406","iti","","null","img/motor_2.png","83","motor","","","","","","",""
"723","","415010","HierDynxfnkstn","7nwru71mqe","ms1000406","motor","","70","img/motor_4.png","70","motor","4","289","1","0","0","",""
"null","","415124","HierDynxfnkstn","7nwru71mqe","ms1000406","iti","","null","img/motor_4.png","70","motor","","","","","","",""
"500","","415633","HierDynxfnkstn","7nwru71mqe","ms1000406","motor","","83","img/motor_2.png","83","motor","2","290","1","0","0","",""
"null","","415749","HierDynxfnkstn","7nwru71mqe","ms1000406","iti","","null","img/motor_2.png","83","motor","","","","","","",""
"860","","416625","HierDynxfnkstn","7nwru71mqe","ms1000406","motor","","68","img/motor_3.png","68","motor","3","291","1","0","0","",""
"null","","416734","HierDynxfnkstn","7nwru71mqe","ms1000406","iti","","null","img/motor_3.png","68","motor","","","","","","",""
"1044","","417793","HierDynxfnkstn","7nwru71mqe","ms1000406","motor","","83","img/motor_2.png","83","motor","2","292","1","0","0","",""
"null","","417909","HierDynxfnkstn","7nwru71mqe","ms1000406","iti","","null","img/motor_2.png","83","motor","","","","","","",""
"469","","418392","HierDynxfnkstn","7nwru71mqe","ms1000406","motor","","76","img/motor_8.png","76","motor","8","293","1","0","0","",""
"null","","418507","HierDynxfnkstn","7nwru71mqe","ms1000406","iti","","null","img/motor_8.png","76","motor","","","","","","",""
"909","","419432","HierDynxfnkstn","7nwru71mqe","ms1000406","motor","","74","img/motor_6.png","74","motor","6","294","1","0","0","",""
"null","","419548","HierDynxfnkstn","7nwru71mqe","ms1000406","iti","","null","img/motor_6.png","74","motor","","","","","","",""
"676","","420240","HierDynxfnkstn","7nwru71mqe","ms1000406","motor","","72","img/motor_5.png","72","motor","5","295","1","0","0","",""
"null","","420357","HierDynxfnkstn","7nwru71mqe","ms1000406","iti","","null","img/motor_5.png","72","motor","","","","","","",""
"587","","420960","HierDynxfnkstn","7nwru71mqe","ms1000406","motor","","65","img/motor_1.png","65","motor","1","296","1","0","0","",""
"null","","421069","HierDynxfnkstn","7nwru71mqe","ms1000406","iti","","null","img/motor_1.png","65","motor","","","","","","",""
"556","","421632","HierDynxfnkstn","7nwru71mqe","ms1000406","motor","","70","img/motor_3.png","68","motor","3","297","0","1","0","",""
"105","","421752","HierDynxfnkstn","7nwru71mqe","ms1000406","motorRepeat","","68","img/motor_3.png","68","motor","3","297","1","0","0","",""
"null","","421861","HierDynxfnkstn","7nwru71mqe","ms1000406","iti","","null","img/motor_3.png","68","motor","","","","","","",""
"788","","422657","HierDynxfnkstn","7nwru71mqe","ms1000406","motor","","74","img/motor_6.png","74","motor","6","298","1","0","0","",""
"null","","422766","HierDynxfnkstn","7nwru71mqe","ms1000406","iti","","null","img/motor_6.png","74","motor","","","","","","",""
"531","","423312","HierDynxfnkstn","7nwru71mqe","ms1000406","motor","","68","img/motor_3.png","68","motor","3","299","1","0","0","",""
"null","","423428","HierDynxfnkstn","7nwru71mqe","ms1000406","iti","","null","img/motor_3.png","68","motor","","","","","","",""
"436","","423873","HierDynxfnkstn","7nwru71mqe","ms1000406","motor","","83","img/motor_2.png","83","motor","2","300","1","0","0","",""
"null","","423987","HierDynxfnkstn","7nwru71mqe","ms1000406","iti","","null","img/motor_2.png","83","motor","","","","","","",""
"493","","424489","HierDynxfnkstn","7nwru71mqe","ms1000406","motor","","70","img/motor_4.png","70","motor","4","301","1","0","0","",""
"null","","424605","HierDynxfnkstn","7nwru71mqe","ms1000406","iti","","null","img/motor_4.png","70","motor","","","","","","",""
"629","","425240","HierDynxfnkstn","7nwru71mqe","ms1000406","motor","","83","img/motor_2.png","83","motor","2","302","1","0","0","",""
"null","","425356","HierDynxfnkstn","7nwru71mqe","ms1000406","iti","","null","img/motor_2.png","83","motor","","","","","","",""
"388","","425754","HierDynxfnkstn","7nwru71mqe","ms1000406","motor","","83","img/motor_2.png","83","motor","2","303","1","0","0","",""
"null","","425869","HierDynxfnkstn","7nwru71mqe","ms1000406","iti","","null","img/motor_2.png","83","motor","","","","","","",""
"523","","426408","HierDynxfnkstn","7nwru71mqe","ms1000406","motor","","75","img/motor_7.png","75","motor","7","304","1","0","0","",""
"null","","426518","HierDynxfnkstn","7nwru71mqe","ms1000406","iti","","null","img/motor_7.png","75","motor","","","","","","",""
"356","","426882","HierDynxfnkstn","7nwru71mqe","ms1000406","motor","","72","img/motor_5.png","72","motor","5","305","1","0","0","",""
"null","","426990","HierDynxfnkstn","7nwru71mqe","ms1000406","iti","","null","img/motor_5.png","72","motor","","","","","","",""
"611","","427617","HierDynxfnkstn","7nwru71mqe","ms1000406","motor","","65","img/motor_1.png","65","motor","1","306","1","0","0","",""
"null","","427732","HierDynxfnkstn","7nwru71mqe","ms1000406","iti","","null","img/motor_1.png","65","motor","","","","","","",""
"772","","428513","HierDynxfnkstn","7nwru71mqe","ms1000406","motor","","72","img/motor_5.png","72","motor","5","307","1","0","0","",""
"null","","428628","HierDynxfnkstn","7nwru71mqe","ms1000406","iti","","null","img/motor_5.png","72","motor","","","","","","",""
"605","","429241","HierDynxfnkstn","7nwru71mqe","ms1000406","motor","","83","img/motor_2.png","83","motor","2","308","1","0","0","",""
"null","","429356","HierDynxfnkstn","7nwru71mqe","ms1000406","iti","","null","img/motor_2.png","83","motor","","","","","","",""
"340","","429706","HierDynxfnkstn","7nwru71mqe","ms1000406","motor","","83","img/motor_2.png","83","motor","2","309","1","0","0","",""
"null","","429821","HierDynxfnkstn","7nwru71mqe","ms1000406","iti","","null","img/motor_2.png","83","motor","","","","","","",""
"533","","430359","HierDynxfnkstn","7nwru71mqe","ms1000406","motor","","70","img/motor_4.png","70","motor","4","310","1","0","0","",""
"null","","430475","HierDynxfnkstn","7nwru71mqe","ms1000406","iti","","null","img/motor_4.png","70","motor","","","","","","",""
"718","","431201","HierDynxfnkstn","7nwru71mqe","ms1000406","motor","","68","img/motor_3.png","68","motor","3","311","1","0","0","",""
"null","","431309","HierDynxfnkstn","7nwru71mqe","ms1000406","iti","","null","img/motor_3.png","68","motor","","","","","","",""
"523","","431840","HierDynxfnkstn","7nwru71mqe","ms1000406","motor","","65","img/motor_1.png","65","motor","1","312","1","0","0","",""
"null","","431948","HierDynxfnkstn","7nwru71mqe","ms1000406","iti","","null","img/motor_1.png","65","motor","","","","","","",""
"413","","432369","HierDynxfnkstn","7nwru71mqe","ms1000406","motor","","76","img/motor_7.png","75","motor","7","313","0","1","0","",""
"256","","432634","HierDynxfnkstn","7nwru71mqe","ms1000406","motorRepeat","","75","img/motor_7.png","75","motor","7","313","1","0","0","",""
"null","","432749","HierDynxfnkstn","7nwru71mqe","ms1000406","iti","","null","img/motor_7.png","75","motor","","","","","","",""
"596","","433360","HierDynxfnkstn","7nwru71mqe","ms1000406","motor","","72","img/motor_5.png","72","motor","5","314","1","0","0","",""
"null","","433475","HierDynxfnkstn","7nwru71mqe","ms1000406","iti","","null","img/motor_5.png","72","motor","","","","","","",""
"388","","433873","HierDynxfnkstn","7nwru71mqe","ms1000406","motor","","72","img/motor_5.png","72","motor","5","315","1","0","0","",""
"null","","433981","HierDynxfnkstn","7nwru71mqe","ms1000406","iti","","null","img/motor_5.png","72","motor","","","","","","",""
"412","","434408","HierDynxfnkstn","7nwru71mqe","ms1000406","motor","","75","img/motor_7.png","75","motor","7","316","1","0","0","",""
"null","","434517","HierDynxfnkstn","7nwru71mqe","ms1000406","iti","","null","img/motor_7.png","75","motor","","","","","","",""
"557","","435081","HierDynxfnkstn","7nwru71mqe","ms1000406","motor","","65","img/motor_1.png","65","motor","1","317","1","0","0","",""
"null","","435196","HierDynxfnkstn","7nwru71mqe","ms1000406","iti","","null","img/motor_1.png","65","motor","","","","","","",""
"453","","435664","HierDynxfnkstn","7nwru71mqe","ms1000406","motor","","70","img/motor_4.png","70","motor","4","318","1","0","0","",""
"null","","435780","HierDynxfnkstn","7nwru71mqe","ms1000406","iti","","null","img/motor_4.png","70","motor","","","","","","",""
"749","","436538","HierDynxfnkstn","7nwru71mqe","ms1000406","motor","","65","img/motor_1.png","65","motor","1","319","1","0","0","",""
"null","","436653","HierDynxfnkstn","7nwru71mqe","ms1000406","iti","","null","img/motor_1.png","65","motor","","","","","","",""
"395","","437058","HierDynxfnkstn","7nwru71mqe","ms1000406","motor","","76","img/motor_8.png","76","motor","8","320","1","0","0","",""
"null","","437172","HierDynxfnkstn","7nwru71mqe","ms1000406","iti","","null","img/motor_8.png","76","motor","","","","","","",""
"1115","","438298","HierDynxfnkstn","7nwru71mqe","ms1000406","motor","","70","img/motor_4.png","70","motor","4","321","1","0","0","",""
"null","","438413","HierDynxfnkstn","7nwru71mqe","ms1000406","iti","","null","img/motor_4.png","70","motor","","","","","","",""
"772","","439200","HierDynxfnkstn","7nwru71mqe","ms1000406","motor","","74","img/motor_6.png","74","motor","6","322","1","0","0","",""
"null","","439310","HierDynxfnkstn","7nwru71mqe","ms1000406","iti","","null","img/motor_6.png","74","motor","","","","","","",""
"700","","440016","HierDynxfnkstn","7nwru71mqe","ms1000406","motor","","70","img/motor_4.png","70","motor","4","323","1","0","0","",""
"null","","440132","HierDynxfnkstn","7nwru71mqe","ms1000406","iti","","null","img/motor_4.png","70","motor","","","","","","",""
"549","","440690","HierDynxfnkstn","7nwru71mqe","ms1000406","motor","","75","img/motor_7.png","75","motor","7","324","1","0","0","",""
"null","","440804","HierDynxfnkstn","7nwru71mqe","ms1000406","iti","","null","img/motor_7.png","75","motor","","","","","","",""
"1004","","441825","HierDynxfnkstn","7nwru71mqe","ms1000406","motor","","83","img/motor_2.png","83","motor","2","325","1","0","0","",""
"null","","441935","HierDynxfnkstn","7nwru71mqe","ms1000406","iti","","null","img/motor_2.png","83","motor","","","","","","",""
"554","","442497","HierDynxfnkstn","7nwru71mqe","ms1000406","motor","","76","img/motor_8.png","76","motor","8","326","1","0","0","",""
"null","","442605","HierDynxfnkstn","7nwru71mqe","ms1000406","iti","","null","img/motor_8.png","76","motor","","","","","","",""
"676","","443296","HierDynxfnkstn","7nwru71mqe","ms1000406","motor","","65","img/motor_1.png","65","motor","1","327","1","0","0","",""
"null","","443406","HierDynxfnkstn","7nwru71mqe","ms1000406","iti","","null","img/motor_1.png","65","motor","","","","","","",""
"547","","443961","HierDynxfnkstn","7nwru71mqe","ms1000406","motor","","72","img/motor_5.png","72","motor","5","328","1","0","0","",""
"null","","444077","HierDynxfnkstn","7nwru71mqe","ms1000406","iti","","null","img/motor_5.png","72","motor","","","","","","",""
"541","","444625","HierDynxfnkstn","7nwru71mqe","ms1000406","motor","","76","img/motor_8.png","76","motor","8","329","1","0","0","",""
"null","","444733","HierDynxfnkstn","7nwru71mqe","ms1000406","iti","","null","img/motor_8.png","76","motor","","","","","","",""
"484","","445225","HierDynxfnkstn","7nwru71mqe","ms1000406","motor","","76","img/motor_8.png","76","motor","8","330","1","0","0","",""
"null","","445332","HierDynxfnkstn","7nwru71mqe","ms1000406","iti","","null","img/motor_8.png","76","motor","","","","","","",""
"540","","445889","HierDynxfnkstn","7nwru71mqe","ms1000406","motor","","65","img/motor_1.png","65","motor","1","331","1","0","0","",""
"null","","446005","HierDynxfnkstn","7nwru71mqe","ms1000406","iti","","null","img/motor_1.png","65","motor","","","","","","",""
"547","","446568","HierDynxfnkstn","7nwru71mqe","ms1000406","motor","","70","img/motor_4.png","70","motor","4","332","1","0","0","",""
"null","","446678","HierDynxfnkstn","7nwru71mqe","ms1000406","iti","","null","img/motor_4.png","70","motor","","","","","","",""
"492","","447185","HierDynxfnkstn","7nwru71mqe","ms1000406","motor","","72","img/motor_5.png","72","motor","5","333","1","0","0","",""
"null","","447294","HierDynxfnkstn","7nwru71mqe","ms1000406","iti","","null","img/motor_5.png","72","motor","","","","","","",""
"564","","447865","HierDynxfnkstn","7nwru71mqe","ms1000406","motor","","72","img/motor_5.png","72","motor","5","334","1","0","0","",""
"null","","447974","HierDynxfnkstn","7nwru71mqe","ms1000406","iti","","null","img/motor_5.png","72","motor","","","","","","",""
"524","","448505","HierDynxfnkstn","7nwru71mqe","ms1000406","motor","","65","img/motor_1.png","65","motor","1","335","1","0","0","",""
"null","","448620","HierDynxfnkstn","7nwru71mqe","ms1000406","iti","","null","img/motor_1.png","65","motor","","","","","","",""
"636","","449272","HierDynxfnkstn","7nwru71mqe","ms1000406","motor","","68","img/motor_3.png","68","motor","3","336","1","0","0","",""
"null","","449388","HierDynxfnkstn","7nwru71mqe","ms1000406","iti","","null","img/motor_3.png","68","motor","","","","","","",""
"629","","450032","HierDynxfnkstn","7nwru71mqe","ms1000406","motor","","65","img/motor_1.png","65","motor","1","337","1","0","0","",""
"null","","450149","HierDynxfnkstn","7nwru71mqe","ms1000406","iti","","null","img/motor_1.png","65","motor","","","","","","",""
"997","","451153","HierDynxfnkstn","7nwru71mqe","ms1000406","motor","","75","img/motor_8.png","76","motor","8","338","0","1","0","",""
"609","","451777","HierDynxfnkstn","7nwru71mqe","ms1000406","motorRepeat","","76","img/motor_8.png","76","motor","8","338","1","0","0","",""
"null","","451893","HierDynxfnkstn","7nwru71mqe","ms1000406","iti","","null","img/motor_8.png","76","motor","","","","","","",""
"781","","452689","HierDynxfnkstn","7nwru71mqe","ms1000406","motor","","68","img/motor_3.png","68","motor","3","339","1","0","0","",""
"null","","452804","HierDynxfnkstn","7nwru71mqe","ms1000406","iti","","null","img/motor_3.png","68","motor","","","","","","",""
"556","","453376","HierDynxfnkstn","7nwru71mqe","ms1000406","motor","","75","img/motor_7.png","75","motor","7","340","1","0","0","",""
"null","","453493","HierDynxfnkstn","7nwru71mqe","ms1000406","iti","","null","img/motor_7.png","75","motor","","","","","","",""
"395","","453898","HierDynxfnkstn","7nwru71mqe","ms1000406","motor","","76","img/motor_8.png","76","motor","8","341","1","0","0","",""
"null","","454006","HierDynxfnkstn","7nwru71mqe","ms1000406","iti","","null","img/motor_8.png","76","motor","","","","","","",""
"643","","454671","HierDynxfnkstn","7nwru71mqe","ms1000406","motor","","72","img/motor_5.png","72","motor","5","342","1","0","0","",""
"null","","454787","HierDynxfnkstn","7nwru71mqe","ms1000406","iti","","null","img/motor_5.png","72","motor","","","","","","",""
"411","","455209","HierDynxfnkstn","7nwru71mqe","ms1000406","motor","","75","img/motor_6.png","74","motor","6","343","0","1","0","",""
"352","","455576","HierDynxfnkstn","7nwru71mqe","ms1000406","motorRepeat","","74","img/motor_6.png","74","motor","6","343","1","0","0","",""
"null","","455687","HierDynxfnkstn","7nwru71mqe","ms1000406","iti","","null","img/motor_6.png","74","motor","","","","","","",""
"659","","456361","HierDynxfnkstn","7nwru71mqe","ms1000406","motor","","65","img/motor_1.png","65","motor","1","344","1","0","0","",""
"null","","456472","HierDynxfnkstn","7nwru71mqe","ms1000406","iti","","null","img/motor_1.png","65","motor","","","","","","",""
"474","","456961","HierDynxfnkstn","7nwru71mqe","ms1000406","motor","","70","img/motor_4.png","70","motor","4","345","1","0","0","",""
"null","","457077","HierDynxfnkstn","7nwru71mqe","ms1000406","iti","","null","img/motor_4.png","70","motor","","","","","","",""
"1084","","458177","HierDynxfnkstn","7nwru71mqe","ms1000406","motor","","68","img/motor_3.png","68","motor","3","346","1","0","0","",""
"null","","458294","HierDynxfnkstn","7nwru71mqe","ms1000406","iti","","null","img/motor_3.png","68","motor","","","","","","",""
"1011","","459313","HierDynxfnkstn","7nwru71mqe","ms1000406","motor","","68","img/motor_4.png","70","motor","4","347","0","1","0","",""
"280","","459608","HierDynxfnkstn","7nwru71mqe","ms1000406","motorRepeat","","70","img/motor_4.png","70","motor","4","347","1","0","0","",""
"null","","459725","HierDynxfnkstn","7nwru71mqe","ms1000406","iti","","null","img/motor_4.png","70","motor","","","","","","",""
"612","","460353","HierDynxfnkstn","7nwru71mqe","ms1000406","motor","","75","img/motor_7.png","75","motor","7","348","1","0","0","",""
"null","","460469","HierDynxfnkstn","7nwru71mqe","ms1000406","iti","","null","img/motor_7.png","75","motor","","","","","","",""
"772","","461250","HierDynxfnkstn","7nwru71mqe","ms1000406","motor","","70","img/motor_4.png","70","motor","4","349","1","0","0","",""
"null","","461359","HierDynxfnkstn","7nwru71mqe","ms1000406","iti","","null","img/motor_4.png","70","motor","","","","","","",""
"507","","461874","HierDynxfnkstn","7nwru71mqe","ms1000406","motor","","76","img/motor_8.png","76","motor","8","350","1","0","0","",""
"null","","461981","HierDynxfnkstn","7nwru71mqe","ms1000406","iti","","null","img/motor_8.png","76","motor","","","","","","",""
"548","","462538","HierDynxfnkstn","7nwru71mqe","ms1000406","motor","","72","img/motor_5.png","72","motor","5","351","1","0","0","",""
"null","","462654","HierDynxfnkstn","7nwru71mqe","ms1000406","iti","","null","img/motor_5.png","72","motor","","","","","","",""
"507","","463177","HierDynxfnkstn","7nwru71mqe","ms1000406","motor","","75","img/motor_7.png","75","motor","7","352","1","0","0","",""
"null","","463293","HierDynxfnkstn","7nwru71mqe","ms1000406","iti","","null","img/motor_7.png","75","motor","","","","","","",""
"307","","463616","HierDynxfnkstn","7nwru71mqe","ms1000406","motor","","75","img/motor_7.png","75","motor","7","353","1","0","0","",""
"null","","463726","HierDynxfnkstn","7nwru71mqe","ms1000406","iti","","null","img/motor_7.png","75","motor","","","","","","",""
"932","","464665","HierDynxfnkstn","7nwru71mqe","ms1000406","motor","","68","img/motor_3.png","68","motor","3","354","1","0","0","",""
"null","","464775","HierDynxfnkstn","7nwru71mqe","ms1000406","iti","","null","img/motor_3.png","68","motor","","","","","","",""
"603","","465392","HierDynxfnkstn","7nwru71mqe","ms1000406","motor","","70","img/motor_4.png","70","motor","4","355","1","0","0","",""
"null","","465508","HierDynxfnkstn","7nwru71mqe","ms1000406","iti","","null","img/motor_4.png","70","motor","","","","","","",""
"563","","466081","HierDynxfnkstn","7nwru71mqe","ms1000406","motor","","72","img/motor_5.png","72","motor","5","356","1","0","0","",""
"null","","466197","HierDynxfnkstn","7nwru71mqe","ms1000406","iti","","null","img/motor_5.png","72","motor","","","","","","",""
"492","","466705","HierDynxfnkstn","7nwru71mqe","ms1000406","motor","","65","img/motor_1.png","65","motor","1","357","1","0","0","",""
"null","","466821","HierDynxfnkstn","7nwru71mqe","ms1000406","iti","","null","img/motor_1.png","65","motor","","","","","","",""
"507","","467337","HierDynxfnkstn","7nwru71mqe","ms1000406","motor","","75","img/motor_6.png","74","motor","6","358","0","1","0","",""
"279","","467626","HierDynxfnkstn","7nwru71mqe","ms1000406","motorRepeat","","74","img/motor_6.png","74","motor","6","358","1","0","0","",""
"null","","467741","HierDynxfnkstn","7nwru71mqe","ms1000406","iti","","null","img/motor_6.png","74","motor","","","","","","",""
"764","","468520","HierDynxfnkstn","7nwru71mqe","ms1000406","motor","","68","img/motor_3.png","68","motor","3","359","1","0","0","",""
"null","","468636","HierDynxfnkstn","7nwru71mqe","ms1000406","iti","","null","img/motor_3.png","68","motor","","","","","","",""
"621","","469273","HierDynxfnkstn","7nwru71mqe","ms1000406","motor","","65","img/motor_1.png","65","motor","1","360","1","0","0","",""
"null","","469382","HierDynxfnkstn","7nwru71mqe","ms1000406","iti","","null","img/motor_1.png","65","motor","","","","","","",""
"540","","469936","HierDynxfnkstn","7nwru71mqe","ms1000406","motor","","83","img/motor_2.png","83","motor","2","361","1","0","0","",""
"null","","470053","HierDynxfnkstn","7nwru71mqe","ms1000406","iti","","null","img/motor_2.png","83","motor","","","","","","",""
