"rt","responses","time_elapsed","subject","prolificID","demoID","trialType","question_order","key_press","stim","corrresp","phase","stimNum","trialNum","corr","repeatTrial","motorSwitch","pracCounter","hierarchy"
"549110","{""Q0"":""ms1000369""}","549142","HierDydsw9haoo","ohtshgizpu","ms1000369","","","","","","","","","","","","",""
"2031","","551189","HierDydsw9haoo","ohtshgizpu","ms1000369","","","","","","","","","","","","",""
"","","553478","HierDydsw9haoo","ohtshgizpu","ms1000369","fullscreen","","","","","","","","","","","",""
"7703","{""Vision"":""No"",""Handedness"":""Right"",""Gender"":""female""}","561196","HierDydsw9haoo","ohtshgizpu","ms1000369","","[0,1,2]","","","","","","","","","","",""
"2818","{""Q0"":""22""}","564032","HierDydsw9haoo","ohtshgizpu","ms1000369","","","","","","","","","","","","",""
"107120","","671167","HierDydsw9haoo","ohtshgizpu","ms1000369","","","","","","","","","","","","",""
"693","","671873","HierDydsw9haoo","ohtshgizpu","ms1000369","motor","","76","img/motor_8.png","76","motor","8","1","1","0","0","",""
"null","","671982","HierDydsw9haoo","ohtshgizpu","ms1000369","iti","","null","img/motor_8.png","76","motor","","","","","","",""
"483","","672478","HierDydsw9haoo","ohtshgizpu","ms1000369","motor","","72","img/motor_5.png","72","motor","5","2","1","0","0","",""
"null","","672594","HierDydsw9haoo","ohtshgizpu","ms1000369","iti","","null","img/motor_5.png","72","motor","","","","","","",""
"430","","673039","HierDydsw9haoo","ohtshgizpu","ms1000369","motor","","70","img/motor_4.png","70","motor","4","3","1","0","0","",""
"null","","673149","HierDydsw9haoo","ohtshgizpu","ms1000369","iti","","null","img/motor_4.png","70","motor","","","","","","",""
"435","","673592","HierDydsw9haoo","ohtshgizpu","ms1000369","motor","","65","img/motor_1.png","65","motor","1","4","1","0","0","",""
"null","","673700","HierDydsw9haoo","ohtshgizpu","ms1000369","iti","","null","img/motor_1.png","65","motor","","","","","","",""
"452","","674160","HierDydsw9haoo","ohtshgizpu","ms1000369","motor","","65","img/motor_1.png","65","motor","1","5","1","0","0","",""
"null","","674274","HierDydsw9haoo","ohtshgizpu","ms1000369","iti","","null","img/motor_1.png","65","motor","","","","","","",""
"374","","674657","HierDydsw9haoo","ohtshgizpu","ms1000369","motor","","76","img/motor_8.png","76","motor","8","6","1","0","0","",""
"null","","674771","HierDydsw9haoo","ohtshgizpu","ms1000369","iti","","null","img/motor_8.png","76","motor","","","","","","",""
"781","","675560","HierDydsw9haoo","ohtshgizpu","ms1000369","motor","","68","img/motor_3.png","68","motor","3","7","1","0","0","",""
"null","","675667","HierDydsw9haoo","ohtshgizpu","ms1000369","iti","","null","img/motor_3.png","68","motor","","","","","","",""
"540","","676216","HierDydsw9haoo","ohtshgizpu","ms1000369","motor","","72","img/motor_5.png","72","motor","5","8","1","0","0","",""
"null","","676324","HierDydsw9haoo","ohtshgizpu","ms1000369","iti","","null","img/motor_5.png","72","motor","","","","","","",""
"444","","676776","HierDydsw9haoo","ohtshgizpu","ms1000369","motor","","74","img/motor_6.png","74","motor","6","9","1","0","0","",""
"null","","676891","HierDydsw9haoo","ohtshgizpu","ms1000369","iti","","null","img/motor_6.png","74","motor","","","","","","",""
"525","","677431","HierDydsw9haoo","ohtshgizpu","ms1000369","motor","","83","img/motor_2.png","83","motor","2","10","1","0","0","",""
"null","","677541","HierDydsw9haoo","ohtshgizpu","ms1000369","iti","","null","img/motor_2.png","83","motor","","","","","","",""
"443","","677992","HierDydsw9haoo","ohtshgizpu","ms1000369","motor","","76","img/motor_8.png","76","motor","8","11","1","0","0","",""
"null","","678107","HierDydsw9haoo","ohtshgizpu","ms1000369","iti","","null","img/motor_8.png","76","motor","","","","","","",""
"453","","678574","HierDydsw9haoo","ohtshgizpu","ms1000369","motor","","65","img/motor_1.png","65","motor","1","12","1","0","0","",""
"null","","678683","HierDydsw9haoo","ohtshgizpu","ms1000369","iti","","null","img/motor_1.png","65","motor","","","","","","",""
"534","","679224","HierDydsw9haoo","ohtshgizpu","ms1000369","motor","","83","img/motor_2.png","83","motor","2","13","1","0","0","",""
"null","","679332","HierDydsw9haoo","ohtshgizpu","ms1000369","iti","","null","img/motor_2.png","83","motor","","","","","","",""
"460","","679800","HierDydsw9haoo","ohtshgizpu","ms1000369","motor","","83","img/motor_2.png","83","motor","2","14","1","0","0","",""
"null","","679915","HierDydsw9haoo","ohtshgizpu","ms1000369","iti","","null","img/motor_2.png","83","motor","","","","","","",""
"508","","680432","HierDydsw9haoo","ohtshgizpu","ms1000369","motor","","68","img/motor_3.png","68","motor","3","15","1","0","0","",""
"null","","680547","HierDydsw9haoo","ohtshgizpu","ms1000369","iti","","null","img/motor_3.png","68","motor","","","","","","",""
"445","","681001","HierDydsw9haoo","ohtshgizpu","ms1000369","motor","","76","img/motor_8.png","76","motor","8","16","1","0","0","",""
"null","","681114","HierDydsw9haoo","ohtshgizpu","ms1000369","iti","","null","img/motor_8.png","76","motor","","","","","","",""
"492","","681616","HierDydsw9haoo","ohtshgizpu","ms1000369","motor","","72","img/motor_5.png","72","motor","5","17","1","0","0","",""
"null","","681731","HierDydsw9haoo","ohtshgizpu","ms1000369","iti","","null","img/motor_5.png","72","motor","","","","","","",""
"542","","682279","HierDydsw9haoo","ohtshgizpu","ms1000369","motor","","70","img/motor_4.png","70","motor","4","18","1","0","0","",""
"null","","682388","HierDydsw9haoo","ohtshgizpu","ms1000369","iti","","null","img/motor_4.png","70","motor","","","","","","",""
"446","","682846","HierDydsw9haoo","ohtshgizpu","ms1000369","motor","","72","img/motor_5.png","72","motor","5","19","1","0","0","",""
"null","","682955","HierDydsw9haoo","ohtshgizpu","ms1000369","iti","","null","img/motor_5.png","72","motor","","","","","","",""
"493","","683463","HierDydsw9haoo","ohtshgizpu","ms1000369","motor","","75","img/motor_7.png","75","motor","7","20","1","0","0","",""
"null","","683578","HierDydsw9haoo","ohtshgizpu","ms1000369","iti","","null","img/motor_7.png","75","motor","","","","","","",""
"518","","684104","HierDydsw9haoo","ohtshgizpu","ms1000369","motor","","68","img/motor_3.png","68","motor","3","21","1","0","0","",""
"null","","684218","HierDydsw9haoo","ohtshgizpu","ms1000369","iti","","null","img/motor_3.png","68","motor","","","","","","",""
"429","","684656","HierDydsw9haoo","ohtshgizpu","ms1000369","motor","","65","img/motor_1.png","65","motor","1","22","1","0","0","",""
"null","","684764","HierDydsw9haoo","ohtshgizpu","ms1000369","iti","","null","img/motor_1.png","65","motor","","","","","","",""
"557","","685335","HierDydsw9haoo","ohtshgizpu","ms1000369","motor","","68","img/motor_3.png","68","motor","3","23","1","0","0","",""
"null","","685450","HierDydsw9haoo","ohtshgizpu","ms1000369","iti","","null","img/motor_3.png","68","motor","","","","","","",""
"430","","685888","HierDydsw9haoo","ohtshgizpu","ms1000369","motor","","76","img/motor_8.png","76","motor","8","24","1","0","0","",""
"null","","685997","HierDydsw9haoo","ohtshgizpu","ms1000369","iti","","null","img/motor_8.png","76","motor","","","","","","",""
"459","","686471","HierDydsw9haoo","ohtshgizpu","ms1000369","motor","","75","img/motor_7.png","75","motor","7","25","1","0","0","",""
"null","","686580","HierDydsw9haoo","ohtshgizpu","ms1000369","iti","","null","img/motor_7.png","75","motor","","","","","","",""
"573","","687166","HierDydsw9haoo","ohtshgizpu","ms1000369","motor","","70","img/motor_4.png","70","motor","4","26","1","0","0","",""
"null","","687282","HierDydsw9haoo","ohtshgizpu","ms1000369","iti","","null","img/motor_4.png","70","motor","","","","","","",""
"559","","687849","HierDydsw9haoo","ohtshgizpu","ms1000369","motor","","83","img/motor_2.png","83","motor","2","27","1","0","0","",""
"null","","687957","HierDydsw9haoo","ohtshgizpu","ms1000369","iti","","null","img/motor_2.png","83","motor","","","","","","",""
"563","","688529","HierDydsw9haoo","ohtshgizpu","ms1000369","motor","","74","img/motor_6.png","74","motor","6","28","1","0","0","",""
"null","","688637","HierDydsw9haoo","ohtshgizpu","ms1000369","iti","","null","img/motor_6.png","74","motor","","","","","","",""
"492","","689136","HierDydsw9haoo","ohtshgizpu","ms1000369","motor","","65","img/motor_1.png","65","motor","1","29","1","0","0","",""
"null","","689250","HierDydsw9haoo","ohtshgizpu","ms1000369","iti","","null","img/motor_1.png","65","motor","","","","","","",""
"437","","689696","HierDydsw9haoo","ohtshgizpu","ms1000369","motor","","83","img/motor_2.png","83","motor","2","30","1","0","0","",""
"null","","689811","HierDydsw9haoo","ohtshgizpu","ms1000369","iti","","null","img/motor_2.png","83","motor","","","","","","",""
"508","","690334","HierDydsw9haoo","ohtshgizpu","ms1000369","motor","","65","img/motor_1.png","65","motor","1","31","1","0","0","",""
"null","","690450","HierDydsw9haoo","ohtshgizpu","ms1000369","iti","","null","img/motor_1.png","65","motor","","","","","","",""
"822","","691286","HierDydsw9haoo","ohtshgizpu","ms1000369","motor","","74","img/motor_6.png","74","motor","6","32","1","0","0","",""
"null","","691395","HierDydsw9haoo","ohtshgizpu","ms1000369","iti","","null","img/motor_6.png","74","motor","","","","","","",""
"398","","691807","HierDydsw9haoo","ohtshgizpu","ms1000369","motor","","74","img/motor_6.png","74","motor","6","33","1","0","0","",""
"null","","691916","HierDydsw9haoo","ohtshgizpu","ms1000369","iti","","null","img/motor_6.png","74","motor","","","","","","",""
"412","","692336","HierDydsw9haoo","ohtshgizpu","ms1000369","motor","","75","img/motor_7.png","75","motor","7","34","1","0","0","",""
"null","","692451","HierDydsw9haoo","ohtshgizpu","ms1000369","iti","","null","img/motor_7.png","75","motor","","","","","","",""
"534","","692999","HierDydsw9haoo","ohtshgizpu","ms1000369","motor","","68","img/motor_3.png","68","motor","3","35","1","0","0","",""
"null","","693107","HierDydsw9haoo","ohtshgizpu","ms1000369","iti","","null","img/motor_3.png","68","motor","","","","","","",""
"493","","693615","HierDydsw9haoo","ohtshgizpu","ms1000369","motor","","70","img/motor_4.png","70","motor","4","36","1","0","0","",""
"null","","693730","HierDydsw9haoo","ohtshgizpu","ms1000369","iti","","null","img/motor_4.png","70","motor","","","","","","",""
"503","","694240","HierDydsw9haoo","ohtshgizpu","ms1000369","motor","","76","img/motor_8.png","76","motor","8","37","1","0","0","",""
"null","","694349","HierDydsw9haoo","ohtshgizpu","ms1000369","iti","","null","img/motor_8.png","76","motor","","","","","","",""
"475","","694832","HierDydsw9haoo","ohtshgizpu","ms1000369","motor","","70","img/motor_4.png","70","motor","4","38","1","0","0","",""
"null","","694947","HierDydsw9haoo","ohtshgizpu","ms1000369","iti","","null","img/motor_4.png","70","motor","","","","","","",""
"509","","695464","HierDydsw9haoo","ohtshgizpu","ms1000369","motor","","72","img/motor_5.png","72","motor","5","39","1","0","0","",""
"null","","695572","HierDydsw9haoo","ohtshgizpu","ms1000369","iti","","null","img/motor_5.png","72","motor","","","","","","",""
"508","","696089","HierDydsw9haoo","ohtshgizpu","ms1000369","motor","","75","img/motor_7.png","75","motor","7","40","1","0","0","",""
"null","","696197","HierDydsw9haoo","ohtshgizpu","ms1000369","iti","","null","img/motor_7.png","75","motor","","","","","","",""
"437","","696647","HierDydsw9haoo","ohtshgizpu","ms1000369","motor","","72","img/motor_5.png","72","motor","5","41","1","0","0","",""
"null","","696756","HierDydsw9haoo","ohtshgizpu","ms1000369","iti","","null","img/motor_5.png","72","motor","","","","","","",""
"373","","697136","HierDydsw9haoo","ohtshgizpu","ms1000369","motor","","75","img/motor_7.png","75","motor","7","42","1","0","0","",""
"null","","697250","HierDydsw9haoo","ohtshgizpu","ms1000369","iti","","null","img/motor_7.png","75","motor","","","","","","",""
"534","","697793","HierDydsw9haoo","ohtshgizpu","ms1000369","motor","","83","img/motor_2.png","83","motor","2","43","1","0","0","",""
"null","","697906","HierDydsw9haoo","ohtshgizpu","ms1000369","iti","","null","img/motor_2.png","83","motor","","","","","","",""
"406","","698320","HierDydsw9haoo","ohtshgizpu","ms1000369","motor","","76","img/motor_8.png","76","motor","8","44","1","0","0","",""
"null","","698435","HierDydsw9haoo","ohtshgizpu","ms1000369","iti","","null","img/motor_8.png","76","motor","","","","","","",""
"422","","698864","HierDydsw9haoo","ohtshgizpu","ms1000369","motor","","70","img/motor_4.png","70","motor","4","45","1","0","0","",""
"null","","698979","HierDydsw9haoo","ohtshgizpu","ms1000369","iti","","null","img/motor_4.png","70","motor","","","","","","",""
"390","","699377","HierDydsw9haoo","ohtshgizpu","ms1000369","motor","","68","img/motor_3.png","68","motor","3","46","1","0","0","",""
"null","","699485","HierDydsw9haoo","ohtshgizpu","ms1000369","iti","","null","img/motor_3.png","68","motor","","","","","","",""
"556","","700055","HierDydsw9haoo","ohtshgizpu","ms1000369","motor","","74","img/motor_6.png","74","motor","6","47","1","0","0","",""
"null","","700165","HierDydsw9haoo","ohtshgizpu","ms1000369","iti","","null","img/motor_6.png","74","motor","","","","","","",""
"443","","700617","HierDydsw9haoo","ohtshgizpu","ms1000369","motor","","72","img/motor_5.png","72","motor","5","48","1","0","0","",""
"null","","700725","HierDydsw9haoo","ohtshgizpu","ms1000369","iti","","null","img/motor_5.png","72","motor","","","","","","",""
"467","","701199","HierDydsw9haoo","ohtshgizpu","ms1000369","motor","","68","img/motor_3.png","68","motor","3","49","1","0","0","",""
"null","","701307","HierDydsw9haoo","ohtshgizpu","ms1000369","iti","","null","img/motor_3.png","68","motor","","","","","","",""
"421","","701735","HierDydsw9haoo","ohtshgizpu","ms1000369","motor","","76","img/motor_8.png","76","motor","8","50","1","0","0","",""
"null","","701850","HierDydsw9haoo","ohtshgizpu","ms1000369","iti","","null","img/motor_8.png","76","motor","","","","","","",""
"607","","702464","HierDydsw9haoo","ohtshgizpu","ms1000369","motor","","83","img/motor_2.png","83","motor","2","51","1","0","0","",""
"null","","702572","HierDydsw9haoo","ohtshgizpu","ms1000369","iti","","null","img/motor_2.png","83","motor","","","","","","",""
"596","","703176","HierDydsw9haoo","ohtshgizpu","ms1000369","motor","","75","img/motor_7.png","75","motor","7","52","1","0","0","",""
"null","","703290","HierDydsw9haoo","ohtshgizpu","ms1000369","iti","","null","img/motor_7.png","75","motor","","","","","","",""
"510","","703815","HierDydsw9haoo","ohtshgizpu","ms1000369","motor","","68","img/motor_3.png","68","motor","3","53","1","0","0","",""
"null","","703924","HierDydsw9haoo","ohtshgizpu","ms1000369","iti","","null","img/motor_3.png","68","motor","","","","","","",""
"349","","704281","HierDydsw9haoo","ohtshgizpu","ms1000369","motor","","68","img/motor_3.png","68","motor","3","54","1","0","0","",""
"null","","704395","HierDydsw9haoo","ohtshgizpu","ms1000369","iti","","null","img/motor_3.png","68","motor","","","","","","",""
"422","","704825","HierDydsw9haoo","ohtshgizpu","ms1000369","motor","","83","img/motor_2.png","83","motor","2","55","1","0","0","",""
"null","","704933","HierDydsw9haoo","ohtshgizpu","ms1000369","iti","","null","img/motor_2.png","83","motor","","","","","","",""
"428","","705369","HierDydsw9haoo","ohtshgizpu","ms1000369","motor","","76","img/motor_8.png","76","motor","8","56","1","0","0","",""
"null","","705477","HierDydsw9haoo","ohtshgizpu","ms1000369","iti","","null","img/motor_8.png","76","motor","","","","","","",""
"476","","705961","HierDydsw9haoo","ohtshgizpu","ms1000369","motor","","83","img/motor_2.png","83","motor","2","57","1","0","0","",""
"null","","706074","HierDydsw9haoo","ohtshgizpu","ms1000369","iti","","null","img/motor_2.png","83","motor","","","","","","",""
"382","","706471","HierDydsw9haoo","ohtshgizpu","ms1000369","motor","","68","img/motor_3.png","68","motor","3","58","1","0","0","",""
"null","","706586","HierDydsw9haoo","ohtshgizpu","ms1000369","iti","","null","img/motor_3.png","68","motor","","","","","","",""
"486","","707080","HierDydsw9haoo","ohtshgizpu","ms1000369","motor","","65","img/motor_1.png","65","motor","1","59","1","0","0","",""
"null","","707196","HierDydsw9haoo","ohtshgizpu","ms1000369","iti","","null","img/motor_1.png","65","motor","","","","","","",""
"461","","707672","HierDydsw9haoo","ohtshgizpu","ms1000369","motor","","70","img/motor_4.png","70","motor","4","60","1","0","0","",""
"null","","707787","HierDydsw9haoo","ohtshgizpu","ms1000369","iti","","null","img/motor_4.png","70","motor","","","","","","",""
"438","","708239","HierDydsw9haoo","ohtshgizpu","ms1000369","motor","","83","img/motor_2.png","83","motor","2","61","1","0","0","",""
"null","","708348","HierDydsw9haoo","ohtshgizpu","ms1000369","iti","","null","img/motor_2.png","83","motor","","","","","","",""
"461","","708817","HierDydsw9haoo","ohtshgizpu","ms1000369","motor","","75","img/motor_7.png","75","motor","7","62","1","0","0","",""
"null","","708931","HierDydsw9haoo","ohtshgizpu","ms1000369","iti","","null","img/motor_7.png","75","motor","","","","","","",""
"485","","709432","HierDydsw9haoo","ohtshgizpu","ms1000369","motor","","70","img/motor_4.png","70","motor","4","63","1","0","0","",""
"null","","709546","HierDydsw9haoo","ohtshgizpu","ms1000369","iti","","null","img/motor_4.png","70","motor","","","","","","",""
"358","","709912","HierDydsw9haoo","ohtshgizpu","ms1000369","motor","","68","img/motor_3.png","68","motor","3","64","1","0","0","",""
"null","","710027","HierDydsw9haoo","ohtshgizpu","ms1000369","iti","","null","img/motor_3.png","68","motor","","","","","","",""
"414","","710449","HierDydsw9haoo","ohtshgizpu","ms1000369","motor","","75","img/motor_7.png","75","motor","7","65","1","0","0","",""
"null","","710557","HierDydsw9haoo","ohtshgizpu","ms1000369","iti","","null","img/motor_7.png","75","motor","","","","","","",""
"460","","711025","HierDydsw9haoo","ohtshgizpu","ms1000369","motor","","70","img/motor_3.png","68","motor","3","66","0","1","0","",""
"352","","711384","HierDydsw9haoo","ohtshgizpu","ms1000369","motorRepeat","","68","img/motor_3.png","68","motor","3","66","1","0","0","",""
"null","","711500","HierDydsw9haoo","ohtshgizpu","ms1000369","iti","","null","img/motor_3.png","68","motor","","","","","","",""
"533","","712047","HierDydsw9haoo","ohtshgizpu","ms1000369","motor","","72","img/motor_5.png","72","motor","5","67","1","0","0","",""
"null","","712163","HierDydsw9haoo","ohtshgizpu","ms1000369","iti","","null","img/motor_5.png","72","motor","","","","","","",""
"431","","712607","HierDydsw9haoo","ohtshgizpu","ms1000369","motor","","68","img/motor_3.png","68","motor","3","68","1","0","0","",""
"null","","712723","HierDydsw9haoo","ohtshgizpu","ms1000369","iti","","null","img/motor_3.png","68","motor","","","","","","",""
"357","","713089","HierDydsw9haoo","ohtshgizpu","ms1000369","motor","","68","img/motor_3.png","68","motor","3","69","1","0","0","",""
"null","","713197","HierDydsw9haoo","ohtshgizpu","ms1000369","iti","","null","img/motor_3.png","68","motor","","","","","","",""
"533","","713737","HierDydsw9haoo","ohtshgizpu","ms1000369","motor","","68","img/motor_2.png","83","motor","2","70","0","1","0","",""
"375","","714128","HierDydsw9haoo","ohtshgizpu","ms1000369","motorRepeat","","83","img/motor_2.png","83","motor","2","70","1","0","0","",""
"null","","714244","HierDydsw9haoo","ohtshgizpu","ms1000369","iti","","null","img/motor_2.png","83","motor","","","","","","",""
"582","","714832","HierDydsw9haoo","ohtshgizpu","ms1000369","motor","","72","img/motor_5.png","72","motor","5","71","1","0","0","",""
"null","","714947","HierDydsw9haoo","ohtshgizpu","ms1000369","iti","","null","img/motor_5.png","72","motor","","","","","","",""
"606","","715561","HierDydsw9haoo","ohtshgizpu","ms1000369","motor","","65","img/motor_1.png","65","motor","1","72","1","0","0","",""
"null","","715669","HierDydsw9haoo","ohtshgizpu","ms1000369","iti","","null","img/motor_1.png","65","motor","","","","","","",""
"397","","716073","HierDydsw9haoo","ohtshgizpu","ms1000369","motor","","76","img/motor_8.png","76","motor","8","73","1","0","0","",""
"null","","716188","HierDydsw9haoo","ohtshgizpu","ms1000369","iti","","null","img/motor_8.png","76","motor","","","","","","",""
"445","","716641","HierDydsw9haoo","ohtshgizpu","ms1000369","motor","","65","img/motor_1.png","65","motor","1","74","1","0","0","",""
"null","","716755","HierDydsw9haoo","ohtshgizpu","ms1000369","iti","","null","img/motor_1.png","65","motor","","","","","","",""
"366","","717135","HierDydsw9haoo","ohtshgizpu","ms1000369","motor","","76","img/motor_8.png","76","motor","8","75","1","0","0","",""
"null","","717244","HierDydsw9haoo","ohtshgizpu","ms1000369","iti","","null","img/motor_8.png","76","motor","","","","","","",""
"501","","717753","HierDydsw9haoo","ohtshgizpu","ms1000369","motor","","83","img/motor_2.png","83","motor","2","76","1","0","0","",""
"null","","717862","HierDydsw9haoo","ohtshgizpu","ms1000369","iti","","null","img/motor_2.png","83","motor","","","","","","",""
"476","","718345","HierDydsw9haoo","ohtshgizpu","ms1000369","motor","","65","img/motor_1.png","65","motor","1","77","1","0","0","",""
"null","","718459","HierDydsw9haoo","ohtshgizpu","ms1000369","iti","","null","img/motor_1.png","65","motor","","","","","","",""
"358","","718831","HierDydsw9haoo","ohtshgizpu","ms1000369","motor","","83","img/motor_2.png","83","motor","2","78","1","0","0","",""
"null","","718940","HierDydsw9haoo","ohtshgizpu","ms1000369","iti","","null","img/motor_2.png","83","motor","","","","","","",""
"518","","719471","HierDydsw9haoo","ohtshgizpu","ms1000369","motor","","65","img/motor_1.png","65","motor","1","79","1","0","0","",""
"null","","719581","HierDydsw9haoo","ohtshgizpu","ms1000369","iti","","null","img/motor_1.png","65","motor","","","","","","",""
"541","","720128","HierDydsw9haoo","ohtshgizpu","ms1000369","motor","","75","img/motor_7.png","75","motor","7","80","1","0","0","",""
"null","","720243","HierDydsw9haoo","ohtshgizpu","ms1000369","iti","","null","img/motor_7.png","75","motor","","","","","","",""
"431","","720681","HierDydsw9haoo","ohtshgizpu","ms1000369","motor","","74","img/motor_6.png","74","motor","6","81","1","0","0","",""
"null","","720789","HierDydsw9haoo","ohtshgizpu","ms1000369","iti","","null","img/motor_6.png","74","motor","","","","","","",""
"540","","721337","HierDydsw9haoo","ohtshgizpu","ms1000369","motor","","83","img/motor_2.png","83","motor","2","82","1","0","0","",""
"null","","721445","HierDydsw9haoo","ohtshgizpu","ms1000369","iti","","null","img/motor_2.png","83","motor","","","","","","",""
"477","","721929","HierDydsw9haoo","ohtshgizpu","ms1000369","motor","","70","img/motor_4.png","70","motor","4","83","1","0","0","",""
"null","","722037","HierDydsw9haoo","ohtshgizpu","ms1000369","iti","","null","img/motor_4.png","70","motor","","","","","","",""
"620","","722666","HierDydsw9haoo","ohtshgizpu","ms1000369","motor","","76","img/motor_8.png","76","motor","8","84","1","0","0","",""
"null","","722780","HierDydsw9haoo","ohtshgizpu","ms1000369","iti","","null","img/motor_8.png","76","motor","","","","","","",""
"597","","723385","HierDydsw9haoo","ohtshgizpu","ms1000369","motor","","83","img/motor_2.png","83","motor","2","85","1","0","0","",""
"null","","723494","HierDydsw9haoo","ohtshgizpu","ms1000369","iti","","null","img/motor_2.png","83","motor","","","","","","",""
"477","","723984","HierDydsw9haoo","ohtshgizpu","ms1000369","motor","","70","img/motor_4.png","70","motor","4","86","1","0","0","",""
"null","","724099","HierDydsw9haoo","ohtshgizpu","ms1000369","iti","","null","img/motor_4.png","70","motor","","","","","","",""
"470","","724584","HierDydsw9haoo","ohtshgizpu","ms1000369","motor","","75","img/motor_7.png","75","motor","7","87","1","0","0","",""
"null","","724693","HierDydsw9haoo","ohtshgizpu","ms1000369","iti","","null","img/motor_7.png","75","motor","","","","","","",""
"420","","725128","HierDydsw9haoo","ohtshgizpu","ms1000369","motor","","76","img/motor_8.png","76","motor","8","88","1","0","0","",""
"null","","725243","HierDydsw9haoo","ohtshgizpu","ms1000369","iti","","null","img/motor_8.png","76","motor","","","","","","",""
"446","","725703","HierDydsw9haoo","ohtshgizpu","ms1000369","motor","","72","img/motor_5.png","72","motor","5","89","1","0","0","",""
"null","","725812","HierDydsw9haoo","ohtshgizpu","ms1000369","iti","","null","img/motor_5.png","72","motor","","","","","","",""
"500","","726321","HierDydsw9haoo","ohtshgizpu","ms1000369","motor","","83","img/motor_2.png","83","motor","2","90","1","0","0","",""
"null","","726436","HierDydsw9haoo","ohtshgizpu","ms1000369","iti","","null","img/motor_2.png","83","motor","","","","","","",""
"525","","726970","HierDydsw9haoo","ohtshgizpu","ms1000369","motor","","72","img/motor_5.png","72","motor","5","91","1","0","0","",""
"null","","727084","HierDydsw9haoo","ohtshgizpu","ms1000369","iti","","null","img/motor_5.png","72","motor","","","","","","",""
"453","","727546","HierDydsw9haoo","ohtshgizpu","ms1000369","motor","","65","img/motor_1.png","65","motor","1","92","1","0","0","",""
"null","","727654","HierDydsw9haoo","ohtshgizpu","ms1000369","iti","","null","img/motor_1.png","65","motor","","","","","","",""
"372","","728039","HierDydsw9haoo","ohtshgizpu","ms1000369","motor","","83","img/motor_2.png","83","motor","2","93","1","0","0","",""
"null","","728155","HierDydsw9haoo","ohtshgizpu","ms1000369","iti","","null","img/motor_2.png","83","motor","","","","","","",""
"613","","728777","HierDydsw9haoo","ohtshgizpu","ms1000369","motor","","75","img/motor_6.png","74","motor","6","94","0","1","0","",""
"569","","729353","HierDydsw9haoo","ohtshgizpu","ms1000369","motorRepeat","","74","img/motor_6.png","74","motor","6","94","1","0","0","",""
"null","","729461","HierDydsw9haoo","ohtshgizpu","ms1000369","iti","","null","img/motor_6.png","74","motor","","","","","","",""
"412","","729882","HierDydsw9haoo","ohtshgizpu","ms1000369","motor","","75","img/motor_7.png","75","motor","7","95","1","0","0","",""
"null","","729996","HierDydsw9haoo","ohtshgizpu","ms1000369","iti","","null","img/motor_7.png","75","motor","","","","","","",""
"421","","730432","HierDydsw9haoo","ohtshgizpu","ms1000369","motor","","74","img/motor_6.png","74","motor","6","96","1","0","0","",""
"null","","730541","HierDydsw9haoo","ohtshgizpu","ms1000369","iti","","null","img/motor_6.png","74","motor","","","","","","",""
"421","","730970","HierDydsw9haoo","ohtshgizpu","ms1000369","motor","","76","img/motor_8.png","76","motor","8","97","1","0","0","",""
"null","","731084","HierDydsw9haoo","ohtshgizpu","ms1000369","iti","","null","img/motor_8.png","76","motor","","","","","","",""
"404","","731497","HierDydsw9haoo","ohtshgizpu","ms1000369","motor","","75","img/motor_7.png","75","motor","7","98","1","0","0","",""
"null","","731605","HierDydsw9haoo","ohtshgizpu","ms1000369","iti","","null","img/motor_7.png","75","motor","","","","","","",""
"636","","732249","HierDydsw9haoo","ohtshgizpu","ms1000369","motor","","83","img/motor_2.png","83","motor","2","99","1","0","0","",""
"null","","732357","HierDydsw9haoo","ohtshgizpu","ms1000369","iti","","null","img/motor_2.png","83","motor","","","","","","",""
"469","","732832","HierDydsw9haoo","ohtshgizpu","ms1000369","motor","","70","img/motor_4.png","70","motor","4","100","1","0","0","",""
"null","","732941","HierDydsw9haoo","ohtshgizpu","ms1000369","iti","","null","img/motor_4.png","70","motor","","","","","","",""
"484","","733440","HierDydsw9haoo","ohtshgizpu","ms1000369","motor","","75","img/motor_7.png","75","motor","7","101","1","0","0","",""
"null","","733549","HierDydsw9haoo","ohtshgizpu","ms1000369","iti","","null","img/motor_7.png","75","motor","","","","","","",""
"525","","734081","HierDydsw9haoo","ohtshgizpu","ms1000369","motor","","83","img/motor_2.png","83","motor","2","102","1","0","0","",""
"null","","734195","HierDydsw9haoo","ohtshgizpu","ms1000369","iti","","null","img/motor_2.png","83","motor","","","","","","",""
"605","","734809","HierDydsw9haoo","ohtshgizpu","ms1000369","motor","","70","img/motor_5.png","72","motor","5","103","0","1","0","",""
"488","","735311","HierDydsw9haoo","ohtshgizpu","ms1000369","motorRepeat","","72","img/motor_5.png","72","motor","5","103","1","0","0","",""
"null","","735420","HierDydsw9haoo","ohtshgizpu","ms1000369","iti","","null","img/motor_5.png","72","motor","","","","","","",""
"757","","736186","HierDydsw9haoo","ohtshgizpu","ms1000369","motor","","72","img/motor_5.png","72","motor","5","104","1","0","0","",""
"null","","736300","HierDydsw9haoo","ohtshgizpu","ms1000369","iti","","null","img/motor_5.png","72","motor","","","","","","",""
"548","","736856","HierDydsw9haoo","ohtshgizpu","ms1000369","motor","","74","img/motor_6.png","74","motor","6","105","1","0","0","",""
"null","","736971","HierDydsw9haoo","ohtshgizpu","ms1000369","iti","","null","img/motor_6.png","74","motor","","","","","","",""
"494","","737480","HierDydsw9haoo","ohtshgizpu","ms1000369","motor","","70","img/motor_4.png","70","motor","4","106","1","0","0","",""
"null","","737588","HierDydsw9haoo","ohtshgizpu","ms1000369","iti","","null","img/motor_4.png","70","motor","","","","","","",""
"534","","738136","HierDydsw9haoo","ohtshgizpu","ms1000369","motor","","72","img/motor_5.png","72","motor","5","107","1","0","0","",""
"null","","738252","HierDydsw9haoo","ohtshgizpu","ms1000369","iti","","null","img/motor_5.png","72","motor","","","","","","",""
"670","","738936","HierDydsw9haoo","ohtshgizpu","ms1000369","motor","","83","img/motor_2.png","83","motor","2","108","1","0","0","",""
"null","","739045","HierDydsw9haoo","ohtshgizpu","ms1000369","iti","","null","img/motor_2.png","83","motor","","","","","","",""
"509","","739568","HierDydsw9haoo","ohtshgizpu","ms1000369","motor","","65","img/motor_1.png","65","motor","1","109","1","0","0","",""
"null","","739684","HierDydsw9haoo","ohtshgizpu","ms1000369","iti","","null","img/motor_1.png","65","motor","","","","","","",""
"822","","740521","HierDydsw9haoo","ohtshgizpu","ms1000369","motor","","74","img/motor_6.png","74","motor","6","110","1","0","0","",""
"null","","740636","HierDydsw9haoo","ohtshgizpu","ms1000369","iti","","null","img/motor_6.png","74","motor","","","","","","",""
"366","","741010","HierDydsw9haoo","ohtshgizpu","ms1000369","motor","","75","img/motor_7.png","75","motor","7","111","1","0","0","",""
"null","","741124","HierDydsw9haoo","ohtshgizpu","ms1000369","iti","","null","img/motor_7.png","75","motor","","","","","","",""
"477","","741611","HierDydsw9haoo","ohtshgizpu","ms1000369","motor","","65","img/motor_1.png","65","motor","1","112","1","0","0","",""
"null","","741724","HierDydsw9haoo","ohtshgizpu","ms1000369","iti","","null","img/motor_1.png","65","motor","","","","","","",""
"596","","742330","HierDydsw9haoo","ohtshgizpu","ms1000369","motor","","76","img/motor_8.png","76","motor","8","113","1","0","0","",""
"null","","742445","HierDydsw9haoo","ohtshgizpu","ms1000369","iti","","null","img/motor_8.png","76","motor","","","","","","",""
"532","","742986","HierDydsw9haoo","ohtshgizpu","ms1000369","motor","","68","img/motor_3.png","68","motor","3","114","1","0","0","",""
"null","","743099","HierDydsw9haoo","ohtshgizpu","ms1000369","iti","","null","img/motor_3.png","68","motor","","","","","","",""
"470","","743578","HierDydsw9haoo","ohtshgizpu","ms1000369","motor","","75","img/motor_7.png","75","motor","7","115","1","0","0","",""
"null","","743686","HierDydsw9haoo","ohtshgizpu","ms1000369","iti","","null","img/motor_7.png","75","motor","","","","","","",""
"365","","744058","HierDydsw9haoo","ohtshgizpu","ms1000369","motor","","74","img/motor_6.png","74","motor","6","116","1","0","0","",""
"null","","744172","HierDydsw9haoo","ohtshgizpu","ms1000369","iti","","null","img/motor_6.png","74","motor","","","","","","",""
"373","","744554","HierDydsw9haoo","ohtshgizpu","ms1000369","motor","","72","img/motor_5.png","72","motor","5","117","1","0","0","",""
"null","","744669","HierDydsw9haoo","ohtshgizpu","ms1000369","iti","","null","img/motor_5.png","72","motor","","","","","","",""
"389","","745073","HierDydsw9haoo","ohtshgizpu","ms1000369","motor","","76","img/motor_8.png","76","motor","8","118","1","0","0","",""
"null","","745187","HierDydsw9haoo","ohtshgizpu","ms1000369","iti","","null","img/motor_8.png","76","motor","","","","","","",""
"398","","745601","HierDydsw9haoo","ohtshgizpu","ms1000369","motor","","70","img/motor_4.png","70","motor","4","119","1","0","0","",""
"null","","745716","HierDydsw9haoo","ohtshgizpu","ms1000369","iti","","null","img/motor_4.png","70","motor","","","","","","",""
"374","","746105","HierDydsw9haoo","ohtshgizpu","ms1000369","motor","","74","img/motor_6.png","74","motor","6","120","1","0","0","",""
"null","","746219","HierDydsw9haoo","ohtshgizpu","ms1000369","iti","","null","img/motor_6.png","74","motor","","","","","","",""
"438","","746672","HierDydsw9haoo","ohtshgizpu","ms1000369","motor","","72","img/motor_5.png","72","motor","5","121","1","0","0","",""
"null","","746787","HierDydsw9haoo","ohtshgizpu","ms1000369","iti","","null","img/motor_5.png","72","motor","","","","","","",""
"486","","747282","HierDydsw9haoo","ohtshgizpu","ms1000369","motor","","68","img/motor_3.png","68","motor","3","122","1","0","0","",""
"null","","747396","HierDydsw9haoo","ohtshgizpu","ms1000369","iti","","null","img/motor_3.png","68","motor","","","","","","",""
"606","","748010","HierDydsw9haoo","ohtshgizpu","ms1000369","motor","","74","img/motor_6.png","74","motor","6","123","1","0","0","",""
"null","","748124","HierDydsw9haoo","ohtshgizpu","ms1000369","iti","","null","img/motor_6.png","74","motor","","","","","","",""
"525","","748665","HierDydsw9haoo","ohtshgizpu","ms1000369","motor","","65","img/motor_1.png","65","motor","1","124","1","0","0","",""
"null","","748780","HierDydsw9haoo","ohtshgizpu","ms1000369","iti","","null","img/motor_1.png","65","motor","","","","","","",""
"407","","749194","HierDydsw9haoo","ohtshgizpu","ms1000369","motor","","74","img/motor_5.png","72","motor","5","125","0","1","0","",""
"288","","749496","HierDydsw9haoo","ohtshgizpu","ms1000369","motorRepeat","","72","img/motor_5.png","72","motor","5","125","1","0","0","",""
"null","","749611","HierDydsw9haoo","ohtshgizpu","ms1000369","iti","","null","img/motor_5.png","72","motor","","","","","","",""
"462","","750081","HierDydsw9haoo","ohtshgizpu","ms1000369","motor","","74","img/motor_6.png","74","motor","6","126","1","0","0","",""
"null","","750196","HierDydsw9haoo","ohtshgizpu","ms1000369","iti","","null","img/motor_6.png","74","motor","","","","","","",""
"534","","750745","HierDydsw9haoo","ohtshgizpu","ms1000369","motor","","83","img/motor_2.png","83","motor","2","127","1","0","0","",""
"null","","750860","HierDydsw9haoo","ohtshgizpu","ms1000369","iti","","null","img/motor_2.png","83","motor","","","","","","",""
"430","","751305","HierDydsw9haoo","ohtshgizpu","ms1000369","motor","","70","img/motor_4.png","70","motor","4","128","1","0","0","",""
"null","","751420","HierDydsw9haoo","ohtshgizpu","ms1000369","iti","","null","img/motor_4.png","70","motor","","","","","","",""
"518","","751946","HierDydsw9haoo","ohtshgizpu","ms1000369","motor","","83","img/motor_2.png","83","motor","2","129","1","0","0","",""
"null","","752061","HierDydsw9haoo","ohtshgizpu","ms1000369","iti","","null","img/motor_2.png","83","motor","","","","","","",""
"445","","752521","HierDydsw9haoo","ohtshgizpu","ms1000369","motor","","65","img/motor_1.png","65","motor","1","130","1","0","0","",""
"null","","752636","HierDydsw9haoo","ohtshgizpu","ms1000369","iti","","null","img/motor_1.png","65","motor","","","","","","",""
"478","","753122","HierDydsw9haoo","ohtshgizpu","ms1000369","motor","","74","img/motor_6.png","74","motor","6","131","1","0","0","",""
"null","","753236","HierDydsw9haoo","ohtshgizpu","ms1000369","iti","","null","img/motor_6.png","74","motor","","","","","","",""
"388","","753640","HierDydsw9haoo","ohtshgizpu","ms1000369","motor","","75","img/motor_7.png","75","motor","7","132","1","0","0","",""
"null","","753756","HierDydsw9haoo","ohtshgizpu","ms1000369","iti","","null","img/motor_7.png","75","motor","","","","","","",""
"414","","754185","HierDydsw9haoo","ohtshgizpu","ms1000369","motor","","75","img/motor_7.png","75","motor","7","133","1","0","0","",""
"null","","754299","HierDydsw9haoo","ohtshgizpu","ms1000369","iti","","null","img/motor_7.png","75","motor","","","","","","",""
"502","","754810","HierDydsw9haoo","ohtshgizpu","ms1000369","motor","","70","img/motor_4.png","70","motor","4","134","1","0","0","",""
"null","","754924","HierDydsw9haoo","ohtshgizpu","ms1000369","iti","","null","img/motor_4.png","70","motor","","","","","","",""
"382","","755321","HierDydsw9haoo","ohtshgizpu","ms1000369","motor","","68","img/motor_3.png","68","motor","3","135","1","0","0","",""
"null","","755430","HierDydsw9haoo","ohtshgizpu","ms1000369","iti","","null","img/motor_3.png","68","motor","","","","","","",""
"453","","755889","HierDydsw9haoo","ohtshgizpu","ms1000369","motor","","72","img/motor_5.png","72","motor","5","136","1","0","0","",""
"null","","756004","HierDydsw9haoo","ohtshgizpu","ms1000369","iti","","null","img/motor_5.png","72","motor","","","","","","",""
"390","","756402","HierDydsw9haoo","ohtshgizpu","ms1000369","motor","","76","img/motor_8.png","76","motor","8","137","1","0","0","",""
"null","","756517","HierDydsw9haoo","ohtshgizpu","ms1000369","iti","","null","img/motor_8.png","76","motor","","","","","","",""
"558","","757082","HierDydsw9haoo","ohtshgizpu","ms1000369","motor","","65","img/motor_1.png","65","motor","1","138","1","0","0","",""
"null","","757197","HierDydsw9haoo","ohtshgizpu","ms1000369","iti","","null","img/motor_1.png","65","motor","","","","","","",""
"508","","757720","HierDydsw9haoo","ohtshgizpu","ms1000369","motor","","68","img/motor_3.png","68","motor","3","139","1","0","0","",""
"null","","757835","HierDydsw9haoo","ohtshgizpu","ms1000369","iti","","null","img/motor_3.png","68","motor","","","","","","",""
"343","","758192","HierDydsw9haoo","ohtshgizpu","ms1000369","motor","","68","img/motor_3.png","68","motor","3","140","1","0","0","",""
"null","","758301","HierDydsw9haoo","ohtshgizpu","ms1000369","iti","","null","img/motor_3.png","68","motor","","","","","","",""
"476","","758786","HierDydsw9haoo","ohtshgizpu","ms1000369","motor","","75","img/motor_7.png","75","motor","7","141","1","0","0","",""
"null","","758901","HierDydsw9haoo","ohtshgizpu","ms1000369","iti","","null","img/motor_7.png","75","motor","","","","","","",""
"332","","759243","HierDydsw9haoo","ohtshgizpu","ms1000369","motor","","75","img/motor_7.png","75","motor","7","142","1","0","0","",""
"null","","759357","HierDydsw9haoo","ohtshgizpu","ms1000369","iti","","null","img/motor_7.png","75","motor","","","","","","",""
"525","","759897","HierDydsw9haoo","ohtshgizpu","ms1000369","motor","","68","img/motor_2.png","83","motor","2","143","0","1","0","",""
"313","","760225","HierDydsw9haoo","ohtshgizpu","ms1000369","motorRepeat","","83","img/motor_2.png","83","motor","2","143","1","0","0","",""
"null","","760334","HierDydsw9haoo","ohtshgizpu","ms1000369","iti","","null","img/motor_2.png","83","motor","","","","","","",""
"484","","760833","HierDydsw9haoo","ohtshgizpu","ms1000369","motor","","76","img/motor_8.png","76","motor","8","144","1","0","0","",""
"null","","760941","HierDydsw9haoo","ohtshgizpu","ms1000369","iti","","null","img/motor_8.png","76","motor","","","","","","",""
"509","","761458","HierDydsw9haoo","ohtshgizpu","ms1000369","motor","","65","img/motor_1.png","65","motor","1","145","1","0","0","",""
"null","","761566","HierDydsw9haoo","ohtshgizpu","ms1000369","iti","","null","img/motor_1.png","65","motor","","","","","","",""
"549","","762122","HierDydsw9haoo","ohtshgizpu","ms1000369","motor","","68","img/motor_3.png","68","motor","3","146","1","0","0","",""
"null","","762236","HierDydsw9haoo","ohtshgizpu","ms1000369","iti","","null","img/motor_3.png","68","motor","","","","","","",""
"414","","762658","HierDydsw9haoo","ohtshgizpu","ms1000369","motor","","76","img/motor_8.png","76","motor","8","147","1","0","0","",""
"null","","762767","HierDydsw9haoo","ohtshgizpu","ms1000369","iti","","null","img/motor_8.png","76","motor","","","","","","",""
"541","","763314","HierDydsw9haoo","ohtshgizpu","ms1000369","motor","","68","img/motor_3.png","68","motor","3","148","1","0","0","",""
"null","","763423","HierDydsw9haoo","ohtshgizpu","ms1000369","iti","","null","img/motor_3.png","68","motor","","","","","","",""
"380","","763817","HierDydsw9haoo","ohtshgizpu","ms1000369","motor","","76","img/motor_8.png","76","motor","8","149","1","0","0","",""
"null","","763931","HierDydsw9haoo","ohtshgizpu","ms1000369","iti","","null","img/motor_8.png","76","motor","","","","","","",""
"398","","764338","HierDydsw9haoo","ohtshgizpu","ms1000369","motor","","65","img/motor_1.png","65","motor","1","150","1","0","0","",""
"null","","764447","HierDydsw9haoo","ohtshgizpu","ms1000369","iti","","null","img/motor_1.png","65","motor","","","","","","",""
"523","","764978","HierDydsw9haoo","ohtshgizpu","ms1000369","motor","","75","img/motor_7.png","75","motor","7","151","1","0","0","",""
"null","","765086","HierDydsw9haoo","ohtshgizpu","ms1000369","iti","","null","img/motor_7.png","75","motor","","","","","","",""
"548","","765649","HierDydsw9haoo","ohtshgizpu","ms1000369","motor","","83","img/motor_2.png","83","motor","2","152","1","0","0","",""
"null","","765764","HierDydsw9haoo","ohtshgizpu","ms1000369","iti","","null","img/motor_2.png","83","motor","","","","","","",""
"414","","766193","HierDydsw9haoo","ohtshgizpu","ms1000369","motor","","76","img/motor_8.png","76","motor","8","153","1","0","0","",""
"null","","766302","HierDydsw9haoo","ohtshgizpu","ms1000369","iti","","null","img/motor_8.png","76","motor","","","","","","",""
"468","","766778","HierDydsw9haoo","ohtshgizpu","ms1000369","motor","","75","img/motor_7.png","75","motor","7","154","1","0","0","",""
"null","","766892","HierDydsw9haoo","ohtshgizpu","ms1000369","iti","","null","img/motor_7.png","75","motor","","","","","","",""
"430","","767330","HierDydsw9haoo","ohtshgizpu","ms1000369","motor","","76","img/motor_8.png","76","motor","8","155","1","0","0","",""
"null","","767438","HierDydsw9haoo","ohtshgizpu","ms1000369","iti","","null","img/motor_8.png","76","motor","","","","","","",""
"524","","767971","HierDydsw9haoo","ohtshgizpu","ms1000369","motor","","74","img/motor_6.png","74","motor","6","156","1","0","0","",""
"null","","768079","HierDydsw9haoo","ohtshgizpu","ms1000369","iti","","null","img/motor_6.png","74","motor","","","","","","",""
"469","","768554","HierDydsw9haoo","ohtshgizpu","ms1000369","motor","","72","img/motor_5.png","72","motor","5","157","1","0","0","",""
"null","","768669","HierDydsw9haoo","ohtshgizpu","ms1000369","iti","","null","img/motor_5.png","72","motor","","","","","","",""
"413","","769090","HierDydsw9haoo","ohtshgizpu","ms1000369","motor","","76","img/motor_8.png","76","motor","8","158","1","0","0","",""
"null","","769205","HierDydsw9haoo","ohtshgizpu","ms1000369","iti","","null","img/motor_8.png","76","motor","","","","","","",""
"372","","769593","HierDydsw9haoo","ohtshgizpu","ms1000369","motor","","74","img/motor_6.png","74","motor","6","159","1","0","0","",""
"null","","769708","HierDydsw9haoo","ohtshgizpu","ms1000369","iti","","null","img/motor_6.png","74","motor","","","","","","",""
"510","","770234","HierDydsw9haoo","ohtshgizpu","ms1000369","motor","","76","img/motor_8.png","76","motor","8","160","1","0","0","",""
"null","","770348","HierDydsw9haoo","ohtshgizpu","ms1000369","iti","","null","img/motor_8.png","76","motor","","","","","","",""
"662","","771019","HierDydsw9haoo","ohtshgizpu","ms1000369","motor","","68","img/motor_3.png","68","motor","3","161","1","0","0","",""
"null","","771134","HierDydsw9haoo","ohtshgizpu","ms1000369","iti","","null","img/motor_3.png","68","motor","","","","","","",""
"380","","771529","HierDydsw9haoo","ohtshgizpu","ms1000369","motor","","83","img/motor_2.png","83","motor","2","162","1","0","0","",""
"null","","771637","HierDydsw9haoo","ohtshgizpu","ms1000369","iti","","null","img/motor_2.png","83","motor","","","","","","",""
"605","","772250","HierDydsw9haoo","ohtshgizpu","ms1000369","motor","","74","img/motor_6.png","74","motor","6","163","1","0","0","",""
"null","","772365","HierDydsw9haoo","ohtshgizpu","ms1000369","iti","","null","img/motor_6.png","74","motor","","","","","","",""
"349","","772729","HierDydsw9haoo","ohtshgizpu","ms1000369","motor","","74","img/motor_6.png","74","motor","6","164","1","0","0","",""
"null","","772845","HierDydsw9haoo","ohtshgizpu","ms1000369","iti","","null","img/motor_6.png","74","motor","","","","","","",""
"382","","773241","HierDydsw9haoo","ohtshgizpu","ms1000369","motor","","75","img/motor_7.png","75","motor","7","165","1","0","0","",""
"null","","773350","HierDydsw9haoo","ohtshgizpu","ms1000369","iti","","null","img/motor_7.png","75","motor","","","","","","",""
"548","","773906","HierDydsw9haoo","ohtshgizpu","ms1000369","motor","","83","img/motor_3.png","68","motor","3","166","0","1","0","",""
"288","","774203","HierDydsw9haoo","ohtshgizpu","ms1000369","motorRepeat","","68","img/motor_3.png","68","motor","3","166","1","0","0","",""
"null","","774311","HierDydsw9haoo","ohtshgizpu","ms1000369","iti","","null","img/motor_3.png","68","motor","","","","","","",""
"547","","774873","HierDydsw9haoo","ohtshgizpu","ms1000369","motor","","74","img/motor_6.png","74","motor","6","167","1","0","0","",""
"null","","774989","HierDydsw9haoo","ohtshgizpu","ms1000369","iti","","null","img/motor_6.png","74","motor","","","","","","",""
"342","","775345","HierDydsw9haoo","ohtshgizpu","ms1000369","motor","","68","img/motor_3.png","68","motor","3","168","1","0","0","",""
"null","","775461","HierDydsw9haoo","ohtshgizpu","ms1000369","iti","","null","img/motor_3.png","68","motor","","","","","","",""
"484","","775954","HierDydsw9haoo","ohtshgizpu","ms1000369","motor","","83","img/motor_2.png","83","motor","2","169","1","0","0","",""
"null","","776069","HierDydsw9haoo","ohtshgizpu","ms1000369","iti","","null","img/motor_2.png","83","motor","","","","","","",""
"469","","776553","HierDydsw9haoo","ohtshgizpu","ms1000369","motor","","74","img/motor_6.png","74","motor","6","170","1","0","0","",""
"null","","776662","HierDydsw9haoo","ohtshgizpu","ms1000369","iti","","null","img/motor_6.png","74","motor","","","","","","",""
"413","","777082","HierDydsw9haoo","ohtshgizpu","ms1000369","motor","","68","img/motor_3.png","68","motor","3","171","1","0","0","",""
"null","","777197","HierDydsw9haoo","ohtshgizpu","ms1000369","iti","","null","img/motor_3.png","68","motor","","","","","","",""
"493","","777699","HierDydsw9haoo","ohtshgizpu","ms1000369","motor","","70","img/motor_4.png","70","motor","4","172","1","0","0","",""
"null","","777807","HierDydsw9haoo","ohtshgizpu","ms1000369","iti","","null","img/motor_4.png","70","motor","","","","","","",""
"460","","778275","HierDydsw9haoo","ohtshgizpu","ms1000369","motor","","74","img/motor_5.png","72","motor","5","173","0","1","0","",""
"328","","778611","HierDydsw9haoo","ohtshgizpu","ms1000369","motorRepeat","","72","img/motor_5.png","72","motor","5","173","1","0","0","",""
"null","","778725","HierDydsw9haoo","ohtshgizpu","ms1000369","iti","","null","img/motor_5.png","72","motor","","","","","","",""
"620","","779355","HierDydsw9haoo","ohtshgizpu","ms1000369","motor","","70","img/motor_4.png","70","motor","4","174","1","0","0","",""
"null","","779470","HierDydsw9haoo","ohtshgizpu","ms1000369","iti","","null","img/motor_4.png","70","motor","","","","","","",""
"445","","779923","HierDydsw9haoo","ohtshgizpu","ms1000369","motor","","65","img/motor_1.png","65","motor","1","175","1","0","0","",""
"null","","780038","HierDydsw9haoo","ohtshgizpu","ms1000369","iti","","null","img/motor_1.png","65","motor","","","","","","",""
"500","","780547","HierDydsw9haoo","ohtshgizpu","ms1000369","motor","","72","img/motor_5.png","72","motor","5","176","1","0","0","",""
"null","","780662","HierDydsw9haoo","ohtshgizpu","ms1000369","iti","","null","img/motor_5.png","72","motor","","","","","","",""
"413","","781089","HierDydsw9haoo","ohtshgizpu","ms1000369","motor","","72","img/motor_5.png","72","motor","5","177","1","0","0","",""
"null","","781199","HierDydsw9haoo","ohtshgizpu","ms1000369","iti","","null","img/motor_5.png","72","motor","","","","","","",""
"549","","781762","HierDydsw9haoo","ohtshgizpu","ms1000369","motor","","68","img/motor_3.png","68","motor","3","178","1","0","0","",""
"null","","781877","HierDydsw9haoo","ohtshgizpu","ms1000369","iti","","null","img/motor_3.png","68","motor","","","","","","",""
"471","","782355","HierDydsw9haoo","ohtshgizpu","ms1000369","motor","","72","img/motor_5.png","72","motor","5","179","1","0","0","",""
"null","","782469","HierDydsw9haoo","ohtshgizpu","ms1000369","iti","","null","img/motor_5.png","72","motor","","","","","","",""
"349","","782834","HierDydsw9haoo","ohtshgizpu","ms1000369","motor","","70","img/motor_4.png","70","motor","4","180","1","0","0","",""
"null","","782950","HierDydsw9haoo","ohtshgizpu","ms1000369","iti","","null","img/motor_4.png","70","motor","","","","","","",""
"381","","783345","HierDydsw9haoo","ohtshgizpu","ms1000369","motor","","72","img/motor_5.png","72","motor","5","181","1","0","0","",""
"null","","783462","HierDydsw9haoo","ohtshgizpu","ms1000369","iti","","null","img/motor_5.png","72","motor","","","","","","",""
"277","","783753","HierDydsw9haoo","ohtshgizpu","ms1000369","motor","","70","img/motor_3.png","68","motor","3","182","0","1","0","",""
"265","","784027","HierDydsw9haoo","ohtshgizpu","ms1000369","motorRepeat","","68","img/motor_3.png","68","motor","3","182","1","0","0","",""
"null","","784143","HierDydsw9haoo","ohtshgizpu","ms1000369","iti","","null","img/motor_3.png","68","motor","","","","","","",""
"428","","784578","HierDydsw9haoo","ohtshgizpu","ms1000369","motor","","65","img/motor_1.png","65","motor","1","183","1","0","0","",""
"null","","784694","HierDydsw9haoo","ohtshgizpu","ms1000369","iti","","null","img/motor_1.png","65","motor","","","","","","",""
"726","","785434","HierDydsw9haoo","ohtshgizpu","ms1000369","motor","","75","img/motor_7.png","75","motor","7","184","1","0","0","",""
"null","","785549","HierDydsw9haoo","ohtshgizpu","ms1000369","iti","","null","img/motor_7.png","75","motor","","","","","","",""
"413","","785971","HierDydsw9haoo","ohtshgizpu","ms1000369","motor","","72","img/motor_5.png","72","motor","5","185","1","0","0","",""
"null","","786080","HierDydsw9haoo","ohtshgizpu","ms1000369","iti","","null","img/motor_5.png","72","motor","","","","","","",""
"420","","786508","HierDydsw9haoo","ohtshgizpu","ms1000369","motor","","72","img/motor_5.png","72","motor","5","186","1","0","0","",""
"null","","786616","HierDydsw9haoo","ohtshgizpu","ms1000369","iti","","null","img/motor_5.png","72","motor","","","","","","",""
"524","","787153","HierDydsw9haoo","ohtshgizpu","ms1000369","motor","","68","img/motor_2.png","83","motor","2","187","0","1","0","",""
"265","","787427","HierDydsw9haoo","ohtshgizpu","ms1000369","motorRepeat","","83","img/motor_2.png","83","motor","2","187","1","0","0","",""
"null","","787535","HierDydsw9haoo","ohtshgizpu","ms1000369","iti","","null","img/motor_2.png","83","motor","","","","","","",""
"452","","788002","HierDydsw9haoo","ohtshgizpu","ms1000369","motor","","72","img/motor_5.png","72","motor","5","188","1","0","0","",""
"null","","788118","HierDydsw9haoo","ohtshgizpu","ms1000369","iti","","null","img/motor_5.png","72","motor","","","","","","",""
"405","","788530","HierDydsw9haoo","ohtshgizpu","ms1000369","motor","","75","img/motor_7.png","75","motor","7","189","1","0","0","",""
"null","","788646","HierDydsw9haoo","ohtshgizpu","ms1000369","iti","","null","img/motor_7.png","75","motor","","","","","","",""
"399","","789057","HierDydsw9haoo","ohtshgizpu","ms1000369","motor","","72","img/motor_5.png","72","motor","5","190","1","0","0","",""
"null","","789173","HierDydsw9haoo","ohtshgizpu","ms1000369","iti","","null","img/motor_5.png","72","motor","","","","","","",""
"597","","789779","HierDydsw9haoo","ohtshgizpu","ms1000369","motor","","70","img/motor_4.png","70","motor","4","191","1","0","0","",""
"null","","789888","HierDydsw9haoo","ohtshgizpu","ms1000369","iti","","null","img/motor_4.png","70","motor","","","","","","",""
"371","","790267","HierDydsw9haoo","ohtshgizpu","ms1000369","motor","","70","img/motor_4.png","70","motor","4","192","1","0","0","",""
"null","","790375","HierDydsw9haoo","ohtshgizpu","ms1000369","iti","","null","img/motor_4.png","70","motor","","","","","","",""
"404","","790793","HierDydsw9haoo","ohtshgizpu","ms1000369","motor","","75","img/motor_6.png","74","motor","6","193","0","1","0","",""
"281","","791083","HierDydsw9haoo","ohtshgizpu","ms1000369","motorRepeat","","74","img/motor_6.png","74","motor","6","193","1","0","0","",""
"null","","791196","HierDydsw9haoo","ohtshgizpu","ms1000369","iti","","null","img/motor_6.png","74","motor","","","","","","",""
"574","","791786","HierDydsw9haoo","ohtshgizpu","ms1000369","motor","","65","img/motor_1.png","65","motor","1","194","1","0","0","",""
"null","","791901","HierDydsw9haoo","ohtshgizpu","ms1000369","iti","","null","img/motor_1.png","65","motor","","","","","","",""
"454","","792370","HierDydsw9haoo","ohtshgizpu","ms1000369","motor","","70","img/motor_4.png","70","motor","4","195","1","0","0","",""
"null","","792485","HierDydsw9haoo","ohtshgizpu","ms1000369","iti","","null","img/motor_4.png","70","motor","","","","","","",""
"565","","793059","HierDydsw9haoo","ohtshgizpu","ms1000369","motor","","68","img/motor_2.png","83","motor","2","196","0","1","0","",""
"256","","793323","HierDydsw9haoo","ohtshgizpu","ms1000369","motorRepeat","","83","img/motor_2.png","83","motor","2","196","1","0","0","",""
"null","","793438","HierDydsw9haoo","ohtshgizpu","ms1000369","iti","","null","img/motor_2.png","83","motor","","","","","","",""
"582","","794034","HierDydsw9haoo","ohtshgizpu","ms1000369","motor","","68","img/motor_3.png","68","motor","3","197","1","0","0","",""
"null","","794143","HierDydsw9haoo","ohtshgizpu","ms1000369","iti","","null","img/motor_3.png","68","motor","","","","","","",""
"477","","794627","HierDydsw9haoo","ohtshgizpu","ms1000369","motor","","75","img/motor_7.png","75","motor","7","198","1","0","0","",""
"null","","794743","HierDydsw9haoo","ohtshgizpu","ms1000369","iti","","null","img/motor_7.png","75","motor","","","","","","",""
"436","","795187","HierDydsw9haoo","ohtshgizpu","ms1000369","motor","","76","img/motor_8.png","76","motor","8","199","1","0","0","",""
"null","","795302","HierDydsw9haoo","ohtshgizpu","ms1000369","iti","","null","img/motor_8.png","76","motor","","","","","","",""
"349","","795659","HierDydsw9haoo","ohtshgizpu","ms1000369","motor","","75","img/motor_7.png","75","motor","7","200","1","0","0","",""
"null","","795773","HierDydsw9haoo","ohtshgizpu","ms1000369","iti","","null","img/motor_7.png","75","motor","","","","","","",""
"509","","796291","HierDydsw9haoo","ohtshgizpu","ms1000369","motor","","65","img/motor_1.png","65","motor","1","201","1","0","0","",""
"null","","796406","HierDydsw9haoo","ohtshgizpu","ms1000369","iti","","null","img/motor_1.png","65","motor","","","","","","",""
"509","","796924","HierDydsw9haoo","ohtshgizpu","ms1000369","motor","","72","img/motor_5.png","72","motor","5","202","1","0","0","",""
"null","","797039","HierDydsw9haoo","ohtshgizpu","ms1000369","iti","","null","img/motor_5.png","72","motor","","","","","","",""
"429","","797476","HierDydsw9haoo","ohtshgizpu","ms1000369","motor","","65","img/motor_1.png","65","motor","1","203","1","0","0","",""
"null","","797590","HierDydsw9haoo","ohtshgizpu","ms1000369","iti","","null","img/motor_1.png","65","motor","","","","","","",""
"405","","798003","HierDydsw9haoo","ohtshgizpu","ms1000369","motor","","76","img/motor_8.png","76","motor","8","204","1","0","0","",""
"null","","798118","HierDydsw9haoo","ohtshgizpu","ms1000369","iti","","null","img/motor_8.png","76","motor","","","","","","",""
"405","","798531","HierDydsw9haoo","ohtshgizpu","ms1000369","motor","","75","img/motor_7.png","75","motor","7","205","1","0","0","",""
"null","","798639","HierDydsw9haoo","ohtshgizpu","ms1000369","iti","","null","img/motor_7.png","75","motor","","","","","","",""
"372","","799020","HierDydsw9haoo","ohtshgizpu","ms1000369","motor","","74","img/motor_6.png","74","motor","6","206","1","0","0","",""
"null","","799127","HierDydsw9haoo","ohtshgizpu","ms1000369","iti","","null","img/motor_6.png","74","motor","","","","","","",""
"412","","799548","HierDydsw9haoo","ohtshgizpu","ms1000369","motor","","65","img/motor_1.png","65","motor","1","207","1","0","0","",""
"null","","799663","HierDydsw9haoo","ohtshgizpu","ms1000369","iti","","null","img/motor_1.png","65","motor","","","","","","",""
"365","","800036","HierDydsw9haoo","ohtshgizpu","ms1000369","motor","","83","img/motor_2.png","83","motor","2","208","1","0","0","",""
"null","","800151","HierDydsw9haoo","ohtshgizpu","ms1000369","iti","","null","img/motor_2.png","83","motor","","","","","","",""
"548","","800715","HierDydsw9haoo","ohtshgizpu","ms1000369","motor","","76","img/motor_8.png","76","motor","8","209","1","0","0","",""
"null","","800830","HierDydsw9haoo","ohtshgizpu","ms1000369","iti","","null","img/motor_8.png","76","motor","","","","","","",""
"445","","801291","HierDydsw9haoo","ohtshgizpu","ms1000369","motor","","76","img/motor_8.png","76","motor","8","210","1","0","0","",""
"null","","801400","HierDydsw9haoo","ohtshgizpu","ms1000369","iti","","null","img/motor_8.png","76","motor","","","","","","",""
"405","","801811","HierDydsw9haoo","ohtshgizpu","ms1000369","motor","","65","img/motor_1.png","65","motor","1","211","1","0","0","",""
"null","","801926","HierDydsw9haoo","ohtshgizpu","ms1000369","iti","","null","img/motor_1.png","65","motor","","","","","","",""
"396","","802332","HierDydsw9haoo","ohtshgizpu","ms1000369","motor","","83","img/motor_3.png","68","motor","3","212","0","1","0","",""
"248","","802594","HierDydsw9haoo","ohtshgizpu","ms1000369","motorRepeat","","68","img/motor_3.png","68","motor","3","212","1","0","0","",""
"null","","802709","HierDydsw9haoo","ohtshgizpu","ms1000369","iti","","null","img/motor_3.png","68","motor","","","","","","",""
"438","","803163","HierDydsw9haoo","ohtshgizpu","ms1000369","motor","","70","img/motor_4.png","70","motor","4","213","1","0","0","",""
"null","","803278","HierDydsw9haoo","ohtshgizpu","ms1000369","iti","","null","img/motor_4.png","70","motor","","","","","","",""
"372","","803666","HierDydsw9haoo","ohtshgizpu","ms1000369","motor","","74","img/motor_5.png","72","motor","5","214","0","1","0","",""
"216","","803891","HierDydsw9haoo","ohtshgizpu","ms1000369","motorRepeat","","72","img/motor_5.png","72","motor","5","214","1","0","0","",""
"null","","804006","HierDydsw9haoo","ohtshgizpu","ms1000369","iti","","null","img/motor_5.png","72","motor","","","","","","",""
"365","","804380","HierDydsw9haoo","ohtshgizpu","ms1000369","motor","","70","img/motor_3.png","68","motor","3","215","0","1","0","",""
"255","","804644","HierDydsw9haoo","ohtshgizpu","ms1000369","motorRepeat","","68","img/motor_3.png","68","motor","3","215","1","0","0","",""
"null","","804758","HierDydsw9haoo","ohtshgizpu","ms1000369","iti","","null","img/motor_3.png","68","motor","","","","","","",""
"429","","805196","HierDydsw9haoo","ohtshgizpu","ms1000369","motor","","74","img/motor_5.png","72","motor","5","216","0","1","0","",""
"248","","805459","HierDydsw9haoo","ohtshgizpu","ms1000369","motorRepeat","","72","img/motor_5.png","72","motor","5","216","1","0","0","",""
"null","","805574","HierDydsw9haoo","ohtshgizpu","ms1000369","iti","","null","img/motor_5.png","72","motor","","","","","","",""
"638","","806220","HierDydsw9haoo","ohtshgizpu","ms1000369","motor","","74","img/motor_6.png","74","motor","6","217","1","0","0","",""
"null","","806329","HierDydsw9haoo","ohtshgizpu","ms1000369","iti","","null","img/motor_6.png","74","motor","","","","","","",""
"499","","806843","HierDydsw9haoo","ohtshgizpu","ms1000369","motor","","70","img/motor_4.png","70","motor","4","218","1","0","0","",""
"null","","806952","HierDydsw9haoo","ohtshgizpu","ms1000369","iti","","null","img/motor_4.png","70","motor","","","","","","",""
"581","","807547","HierDydsw9haoo","ohtshgizpu","ms1000369","motor","","83","img/motor_2.png","83","motor","2","219","1","0","0","",""
"null","","807662","HierDydsw9haoo","ohtshgizpu","ms1000369","iti","","null","img/motor_2.png","83","motor","","","","","","",""
"853","","808524","HierDydsw9haoo","ohtshgizpu","ms1000369","motor","","75","img/motor_7.png","75","motor","7","220","1","0","0","",""
"null","","808639","HierDydsw9haoo","ohtshgizpu","ms1000369","iti","","null","img/motor_7.png","75","motor","","","","","","",""
"476","","809130","HierDydsw9haoo","ohtshgizpu","ms1000369","motor","","74","img/motor_6.png","74","motor","6","221","1","0","0","",""
"null","","809246","HierDydsw9haoo","ohtshgizpu","ms1000369","iti","","null","img/motor_6.png","74","motor","","","","","","",""
"414","","809675","HierDydsw9haoo","ohtshgizpu","ms1000369","motor","","75","img/motor_7.png","75","motor","7","222","1","0","0","",""
"null","","809790","HierDydsw9haoo","ohtshgizpu","ms1000369","iti","","null","img/motor_7.png","75","motor","","","","","","",""
"517","","810317","HierDydsw9haoo","ohtshgizpu","ms1000369","motor","","70","img/motor_3.png","68","motor","3","223","0","1","0","",""
"247","","810573","HierDydsw9haoo","ohtshgizpu","ms1000369","motorRepeat","","68","img/motor_3.png","68","motor","3","223","1","0","0","",""
"null","","810681","HierDydsw9haoo","ohtshgizpu","ms1000369","iti","","null","img/motor_3.png","68","motor","","","","","","",""
"443","","811132","HierDydsw9haoo","ohtshgizpu","ms1000369","motor","","70","img/motor_4.png","70","motor","4","224","1","0","0","",""
"null","","811240","HierDydsw9haoo","ohtshgizpu","ms1000369","iti","","null","img/motor_4.png","70","motor","","","","","","",""
"667","","811915","HierDydsw9haoo","ohtshgizpu","ms1000369","motor","","75","img/motor_7.png","75","motor","7","225","1","0","0","",""
"null","","812030","HierDydsw9haoo","ohtshgizpu","ms1000369","iti","","null","img/motor_7.png","75","motor","","","","","","",""
"572","","812613","HierDydsw9haoo","ohtshgizpu","ms1000369","motor","","68","img/motor_3.png","68","motor","3","226","1","0","0","",""
"null","","812728","HierDydsw9haoo","ohtshgizpu","ms1000369","iti","","null","img/motor_3.png","68","motor","","","","","","",""
"477","","813219","HierDydsw9haoo","ohtshgizpu","ms1000369","motor","","83","img/motor_2.png","83","motor","2","227","1","0","0","",""
"null","","813334","HierDydsw9haoo","ohtshgizpu","ms1000369","iti","","null","img/motor_2.png","83","motor","","","","","","",""
"405","","813745","HierDydsw9haoo","ohtshgizpu","ms1000369","motor","","68","img/motor_3.png","68","motor","3","228","1","0","0","",""
"null","","813861","HierDydsw9haoo","ohtshgizpu","ms1000369","iti","","null","img/motor_3.png","68","motor","","","","","","",""
"439","","814308","HierDydsw9haoo","ohtshgizpu","ms1000369","motor","","76","img/motor_8.png","76","motor","8","229","1","0","0","",""
"null","","814422","HierDydsw9haoo","ohtshgizpu","ms1000369","iti","","null","img/motor_8.png","76","motor","","","","","","",""
"548","","814980","HierDydsw9haoo","ohtshgizpu","ms1000369","motor","","70","img/motor_3.png","68","motor","3","230","0","1","0","",""
"272","","815260","HierDydsw9haoo","ohtshgizpu","ms1000369","motorRepeat","","68","img/motor_3.png","68","motor","3","230","1","0","0","",""
"null","","815376","HierDydsw9haoo","ohtshgizpu","ms1000369","iti","","null","img/motor_3.png","68","motor","","","","","","",""
"533","","815922","HierDydsw9haoo","ohtshgizpu","ms1000369","motor","","72","img/motor_5.png","72","motor","5","231","1","0","0","",""
"null","","816039","HierDydsw9haoo","ohtshgizpu","ms1000369","iti","","null","img/motor_5.png","72","motor","","","","","","",""
"453","","816507","HierDydsw9haoo","ohtshgizpu","ms1000369","motor","","74","img/motor_6.png","74","motor","6","232","1","0","0","",""
"null","","816616","HierDydsw9haoo","ohtshgizpu","ms1000369","iti","","null","img/motor_6.png","74","motor","","","","","","",""
"428","","817059","HierDydsw9haoo","ohtshgizpu","ms1000369","motor","","76","img/motor_8.png","76","motor","8","233","1","0","0","",""
"null","","817168","HierDydsw9haoo","ohtshgizpu","ms1000369","iti","","null","img/motor_8.png","76","motor","","","","","","",""
"436","","817619","HierDydsw9haoo","ohtshgizpu","ms1000369","motor","","74","img/motor_6.png","74","motor","6","234","1","0","0","",""
"null","","817734","HierDydsw9haoo","ohtshgizpu","ms1000369","iti","","null","img/motor_6.png","74","motor","","","","","","",""
"781","","818525","HierDydsw9haoo","ohtshgizpu","ms1000369","motor","","83","img/motor_2.png","83","motor","2","235","1","0","0","",""
"null","","818634","HierDydsw9haoo","ohtshgizpu","ms1000369","iti","","null","img/motor_2.png","83","motor","","","","","","",""
"514","","819156","HierDydsw9haoo","ohtshgizpu","ms1000369","motor","","65","img/motor_1.png","65","motor","1","236","1","0","0","",""
"null","","819272","HierDydsw9haoo","ohtshgizpu","ms1000369","iti","","null","img/motor_1.png","65","motor","","","","","","",""
"404","","819691","HierDydsw9haoo","ohtshgizpu","ms1000369","motor","","65","img/motor_1.png","65","motor","1","237","1","0","0","",""
"null","","819800","HierDydsw9haoo","ohtshgizpu","ms1000369","iti","","null","img/motor_1.png","65","motor","","","","","","",""
"572","","820380","HierDydsw9haoo","ohtshgizpu","ms1000369","motor","","72","img/motor_5.png","72","motor","5","238","1","0","0","",""
"null","","820495","HierDydsw9haoo","ohtshgizpu","ms1000369","iti","","null","img/motor_5.png","72","motor","","","","","","",""
"436","","820947","HierDydsw9haoo","ohtshgizpu","ms1000369","motor","","76","img/motor_8.png","76","motor","8","239","1","0","0","",""
"null","","821063","HierDydsw9haoo","ohtshgizpu","ms1000369","iti","","null","img/motor_8.png","76","motor","","","","","","",""
"541","","821612","HierDydsw9haoo","ohtshgizpu","ms1000369","motor","","70","img/motor_4.png","70","motor","4","240","1","0","0","",""
"null","","821728","HierDydsw9haoo","ohtshgizpu","ms1000369","iti","","null","img/motor_4.png","70","motor","","","","","","",""
"564","","822307","HierDydsw9haoo","ohtshgizpu","ms1000369","motor","","83","img/motor_2.png","83","motor","2","241","1","0","0","",""
"null","","822422","HierDydsw9haoo","ohtshgizpu","ms1000369","iti","","null","img/motor_2.png","83","motor","","","","","","",""
"573","","823011","HierDydsw9haoo","ohtshgizpu","ms1000369","motor","","74","img/motor_6.png","74","motor","6","242","1","0","0","",""
"null","","823126","HierDydsw9haoo","ohtshgizpu","ms1000369","iti","","null","img/motor_6.png","74","motor","","","","","","",""
"508","","823651","HierDydsw9haoo","ohtshgizpu","ms1000369","motor","","70","img/motor_4.png","70","motor","4","243","1","0","0","",""
"null","","823761","HierDydsw9haoo","ohtshgizpu","ms1000369","iti","","null","img/motor_4.png","70","motor","","","","","","",""
"468","","824236","HierDydsw9haoo","ohtshgizpu","ms1000369","motor","","76","img/motor_8.png","76","motor","8","244","1","0","0","",""
"null","","824351","HierDydsw9haoo","ohtshgizpu","ms1000369","iti","","null","img/motor_8.png","76","motor","","","","","","",""
"436","","824796","HierDydsw9haoo","ohtshgizpu","ms1000369","motor","","72","img/motor_5.png","72","motor","5","245","1","0","0","",""
"null","","824911","HierDydsw9haoo","ohtshgizpu","ms1000369","iti","","null","img/motor_5.png","72","motor","","","","","","",""
"533","","825459","HierDydsw9haoo","ohtshgizpu","ms1000369","motor","","65","img/motor_1.png","65","motor","1","246","1","0","0","",""
"null","","825575","HierDydsw9haoo","ohtshgizpu","ms1000369","iti","","null","img/motor_1.png","65","motor","","","","","","",""
"612","","826204","HierDydsw9haoo","ohtshgizpu","ms1000369","motor","","68","img/motor_3.png","68","motor","3","247","1","0","0","",""
"null","","826318","HierDydsw9haoo","ohtshgizpu","ms1000369","iti","","null","img/motor_3.png","68","motor","","","","","","",""
"429","","826756","HierDydsw9haoo","ohtshgizpu","ms1000369","motor","","65","img/motor_1.png","65","motor","1","248","1","0","0","",""
"null","","826864","HierDydsw9haoo","ohtshgizpu","ms1000369","iti","","null","img/motor_1.png","65","motor","","","","","","",""
"557","","827428","HierDydsw9haoo","ohtshgizpu","ms1000369","motor","","70","img/motor_4.png","70","motor","4","249","1","0","0","",""
"null","","827537","HierDydsw9haoo","ohtshgizpu","ms1000369","iti","","null","img/motor_4.png","70","motor","","","","","","",""
"412","","827957","HierDydsw9haoo","ohtshgizpu","ms1000369","motor","","70","img/motor_4.png","70","motor","4","250","1","0","0","",""
"null","","828065","HierDydsw9haoo","ohtshgizpu","ms1000369","iti","","null","img/motor_4.png","70","motor","","","","","","",""
"524","","828596","HierDydsw9haoo","ohtshgizpu","ms1000369","motor","","68","img/motor_3.png","68","motor","3","251","1","0","0","",""
"null","","828711","HierDydsw9haoo","ohtshgizpu","ms1000369","iti","","null","img/motor_3.png","68","motor","","","","","","",""
"517","","829243","HierDydsw9haoo","ohtshgizpu","ms1000369","motor","","74","img/motor_7.png","75","motor","7","252","0","1","0","",""
"281","","829540","HierDydsw9haoo","ohtshgizpu","ms1000369","motorRepeat","","75","img/motor_7.png","75","motor","7","252","1","0","0","",""
"null","","829655","HierDydsw9haoo","ohtshgizpu","ms1000369","iti","","null","img/motor_7.png","75","motor","","","","","","",""
"477","","830147","HierDydsw9haoo","ohtshgizpu","ms1000369","motor","","83","img/motor_2.png","83","motor","2","253","1","0","0","",""
"null","","830263","HierDydsw9haoo","ohtshgizpu","ms1000369","iti","","null","img/motor_2.png","83","motor","","","","","","",""
"548","","830827","HierDydsw9haoo","ohtshgizpu","ms1000369","motor","","72","img/motor_5.png","72","motor","5","254","1","0","0","",""
"null","","830936","HierDydsw9haoo","ohtshgizpu","ms1000369","iti","","null","img/motor_5.png","72","motor","","","","","","",""
"445","","831389","HierDydsw9haoo","ohtshgizpu","ms1000369","motor","","68","img/motor_4.png","70","motor","4","255","0","1","0","",""
"263","","831661","HierDydsw9haoo","ohtshgizpu","ms1000369","motorRepeat","","70","img/motor_4.png","70","motor","4","255","1","0","0","",""
"null","","831769","HierDydsw9haoo","ohtshgizpu","ms1000369","iti","","null","img/motor_4.png","70","motor","","","","","","",""
"435","","832219","HierDydsw9haoo","ohtshgizpu","ms1000369","motor","","76","img/motor_8.png","76","motor","8","256","1","0","0","",""
"null","","832336","HierDydsw9haoo","ohtshgizpu","ms1000369","iti","","null","img/motor_8.png","76","motor","","","","","","",""
"725","","833075","HierDydsw9haoo","ohtshgizpu","ms1000369","motor","","83","img/motor_2.png","83","motor","2","257","1","0","0","",""
"null","","833184","HierDydsw9haoo","ohtshgizpu","ms1000369","iti","","null","img/motor_2.png","83","motor","","","","","","",""
"493","","833691","HierDydsw9haoo","ohtshgizpu","ms1000369","motor","","75","img/motor_7.png","75","motor","7","258","1","0","0","",""
"null","","833807","HierDydsw9haoo","ohtshgizpu","ms1000369","iti","","null","img/motor_7.png","75","motor","","","","","","",""
"453","","834269","HierDydsw9haoo","ohtshgizpu","ms1000369","motor","","70","img/motor_4.png","70","motor","4","259","1","0","0","",""
"null","","834378","HierDydsw9haoo","ohtshgizpu","ms1000369","iti","","null","img/motor_4.png","70","motor","","","","","","",""
"403","","834789","HierDydsw9haoo","ohtshgizpu","ms1000369","motor","","76","img/motor_8.png","76","motor","8","260","1","0","0","",""
"null","","834903","HierDydsw9haoo","ohtshgizpu","ms1000369","iti","","null","img/motor_8.png","76","motor","","","","","","",""
"549","","835467","HierDydsw9haoo","ohtshgizpu","ms1000369","motor","","68","img/motor_3.png","68","motor","3","261","1","0","0","",""
"null","","835577","HierDydsw9haoo","ohtshgizpu","ms1000369","iti","","null","img/motor_3.png","68","motor","","","","","","",""
"541","","836125","HierDydsw9haoo","ohtshgizpu","ms1000369","motor","","72","img/motor_5.png","72","motor","5","262","1","0","0","",""
"null","","836239","HierDydsw9haoo","ohtshgizpu","ms1000369","iti","","null","img/motor_5.png","72","motor","","","","","","",""
"469","","836724","HierDydsw9haoo","ohtshgizpu","ms1000369","motor","","76","img/motor_8.png","76","motor","8","263","1","0","0","",""
"null","","836833","HierDydsw9haoo","ohtshgizpu","ms1000369","iti","","null","img/motor_8.png","76","motor","","","","","","",""
"404","","837252","HierDydsw9haoo","ohtshgizpu","ms1000369","motor","","76","img/motor_8.png","76","motor","8","264","1","0","0","",""
"null","","837368","HierDydsw9haoo","ohtshgizpu","ms1000369","iti","","null","img/motor_8.png","76","motor","","","","","","",""
"557","","837932","HierDydsw9haoo","ohtshgizpu","ms1000369","motor","","75","img/motor_7.png","75","motor","7","265","1","0","0","",""
"null","","838039","HierDydsw9haoo","ohtshgizpu","ms1000369","iti","","null","img/motor_7.png","75","motor","","","","","","",""
"453","","838508","HierDydsw9haoo","ohtshgizpu","ms1000369","motor","","65","img/motor_1.png","65","motor","1","266","1","0","0","",""
"null","","838624","HierDydsw9haoo","ohtshgizpu","ms1000369","iti","","null","img/motor_1.png","65","motor","","","","","","",""
"500","","839132","HierDydsw9haoo","ohtshgizpu","ms1000369","motor","","75","img/motor_7.png","75","motor","7","267","1","0","0","",""
"null","","839241","HierDydsw9haoo","ohtshgizpu","ms1000369","iti","","null","img/motor_7.png","75","motor","","","","","","",""
"380","","839629","HierDydsw9haoo","ohtshgizpu","ms1000369","motor","","76","img/motor_8.png","76","motor","8","268","1","0","0","",""
"null","","839744","HierDydsw9haoo","ohtshgizpu","ms1000369","iti","","null","img/motor_8.png","76","motor","","","","","","",""
"516","","840269","HierDydsw9haoo","ohtshgizpu","ms1000369","motor","","83","img/motor_2.png","83","motor","2","269","1","0","0","",""
"null","","840385","HierDydsw9haoo","ohtshgizpu","ms1000369","iti","","null","img/motor_2.png","83","motor","","","","","","",""
"380","","840773","HierDydsw9haoo","ohtshgizpu","ms1000369","motor","","83","img/motor_2.png","83","motor","2","270","1","0","0","",""
"null","","840888","HierDydsw9haoo","ohtshgizpu","ms1000369","iti","","null","img/motor_2.png","83","motor","","","","","","",""
"532","","841430","HierDydsw9haoo","ohtshgizpu","ms1000369","motor","","72","img/motor_5.png","72","motor","5","271","1","0","0","",""
"null","","841544","HierDydsw9haoo","ohtshgizpu","ms1000369","iti","","null","img/motor_5.png","72","motor","","","","","","",""
"476","","842029","HierDydsw9haoo","ohtshgizpu","ms1000369","motor","","83","img/motor_3.png","68","motor","3","272","0","1","0","",""
"296","","842333","HierDydsw9haoo","ohtshgizpu","ms1000369","motorRepeat","","68","img/motor_3.png","68","motor","3","272","1","0","0","",""
"null","","842441","HierDydsw9haoo","ohtshgizpu","ms1000369","iti","","null","img/motor_3.png","68","motor","","","","","","",""
"476","","842925","HierDydsw9haoo","ohtshgizpu","ms1000369","motor","","72","img/motor_5.png","72","motor","5","273","1","0","0","",""
"null","","843041","HierDydsw9haoo","ohtshgizpu","ms1000369","iti","","null","img/motor_5.png","72","motor","","","","","","",""
"541","","843596","HierDydsw9haoo","ohtshgizpu","ms1000369","motor","","83","img/motor_2.png","83","motor","2","274","1","0","0","",""
"null","","843711","HierDydsw9haoo","ohtshgizpu","ms1000369","iti","","null","img/motor_2.png","83","motor","","","","","","",""
"614","","844333","HierDydsw9haoo","ohtshgizpu","ms1000369","motor","","75","img/motor_7.png","75","motor","7","275","1","0","0","",""
"null","","844448","HierDydsw9haoo","ohtshgizpu","ms1000369","iti","","null","img/motor_7.png","75","motor","","","","","","",""
"460","","844923","HierDydsw9haoo","ohtshgizpu","ms1000369","motor","","75","img/motor_7.png","75","motor","7","276","1","0","0","",""
"null","","845039","HierDydsw9haoo","ohtshgizpu","ms1000369","iti","","null","img/motor_7.png","75","motor","","","","","","",""
"510","","845558","HierDydsw9haoo","ohtshgizpu","ms1000369","motor","","72","img/motor_5.png","72","motor","5","277","1","0","0","",""
"null","","845672","HierDydsw9haoo","ohtshgizpu","ms1000369","iti","","null","img/motor_5.png","72","motor","","","","","","",""
"557","","846238","HierDydsw9haoo","ohtshgizpu","ms1000369","motor","","68","img/motor_3.png","68","motor","3","278","1","0","0","",""
"null","","846345","HierDydsw9haoo","ohtshgizpu","ms1000369","iti","","null","img/motor_3.png","68","motor","","","","","","",""
"388","","846741","HierDydsw9haoo","ohtshgizpu","ms1000369","motor","","76","img/motor_8.png","76","motor","8","279","1","0","0","",""
"null","","846850","HierDydsw9haoo","ohtshgizpu","ms1000369","iti","","null","img/motor_8.png","76","motor","","","","","","",""
"443","","847308","HierDydsw9haoo","ohtshgizpu","ms1000369","motor","","75","img/motor_7.png","75","motor","7","280","1","0","0","",""
"null","","847424","HierDydsw9haoo","ohtshgizpu","ms1000369","iti","","null","img/motor_7.png","75","motor","","","","","","",""
"381","","847820","HierDydsw9haoo","ohtshgizpu","ms1000369","motor","","74","img/motor_6.png","74","motor","6","281","1","0","0","",""
"null","","847936","HierDydsw9haoo","ohtshgizpu","ms1000369","iti","","null","img/motor_6.png","74","motor","","","","","","",""
"333","","848284","HierDydsw9haoo","ohtshgizpu","ms1000369","motor","","76","img/motor_8.png","76","motor","8","282","1","0","0","",""
"null","","848393","HierDydsw9haoo","ohtshgizpu","ms1000369","iti","","null","img/motor_8.png","76","motor","","","","","","",""
"452","","848860","HierDydsw9haoo","ohtshgizpu","ms1000369","motor","","68","img/motor_4.png","70","motor","4","283","0","1","0","",""
"249","","849124","HierDydsw9haoo","ohtshgizpu","ms1000369","motorRepeat","","70","img/motor_4.png","70","motor","4","283","1","0","0","",""
"null","","849240","HierDydsw9haoo","ohtshgizpu","ms1000369","iti","","null","img/motor_4.png","70","motor","","","","","","",""
"341","","849589","HierDydsw9haoo","ohtshgizpu","ms1000369","motor","","70","img/motor_4.png","70","motor","4","284","1","0","0","",""
"null","","849705","HierDydsw9haoo","ohtshgizpu","ms1000369","iti","","null","img/motor_4.png","70","motor","","","","","","",""
"556","","850269","HierDydsw9haoo","ohtshgizpu","ms1000369","motor","","74","img/motor_6.png","74","motor","6","285","1","0","0","",""
"null","","850377","HierDydsw9haoo","ohtshgizpu","ms1000369","iti","","null","img/motor_6.png","74","motor","","","","","","",""
"380","","850765","HierDydsw9haoo","ohtshgizpu","ms1000369","motor","","70","img/motor_3.png","68","motor","3","286","0","1","0","",""
"233","","851005","HierDydsw9haoo","ohtshgizpu","ms1000369","motorRepeat","","68","img/motor_3.png","68","motor","3","286","1","0","0","",""
"null","","851121","HierDydsw9haoo","ohtshgizpu","ms1000369","iti","","null","img/motor_3.png","68","motor","","","","","","",""
"516","","851645","HierDydsw9haoo","ohtshgizpu","ms1000369","motor","","65","img/motor_1.png","65","motor","1","287","1","0","0","",""
"null","","851754","HierDydsw9haoo","ohtshgizpu","ms1000369","iti","","null","img/motor_1.png","65","motor","","","","","","",""
"515","","852277","HierDydsw9haoo","ohtshgizpu","ms1000369","motor","","83","img/motor_2.png","83","motor","2","288","1","0","0","",""
"null","","852385","HierDydsw9haoo","ohtshgizpu","ms1000369","iti","","null","img/motor_2.png","83","motor","","","","","","",""
"524","","852918","HierDydsw9haoo","ohtshgizpu","ms1000369","motor","","70","img/motor_4.png","70","motor","4","289","1","0","0","",""
"null","","853026","HierDydsw9haoo","ohtshgizpu","ms1000369","iti","","null","img/motor_4.png","70","motor","","","","","","",""
"492","","853532","HierDydsw9haoo","ohtshgizpu","ms1000369","motor","","83","img/motor_2.png","83","motor","2","290","1","0","0","",""
"null","","853648","HierDydsw9haoo","ohtshgizpu","ms1000369","iti","","null","img/motor_2.png","83","motor","","","","","","",""
"452","","854110","HierDydsw9haoo","ohtshgizpu","ms1000369","motor","","68","img/motor_3.png","68","motor","3","291","1","0","0","",""
"null","","854224","HierDydsw9haoo","ohtshgizpu","ms1000369","iti","","null","img/motor_3.png","68","motor","","","","","","",""
"356","","854589","HierDydsw9haoo","ohtshgizpu","ms1000369","motor","","83","img/motor_2.png","83","motor","2","292","1","0","0","",""
"null","","854698","HierDydsw9haoo","ohtshgizpu","ms1000369","iti","","null","img/motor_2.png","83","motor","","","","","","",""
"444","","855156","HierDydsw9haoo","ohtshgizpu","ms1000369","motor","","76","img/motor_8.png","76","motor","8","293","1","0","0","",""
"null","","855272","HierDydsw9haoo","ohtshgizpu","ms1000369","iti","","null","img/motor_8.png","76","motor","","","","","","",""
"349","","855630","HierDydsw9haoo","ohtshgizpu","ms1000369","motor","","74","img/motor_6.png","74","motor","6","294","1","0","0","",""
"null","","855746","HierDydsw9haoo","ohtshgizpu","ms1000369","iti","","null","img/motor_6.png","74","motor","","","","","","",""
"356","","856116","HierDydsw9haoo","ohtshgizpu","ms1000369","motor","","72","img/motor_5.png","72","motor","5","295","1","0","0","",""
"null","","856233","HierDydsw9haoo","ohtshgizpu","ms1000369","iti","","null","img/motor_5.png","72","motor","","","","","","",""
"501","","856749","HierDydsw9haoo","ohtshgizpu","ms1000369","motor","","65","img/motor_1.png","65","motor","1","296","1","0","0","",""
"null","","856858","HierDydsw9haoo","ohtshgizpu","ms1000369","iti","","null","img/motor_1.png","65","motor","","","","","","",""
"493","","857357","HierDydsw9haoo","ohtshgizpu","ms1000369","motor","","68","img/motor_3.png","68","motor","3","297","1","0","0","",""
"null","","857466","HierDydsw9haoo","ohtshgizpu","ms1000369","iti","","null","img/motor_3.png","68","motor","","","","","","",""
"540","","858013","HierDydsw9haoo","ohtshgizpu","ms1000369","motor","","74","img/motor_6.png","74","motor","6","298","1","0","0","",""
"null","","858129","HierDydsw9haoo","ohtshgizpu","ms1000369","iti","","null","img/motor_6.png","74","motor","","","","","","",""
"597","","858741","HierDydsw9haoo","ohtshgizpu","ms1000369","motor","","68","img/motor_3.png","68","motor","3","299","1","0","0","",""
"null","","858857","HierDydsw9haoo","ohtshgizpu","ms1000369","iti","","null","img/motor_3.png","68","motor","","","","","","",""
"363","","859237","HierDydsw9haoo","ohtshgizpu","ms1000369","motor","","83","img/motor_2.png","83","motor","2","300","1","0","0","",""
"null","","859352","HierDydsw9haoo","ohtshgizpu","ms1000369","iti","","null","img/motor_2.png","83","motor","","","","","","",""
"477","","859844","HierDydsw9haoo","ohtshgizpu","ms1000369","motor","","70","img/motor_4.png","70","motor","4","301","1","0","0","",""
"null","","859954","HierDydsw9haoo","ohtshgizpu","ms1000369","iti","","null","img/motor_4.png","70","motor","","","","","","",""
"403","","860366","HierDydsw9haoo","ohtshgizpu","ms1000369","motor","","83","img/motor_2.png","83","motor","2","302","1","0","0","",""
"null","","860474","HierDydsw9haoo","ohtshgizpu","ms1000369","iti","","null","img/motor_2.png","83","motor","","","","","","",""
"419","","860902","HierDydsw9haoo","ohtshgizpu","ms1000369","motor","","83","img/motor_2.png","83","motor","2","303","1","0","0","",""
"null","","861017","HierDydsw9haoo","ohtshgizpu","ms1000369","iti","","null","img/motor_2.png","83","motor","","","","","","",""
"564","","861590","HierDydsw9haoo","ohtshgizpu","ms1000369","motor","","74","img/motor_7.png","75","motor","7","304","0","1","0","",""
"311","","861909","HierDydsw9haoo","ohtshgizpu","ms1000369","motorRepeat","","75","img/motor_7.png","75","motor","7","304","1","0","0","",""
"null","","862018","HierDydsw9haoo","ohtshgizpu","ms1000369","iti","","null","img/motor_7.png","75","motor","","","","","","",""
"468","","862501","HierDydsw9haoo","ohtshgizpu","ms1000369","motor","","72","img/motor_5.png","72","motor","5","305","1","0","0","",""
"null","","862617","HierDydsw9haoo","ohtshgizpu","ms1000369","iti","","null","img/motor_5.png","72","motor","","","","","","",""
"467","","863101","HierDydsw9haoo","ohtshgizpu","ms1000369","motor","","65","img/motor_1.png","65","motor","1","306","1","0","0","",""
"null","","863217","HierDydsw9haoo","ohtshgizpu","ms1000369","iti","","null","img/motor_1.png","65","motor","","","","","","",""
"525","","863750","HierDydsw9haoo","ohtshgizpu","ms1000369","motor","","72","img/motor_5.png","72","motor","5","307","1","0","0","",""
"null","","863865","HierDydsw9haoo","ohtshgizpu","ms1000369","iti","","null","img/motor_5.png","72","motor","","","","","","",""
"580","","864461","HierDydsw9haoo","ohtshgizpu","ms1000369","motor","","68","img/motor_2.png","83","motor","2","308","0","1","0","",""
"248","","864718","HierDydsw9haoo","ohtshgizpu","ms1000369","motorRepeat","","83","img/motor_2.png","83","motor","2","308","1","0","0","",""
"null","","864827","HierDydsw9haoo","ohtshgizpu","ms1000369","iti","","null","img/motor_2.png","83","motor","","","","","","",""
"371","","865206","HierDydsw9haoo","ohtshgizpu","ms1000369","motor","","83","img/motor_2.png","83","motor","2","309","1","0","0","",""
"null","","865314","HierDydsw9haoo","ohtshgizpu","ms1000369","iti","","null","img/motor_2.png","83","motor","","","","","","",""
"572","","865901","HierDydsw9haoo","ohtshgizpu","ms1000369","motor","","70","img/motor_4.png","70","motor","4","310","1","0","0","",""
"null","","866016","HierDydsw9haoo","ohtshgizpu","ms1000369","iti","","null","img/motor_4.png","70","motor","","","","","","",""
"357","","866389","HierDydsw9haoo","ohtshgizpu","ms1000369","motor","","68","img/motor_3.png","68","motor","3","311","1","0","0","",""
"null","","866498","HierDydsw9haoo","ohtshgizpu","ms1000369","iti","","null","img/motor_3.png","68","motor","","","","","","",""
"405","","866917","HierDydsw9haoo","ohtshgizpu","ms1000369","motor","","65","img/motor_1.png","65","motor","1","312","1","0","0","",""
"null","","867033","HierDydsw9haoo","ohtshgizpu","ms1000369","iti","","null","img/motor_1.png","65","motor","","","","","","",""
"669","","867717","HierDydsw9haoo","ohtshgizpu","ms1000369","motor","","75","img/motor_7.png","75","motor","7","313","1","0","0","",""
"null","","867826","HierDydsw9haoo","ohtshgizpu","ms1000369","iti","","null","img/motor_7.png","75","motor","","","","","","",""
"405","","868239","HierDydsw9haoo","ohtshgizpu","ms1000369","motor","","72","img/motor_5.png","72","motor","5","314","1","0","0","",""
"null","","868353","HierDydsw9haoo","ohtshgizpu","ms1000369","iti","","null","img/motor_5.png","72","motor","","","","","","",""
"412","","868773","HierDydsw9haoo","ohtshgizpu","ms1000369","motor","","72","img/motor_5.png","72","motor","5","315","1","0","0","",""
"null","","868882","HierDydsw9haoo","ohtshgizpu","ms1000369","iti","","null","img/motor_5.png","72","motor","","","","","","",""
"411","","869301","HierDydsw9haoo","ohtshgizpu","ms1000369","motor","","75","img/motor_7.png","75","motor","7","316","1","0","0","",""
"null","","869416","HierDydsw9haoo","ohtshgizpu","ms1000369","iti","","null","img/motor_7.png","75","motor","","","","","","",""
"469","","869901","HierDydsw9haoo","ohtshgizpu","ms1000369","motor","","65","img/motor_1.png","65","motor","1","317","1","0","0","",""
"null","","870010","HierDydsw9haoo","ohtshgizpu","ms1000369","iti","","null","img/motor_1.png","65","motor","","","","","","",""
"451","","870470","HierDydsw9haoo","ohtshgizpu","ms1000369","motor","","70","img/motor_4.png","70","motor","4","318","1","0","0","",""
"null","","870586","HierDydsw9haoo","ohtshgizpu","ms1000369","iti","","null","img/motor_4.png","70","motor","","","","","","",""
"324","","870925","HierDydsw9haoo","ohtshgizpu","ms1000369","motor","","65","img/motor_1.png","65","motor","1","319","1","0","0","",""
"null","","871034","HierDydsw9haoo","ohtshgizpu","ms1000369","iti","","null","img/motor_1.png","65","motor","","","","","","",""
"477","","871519","HierDydsw9haoo","ohtshgizpu","ms1000369","motor","","76","img/motor_8.png","76","motor","8","320","1","0","0","",""
"null","","871633","HierDydsw9haoo","ohtshgizpu","ms1000369","iti","","null","img/motor_8.png","76","motor","","","","","","",""
"509","","872157","HierDydsw9haoo","ohtshgizpu","ms1000369","motor","","70","img/motor_4.png","70","motor","4","321","1","0","0","",""
"null","","872272","HierDydsw9haoo","ohtshgizpu","ms1000369","iti","","null","img/motor_4.png","70","motor","","","","","","",""
"477","","872765","HierDydsw9haoo","ohtshgizpu","ms1000369","motor","","75","img/motor_6.png","74","motor","6","322","0","1","0","",""
"281","","873061","HierDydsw9haoo","ohtshgizpu","ms1000369","motorRepeat","","74","img/motor_6.png","74","motor","6","322","1","0","0","",""
"null","","873177","HierDydsw9haoo","ohtshgizpu","ms1000369","iti","","null","img/motor_6.png","74","motor","","","","","","",""
"421","","873613","HierDydsw9haoo","ohtshgizpu","ms1000369","motor","","70","img/motor_4.png","70","motor","4","323","1","0","0","",""
"null","","873729","HierDydsw9haoo","ohtshgizpu","ms1000369","iti","","null","img/motor_4.png","70","motor","","","","","","",""
"525","","874270","HierDydsw9haoo","ohtshgizpu","ms1000369","motor","","75","img/motor_7.png","75","motor","7","324","1","0","0","",""
"null","","874378","HierDydsw9haoo","ohtshgizpu","ms1000369","iti","","null","img/motor_7.png","75","motor","","","","","","",""
"588","","874981","HierDydsw9haoo","ohtshgizpu","ms1000369","motor","","83","img/motor_2.png","83","motor","2","325","1","0","0","",""
"null","","875090","HierDydsw9haoo","ohtshgizpu","ms1000369","iti","","null","img/motor_2.png","83","motor","","","","","","",""
"597","","875701","HierDydsw9haoo","ohtshgizpu","ms1000369","motor","","76","img/motor_8.png","76","motor","8","326","1","0","0","",""
"null","","875817","HierDydsw9haoo","ohtshgizpu","ms1000369","iti","","null","img/motor_8.png","76","motor","","","","","","",""
"550","","876381","HierDydsw9haoo","ohtshgizpu","ms1000369","motor","","65","img/motor_1.png","65","motor","1","327","1","0","0","",""
"null","","876497","HierDydsw9haoo","ohtshgizpu","ms1000369","iti","","null","img/motor_1.png","65","motor","","","","","","",""
"588","","877095","HierDydsw9haoo","ohtshgizpu","ms1000369","motor","","72","img/motor_5.png","72","motor","5","328","1","0","0","",""
"null","","877209","HierDydsw9haoo","ohtshgizpu","ms1000369","iti","","null","img/motor_5.png","72","motor","","","","","","",""
"659","","877877","HierDydsw9haoo","ohtshgizpu","ms1000369","motor","","76","img/motor_8.png","76","motor","8","329","1","0","0","",""
"null","","877993","HierDydsw9haoo","ohtshgizpu","ms1000369","iti","","null","img/motor_8.png","76","motor","","","","","","",""
"374","","878374","HierDydsw9haoo","ohtshgizpu","ms1000369","motor","","76","img/motor_8.png","76","motor","8","330","1","0","0","",""
"null","","878482","HierDydsw9haoo","ohtshgizpu","ms1000369","iti","","null","img/motor_8.png","76","motor","","","","","","",""
"564","","879055","HierDydsw9haoo","ohtshgizpu","ms1000369","motor","","65","img/motor_1.png","65","motor","1","331","1","0","0","",""
"null","","879163","HierDydsw9haoo","ohtshgizpu","ms1000369","iti","","null","img/motor_1.png","65","motor","","","","","","",""
"468","","879638","HierDydsw9haoo","ohtshgizpu","ms1000369","motor","","70","img/motor_4.png","70","motor","4","332","1","0","0","",""
"null","","879747","HierDydsw9haoo","ohtshgizpu","ms1000369","iti","","null","img/motor_4.png","70","motor","","","","","","",""
"547","","880309","HierDydsw9haoo","ohtshgizpu","ms1000369","motor","","72","img/motor_5.png","72","motor","5","333","1","0","0","",""
"null","","880425","HierDydsw9haoo","ohtshgizpu","ms1000369","iti","","null","img/motor_5.png","72","motor","","","","","","",""
"709","","881143","HierDydsw9haoo","ohtshgizpu","ms1000369","motor","","72","img/motor_5.png","72","motor","5","334","1","0","0","",""
"null","","881251","HierDydsw9haoo","ohtshgizpu","ms1000369","iti","","null","img/motor_5.png","72","motor","","","","","","",""
"555","","881822","HierDydsw9haoo","ohtshgizpu","ms1000369","motor","","65","img/motor_1.png","65","motor","1","335","1","0","0","",""
"null","","881937","HierDydsw9haoo","ohtshgizpu","ms1000369","iti","","null","img/motor_1.png","65","motor","","","","","","",""
"581","","882534","HierDydsw9haoo","ohtshgizpu","ms1000369","motor","","68","img/motor_3.png","68","motor","3","336","1","0","0","",""
"null","","882650","HierDydsw9haoo","ohtshgizpu","ms1000369","iti","","null","img/motor_3.png","68","motor","","","","","","",""
"699","","883359","HierDydsw9haoo","ohtshgizpu","ms1000369","motor","","65","img/motor_1.png","65","motor","1","337","1","0","0","",""
"null","","883474","HierDydsw9haoo","ohtshgizpu","ms1000369","iti","","null","img/motor_1.png","65","motor","","","","","","",""
"461","","883950","HierDydsw9haoo","ohtshgizpu","ms1000369","motor","","76","img/motor_8.png","76","motor","8","338","1","0","0","",""
"null","","884065","HierDydsw9haoo","ohtshgizpu","ms1000369","iti","","null","img/motor_8.png","76","motor","","","","","","",""
"541","","884615","HierDydsw9haoo","ohtshgizpu","ms1000369","motor","","68","img/motor_3.png","68","motor","3","339","1","0","0","",""
"null","","884730","HierDydsw9haoo","ohtshgizpu","ms1000369","iti","","null","img/motor_3.png","68","motor","","","","","","",""
"644","","885390","HierDydsw9haoo","ohtshgizpu","ms1000369","motor","","75","img/motor_7.png","75","motor","7","340","1","0","0","",""
"null","","885505","HierDydsw9haoo","ohtshgizpu","ms1000369","iti","","null","img/motor_7.png","75","motor","","","","","","",""
"420","","885935","HierDydsw9haoo","ohtshgizpu","ms1000369","motor","","76","img/motor_8.png","76","motor","8","341","1","0","0","",""
"null","","886050","HierDydsw9haoo","ohtshgizpu","ms1000369","iti","","null","img/motor_8.png","76","motor","","","","","","",""
"444","","886509","HierDydsw9haoo","ohtshgizpu","ms1000369","motor","","72","img/motor_5.png","72","motor","5","342","1","0","0","",""
"null","","886619","HierDydsw9haoo","ohtshgizpu","ms1000369","iti","","null","img/motor_5.png","72","motor","","","","","","",""
"412","","887045","HierDydsw9haoo","ohtshgizpu","ms1000369","motor","","74","img/motor_6.png","74","motor","6","343","1","0","0","",""
"null","","887155","HierDydsw9haoo","ohtshgizpu","ms1000369","iti","","null","img/motor_6.png","74","motor","","","","","","",""
"572","","887734","HierDydsw9haoo","ohtshgizpu","ms1000369","motor","","65","img/motor_1.png","65","motor","1","344","1","0","0","",""
"null","","887842","HierDydsw9haoo","ohtshgizpu","ms1000369","iti","","null","img/motor_1.png","65","motor","","","","","","",""
"485","","888335","HierDydsw9haoo","ohtshgizpu","ms1000369","motor","","70","img/motor_4.png","70","motor","4","345","1","0","0","",""
"null","","888451","HierDydsw9haoo","ohtshgizpu","ms1000369","iti","","null","img/motor_4.png","70","motor","","","","","","",""
"364","","888829","HierDydsw9haoo","ohtshgizpu","ms1000369","motor","","68","img/motor_3.png","68","motor","3","346","1","0","0","",""
"null","","888939","HierDydsw9haoo","ohtshgizpu","ms1000369","iti","","null","img/motor_3.png","68","motor","","","","","","",""
"508","","889462","HierDydsw9haoo","ohtshgizpu","ms1000369","motor","","70","img/motor_4.png","70","motor","4","347","1","0","0","",""
"null","","889578","HierDydsw9haoo","ohtshgizpu","ms1000369","iti","","null","img/motor_4.png","70","motor","","","","","","",""
"556","","890143","HierDydsw9haoo","ohtshgizpu","ms1000369","motor","","75","img/motor_7.png","75","motor","7","348","1","0","0","",""
"null","","890258","HierDydsw9haoo","ohtshgizpu","ms1000369","iti","","null","img/motor_7.png","75","motor","","","","","","",""
"540","","890806","HierDydsw9haoo","ohtshgizpu","ms1000369","motor","","70","img/motor_4.png","70","motor","4","349","1","0","0","",""
"null","","890914","HierDydsw9haoo","ohtshgizpu","ms1000369","iti","","null","img/motor_4.png","70","motor","","","","","","",""
"493","","891422","HierDydsw9haoo","ohtshgizpu","ms1000369","motor","","76","img/motor_8.png","76","motor","8","350","1","0","0","",""
"null","","891538","HierDydsw9haoo","ohtshgizpu","ms1000369","iti","","null","img/motor_8.png","76","motor","","","","","","",""
"445","","891991","HierDydsw9haoo","ohtshgizpu","ms1000369","motor","","72","img/motor_5.png","72","motor","5","351","1","0","0","",""
"null","","892106","HierDydsw9haoo","ohtshgizpu","ms1000369","iti","","null","img/motor_5.png","72","motor","","","","","","",""
"516","","892631","HierDydsw9haoo","ohtshgizpu","ms1000369","motor","","75","img/motor_7.png","75","motor","7","352","1","0","0","",""
"null","","892740","HierDydsw9haoo","ohtshgizpu","ms1000369","iti","","null","img/motor_7.png","75","motor","","","","","","",""
"452","","893199","HierDydsw9haoo","ohtshgizpu","ms1000369","motor","","75","img/motor_7.png","75","motor","7","353","1","0","0","",""
"null","","893308","HierDydsw9haoo","ohtshgizpu","ms1000369","iti","","null","img/motor_7.png","75","motor","","","","","","",""
"571","","893886","HierDydsw9haoo","ohtshgizpu","ms1000369","motor","","68","img/motor_3.png","68","motor","3","354","1","0","0","",""
"null","","894001","HierDydsw9haoo","ohtshgizpu","ms1000369","iti","","null","img/motor_3.png","68","motor","","","","","","",""
"629","","894647","HierDydsw9haoo","ohtshgizpu","ms1000369","motor","","70","img/motor_4.png","70","motor","4","355","1","0","0","",""
"null","","894756","HierDydsw9haoo","ohtshgizpu","ms1000369","iti","","null","img/motor_4.png","70","motor","","","","","","",""
"668","","895439","HierDydsw9haoo","ohtshgizpu","ms1000369","motor","","72","img/motor_5.png","72","motor","5","356","1","0","0","",""
"null","","895555","HierDydsw9haoo","ohtshgizpu","ms1000369","iti","","null","img/motor_5.png","72","motor","","","","","","",""
"565","","896127","HierDydsw9haoo","ohtshgizpu","ms1000369","motor","","65","img/motor_1.png","65","motor","1","357","1","0","0","",""
"null","","896241","HierDydsw9haoo","ohtshgizpu","ms1000369","iti","","null","img/motor_1.png","65","motor","","","","","","",""
"685","","896935","HierDydsw9haoo","ohtshgizpu","ms1000369","motor","","74","img/motor_6.png","74","motor","6","358","1","0","0","",""
"null","","897044","HierDydsw9haoo","ohtshgizpu","ms1000369","iti","","null","img/motor_6.png","74","motor","","","","","","",""
"563","","897615","HierDydsw9haoo","ohtshgizpu","ms1000369","motor","","68","img/motor_3.png","68","motor","3","359","1","0","0","",""
