"rt","responses","time_elapsed","subject","prolificID","demoID","trialType","question_order","key_press","stim","corrresp","phase","stimNum","trialNum","corr","repeatTrial","motorSwitch","pracCounter","hierarchy"
"126644","{""Q0"":""msl000385""}","126683","HierDymtoqtf93","8vded2myi7","msl000385","","","","","","","","","","","","",""
"21820","","148520","HierDymtoqtf93","8vded2myi7","msl000385","","","","","","","","","","","","",""
"","","155772","HierDymtoqtf93","8vded2myi7","msl000385","fullscreen","","","","","","","","","","","",""
"12168","{""Vision"":""Yes"",""Handedness"":""Right"",""Gender"":""female""}","167954","HierDymtoqtf93","8vded2myi7","msl000385","","[0,1,2]","","","","","","","","","","",""
"7129","{""Q0"":""21""}","175096","HierDymtoqtf93","8vded2myi7","msl000385","","","","","","","","","","","","",""
"37518","","212631","HierDymtoqtf93","8vded2myi7","msl000385","","","","","","","","","","","","",""
"1424","","214068","HierDymtoqtf93","8vded2myi7","msl000385","motor","","75","img/motor_7.png","75","motor","7","1","1","0","0","",""
"null","","214182","HierDymtoqtf93","8vded2myi7","msl000385","iti","","null","img/motor_7.png","75","motor","","","","","","",""
"641","","214835","HierDymtoqtf93","8vded2myi7","msl000385","motor","","76","img/motor_8.png","76","motor","8","2","1","0","0","",""
"null","","214948","HierDymtoqtf93","8vded2myi7","msl000385","iti","","null","img/motor_8.png","76","motor","","","","","","",""
"569","","215528","HierDymtoqtf93","8vded2myi7","msl000385","motor","","72","img/motor_5.png","72","motor","5","3","1","0","0","",""
"null","","215640","HierDymtoqtf93","8vded2myi7","msl000385","iti","","null","img/motor_5.png","72","motor","","","","","","",""
"676","","216329","HierDymtoqtf93","8vded2myi7","msl000385","motor","","74","img/motor_6.png","74","motor","6","4","1","0","0","",""
"null","","216442","HierDymtoqtf93","8vded2myi7","msl000385","iti","","null","img/motor_6.png","74","motor","","","","","","",""
"590","","217042","HierDymtoqtf93","8vded2myi7","msl000385","motor","","76","img/motor_8.png","76","motor","8","5","1","0","0","",""
"null","","217155","HierDymtoqtf93","8vded2myi7","msl000385","iti","","null","img/motor_8.png","76","motor","","","","","","",""
"397","","217565","HierDymtoqtf93","8vded2myi7","msl000385","motor","","75","img/motor_7.png","75","motor","7","6","1","0","0","",""
"null","","217678","HierDymtoqtf93","8vded2myi7","msl000385","iti","","null","img/motor_7.png","75","motor","","","","","","",""
"443","","218132","HierDymtoqtf93","8vded2myi7","msl000385","motor","","72","img/motor_5.png","72","motor","5","7","1","0","0","",""
"null","","218244","HierDymtoqtf93","8vded2myi7","msl000385","iti","","null","img/motor_5.png","72","motor","","","","","","",""
"629","","218884","HierDymtoqtf93","8vded2myi7","msl000385","motor","","74","img/motor_6.png","74","motor","6","8","1","0","0","",""
"null","","218996","HierDymtoqtf93","8vded2myi7","msl000385","iti","","null","img/motor_6.png","74","motor","","","","","","",""
"703","","219711","HierDymtoqtf93","8vded2myi7","msl000385","motor","","65","img/motor_1.png","65","motor","1","9","1","0","0","",""
"null","","219823","HierDymtoqtf93","8vded2myi7","msl000385","iti","","null","img/motor_1.png","65","motor","","","","","","",""
"751","","220586","HierDymtoqtf93","8vded2myi7","msl000385","motor","","83","img/motor_2.png","83","motor","2","10","1","0","0","",""
"null","","220698","HierDymtoqtf93","8vded2myi7","msl000385","iti","","null","img/motor_2.png","83","motor","","","","","","",""
"617","","221327","HierDymtoqtf93","8vded2myi7","msl000385","motor","","72","img/motor_5.png","72","motor","5","11","1","0","0","",""
"null","","221441","HierDymtoqtf93","8vded2myi7","msl000385","iti","","null","img/motor_5.png","72","motor","","","","","","",""
"558","","222010","HierDymtoqtf93","8vded2myi7","msl000385","motor","","83","img/motor_2.png","83","motor","2","12","1","0","0","",""
"null","","222123","HierDymtoqtf93","8vded2myi7","msl000385","iti","","null","img/motor_2.png","83","motor","","","","","","",""
"577","","222711","HierDymtoqtf93","8vded2myi7","msl000385","motor","","75","img/motor_7.png","75","motor","7","13","1","0","0","",""
"null","","222822","HierDymtoqtf93","8vded2myi7","msl000385","iti","","null","img/motor_7.png","75","motor","","","","","","",""
"550","","223384","HierDymtoqtf93","8vded2myi7","msl000385","motor","","70","img/motor_4.png","70","motor","4","14","1","0","0","",""
"null","","223497","HierDymtoqtf93","8vded2myi7","msl000385","iti","","null","img/motor_4.png","70","motor","","","","","","",""
"382","","223890","HierDymtoqtf93","8vded2myi7","msl000385","motor","","70","img/motor_4.png","70","motor","4","15","1","0","0","",""
"null","","224004","HierDymtoqtf93","8vded2myi7","msl000385","iti","","null","img/motor_4.png","70","motor","","","","","","",""
"498","","224512","HierDymtoqtf93","8vded2myi7","msl000385","motor","","65","img/motor_1.png","65","motor","1","16","1","0","0","",""
"null","","224624","HierDymtoqtf93","8vded2myi7","msl000385","iti","","null","img/motor_1.png","65","motor","","","","","","",""
"383","","225019","HierDymtoqtf93","8vded2myi7","msl000385","motor","","65","img/motor_1.png","65","motor","1","17","1","0","0","",""
"null","","225132","HierDymtoqtf93","8vded2myi7","msl000385","iti","","null","img/motor_1.png","65","motor","","","","","","",""
"338","","225481","HierDymtoqtf93","8vded2myi7","msl000385","motor","","76","img/motor_6.png","74","motor","6","18","0","1","0","",""
"326","","225818","HierDymtoqtf93","8vded2myi7","msl000385","motorRepeat","","74","img/motor_6.png","74","motor","6","18","1","0","0","",""
"null","","225931","HierDymtoqtf93","8vded2myi7","msl000385","iti","","null","img/motor_6.png","74","motor","","","","","","",""
"527","","226469","HierDymtoqtf93","8vded2myi7","msl000385","motor","","76","img/motor_8.png","76","motor","8","19","1","0","0","",""
"null","","226581","HierDymtoqtf93","8vded2myi7","msl000385","iti","","null","img/motor_8.png","76","motor","","","","","","",""
"645","","227238","HierDymtoqtf93","8vded2myi7","msl000385","motor","","83","img/motor_2.png","83","motor","2","20","1","0","0","",""
"null","","227351","HierDymtoqtf93","8vded2myi7","msl000385","iti","","null","img/motor_2.png","83","motor","","","","","","",""
"411","","227773","HierDymtoqtf93","8vded2myi7","msl000385","motor","","76","img/motor_8.png","76","motor","8","21","1","0","0","",""
"null","","227886","HierDymtoqtf93","8vded2myi7","msl000385","iti","","null","img/motor_8.png","76","motor","","","","","","",""
"405","","228302","HierDymtoqtf93","8vded2myi7","msl000385","motor","","76","img/motor_8.png","76","motor","8","22","1","0","0","",""
"null","","228415","HierDymtoqtf93","8vded2myi7","msl000385","iti","","null","img/motor_8.png","76","motor","","","","","","",""
"503","","228929","HierDymtoqtf93","8vded2myi7","msl000385","motor","","72","img/motor_5.png","72","motor","5","23","1","0","0","",""
"null","","229042","HierDymtoqtf93","8vded2myi7","msl000385","iti","","null","img/motor_5.png","72","motor","","","","","","",""
"498","","229551","HierDymtoqtf93","8vded2myi7","msl000385","motor","","83","img/motor_2.png","83","motor","2","24","1","0","0","",""
"null","","229664","HierDymtoqtf93","8vded2myi7","msl000385","iti","","null","img/motor_2.png","83","motor","","","","","","",""
"458","","230131","HierDymtoqtf93","8vded2myi7","msl000385","motor","","75","img/motor_7.png","75","motor","7","25","1","0","0","",""
"null","","230244","HierDymtoqtf93","8vded2myi7","msl000385","iti","","null","img/motor_7.png","75","motor","","","","","","",""
"524","","230780","HierDymtoqtf93","8vded2myi7","msl000385","motor","","74","img/motor_6.png","74","motor","6","26","1","0","0","",""
"null","","230892","HierDymtoqtf93","8vded2myi7","msl000385","iti","","null","img/motor_6.png","74","motor","","","","","","",""
"358","","231263","HierDymtoqtf93","8vded2myi7","msl000385","motor","","74","img/motor_6.png","74","motor","6","27","1","0","0","",""
"null","","231376","HierDymtoqtf93","8vded2myi7","msl000385","iti","","null","img/motor_6.png","74","motor","","","","","","",""
"446","","231834","HierDymtoqtf93","8vded2myi7","msl000385","motor","","72","img/motor_5.png","72","motor","5","28","1","0","0","",""
"null","","231946","HierDymtoqtf93","8vded2myi7","msl000385","iti","","null","img/motor_5.png","72","motor","","","","","","",""
"343","","232300","HierDymtoqtf93","8vded2myi7","msl000385","motor","","74","img/motor_7.png","75","motor","7","29","0","1","0","",""
"305","","232617","HierDymtoqtf93","8vded2myi7","msl000385","motorRepeat","","75","img/motor_7.png","75","motor","7","29","1","0","0","",""
"null","","232729","HierDymtoqtf93","8vded2myi7","msl000385","iti","","null","img/motor_7.png","75","motor","","","","","","",""
"489","","233229","HierDymtoqtf93","8vded2myi7","msl000385","motor","","83","img/motor_2.png","83","motor","2","30","1","0","0","",""
"null","","233341","HierDymtoqtf93","8vded2myi7","msl000385","iti","","null","img/motor_2.png","83","motor","","","","","","",""
"439","","233792","HierDymtoqtf93","8vded2myi7","msl000385","motor","","70","img/motor_4.png","70","motor","4","31","1","0","0","",""
"null","","233905","HierDymtoqtf93","8vded2myi7","msl000385","iti","","null","img/motor_4.png","70","motor","","","","","","",""
"641","","234557","HierDymtoqtf93","8vded2myi7","msl000385","motor","","68","img/motor_3.png","68","motor","3","32","1","0","0","",""
"null","","234670","HierDymtoqtf93","8vded2myi7","msl000385","iti","","null","img/motor_3.png","68","motor","","","","","","",""
"535","","235217","HierDymtoqtf93","8vded2myi7","msl000385","motor","","74","img/motor_5.png","72","motor","5","33","0","1","0","",""
"323","","235551","HierDymtoqtf93","8vded2myi7","msl000385","motorRepeat","","72","img/motor_5.png","72","motor","5","33","1","0","0","",""
"null","","235663","HierDymtoqtf93","8vded2myi7","msl000385","iti","","null","img/motor_5.png","72","motor","","","","","","",""
"559","","236234","HierDymtoqtf93","8vded2myi7","msl000385","motor","","68","img/motor_3.png","68","motor","3","34","1","0","0","",""
"null","","236347","HierDymtoqtf93","8vded2myi7","msl000385","iti","","null","img/motor_3.png","68","motor","","","","","","",""
"436","","236795","HierDymtoqtf93","8vded2myi7","msl000385","motor","","70","img/motor_4.png","70","motor","4","35","1","0","0","",""
"null","","236908","HierDymtoqtf93","8vded2myi7","msl000385","iti","","null","img/motor_4.png","70","motor","","","","","","",""
"308","","237227","HierDymtoqtf93","8vded2myi7","msl000385","motor","","68","img/motor_3.png","68","motor","3","36","1","0","0","",""
"null","","237339","HierDymtoqtf93","8vded2myi7","msl000385","iti","","null","img/motor_3.png","68","motor","","","","","","",""
"467","","237818","HierDymtoqtf93","8vded2myi7","msl000385","motor","","74","img/motor_6.png","74","motor","6","37","1","0","0","",""
"null","","237931","HierDymtoqtf93","8vded2myi7","msl000385","iti","","null","img/motor_6.png","74","motor","","","","","","",""
"390","","238332","HierDymtoqtf93","8vded2myi7","msl000385","motor","","76","img/motor_8.png","76","motor","8","38","1","0","0","",""
"null","","238444","HierDymtoqtf93","8vded2myi7","msl000385","iti","","null","img/motor_8.png","76","motor","","","","","","",""
"532","","238987","HierDymtoqtf93","8vded2myi7","msl000385","motor","","70","img/motor_4.png","70","motor","4","39","1","0","0","",""
"null","","239100","HierDymtoqtf93","8vded2myi7","msl000385","iti","","null","img/motor_4.png","70","motor","","","","","","",""
"370","","239480","HierDymtoqtf93","8vded2myi7","msl000385","motor","","76","img/motor_8.png","76","motor","8","40","1","0","0","",""
"null","","239593","HierDymtoqtf93","8vded2myi7","msl000385","iti","","null","img/motor_8.png","76","motor","","","","","","",""
"343","","239948","HierDymtoqtf93","8vded2myi7","msl000385","motor","","70","img/motor_3.png","68","motor","3","41","0","1","0","",""
"334","","240292","HierDymtoqtf93","8vded2myi7","msl000385","motorRepeat","","68","img/motor_3.png","68","motor","3","41","1","0","0","",""
"null","","240405","HierDymtoqtf93","8vded2myi7","msl000385","iti","","null","img/motor_3.png","68","motor","","","","","","",""
"659","","241075","HierDymtoqtf93","8vded2myi7","msl000385","motor","","83","img/motor_2.png","83","motor","2","42","1","0","0","",""
"null","","241188","HierDymtoqtf93","8vded2myi7","msl000385","iti","","null","img/motor_2.png","83","motor","","","","","","",""
"514","","241713","HierDymtoqtf93","8vded2myi7","msl000385","motor","","68","img/motor_3.png","68","motor","3","43","1","0","0","",""
"null","","241827","HierDymtoqtf93","8vded2myi7","msl000385","iti","","null","img/motor_3.png","68","motor","","","","","","",""
"431","","242269","HierDymtoqtf93","8vded2myi7","msl000385","motor","","65","img/motor_1.png","65","motor","1","44","1","0","0","",""
"null","","242382","HierDymtoqtf93","8vded2myi7","msl000385","iti","","null","img/motor_1.png","65","motor","","","","","","",""
"479","","242873","HierDymtoqtf93","8vded2myi7","msl000385","motor","","72","img/motor_5.png","72","motor","5","45","1","0","0","",""
"null","","242986","HierDymtoqtf93","8vded2myi7","msl000385","iti","","null","img/motor_5.png","72","motor","","","","","","",""
"481","","243478","HierDymtoqtf93","8vded2myi7","msl000385","motor","","68","img/motor_3.png","68","motor","3","46","1","0","0","",""
"null","","243592","HierDymtoqtf93","8vded2myi7","msl000385","iti","","null","img/motor_3.png","68","motor","","","","","","",""
"467","","244071","HierDymtoqtf93","8vded2myi7","msl000385","motor","","72","img/motor_5.png","72","motor","5","47","1","0","0","",""
"null","","244184","HierDymtoqtf93","8vded2myi7","msl000385","iti","","null","img/motor_5.png","72","motor","","","","","","",""
"322","","244517","HierDymtoqtf93","8vded2myi7","msl000385","motor","","74","img/motor_7.png","75","motor","7","48","0","1","0","",""
"274","","244804","HierDymtoqtf93","8vded2myi7","msl000385","motorRepeat","","75","img/motor_7.png","75","motor","7","48","1","0","0","",""
"null","","244915","HierDymtoqtf93","8vded2myi7","msl000385","iti","","null","img/motor_7.png","75","motor","","","","","","",""
"610","","245536","HierDymtoqtf93","8vded2myi7","msl000385","motor","","70","img/motor_4.png","70","motor","4","49","1","0","0","",""
"null","","245649","HierDymtoqtf93","8vded2myi7","msl000385","iti","","null","img/motor_4.png","70","motor","","","","","","",""
"538","","246200","HierDymtoqtf93","8vded2myi7","msl000385","motor","","72","img/motor_5.png","72","motor","5","50","1","0","0","",""
"null","","246312","HierDymtoqtf93","8vded2myi7","msl000385","iti","","null","img/motor_5.png","72","motor","","","","","","",""
"604","","246928","HierDymtoqtf93","8vded2myi7","msl000385","motor","","68","img/motor_3.png","68","motor","3","51","1","0","0","",""
"null","","247039","HierDymtoqtf93","8vded2myi7","msl000385","iti","","null","img/motor_3.png","68","motor","","","","","","",""
"398","","247448","HierDymtoqtf93","8vded2myi7","msl000385","motor","","70","img/motor_4.png","70","motor","4","52","1","0","0","",""
"null","","247560","HierDymtoqtf93","8vded2myi7","msl000385","iti","","null","img/motor_4.png","70","motor","","","","","","",""
"516","","248087","HierDymtoqtf93","8vded2myi7","msl000385","motor","","75","img/motor_7.png","75","motor","7","53","1","0","0","",""
"null","","248199","HierDymtoqtf93","8vded2myi7","msl000385","iti","","null","img/motor_7.png","75","motor","","","","","","",""
"385","","248596","HierDymtoqtf93","8vded2myi7","msl000385","motor","","75","img/motor_7.png","75","motor","7","54","1","0","0","",""
"null","","248709","HierDymtoqtf93","8vded2myi7","msl000385","iti","","null","img/motor_7.png","75","motor","","","","","","",""
"418","","249140","HierDymtoqtf93","8vded2myi7","msl000385","motor","","72","img/motor_6.png","74","motor","6","55","0","1","0","",""
"278","","249431","HierDymtoqtf93","8vded2myi7","msl000385","motorRepeat","","74","img/motor_6.png","74","motor","6","55","1","0","0","",""
"null","","249542","HierDymtoqtf93","8vded2myi7","msl000385","iti","","null","img/motor_6.png","74","motor","","","","","","",""
"821","","250375","HierDymtoqtf93","8vded2myi7","msl000385","motor","","74","img/motor_6.png","74","motor","6","56","1","0","0","",""
"null","","250487","HierDymtoqtf93","8vded2myi7","msl000385","iti","","null","img/motor_6.png","74","motor","","","","","","",""
"497","","250995","HierDymtoqtf93","8vded2myi7","msl000385","motor","","68","img/motor_3.png","68","motor","3","57","1","0","0","",""
"null","","251107","HierDymtoqtf93","8vded2myi7","msl000385","iti","","null","img/motor_3.png","68","motor","","","","","","",""
"508","","251628","HierDymtoqtf93","8vded2myi7","msl000385","motor","","65","img/motor_1.png","65","motor","1","58","1","0","0","",""
"null","","251740","HierDymtoqtf93","8vded2myi7","msl000385","iti","","null","img/motor_1.png","65","motor","","","","","","",""
"507","","252259","HierDymtoqtf93","8vded2myi7","msl000385","motor","","76","img/motor_8.png","76","motor","8","59","1","0","0","",""
"null","","252372","HierDymtoqtf93","8vded2myi7","msl000385","iti","","null","img/motor_8.png","76","motor","","","","","","",""
"684","","253068","HierDymtoqtf93","8vded2myi7","msl000385","motor","","83","img/motor_2.png","83","motor","2","60","1","0","0","",""
"null","","253180","HierDymtoqtf93","8vded2myi7","msl000385","iti","","null","img/motor_2.png","83","motor","","","","","","",""
"318","","253509","HierDymtoqtf93","8vded2myi7","msl000385","motor","","74","img/motor_5.png","72","motor","5","61","0","1","0","",""
"253","","253773","HierDymtoqtf93","8vded2myi7","msl000385","motorRepeat","","72","img/motor_5.png","72","motor","5","61","1","0","0","",""
"null","","253886","HierDymtoqtf93","8vded2myi7","msl000385","iti","","null","img/motor_5.png","72","motor","","","","","","",""
"600","","254498","HierDymtoqtf93","8vded2myi7","msl000385","motor","","83","img/motor_2.png","83","motor","2","62","1","0","0","",""
"null","","254610","HierDymtoqtf93","8vded2myi7","msl000385","iti","","null","img/motor_2.png","83","motor","","","","","","",""
"410","","255031","HierDymtoqtf93","8vded2myi7","msl000385","motor","","72","img/motor_6.png","74","motor","6","63","0","1","0","",""
"208","","255249","HierDymtoqtf93","8vded2myi7","msl000385","motorRepeat","","74","img/motor_6.png","74","motor","6","63","1","0","0","",""
"null","","255363","HierDymtoqtf93","8vded2myi7","msl000385","iti","","null","img/motor_6.png","74","motor","","","","","","",""
"639","","256013","HierDymtoqtf93","8vded2myi7","msl000385","motor","","72","img/motor_5.png","72","motor","5","64","1","0","0","",""
"null","","256125","HierDymtoqtf93","8vded2myi7","msl000385","iti","","null","img/motor_5.png","72","motor","","","","","","",""
"443","","256581","HierDymtoqtf93","8vded2myi7","msl000385","motor","","76","img/motor_8.png","76","motor","8","65","1","0","0","",""
"null","","256693","HierDymtoqtf93","8vded2myi7","msl000385","iti","","null","img/motor_8.png","76","motor","","","","","","",""
"601","","257307","HierDymtoqtf93","8vded2myi7","msl000385","motor","","75","img/motor_8.png","76","motor","8","66","0","1","0","",""
"800","","258118","HierDymtoqtf93","8vded2myi7","msl000385","motorRepeat","","75","img/motor_8.png","76","motor","8","66","0","1","0","",""
"197","","258327","HierDymtoqtf93","8vded2myi7","msl000385","motorRepeat","","76","img/motor_8.png","76","motor","8","66","1","0","0","",""
"null","","258440","HierDymtoqtf93","8vded2myi7","msl000385","iti","","null","img/motor_8.png","76","motor","","","","","","",""
"487","","258939","HierDymtoqtf93","8vded2myi7","msl000385","motor","","72","img/motor_5.png","72","motor","5","67","1","0","0","",""
"null","","259051","HierDymtoqtf93","8vded2myi7","msl000385","iti","","null","img/motor_5.png","72","motor","","","","","","",""
"575","","259637","HierDymtoqtf93","8vded2myi7","msl000385","motor","","70","img/motor_4.png","70","motor","4","68","1","0","0","",""
"null","","259750","HierDymtoqtf93","8vded2myi7","msl000385","iti","","null","img/motor_4.png","70","motor","","","","","","",""
"371","","260134","HierDymtoqtf93","8vded2myi7","msl000385","motor","","76","img/motor_8.png","76","motor","8","69","1","0","0","",""
"null","","260247","HierDymtoqtf93","8vded2myi7","msl000385","iti","","null","img/motor_8.png","76","motor","","","","","","",""
"446","","260706","HierDymtoqtf93","8vded2myi7","msl000385","motor","","65","img/motor_1.png","65","motor","1","70","1","0","0","",""
"null","","260818","HierDymtoqtf93","8vded2myi7","msl000385","iti","","null","img/motor_1.png","65","motor","","","","","","",""
"423","","261251","HierDymtoqtf93","8vded2myi7","msl000385","motor","","72","img/motor_5.png","72","motor","5","71","1","0","0","",""
"null","","261364","HierDymtoqtf93","8vded2myi7","msl000385","iti","","null","img/motor_5.png","72","motor","","","","","","",""
"384","","261761","HierDymtoqtf93","8vded2myi7","msl000385","motor","","76","img/motor_8.png","76","motor","8","72","1","0","0","",""
"null","","261875","HierDymtoqtf93","8vded2myi7","msl000385","iti","","null","img/motor_8.png","76","motor","","","","","","",""
"403","","262291","HierDymtoqtf93","8vded2myi7","msl000385","motor","","65","img/motor_1.png","65","motor","1","73","1","0","0","",""
"null","","262404","HierDymtoqtf93","8vded2myi7","msl000385","iti","","null","img/motor_1.png","65","motor","","","","","","",""
"478","","262895","HierDymtoqtf93","8vded2myi7","msl000385","motor","","74","img/motor_6.png","74","motor","6","74","1","0","0","",""
"null","","263009","HierDymtoqtf93","8vded2myi7","msl000385","iti","","null","img/motor_6.png","74","motor","","","","","","",""
"480","","263501","HierDymtoqtf93","8vded2myi7","msl000385","motor","","83","img/motor_2.png","83","motor","2","75","1","0","0","",""
"null","","263614","HierDymtoqtf93","8vded2myi7","msl000385","iti","","null","img/motor_2.png","83","motor","","","","","","",""
"470","","264096","HierDymtoqtf93","8vded2myi7","msl000385","motor","","65","img/motor_1.png","65","motor","1","76","1","0","0","",""
"null","","264210","HierDymtoqtf93","8vded2myi7","msl000385","iti","","null","img/motor_1.png","65","motor","","","","","","",""
"375","","264599","HierDymtoqtf93","8vded2myi7","msl000385","motor","","75","img/motor_8.png","76","motor","8","77","0","1","0","",""
"383","","264995","HierDymtoqtf93","8vded2myi7","msl000385","motorRepeat","","76","img/motor_8.png","76","motor","8","77","1","0","0","",""
"null","","265107","HierDymtoqtf93","8vded2myi7","msl000385","iti","","null","img/motor_8.png","76","motor","","","","","","",""
"592","","265714","HierDymtoqtf93","8vded2myi7","msl000385","motor","","83","img/motor_3.png","68","motor","3","78","0","1","0","",""
"133","","265860","HierDymtoqtf93","8vded2myi7","msl000385","motorRepeat","","68","img/motor_3.png","68","motor","3","78","1","0","0","",""
"null","","265973","HierDymtoqtf93","8vded2myi7","msl000385","iti","","null","img/motor_3.png","68","motor","","","","","","",""
"424","","266410","HierDymtoqtf93","8vded2myi7","msl000385","motor","","83","img/motor_2.png","83","motor","2","79","1","0","0","",""
"null","","266524","HierDymtoqtf93","8vded2myi7","msl000385","iti","","null","img/motor_2.png","83","motor","","","","","","",""
"420","","266956","HierDymtoqtf93","8vded2myi7","msl000385","motor","","74","img/motor_7.png","75","motor","7","80","0","1","0","",""
"334","","267302","HierDymtoqtf93","8vded2myi7","msl000385","motorRepeat","","75","img/motor_7.png","75","motor","7","80","1","0","0","",""
"null","","267415","HierDymtoqtf93","8vded2myi7","msl000385","iti","","null","img/motor_7.png","75","motor","","","","","","",""
"473","","267901","HierDymtoqtf93","8vded2myi7","msl000385","motor","","83","img/motor_2.png","83","motor","2","81","1","0","0","",""
"null","","268014","HierDymtoqtf93","8vded2myi7","msl000385","iti","","null","img/motor_2.png","83","motor","","","","","","",""
"446","","268472","HierDymtoqtf93","8vded2myi7","msl000385","motor","","68","img/motor_3.png","68","motor","3","82","1","0","0","",""
"null","","268585","HierDymtoqtf93","8vded2myi7","msl000385","iti","","null","img/motor_3.png","68","motor","","","","","","",""
"428","","269025","HierDymtoqtf93","8vded2myi7","msl000385","motor","","72","img/motor_6.png","74","motor","6","83","0","1","0","",""
"299","","269336","HierDymtoqtf93","8vded2myi7","msl000385","motorRepeat","","74","img/motor_6.png","74","motor","6","83","1","0","0","",""
"null","","269449","HierDymtoqtf93","8vded2myi7","msl000385","iti","","null","img/motor_6.png","74","motor","","","","","","",""
"955","","270415","HierDymtoqtf93","8vded2myi7","msl000385","motor","","68","img/motor_2.png","83","motor","2","84","0","1","0","",""
"104","","270531","HierDymtoqtf93","8vded2myi7","msl000385","motorRepeat","","83","img/motor_2.png","83","motor","2","84","1","0","0","",""
"null","","270643","HierDymtoqtf93","8vded2myi7","msl000385","iti","","null","img/motor_2.png","83","motor","","","","","","",""
"568","","271223","HierDymtoqtf93","8vded2myi7","msl000385","motor","","70","img/motor_4.png","70","motor","4","85","1","0","0","",""
"null","","271337","HierDymtoqtf93","8vded2myi7","msl000385","iti","","null","img/motor_4.png","70","motor","","","","","","",""
"477","","271825","HierDymtoqtf93","8vded2myi7","msl000385","motor","","65","img/motor_1.png","65","motor","1","86","1","0","0","",""
"null","","271938","HierDymtoqtf93","8vded2myi7","msl000385","iti","","null","img/motor_1.png","65","motor","","","","","","",""
"418","","272367","HierDymtoqtf93","8vded2myi7","msl000385","motor","","65","img/motor_1.png","65","motor","1","87","1","0","0","",""
"null","","272480","HierDymtoqtf93","8vded2myi7","msl000385","iti","","null","img/motor_1.png","65","motor","","","","","","",""
"377","","272869","HierDymtoqtf93","8vded2myi7","msl000385","motor","","76","img/motor_8.png","76","motor","8","88","1","0","0","",""
"null","","272981","HierDymtoqtf93","8vded2myi7","msl000385","iti","","null","img/motor_8.png","76","motor","","","","","","",""
"448","","273439","HierDymtoqtf93","8vded2myi7","msl000385","motor","","65","img/motor_1.png","65","motor","1","89","1","0","0","",""
"null","","273551","HierDymtoqtf93","8vded2myi7","msl000385","iti","","null","img/motor_1.png","65","motor","","","","","","",""
"670","","274232","HierDymtoqtf93","8vded2myi7","msl000385","motor","","68","img/motor_3.png","68","motor","3","90","1","0","0","",""
"null","","274345","HierDymtoqtf93","8vded2myi7","msl000385","iti","","null","img/motor_3.png","68","motor","","","","","","",""
"470","","274826","HierDymtoqtf93","8vded2myi7","msl000385","motor","","74","img/motor_7.png","75","motor","7","91","0","1","0","",""
"331","","275171","HierDymtoqtf93","8vded2myi7","msl000385","motorRepeat","","75","img/motor_7.png","75","motor","7","91","1","0","0","",""
"null","","275284","HierDymtoqtf93","8vded2myi7","msl000385","iti","","null","img/motor_7.png","75","motor","","","","","","",""
"1146","","276440","HierDymtoqtf93","8vded2myi7","msl000385","motor","","70","img/motor_3.png","68","motor","3","92","0","1","0","",""
"258","","276711","HierDymtoqtf93","8vded2myi7","msl000385","motorRepeat","","68","img/motor_3.png","68","motor","3","92","1","0","0","",""
"null","","276824","HierDymtoqtf93","8vded2myi7","msl000385","iti","","null","img/motor_3.png","68","motor","","","","","","",""
"700","","277536","HierDymtoqtf93","8vded2myi7","msl000385","motor","","72","img/motor_5.png","72","motor","5","93","1","0","0","",""
"null","","277648","HierDymtoqtf93","8vded2myi7","msl000385","iti","","null","img/motor_5.png","72","motor","","","","","","",""
"430","","278090","HierDymtoqtf93","8vded2myi7","msl000385","motor","","76","img/motor_8.png","76","motor","8","94","1","0","0","",""
"null","","278202","HierDymtoqtf93","8vded2myi7","msl000385","iti","","null","img/motor_8.png","76","motor","","","","","","",""
"628","","278843","HierDymtoqtf93","8vded2myi7","msl000385","motor","","70","img/motor_4.png","70","motor","4","95","1","0","0","",""
"null","","278956","HierDymtoqtf93","8vded2myi7","msl000385","iti","","null","img/motor_4.png","70","motor","","","","","","",""
"592","","279561","HierDymtoqtf93","8vded2myi7","msl000385","motor","","83","img/motor_2.png","83","motor","2","96","1","0","0","",""
"null","","279674","HierDymtoqtf93","8vded2myi7","msl000385","iti","","null","img/motor_2.png","83","motor","","","","","","",""
"503","","280188","HierDymtoqtf93","8vded2myi7","msl000385","motor","","72","img/motor_5.png","72","motor","5","97","1","0","0","",""
"null","","280301","HierDymtoqtf93","8vded2myi7","msl000385","iti","","null","img/motor_5.png","72","motor","","","","","","",""
"397","","280710","HierDymtoqtf93","8vded2myi7","msl000385","motor","","72","img/motor_5.png","72","motor","5","98","1","0","0","",""
"null","","280823","HierDymtoqtf93","8vded2myi7","msl000385","iti","","null","img/motor_5.png","72","motor","","","","","","",""
"574","","281408","HierDymtoqtf93","8vded2myi7","msl000385","motor","","70","img/motor_4.png","70","motor","4","99","1","0","0","",""
"null","","281521","HierDymtoqtf93","8vded2myi7","msl000385","iti","","null","img/motor_4.png","70","motor","","","","","","",""
"371","","281905","HierDymtoqtf93","8vded2myi7","msl000385","motor","","70","img/motor_4.png","70","motor","4","100","1","0","0","",""
"null","","282018","HierDymtoqtf93","8vded2myi7","msl000385","iti","","null","img/motor_4.png","70","motor","","","","","","",""
"595","","282626","HierDymtoqtf93","8vded2myi7","msl000385","motor","","75","img/motor_7.png","75","motor","7","101","1","0","0","",""
"null","","282739","HierDymtoqtf93","8vded2myi7","msl000385","iti","","null","img/motor_7.png","75","motor","","","","","","",""
"459","","283209","HierDymtoqtf93","8vded2myi7","msl000385","motor","","65","img/motor_1.png","65","motor","1","102","1","0","0","",""
"null","","283321","HierDymtoqtf93","8vded2myi7","msl000385","iti","","null","img/motor_1.png","65","motor","","","","","","",""
"607","","283941","HierDymtoqtf93","8vded2myi7","msl000385","motor","","68","img/motor_3.png","68","motor","3","103","1","0","0","",""
"null","","284053","HierDymtoqtf93","8vded2myi7","msl000385","iti","","null","img/motor_3.png","68","motor","","","","","","",""
"48","","284113","HierDymtoqtf93","8vded2myi7","msl000385","motor","","83","img/motor_3.png","68","motor","3","104","0","1","0","",""
"429","","284554","HierDymtoqtf93","8vded2myi7","msl000385","motorRepeat","","68","img/motor_3.png","68","motor","3","104","1","0","0","",""
"null","","284667","HierDymtoqtf93","8vded2myi7","msl000385","iti","","null","img/motor_3.png","68","motor","","","","","","",""
"489","","285166","HierDymtoqtf93","8vded2myi7","msl000385","motor","","83","img/motor_2.png","83","motor","2","105","1","0","0","",""
"null","","285280","HierDymtoqtf93","8vded2myi7","msl000385","iti","","null","img/motor_2.png","83","motor","","","","","","",""
"372","","285664","HierDymtoqtf93","8vded2myi7","msl000385","motor","","75","img/motor_7.png","75","motor","7","106","1","0","0","",""
"null","","285776","HierDymtoqtf93","8vded2myi7","msl000385","iti","","null","img/motor_7.png","75","motor","","","","","","",""
"501","","286289","HierDymtoqtf93","8vded2myi7","msl000385","motor","","72","img/motor_6.png","74","motor","6","107","0","1","0","",""
"236","","286536","HierDymtoqtf93","8vded2myi7","msl000385","motorRepeat","","74","img/motor_6.png","74","motor","6","107","1","0","0","",""
"null","","286649","HierDymtoqtf93","8vded2myi7","msl000385","iti","","null","img/motor_6.png","74","motor","","","","","","",""
"441","","287104","HierDymtoqtf93","8vded2myi7","msl000385","motor","","76","img/motor_8.png","76","motor","8","108","1","0","0","",""
"null","","287216","HierDymtoqtf93","8vded2myi7","msl000385","iti","","null","img/motor_8.png","76","motor","","","","","","",""
"582","","287809","HierDymtoqtf93","8vded2myi7","msl000385","motor","","75","img/motor_7.png","75","motor","7","109","1","0","0","",""
"null","","287922","HierDymtoqtf93","8vded2myi7","msl000385","iti","","null","img/motor_7.png","75","motor","","","","","","",""
"699","","288633","HierDymtoqtf93","8vded2myi7","msl000385","motor","","76","img/motor_8.png","76","motor","8","110","1","0","0","",""
"null","","288746","HierDymtoqtf93","8vded2myi7","msl000385","iti","","null","img/motor_8.png","76","motor","","","","","","",""
"605","","289362","HierDymtoqtf93","8vded2myi7","msl000385","motor","","70","img/motor_4.png","70","motor","4","111","1","0","0","",""
"null","","289475","HierDymtoqtf93","8vded2myi7","msl000385","iti","","null","img/motor_4.png","70","motor","","","","","","",""
"441","","289929","HierDymtoqtf93","8vded2myi7","msl000385","motor","","74","img/motor_6.png","74","motor","6","112","1","0","0","",""
"null","","290040","HierDymtoqtf93","8vded2myi7","msl000385","iti","","null","img/motor_6.png","74","motor","","","","","","",""
"578","","290630","HierDymtoqtf93","8vded2myi7","msl000385","motor","","70","img/motor_4.png","70","motor","4","113","1","0","0","",""
"null","","290743","HierDymtoqtf93","8vded2myi7","msl000385","iti","","null","img/motor_4.png","70","motor","","","","","","",""
"644","","291398","HierDymtoqtf93","8vded2myi7","msl000385","motor","","83","img/motor_2.png","83","motor","2","114","1","0","0","",""
"null","","291511","HierDymtoqtf93","8vded2myi7","msl000385","iti","","null","img/motor_2.png","83","motor","","","","","","",""
"501","","292024","HierDymtoqtf93","8vded2myi7","msl000385","motor","","72","img/motor_5.png","72","motor","5","115","1","0","0","",""
"null","","292136","HierDymtoqtf93","8vded2myi7","msl000385","iti","","null","img/motor_5.png","72","motor","","","","","","",""
"469","","292618","HierDymtoqtf93","8vded2myi7","msl000385","motor","","83","img/motor_2.png","83","motor","2","116","1","0","0","",""
"null","","292730","HierDymtoqtf93","8vded2myi7","msl000385","iti","","null","img/motor_2.png","83","motor","","","","","","",""
"543","","293284","HierDymtoqtf93","8vded2myi7","msl000385","motor","","65","img/motor_1.png","65","motor","1","117","1","0","0","",""
"null","","293397","HierDymtoqtf93","8vded2myi7","msl000385","iti","","null","img/motor_1.png","65","motor","","","","","","",""
"387","","293796","HierDymtoqtf93","8vded2myi7","msl000385","motor","","72","img/motor_5.png","72","motor","5","118","1","0","0","",""
"null","","293908","HierDymtoqtf93","8vded2myi7","msl000385","iti","","null","img/motor_5.png","72","motor","","","","","","",""
"319","","294239","HierDymtoqtf93","8vded2myi7","msl000385","motor","","74","img/motor_6.png","74","motor","6","119","1","0","0","",""
"null","","294351","HierDymtoqtf93","8vded2myi7","msl000385","iti","","null","img/motor_6.png","74","motor","","","","","","",""
"507","","294871","HierDymtoqtf93","8vded2myi7","msl000385","motor","","72","img/motor_5.png","72","motor","5","120","1","0","0","",""
"null","","294983","HierDymtoqtf93","8vded2myi7","msl000385","iti","","null","img/motor_5.png","72","motor","","","","","","",""
"463","","295457","HierDymtoqtf93","8vded2myi7","msl000385","motor","","70","img/motor_4.png","70","motor","4","121","1","0","0","",""
"null","","295569","HierDymtoqtf93","8vded2myi7","msl000385","iti","","null","img/motor_4.png","70","motor","","","","","","",""
"337","","295919","HierDymtoqtf93","8vded2myi7","msl000385","motor","","68","img/motor_3.png","68","motor","3","122","1","0","0","",""
"null","","296033","HierDymtoqtf93","8vded2myi7","msl000385","iti","","null","img/motor_3.png","68","motor","","","","","","",""
"370","","296414","HierDymtoqtf93","8vded2myi7","msl000385","motor","","72","img/motor_8.png","76","motor","8","123","0","1","0","",""
"219","","296646","HierDymtoqtf93","8vded2myi7","msl000385","motorRepeat","","76","img/motor_8.png","76","motor","8","123","1","0","0","",""
"null","","296760","HierDymtoqtf93","8vded2myi7","msl000385","iti","","null","img/motor_8.png","76","motor","","","","","","",""
"436","","297209","HierDymtoqtf93","8vded2myi7","msl000385","motor","","65","img/motor_1.png","65","motor","1","124","1","0","0","",""
"null","","297321","HierDymtoqtf93","8vded2myi7","msl000385","iti","","null","img/motor_1.png","65","motor","","","","","","",""
"340","","297672","HierDymtoqtf93","8vded2myi7","msl000385","motor","","70","img/motor_4.png","70","motor","4","125","1","0","0","",""
"null","","297783","HierDymtoqtf93","8vded2myi7","msl000385","iti","","null","img/motor_4.png","70","motor","","","","","","",""
"521","","298317","HierDymtoqtf93","8vded2myi7","msl000385","motor","","72","img/motor_5.png","72","motor","5","126","1","0","0","",""
"null","","298430","HierDymtoqtf93","8vded2myi7","msl000385","iti","","null","img/motor_5.png","72","motor","","","","","","",""
"373","","298815","HierDymtoqtf93","8vded2myi7","msl000385","motor","","72","img/motor_5.png","72","motor","5","127","1","0","0","",""
"null","","298926","HierDymtoqtf93","8vded2myi7","msl000385","iti","","null","img/motor_5.png","72","motor","","","","","","",""
"413","","299350","HierDymtoqtf93","8vded2myi7","msl000385","motor","","76","img/motor_8.png","76","motor","8","128","1","0","0","",""
"null","","299463","HierDymtoqtf93","8vded2myi7","msl000385","iti","","null","img/motor_8.png","76","motor","","","","","","",""
"667","","300144","HierDymtoqtf93","8vded2myi7","msl000385","motor","","83","img/motor_2.png","83","motor","2","129","1","0","0","",""
"null","","300258","HierDymtoqtf93","8vded2myi7","msl000385","iti","","null","img/motor_2.png","83","motor","","","","","","",""
"483","","300752","HierDymtoqtf93","8vded2myi7","msl000385","motor","","65","img/motor_1.png","65","motor","1","130","1","0","0","",""
"null","","300864","HierDymtoqtf93","8vded2myi7","msl000385","iti","","null","img/motor_1.png","65","motor","","","","","","",""
"522","","301399","HierDymtoqtf93","8vded2myi7","msl000385","motor","","74","img/motor_6.png","74","motor","6","131","1","0","0","",""
"null","","301511","HierDymtoqtf93","8vded2myi7","msl000385","iti","","null","img/motor_6.png","74","motor","","","","","","",""
"351","","301875","HierDymtoqtf93","8vded2myi7","msl000385","motor","","72","img/motor_3.png","68","motor","3","132","0","1","0","",""
"335","","302221","HierDymtoqtf93","8vded2myi7","msl000385","motorRepeat","","68","img/motor_3.png","68","motor","3","132","1","0","0","",""
"null","","302334","HierDymtoqtf93","8vded2myi7","msl000385","iti","","null","img/motor_3.png","68","motor","","","","","","",""
"573","","302919","HierDymtoqtf93","8vded2myi7","msl000385","motor","","65","img/motor_1.png","65","motor","1","133","1","0","0","",""
"null","","303031","HierDymtoqtf93","8vded2myi7","msl000385","iti","","null","img/motor_1.png","65","motor","","","","","","",""
"507","","303550","HierDymtoqtf93","8vded2myi7","msl000385","motor","","70","img/motor_4.png","70","motor","4","134","1","0","0","",""
"null","","303663","HierDymtoqtf93","8vded2myi7","msl000385","iti","","null","img/motor_4.png","70","motor","","","","","","",""
"539","","304213","HierDymtoqtf93","8vded2myi7","msl000385","motor","","74","img/motor_6.png","74","motor","6","135","1","0","0","",""
"null","","304326","HierDymtoqtf93","8vded2myi7","msl000385","iti","","null","img/motor_6.png","74","motor","","","","","","",""
"383","","304722","HierDymtoqtf93","8vded2myi7","msl000385","motor","","76","img/motor_8.png","76","motor","8","136","1","0","0","",""
"null","","304834","HierDymtoqtf93","8vded2myi7","msl000385","iti","","null","img/motor_8.png","76","motor","","","","","","",""
"1052","","305899","HierDymtoqtf93","8vded2myi7","msl000385","motor","","65","img/motor_2.png","83","motor","2","137","0","1","0","",""
"475","","306386","HierDymtoqtf93","8vded2myi7","msl000385","motorRepeat","","83","img/motor_2.png","83","motor","2","137","1","0","0","",""
"null","","306499","HierDymtoqtf93","8vded2myi7","msl000385","iti","","null","img/motor_2.png","83","motor","","","","","","",""
"452","","306962","HierDymtoqtf93","8vded2myi7","msl000385","motor","","76","img/motor_8.png","76","motor","8","138","1","0","0","",""
"null","","307076","HierDymtoqtf93","8vded2myi7","msl000385","iti","","null","img/motor_8.png","76","motor","","","","","","",""
"613","","307701","HierDymtoqtf93","8vded2myi7","msl000385","motor","","72","img/motor_5.png","72","motor","5","139","1","0","0","",""
"null","","307813","HierDymtoqtf93","8vded2myi7","msl000385","iti","","null","img/motor_5.png","72","motor","","","","","","",""
"389","","308214","HierDymtoqtf93","8vded2myi7","msl000385","motor","","65","img/motor_1.png","65","motor","1","140","1","0","0","",""
"null","","308327","HierDymtoqtf93","8vded2myi7","msl000385","iti","","null","img/motor_1.png","65","motor","","","","","","",""
"540","","308880","HierDymtoqtf93","8vded2myi7","msl000385","motor","","68","img/motor_3.png","68","motor","3","141","1","0","0","",""
"null","","308993","HierDymtoqtf93","8vded2myi7","msl000385","iti","","null","img/motor_3.png","68","motor","","","","","","",""
"367","","309373","HierDymtoqtf93","8vded2myi7","msl000385","motor","","74","img/motor_6.png","74","motor","6","142","1","0","0","",""
"null","","309486","HierDymtoqtf93","8vded2myi7","msl000385","iti","","null","img/motor_6.png","74","motor","","","","","","",""
"426","","309924","HierDymtoqtf93","8vded2myi7","msl000385","motor","","65","img/motor_1.png","65","motor","1","143","1","0","0","",""
"null","","310037","HierDymtoqtf93","8vded2myi7","msl000385","iti","","null","img/motor_1.png","65","motor","","","","","","",""
"348","","310397","HierDymtoqtf93","8vded2myi7","msl000385","motor","","65","img/motor_1.png","65","motor","1","144","1","0","0","",""
"null","","310510","HierDymtoqtf93","8vded2myi7","msl000385","iti","","null","img/motor_1.png","65","motor","","","","","","",""
"470","","310992","HierDymtoqtf93","8vded2myi7","msl000385","motor","","72","img/motor_5.png","72","motor","5","145","1","0","0","",""
"null","","311104","HierDymtoqtf93","8vded2myi7","msl000385","iti","","null","img/motor_5.png","72","motor","","","","","","",""
"325","","311441","HierDymtoqtf93","8vded2myi7","msl000385","motor","","72","img/motor_5.png","72","motor","5","146","1","0","0","",""
"null","","311554","HierDymtoqtf93","8vded2myi7","msl000385","iti","","null","img/motor_5.png","72","motor","","","","","","",""
"581","","312146","HierDymtoqtf93","8vded2myi7","msl000385","motor","","75","img/motor_7.png","75","motor","7","147","1","0","0","",""
"null","","312259","HierDymtoqtf93","8vded2myi7","msl000385","iti","","null","img/motor_7.png","75","motor","","","","","","",""
"306","","312577","HierDymtoqtf93","8vded2myi7","msl000385","motor","","75","img/motor_8.png","76","motor","8","148","0","1","0","",""
"154","","312743","HierDymtoqtf93","8vded2myi7","msl000385","motorRepeat","","76","img/motor_8.png","76","motor","8","148","1","0","0","",""
"null","","312856","HierDymtoqtf93","8vded2myi7","msl000385","iti","","null","img/motor_8.png","76","motor","","","","","","",""
"558","","313426","HierDymtoqtf93","8vded2myi7","msl000385","motor","","72","img/motor_5.png","72","motor","5","149","1","0","0","",""
"null","","313538","HierDymtoqtf93","8vded2myi7","msl000385","iti","","null","img/motor_5.png","72","motor","","","","","","",""
"794","","314344","HierDymtoqtf93","8vded2myi7","msl000385","motor","","68","img/motor_3.png","68","motor","3","150","1","0","0","",""
"null","","314456","HierDymtoqtf93","8vded2myi7","msl000385","iti","","null","img/motor_3.png","68","motor","","","","","","",""
"338","","314806","HierDymtoqtf93","8vded2myi7","msl000385","motor","","68","img/motor_3.png","68","motor","3","151","1","0","0","",""
"null","","314919","HierDymtoqtf93","8vded2myi7","msl000385","iti","","null","img/motor_3.png","68","motor","","","","","","",""
"609","","315539","HierDymtoqtf93","8vded2myi7","msl000385","motor","","83","img/motor_2.png","83","motor","2","152","1","0","0","",""
"null","","315652","HierDymtoqtf93","8vded2myi7","msl000385","iti","","null","img/motor_2.png","83","motor","","","","","","",""
"557","","316221","HierDymtoqtf93","8vded2myi7","msl000385","motor","","72","img/motor_5.png","72","motor","5","153","1","0","0","",""
"null","","316334","HierDymtoqtf93","8vded2myi7","msl000385","iti","","null","img/motor_5.png","72","motor","","","","","","",""
"271","","316617","HierDymtoqtf93","8vded2myi7","msl000385","motor","","74","img/motor_7.png","75","motor","7","154","0","1","0","",""
"426","","317053","HierDymtoqtf93","8vded2myi7","msl000385","motorRepeat","","76","img/motor_7.png","75","motor","7","154","0","1","0","",""
"335","","317400","HierDymtoqtf93","8vded2myi7","msl000385","motorRepeat","","75","img/motor_7.png","75","motor","7","154","1","0","0","",""
"null","","317514","HierDymtoqtf93","8vded2myi7","msl000385","iti","","null","img/motor_7.png","75","motor","","","","","","",""
"509","","318035","HierDymtoqtf93","8vded2myi7","msl000385","motor","","83","img/motor_3.png","68","motor","3","155","0","1","0","",""
"252","","318299","HierDymtoqtf93","8vded2myi7","msl000385","motorRepeat","","68","img/motor_3.png","68","motor","3","155","1","0","0","",""
"null","","318411","HierDymtoqtf93","8vded2myi7","msl000385","iti","","null","img/motor_3.png","68","motor","","","","","","",""
"523","","318947","HierDymtoqtf93","8vded2myi7","msl000385","motor","","74","img/motor_6.png","74","motor","6","156","1","0","0","",""
"null","","319059","HierDymtoqtf93","8vded2myi7","msl000385","iti","","null","img/motor_6.png","74","motor","","","","","","",""
"600","","319671","HierDymtoqtf93","8vded2myi7","msl000385","motor","","83","img/motor_2.png","83","motor","2","157","1","0","0","",""
"null","","319783","HierDymtoqtf93","8vded2myi7","msl000385","iti","","null","img/motor_2.png","83","motor","","","","","","",""
"581","","320376","HierDymtoqtf93","8vded2myi7","msl000385","motor","","65","img/motor_1.png","65","motor","1","158","1","0","0","",""
"null","","320488","HierDymtoqtf93","8vded2myi7","msl000385","iti","","null","img/motor_1.png","65","motor","","","","","","",""
"508","","321007","HierDymtoqtf93","8vded2myi7","msl000385","motor","","83","img/motor_2.png","83","motor","2","159","1","0","0","",""
"null","","321120","HierDymtoqtf93","8vded2myi7","msl000385","iti","","null","img/motor_2.png","83","motor","","","","","","",""
"419","","321550","HierDymtoqtf93","8vded2myi7","msl000385","motor","","68","img/motor_3.png","68","motor","3","160","1","0","0","",""
"null","","321663","HierDymtoqtf93","8vded2myi7","msl000385","iti","","null","img/motor_3.png","68","motor","","","","","","",""
"442","","322117","HierDymtoqtf93","8vded2myi7","msl000385","motor","","76","img/motor_8.png","76","motor","8","161","1","0","0","",""
"null","","322231","HierDymtoqtf93","8vded2myi7","msl000385","iti","","null","img/motor_8.png","76","motor","","","","","","",""
"310","","322555","HierDymtoqtf93","8vded2myi7","msl000385","motor","","74","img/motor_6.png","74","motor","6","162","1","0","0","",""
"null","","322667","HierDymtoqtf93","8vded2myi7","msl000385","iti","","null","img/motor_6.png","74","motor","","","","","","",""
"370","","323050","HierDymtoqtf93","8vded2myi7","msl000385","motor","","72","img/motor_5.png","72","motor","5","163","1","0","0","",""
"null","","323163","HierDymtoqtf93","8vded2myi7","msl000385","iti","","null","img/motor_5.png","72","motor","","","","","","",""
"369","","323544","HierDymtoqtf93","8vded2myi7","msl000385","motor","","74","img/motor_7.png","75","motor","7","164","0","1","0","",""
"367","","323925","HierDymtoqtf93","8vded2myi7","msl000385","motorRepeat","","75","img/motor_7.png","75","motor","7","164","1","0","0","",""
"null","","324037","HierDymtoqtf93","8vded2myi7","msl000385","iti","","null","img/motor_7.png","75","motor","","","","","","",""
"533","","324581","HierDymtoqtf93","8vded2myi7","msl000385","motor","","72","img/motor_4.png","70","motor","4","165","0","1","0","",""
"209","","324802","HierDymtoqtf93","8vded2myi7","msl000385","motorRepeat","","70","img/motor_4.png","70","motor","4","165","1","0","0","",""
"null","","324915","HierDymtoqtf93","8vded2myi7","msl000385","iti","","null","img/motor_4.png","70","motor","","","","","","",""
"409","","325335","HierDymtoqtf93","8vded2myi7","msl000385","motor","","76","img/motor_8.png","76","motor","8","166","1","0","0","",""
"null","","325449","HierDymtoqtf93","8vded2myi7","msl000385","iti","","null","img/motor_8.png","76","motor","","","","","","",""
"588","","326052","HierDymtoqtf93","8vded2myi7","msl000385","motor","","74","img/motor_7.png","75","motor","7","167","0","1","0","",""
"279","","326344","HierDymtoqtf93","8vded2myi7","msl000385","motorRepeat","","75","img/motor_7.png","75","motor","7","167","1","0","0","",""
"null","","326457","HierDymtoqtf93","8vded2myi7","msl000385","iti","","null","img/motor_7.png","75","motor","","","","","","",""
"764","","327232","HierDymtoqtf93","8vded2myi7","msl000385","motor","","83","img/motor_2.png","83","motor","2","168","1","0","0","",""
"null","","327345","HierDymtoqtf93","8vded2myi7","msl000385","iti","","null","img/motor_2.png","83","motor","","","","","","",""
"520","","327879","HierDymtoqtf93","8vded2myi7","msl000385","motor","","74","img/motor_6.png","74","motor","6","169","1","0","0","",""
"null","","327992","HierDymtoqtf93","8vded2myi7","msl000385","iti","","null","img/motor_6.png","74","motor","","","","","","",""
"831","","328836","HierDymtoqtf93","8vded2myi7","msl000385","motor","","83","img/motor_2.png","83","motor","2","170","1","0","0","",""
"null","","328949","HierDymtoqtf93","8vded2myi7","msl000385","iti","","null","img/motor_2.png","83","motor","","","","","","",""
"593","","329556","HierDymtoqtf93","8vded2myi7","msl000385","motor","","75","img/motor_7.png","75","motor","7","171","1","0","0","",""
"null","","329669","HierDymtoqtf93","8vded2myi7","msl000385","iti","","null","img/motor_7.png","75","motor","","","","","","",""
"539","","330224","HierDymtoqtf93","8vded2myi7","msl000385","motor","","72","img/motor_5.png","72","motor","5","172","1","0","0","",""
"null","","330338","HierDymtoqtf93","8vded2myi7","msl000385","iti","","null","img/motor_5.png","72","motor","","","","","","",""
"496","","330848","HierDymtoqtf93","8vded2myi7","msl000385","motor","","65","img/motor_1.png","65","motor","1","173","1","0","0","",""
"null","","330961","HierDymtoqtf93","8vded2myi7","msl000385","iti","","null","img/motor_1.png","65","motor","","","","","","",""
"638","","331613","HierDymtoqtf93","8vded2myi7","msl000385","motor","","83","img/motor_2.png","83","motor","2","174","1","0","0","",""
"null","","331727","HierDymtoqtf93","8vded2myi7","msl000385","iti","","null","img/motor_2.png","83","motor","","","","","","",""
"388","","332128","HierDymtoqtf93","8vded2myi7","msl000385","motor","","74","img/motor_5.png","72","motor","5","175","0","1","0","",""
"314","","332453","HierDymtoqtf93","8vded2myi7","msl000385","motorRepeat","","72","img/motor_5.png","72","motor","5","175","1","0","0","",""
"null","","332566","HierDymtoqtf93","8vded2myi7","msl000385","iti","","null","img/motor_5.png","72","motor","","","","","","",""
"820","","333399","HierDymtoqtf93","8vded2myi7","msl000385","motor","","65","img/motor_1.png","65","motor","1","176","1","0","0","",""
"null","","333511","HierDymtoqtf93","8vded2myi7","msl000385","iti","","null","img/motor_1.png","65","motor","","","","","","",""
"672","","334194","HierDymtoqtf93","8vded2myi7","msl000385","motor","","83","img/motor_2.png","83","motor","2","177","1","0","0","",""
"null","","334308","HierDymtoqtf93","8vded2myi7","msl000385","iti","","null","img/motor_2.png","83","motor","","","","","","",""
"438","","334757","HierDymtoqtf93","8vded2myi7","msl000385","motor","","70","img/motor_4.png","70","motor","4","178","1","0","0","",""
"null","","334871","HierDymtoqtf93","8vded2myi7","msl000385","iti","","null","img/motor_4.png","70","motor","","","","","","",""
"442","","335325","HierDymtoqtf93","8vded2myi7","msl000385","motor","","65","img/motor_1.png","65","motor","1","179","1","0","0","",""
"null","","335438","HierDymtoqtf93","8vded2myi7","msl000385","iti","","null","img/motor_1.png","65","motor","","","","","","",""
"808","","336258","HierDymtoqtf93","8vded2myi7","msl000385","motor","","68","img/motor_3.png","68","motor","3","180","1","0","0","",""
"null","","336371","HierDymtoqtf93","8vded2myi7","msl000385","iti","","null","img/motor_3.png","68","motor","","","","","","",""
"447","","336830","HierDymtoqtf93","8vded2myi7","msl000385","motor","","68","img/motor_3.png","68","motor","3","181","1","0","0","",""
"null","","336943","HierDymtoqtf93","8vded2myi7","msl000385","iti","","null","img/motor_3.png","68","motor","","","","","","",""
"483","","337439","HierDymtoqtf93","8vded2myi7","msl000385","motor","","72","img/motor_5.png","72","motor","5","182","1","0","0","",""
"null","","337552","HierDymtoqtf93","8vded2myi7","msl000385","iti","","null","img/motor_5.png","72","motor","","","","","","",""
"352","","337916","HierDymtoqtf93","8vded2myi7","msl000385","motor","","72","img/motor_6.png","74","motor","6","183","0","1","0","",""
"217","","338144","HierDymtoqtf93","8vded2myi7","msl000385","motorRepeat","","74","img/motor_6.png","74","motor","6","183","1","0","0","",""
"null","","338257","HierDymtoqtf93","8vded2myi7","msl000385","iti","","null","img/motor_6.png","74","motor","","","","","","",""
"308","","338577","HierDymtoqtf93","8vded2myi7","msl000385","motor","","74","img/motor_7.png","75","motor","7","184","0","1","0","",""
"339","","338927","HierDymtoqtf93","8vded2myi7","msl000385","motorRepeat","","75","img/motor_7.png","75","motor","7","184","1","0","0","",""
"null","","339040","HierDymtoqtf93","8vded2myi7","msl000385","iti","","null","img/motor_7.png","75","motor","","","","","","",""
"368","","339419","HierDymtoqtf93","8vded2myi7","msl000385","motor","","74","img/motor_6.png","74","motor","6","185","1","0","0","",""
"null","","339532","HierDymtoqtf93","8vded2myi7","msl000385","iti","","null","img/motor_6.png","74","motor","","","","","","",""
"642","","340187","HierDymtoqtf93","8vded2myi7","msl000385","motor","","70","img/motor_4.png","70","motor","4","186","1","0","0","",""
"null","","340300","HierDymtoqtf93","8vded2myi7","msl000385","iti","","null","img/motor_4.png","70","motor","","","","","","",""
"429","","340741","HierDymtoqtf93","8vded2myi7","msl000385","motor","","83","img/motor_2.png","83","motor","2","187","1","0","0","",""
"null","","340854","HierDymtoqtf93","8vded2myi7","msl000385","iti","","null","img/motor_2.png","83","motor","","","","","","",""
"415","","341281","HierDymtoqtf93","8vded2myi7","msl000385","motor","","76","img/motor_8.png","76","motor","8","188","1","0","0","",""
"null","","341394","HierDymtoqtf93","8vded2myi7","msl000385","iti","","null","img/motor_8.png","76","motor","","","","","","",""
"522","","341928","HierDymtoqtf93","8vded2myi7","msl000385","motor","","70","img/motor_4.png","70","motor","4","189","1","0","0","",""
"null","","342042","HierDymtoqtf93","8vded2myi7","msl000385","iti","","null","img/motor_4.png","70","motor","","","","","","",""
"713","","342767","HierDymtoqtf93","8vded2myi7","msl000385","motor","","70","img/motor_4.png","70","motor","4","190","1","0","0","",""
"null","","342880","HierDymtoqtf93","8vded2myi7","msl000385","iti","","null","img/motor_4.png","70","motor","","","","","","",""
"488","","343380","HierDymtoqtf93","8vded2myi7","msl000385","motor","","75","img/motor_6.png","74","motor","6","191","0","1","0","",""
"288","","343680","HierDymtoqtf93","8vded2myi7","msl000385","motorRepeat","","74","img/motor_6.png","74","motor","6","191","1","0","0","",""
"null","","343792","HierDymtoqtf93","8vded2myi7","msl000385","iti","","null","img/motor_6.png","74","motor","","","","","","",""
"572","","344377","HierDymtoqtf93","8vded2myi7","msl000385","motor","","83","img/motor_2.png","83","motor","2","192","1","0","0","",""
"null","","344489","HierDymtoqtf93","8vded2myi7","msl000385","iti","","null","img/motor_2.png","83","motor","","","","","","",""
"332","","344834","HierDymtoqtf93","8vded2myi7","msl000385","motor","","74","img/motor_6.png","74","motor","6","193","1","0","0","",""
"null","","344947","HierDymtoqtf93","8vded2myi7","msl000385","iti","","null","img/motor_6.png","74","motor","","","","","","",""
"573","","345532","HierDymtoqtf93","8vded2myi7","msl000385","motor","","75","img/motor_7.png","75","motor","7","194","1","0","0","",""
"null","","345645","HierDymtoqtf93","8vded2myi7","msl000385","iti","","null","img/motor_7.png","75","motor","","","","","","",""
"496","","346153","HierDymtoqtf93","8vded2myi7","msl000385","motor","","72","img/motor_5.png","72","motor","5","195","1","0","0","",""
"null","","346265","HierDymtoqtf93","8vded2myi7","msl000385","iti","","null","img/motor_5.png","72","motor","","","","","","",""
"503","","346780","HierDymtoqtf93","8vded2myi7","msl000385","motor","","74","img/motor_6.png","74","motor","6","196","1","0","0","",""
"null","","346894","HierDymtoqtf93","8vded2myi7","msl000385","iti","","null","img/motor_6.png","74","motor","","","","","","",""
"462","","347368","HierDymtoqtf93","8vded2myi7","msl000385","motor","","83","img/motor_3.png","68","motor","3","197","0","1","0","",""
"90","","347470","HierDymtoqtf93","8vded2myi7","msl000385","motorRepeat","","68","img/motor_3.png","68","motor","3","197","1","0","0","",""
"null","","347582","HierDymtoqtf93","8vded2myi7","msl000385","iti","","null","img/motor_3.png","68","motor","","","","","","",""
"482","","348076","HierDymtoqtf93","8vded2myi7","msl000385","motor","","68","img/motor_3.png","68","motor","3","198","1","0","0","",""
"null","","348190","HierDymtoqtf93","8vded2myi7","msl000385","iti","","null","img/motor_3.png","68","motor","","","","","","",""
"556","","348758","HierDymtoqtf93","8vded2myi7","msl000385","motor","","75","img/motor_7.png","75","motor","7","199","1","0","0","",""
"null","","348871","HierDymtoqtf93","8vded2myi7","msl000385","iti","","null","img/motor_7.png","75","motor","","","","","","",""
"412","","349295","HierDymtoqtf93","8vded2myi7","msl000385","motor","","68","img/motor_4.png","70","motor","4","200","0","1","0","",""
"304","","349611","HierDymtoqtf93","8vded2myi7","msl000385","motorRepeat","","70","img/motor_4.png","70","motor","4","200","1","0","0","",""
"null","","349724","HierDymtoqtf93","8vded2myi7","msl000385","iti","","null","img/motor_4.png","70","motor","","","","","","",""
"548","","350284","HierDymtoqtf93","8vded2myi7","msl000385","motor","","75","img/motor_7.png","75","motor","7","201","1","0","0","",""
"null","","350397","HierDymtoqtf93","8vded2myi7","msl000385","iti","","null","img/motor_7.png","75","motor","","","","","","",""
"327","","350735","HierDymtoqtf93","8vded2myi7","msl000385","motor","","75","img/motor_6.png","74","motor","6","202","0","1","0","",""
"268","","351015","HierDymtoqtf93","8vded2myi7","msl000385","motorRepeat","","74","img/motor_6.png","74","motor","6","202","1","0","0","",""
"null","","351127","HierDymtoqtf93","8vded2myi7","msl000385","iti","","null","img/motor_6.png","74","motor","","","","","","",""
"312","","351453","HierDymtoqtf93","8vded2myi7","msl000385","motor","","75","img/motor_7.png","75","motor","7","203","1","0","0","",""
"null","","351565","HierDymtoqtf93","8vded2myi7","msl000385","iti","","null","img/motor_7.png","75","motor","","","","","","",""
"667","","352244","HierDymtoqtf93","8vded2myi7","msl000385","motor","","83","img/motor_3.png","68","motor","3","204","0","1","0","",""
"412","","352669","HierDymtoqtf93","8vded2myi7","msl000385","motorRepeat","","68","img/motor_3.png","68","motor","3","204","1","0","0","",""
"null","","352782","HierDymtoqtf93","8vded2myi7","msl000385","iti","","null","img/motor_3.png","68","motor","","","","","","",""
"611","","353405","HierDymtoqtf93","8vded2myi7","msl000385","motor","","72","img/motor_5.png","72","motor","5","205","1","0","0","",""
"null","","353518","HierDymtoqtf93","8vded2myi7","msl000385","iti","","null","img/motor_5.png","72","motor","","","","","","",""
"362","","353892","HierDymtoqtf93","8vded2myi7","msl000385","motor","","70","img/motor_3.png","68","motor","3","206","0","1","0","",""
"263","","354167","HierDymtoqtf93","8vded2myi7","msl000385","motorRepeat","","68","img/motor_3.png","68","motor","3","206","1","0","0","",""
"null","","354280","HierDymtoqtf93","8vded2myi7","msl000385","iti","","null","img/motor_3.png","68","motor","","","","","","",""
"351","","354645","HierDymtoqtf93","8vded2myi7","msl000385","motor","","75","img/motor_7.png","75","motor","7","207","1","0","0","",""
"null","","354758","HierDymtoqtf93","8vded2myi7","msl000385","iti","","null","img/motor_7.png","75","motor","","","","","","",""
"534","","355304","HierDymtoqtf93","8vded2myi7","msl000385","motor","","72","img/motor_5.png","72","motor","5","208","1","0","0","",""
"null","","355418","HierDymtoqtf93","8vded2myi7","msl000385","iti","","null","img/motor_5.png","72","motor","","","","","","",""
"549","","355979","HierDymtoqtf93","8vded2myi7","msl000385","motor","","76","img/motor_8.png","76","motor","8","209","1","0","0","",""
"null","","356092","HierDymtoqtf93","8vded2myi7","msl000385","iti","","null","img/motor_8.png","76","motor","","","","","","",""
"527","","356630","HierDymtoqtf93","8vded2myi7","msl000385","motor","","70","img/motor_4.png","70","motor","4","210","1","0","0","",""
"null","","356743","HierDymtoqtf93","8vded2myi7","msl000385","iti","","null","img/motor_4.png","70","motor","","","","","","",""
"564","","357319","HierDymtoqtf93","8vded2myi7","msl000385","motor","","75","img/motor_6.png","74","motor","6","211","0","1","0","",""
"320","","357651","HierDymtoqtf93","8vded2myi7","msl000385","motorRepeat","","74","img/motor_6.png","74","motor","6","211","1","0","0","",""
"null","","357763","HierDymtoqtf93","8vded2myi7","msl000385","iti","","null","img/motor_6.png","74","motor","","","","","","",""
"598","","358372","HierDymtoqtf93","8vded2myi7","msl000385","motor","","72","img/motor_5.png","72","motor","5","212","1","0","0","",""
"null","","358486","HierDymtoqtf93","8vded2myi7","msl000385","iti","","null","img/motor_5.png","72","motor","","","","","","",""
"370","","358870","HierDymtoqtf93","8vded2myi7","msl000385","motor","","72","img/motor_5.png","72","motor","5","213","1","0","0","",""
"null","","358982","HierDymtoqtf93","8vded2myi7","msl000385","iti","","null","img/motor_5.png","72","motor","","","","","","",""
"362","","359356","HierDymtoqtf93","8vded2myi7","msl000385","motor","","72","img/motor_6.png","74","motor","6","214","0","1","0","",""
"250","","359619","HierDymtoqtf93","8vded2myi7","msl000385","motorRepeat","","74","img/motor_6.png","74","motor","6","214","1","0","0","",""
"null","","359732","HierDymtoqtf93","8vded2myi7","msl000385","iti","","null","img/motor_6.png","74","motor","","","","","","",""
"626","","360371","HierDymtoqtf93","8vded2myi7","msl000385","motor","","68","img/motor_3.png","68","motor","3","215","1","0","0","",""
"null","","360483","HierDymtoqtf93","8vded2myi7","msl000385","iti","","null","img/motor_3.png","68","motor","","","","","","",""
"502","","360997","HierDymtoqtf93","8vded2myi7","msl000385","motor","","65","img/motor_1.png","65","motor","1","216","1","0","0","",""
"null","","361110","HierDymtoqtf93","8vded2myi7","msl000385","iti","","null","img/motor_1.png","65","motor","","","","","","",""
"905","","362026","HierDymtoqtf93","8vded2myi7","msl000385","motor","","75","img/motor_7.png","75","motor","7","217","1","0","0","",""
"null","","362140","HierDymtoqtf93","8vded2myi7","msl000385","iti","","null","img/motor_7.png","75","motor","","","","","","",""
"1383","","363536","HierDymtoqtf93","8vded2myi7","msl000385","motor","","70","img/motor_3.png","68","motor","3","218","0","1","0","",""
"85","","363632","HierDymtoqtf93","8vded2myi7","msl000385","motorRepeat","","68","img/motor_3.png","68","motor","3","218","1","0","0","",""
"null","","363746","HierDymtoqtf93","8vded2myi7","msl000385","iti","","null","img/motor_3.png","68","motor","","","","","","",""
"481","","364238","HierDymtoqtf93","8vded2myi7","msl000385","motor","","70","img/motor_4.png","70","motor","4","219","1","0","0","",""
"null","","364351","HierDymtoqtf93","8vded2myi7","msl000385","iti","","null","img/motor_4.png","70","motor","","","","","","",""
"308","","364671","HierDymtoqtf93","8vded2myi7","msl000385","motor","","68","img/motor_3.png","68","motor","3","220","1","0","0","",""
"null","","364785","HierDymtoqtf93","8vded2myi7","msl000385","iti","","null","img/motor_3.png","68","motor","","","","","","",""
"289","","365087","HierDymtoqtf93","8vded2myi7","msl000385","motor","","70","img/motor_4.png","70","motor","4","221","1","0","0","",""
"null","","365200","HierDymtoqtf93","8vded2myi7","msl000385","iti","","null","img/motor_4.png","70","motor","","","","","","",""
"572","","365784","HierDymtoqtf93","8vded2myi7","msl000385","motor","","74","img/motor_6.png","74","motor","6","222","1","0","0","",""
"null","","365898","HierDymtoqtf93","8vded2myi7","msl000385","iti","","null","img/motor_6.png","74","motor","","","","","","",""
"496","","366407","HierDymtoqtf93","8vded2myi7","msl000385","motor","","75","img/motor_7.png","75","motor","7","223","1","0","0","",""
"null","","366519","HierDymtoqtf93","8vded2myi7","msl000385","iti","","null","img/motor_7.png","75","motor","","","","","","",""
"538","","367070","HierDymtoqtf93","8vded2myi7","msl000385","motor","","70","img/motor_4.png","70","motor","4","224","1","0","0","",""
"null","","367183","HierDymtoqtf93","8vded2myi7","msl000385","iti","","null","img/motor_4.png","70","motor","","","","","","",""
"271","","367466","HierDymtoqtf93","8vded2myi7","msl000385","motor","","68","img/motor_2.png","83","motor","2","225","0","1","0","",""
"318","","367797","HierDymtoqtf93","8vded2myi7","msl000385","motorRepeat","","83","img/motor_2.png","83","motor","2","225","1","0","0","",""
"null","","367909","HierDymtoqtf93","8vded2myi7","msl000385","iti","","null","img/motor_2.png","83","motor","","","","","","",""
"490","","368410","HierDymtoqtf93","8vded2myi7","msl000385","motor","","70","img/motor_4.png","70","motor","4","226","1","0","0","",""
"null","","368524","HierDymtoqtf93","8vded2myi7","msl000385","iti","","null","img/motor_4.png","70","motor","","","","","","",""
"377","","368913","HierDymtoqtf93","8vded2myi7","msl000385","motor","","74","img/motor_5.png","72","motor","5","227","0","1","0","",""
"1","","368925","HierDymtoqtf93","8vded2myi7","msl000385","motorRepeat","","75","img/motor_5.png","72","motor","5","227","0","1","0","",""
"294","","369231","HierDymtoqtf93","8vded2myi7","msl000385","motorRepeat","","72","img/motor_5.png","72","motor","5","227","1","0","0","",""
"null","","369344","HierDymtoqtf93","8vded2myi7","msl000385","iti","","null","img/motor_5.png","72","motor","","","","","","",""
"499","","369855","HierDymtoqtf93","8vded2myi7","msl000385","motor","","70","img/motor_4.png","70","motor","4","228","1","0","0","",""
"null","","369969","HierDymtoqtf93","8vded2myi7","msl000385","iti","","null","img/motor_4.png","70","motor","","","","","","",""
"417","","370398","HierDymtoqtf93","8vded2myi7","msl000385","motor","","72","img/motor_5.png","72","motor","5","229","1","0","0","",""
"null","","370511","HierDymtoqtf93","8vded2myi7","msl000385","iti","","null","img/motor_5.png","72","motor","","","","","","",""
"309","","370830","HierDymtoqtf93","8vded2myi7","msl000385","motor","","70","img/motor_4.png","70","motor","4","230","1","0","0","",""
"null","","370943","HierDymtoqtf93","8vded2myi7","msl000385","iti","","null","img/motor_4.png","70","motor","","","","","","",""
"425","","371380","HierDymtoqtf93","8vded2myi7","msl000385","motor","","75","img/motor_8.png","76","motor","8","231","0","1","0","",""
"87","","371481","HierDymtoqtf93","8vded2myi7","msl000385","motorRepeat","","76","img/motor_8.png","76","motor","8","231","1","0","0","",""
"null","","371593","HierDymtoqtf93","8vded2myi7","msl000385","iti","","null","img/motor_8.png","76","motor","","","","","","",""
"412","","372017","HierDymtoqtf93","8vded2myi7","msl000385","motor","","65","img/motor_1.png","65","motor","1","232","1","0","0","",""
"null","","372130","HierDymtoqtf93","8vded2myi7","msl000385","iti","","null","img/motor_1.png","65","motor","","","","","","",""
"784","","372926","HierDymtoqtf93","8vded2myi7","msl000385","motor","","72","img/motor_6.png","74","motor","6","233","0","1","0","",""
"36","","372976","HierDymtoqtf93","8vded2myi7","msl000385","motorRepeat","","74","img/motor_6.png","74","motor","6","233","1","0","0","",""
"null","","373089","HierDymtoqtf93","8vded2myi7","msl000385","iti","","null","img/motor_6.png","74","motor","","","","","","",""
"491","","373592","HierDymtoqtf93","8vded2myi7","msl000385","motor","","65","img/motor_1.png","65","motor","1","234","1","0","0","",""
"null","","373704","HierDymtoqtf93","8vded2myi7","msl000385","iti","","null","img/motor_1.png","65","motor","","","","","","",""
"393","","374111","HierDymtoqtf93","8vded2myi7","msl000385","motor","","70","img/motor_4.png","70","motor","4","235","1","0","0","",""
"null","","374224","HierDymtoqtf93","8vded2myi7","msl000385","iti","","null","img/motor_4.png","70","motor","","","","","","",""
"344","","374581","HierDymtoqtf93","8vded2myi7","msl000385","motor","","76","img/motor_8.png","76","motor","8","236","1","0","0","",""
"null","","374692","HierDymtoqtf93","8vded2myi7","msl000385","iti","","null","img/motor_8.png","76","motor","","","","","","",""
"283","","374988","HierDymtoqtf93","8vded2myi7","msl000385","motor","","70","img/motor_1.png","65","motor","1","237","0","1","0","",""
"168","","375167","HierDymtoqtf93","8vded2myi7","msl000385","motorRepeat","","65","img/motor_1.png","65","motor","1","237","1","0","0","",""
"null","","375280","HierDymtoqtf93","8vded2myi7","msl000385","iti","","null","img/motor_1.png","65","motor","","","","","","",""
"327","","375620","HierDymtoqtf93","8vded2myi7","msl000385","motor","","65","img/motor_1.png","65","motor","1","238","1","0","0","",""
"null","","375733","HierDymtoqtf93","8vded2myi7","msl000385","iti","","null","img/motor_1.png","65","motor","","","","","","",""
"477","","376222","HierDymtoqtf93","8vded2myi7","msl000385","motor","","74","img/motor_7.png","75","motor","7","239","0","1","0","",""
"129","","376362","HierDymtoqtf93","8vded2myi7","msl000385","motorRepeat","","75","img/motor_7.png","75","motor","7","239","1","0","0","",""
"null","","376475","HierDymtoqtf93","8vded2myi7","msl000385","iti","","null","img/motor_7.png","75","motor","","","","","","",""
"362","","376849","HierDymtoqtf93","8vded2myi7","msl000385","motor","","75","img/motor_6.png","74","motor","6","240","0","1","0","",""
"233","","377094","HierDymtoqtf93","8vded2myi7","msl000385","motorRepeat","","74","img/motor_6.png","74","motor","6","240","1","0","0","",""
"null","","377207","HierDymtoqtf93","8vded2myi7","msl000385","iti","","null","img/motor_6.png","74","motor","","","","","","",""
"383","","377602","HierDymtoqtf93","8vded2myi7","msl000385","motor","","76","img/motor_8.png","76","motor","8","241","1","0","0","",""
"null","","377716","HierDymtoqtf93","8vded2myi7","msl000385","iti","","null","img/motor_8.png","76","motor","","","","","","",""
"491","","378219","HierDymtoqtf93","8vded2myi7","msl000385","motor","","70","img/motor_4.png","70","motor","4","242","1","0","0","",""
"null","","378332","HierDymtoqtf93","8vded2myi7","msl000385","iti","","null","img/motor_4.png","70","motor","","","","","","",""
"531","","378876","HierDymtoqtf93","8vded2myi7","msl000385","motor","","83","img/motor_3.png","68","motor","3","243","0","1","0","",""
"108","","378997","HierDymtoqtf93","8vded2myi7","msl000385","motorRepeat","","68","img/motor_3.png","68","motor","3","243","1","0","0","",""
"null","","379110","HierDymtoqtf93","8vded2myi7","msl000385","iti","","null","img/motor_3.png","68","motor","","","","","","",""
"418","","379541","HierDymtoqtf93","8vded2myi7","msl000385","motor","","65","img/motor_1.png","65","motor","1","244","1","0","0","",""
"null","","379654","HierDymtoqtf93","8vded2myi7","msl000385","iti","","null","img/motor_1.png","65","motor","","","","","","",""
"490","","380156","HierDymtoqtf93","8vded2myi7","msl000385","motor","","76","img/motor_8.png","76","motor","8","245","1","0","0","",""
"null","","380269","HierDymtoqtf93","8vded2myi7","msl000385","iti","","null","img/motor_8.png","76","motor","","","","","","",""
"508","","380790","HierDymtoqtf93","8vded2myi7","msl000385","motor","","68","img/motor_3.png","68","motor","3","246","1","0","0","",""
"null","","380902","HierDymtoqtf93","8vded2myi7","msl000385","iti","","null","img/motor_3.png","68","motor","","","","","","",""
"431","","381345","HierDymtoqtf93","8vded2myi7","msl000385","motor","","74","img/motor_5.png","72","motor","5","247","0","1","0","",""
"296","","381653","HierDymtoqtf93","8vded2myi7","msl000385","motorRepeat","","72","img/motor_5.png","72","motor","5","247","1","0","0","",""
"null","","381766","HierDymtoqtf93","8vded2myi7","msl000385","iti","","null","img/motor_5.png","72","motor","","","","","","",""
"846","","382625","HierDymtoqtf93","8vded2myi7","msl000385","motor","","65","img/motor_1.png","65","motor","1","248","1","0","0","",""
"null","","382739","HierDymtoqtf93","8vded2myi7","msl000385","iti","","null","img/motor_1.png","65","motor","","","","","","",""
"749","","383500","HierDymtoqtf93","8vded2myi7","msl000385","motor","","68","img/motor_3.png","68","motor","3","249","1","0","0","",""
"null","","383613","HierDymtoqtf93","8vded2myi7","msl000385","iti","","null","img/motor_3.png","68","motor","","","","","","",""
"342","","383967","HierDymtoqtf93","8vded2myi7","msl000385","motor","","76","img/motor_8.png","76","motor","8","250","1","0","0","",""
"null","","384080","HierDymtoqtf93","8vded2myi7","msl000385","iti","","null","img/motor_8.png","76","motor","","","","","","",""
"396","","384488","HierDymtoqtf93","8vded2myi7","msl000385","motor","","70","img/motor_4.png","70","motor","4","251","1","0","0","",""
"null","","384601","HierDymtoqtf93","8vded2myi7","msl000385","iti","","null","img/motor_4.png","70","motor","","","","","","",""
"510","","385124","HierDymtoqtf93","8vded2myi7","msl000385","motor","","83","img/motor_2.png","83","motor","2","252","1","0","0","",""
"null","","385236","HierDymtoqtf93","8vded2myi7","msl000385","iti","","null","img/motor_2.png","83","motor","","","","","","",""
"403","","385652","HierDymtoqtf93","8vded2myi7","msl000385","motor","","65","img/motor_1.png","65","motor","1","253","1","0","0","",""
"null","","385765","HierDymtoqtf93","8vded2myi7","msl000385","iti","","null","img/motor_1.png","65","motor","","","","","","",""
"562","","386339","HierDymtoqtf93","8vded2myi7","msl000385","motor","","65","img/motor_1.png","65","motor","1","254","1","0","0","",""
"null","","386453","HierDymtoqtf93","8vded2myi7","msl000385","iti","","null","img/motor_1.png","65","motor","","","","","","",""
"626","","387092","HierDymtoqtf93","8vded2myi7","msl000385","motor","","68","img/motor_3.png","68","motor","3","255","1","0","0","",""
"null","","387204","HierDymtoqtf93","8vded2myi7","msl000385","iti","","null","img/motor_3.png","68","motor","","","","","","",""
"417","","387633","HierDymtoqtf93","8vded2myi7","msl000385","motor","","65","img/motor_1.png","65","motor","1","256","1","0","0","",""
"null","","387747","HierDymtoqtf93","8vded2myi7","msl000385","iti","","null","img/motor_1.png","65","motor","","","","","","",""
"664","","388423","HierDymtoqtf93","8vded2myi7","msl000385","motor","","75","img/motor_7.png","75","motor","7","257","1","0","0","",""
"null","","388537","HierDymtoqtf93","8vded2myi7","msl000385","iti","","null","img/motor_7.png","75","motor","","","","","","",""
"491","","389040","HierDymtoqtf93","8vded2myi7","msl000385","motor","","76","img/motor_8.png","76","motor","8","258","1","0","0","",""
"null","","389153","HierDymtoqtf93","8vded2myi7","msl000385","iti","","null","img/motor_8.png","76","motor","","","","","","",""
"431","","389597","HierDymtoqtf93","8vded2myi7","msl000385","motor","","76","img/motor_8.png","76","motor","8","259","1","0","0","",""
"null","","389710","HierDymtoqtf93","8vded2myi7","msl000385","iti","","null","img/motor_8.png","76","motor","","","","","","",""
"335","","390059","HierDymtoqtf93","8vded2myi7","msl000385","motor","","65","img/motor_2.png","83","motor","2","260","0","1","0","",""
"313","","390386","HierDymtoqtf93","8vded2myi7","msl000385","motorRepeat","","83","img/motor_2.png","83","motor","2","260","1","0","0","",""
"null","","390500","HierDymtoqtf93","8vded2myi7","msl000385","iti","","null","img/motor_2.png","83","motor","","","","","","",""
"467","","390981","HierDymtoqtf93","8vded2myi7","msl000385","motor","","65","img/motor_1.png","65","motor","1","261","1","0","0","",""
"null","","391093","HierDymtoqtf93","8vded2myi7","msl000385","iti","","null","img/motor_1.png","65","motor","","","","","","",""
"643","","391749","HierDymtoqtf93","8vded2myi7","msl000385","motor","","72","img/motor_5.png","72","motor","5","262","1","0","0","",""
"null","","391862","HierDymtoqtf93","8vded2myi7","msl000385","iti","","null","img/motor_5.png","72","motor","","","","","","",""
"392","","392264","HierDymtoqtf93","8vded2myi7","msl000385","motor","","76","img/motor_8.png","76","motor","8","263","1","0","0","",""
"null","","392378","HierDymtoqtf93","8vded2myi7","msl000385","iti","","null","img/motor_8.png","76","motor","","","","","","",""
"311","","392701","HierDymtoqtf93","8vded2myi7","msl000385","motor","","72","img/motor_5.png","72","motor","5","264","1","0","0","",""
"null","","392815","HierDymtoqtf93","8vded2myi7","msl000385","iti","","null","img/motor_5.png","72","motor","","","","","","",""
"346","","393174","HierDymtoqtf93","8vded2myi7","msl000385","motor","","65","img/motor_1.png","65","motor","1","265","1","0","0","",""
"null","","393287","HierDymtoqtf93","8vded2myi7","msl000385","iti","","null","img/motor_1.png","65","motor","","","","","","",""
"366","","393665","HierDymtoqtf93","8vded2myi7","msl000385","motor","","76","img/motor_8.png","76","motor","8","266","1","0","0","",""
"null","","393779","HierDymtoqtf93","8vded2myi7","msl000385","iti","","null","img/motor_8.png","76","motor","","","","","","",""
"540","","394335","HierDymtoqtf93","8vded2myi7","msl000385","motor","","74","img/motor_6.png","74","motor","6","267","1","0","0","",""
"null","","394449","HierDymtoqtf93","8vded2myi7","msl000385","iti","","null","img/motor_6.png","74","motor","","","","","","",""
"356","","394818","HierDymtoqtf93","8vded2myi7","msl000385","motor","","74","img/motor_6.png","74","motor","6","268","1","0","0","",""
"null","","394932","HierDymtoqtf93","8vded2myi7","msl000385","iti","","null","img/motor_6.png","74","motor","","","","","","",""
"368","","395312","HierDymtoqtf93","8vded2myi7","msl000385","motor","","65","img/motor_3.png","68","motor","3","269","0","1","0","",""
"169","","395494","HierDymtoqtf93","8vded2myi7","msl000385","motorRepeat","","68","img/motor_3.png","68","motor","3","269","1","0","0","",""
"null","","395609","HierDymtoqtf93","8vded2myi7","msl000385","iti","","null","img/motor_3.png","68","motor","","","","","","",""
"478","","396099","HierDymtoqtf93","8vded2myi7","msl000385","motor","","74","img/motor_6.png","74","motor","6","270","1","0","0","",""
"null","","396212","HierDymtoqtf93","8vded2myi7","msl000385","iti","","null","img/motor_6.png","74","motor","","","","","","",""
"322","","396548","HierDymtoqtf93","8vded2myi7","msl000385","motor","","68","img/motor_5.png","72","motor","5","271","0","1","0","",""
"373","","396933","HierDymtoqtf93","8vded2myi7","msl000385","motorRepeat","","70","img/motor_5.png","72","motor","5","271","0","1","0","",""
"549","","397493","HierDymtoqtf93","8vded2myi7","msl000385","motorRepeat","","70","img/motor_5.png","72","motor","5","271","0","1","0","",""
"897","","398402","HierDymtoqtf93","8vded2myi7","msl000385","motorRepeat","","72","img/motor_5.png","72","motor","5","271","1","0","0","",""
"null","","398515","HierDymtoqtf93","8vded2myi7","msl000385","iti","","null","img/motor_5.png","72","motor","","","","","","",""
"570","","399098","HierDymtoqtf93","8vded2myi7","msl000385","motor","","70","img/motor_4.png","70","motor","4","272","1","0","0","",""
"null","","399211","HierDymtoqtf93","8vded2myi7","msl000385","iti","","null","img/motor_4.png","70","motor","","","","","","",""
"594","","399817","HierDymtoqtf93","8vded2myi7","msl000385","motor","","83","img/motor_2.png","83","motor","2","273","1","0","0","",""
"null","","399930","HierDymtoqtf93","8vded2myi7","msl000385","iti","","null","img/motor_2.png","83","motor","","","","","","",""
"497","","400438","HierDymtoqtf93","8vded2myi7","msl000385","motor","","74","img/motor_6.png","74","motor","6","274","1","0","0","",""
"null","","400551","HierDymtoqtf93","8vded2myi7","msl000385","iti","","null","img/motor_6.png","74","motor","","","","","","",""
"444","","401008","HierDymtoqtf93","8vded2myi7","msl000385","motor","","72","img/motor_5.png","72","motor","5","275","1","0","0","",""
"null","","401122","HierDymtoqtf93","8vded2myi7","msl000385","iti","","null","img/motor_5.png","72","motor","","","","","","",""
"530","","401664","HierDymtoqtf93","8vded2myi7","msl000385","motor","","83","img/motor_2.png","83","motor","2","276","1","0","0","",""
"null","","401776","HierDymtoqtf93","8vded2myi7","msl000385","iti","","null","img/motor_2.png","83","motor","","","","","","",""
"416","","402205","HierDymtoqtf93","8vded2myi7","msl000385","motor","","75","img/motor_7.png","75","motor","7","277","1","0","0","",""
"null","","402318","HierDymtoqtf93","8vded2myi7","msl000385","iti","","null","img/motor_7.png","75","motor","","","","","","",""
"317","","402647","HierDymtoqtf93","8vded2myi7","msl000385","motor","","76","img/motor_8.png","76","motor","8","278","1","0","0","",""
"null","","402760","HierDymtoqtf93","8vded2myi7","msl000385","iti","","null","img/motor_8.png","76","motor","","","","","","",""
"317","","403089","HierDymtoqtf93","8vded2myi7","msl000385","motor","","75","img/motor_7.png","75","motor","7","279","1","0","0","",""
"null","","403201","HierDymtoqtf93","8vded2myi7","msl000385","iti","","null","img/motor_7.png","75","motor","","","","","","",""
"402","","403615","HierDymtoqtf93","8vded2myi7","msl000385","motor","","74","img/motor_6.png","74","motor","6","280","1","0","0","",""
"null","","403727","HierDymtoqtf93","8vded2myi7","msl000385","iti","","null","img/motor_6.png","74","motor","","","","","","",""
"368","","404107","HierDymtoqtf93","8vded2myi7","msl000385","motor","","72","img/motor_4.png","70","motor","4","281","0","1","0","",""
"390","","404510","HierDymtoqtf93","8vded2myi7","msl000385","motorRepeat","","70","img/motor_4.png","70","motor","4","281","1","0","0","",""
"null","","404623","HierDymtoqtf93","8vded2myi7","msl000385","iti","","null","img/motor_4.png","70","motor","","","","","","",""
"460","","405096","HierDymtoqtf93","8vded2myi7","msl000385","motor","","68","img/motor_2.png","83","motor","2","282","0","1","0","",""
"136","","405244","HierDymtoqtf93","8vded2myi7","msl000385","motorRepeat","","83","img/motor_2.png","83","motor","2","282","1","0","0","",""
"null","","405357","HierDymtoqtf93","8vded2myi7","msl000385","iti","","null","img/motor_2.png","83","motor","","","","","","",""
"415","","405784","HierDymtoqtf93","8vded2myi7","msl000385","motor","","75","img/motor_8.png","76","motor","8","283","0","1","0","",""
"79","","405877","HierDymtoqtf93","8vded2myi7","msl000385","motorRepeat","","76","img/motor_8.png","76","motor","8","283","1","0","0","",""
"null","","405990","HierDymtoqtf93","8vded2myi7","msl000385","iti","","null","img/motor_8.png","76","motor","","","","","","",""
"374","","406375","HierDymtoqtf93","8vded2myi7","msl000385","motor","","65","img/motor_2.png","83","motor","2","284","0","1","0","",""
"384","","406772","HierDymtoqtf93","8vded2myi7","msl000385","motorRepeat","","83","img/motor_2.png","83","motor","2","284","1","0","0","",""
"null","","406884","HierDymtoqtf93","8vded2myi7","msl000385","iti","","null","img/motor_2.png","83","motor","","","","","","",""
"729","","407626","HierDymtoqtf93","8vded2myi7","msl000385","motor","","70","img/motor_4.png","70","motor","4","285","1","0","0","",""
"null","","407738","HierDymtoqtf93","8vded2myi7","msl000385","iti","","null","img/motor_4.png","70","motor","","","","","","",""
"488","","408239","HierDymtoqtf93","8vded2myi7","msl000385","motor","","70","img/motor_4.png","70","motor","4","286","1","0","0","",""
"null","","408352","HierDymtoqtf93","8vded2myi7","msl000385","iti","","null","img/motor_4.png","70","motor","","","","","","",""
"333","","408695","HierDymtoqtf93","8vded2myi7","msl000385","motor","","70","img/motor_3.png","68","motor","3","287","0","1","0","",""
"262","","408970","HierDymtoqtf93","8vded2myi7","msl000385","motorRepeat","","68","img/motor_3.png","68","motor","3","287","1","0","0","",""
"null","","409082","HierDymtoqtf93","8vded2myi7","msl000385","iti","","null","img/motor_3.png","68","motor","","","","","","",""
"366","","409461","HierDymtoqtf93","8vded2myi7","msl000385","motor","","68","img/motor_4.png","70","motor","4","288","0","1","0","",""
"171","","409644","HierDymtoqtf93","8vded2myi7","msl000385","motorRepeat","","70","img/motor_4.png","70","motor","4","288","1","0","0","",""
"null","","409757","HierDymtoqtf93","8vded2myi7","msl000385","iti","","null","img/motor_4.png","70","motor","","","","","","",""
"508","","410276","HierDymtoqtf93","8vded2myi7","msl000385","motor","","74","img/motor_7.png","75","motor","7","289","0","1","0","",""
"237","","410525","HierDymtoqtf93","8vded2myi7","msl000385","motorRepeat","","75","img/motor_7.png","75","motor","7","289","1","0","0","",""
"null","","410638","HierDymtoqtf93","8vded2myi7","msl000385","iti","","null","img/motor_7.png","75","motor","","","","","","",""
"507","","411158","HierDymtoqtf93","8vded2myi7","msl000385","motor","","70","img/motor_5.png","72","motor","5","290","0","1","0","",""
"435","","411605","HierDymtoqtf93","8vded2myi7","msl000385","motorRepeat","","72","img/motor_5.png","72","motor","5","290","1","0","0","",""
"null","","411718","HierDymtoqtf93","8vded2myi7","msl000385","iti","","null","img/motor_5.png","72","motor","","","","","","",""
"711","","412442","HierDymtoqtf93","8vded2myi7","msl000385","motor","","68","img/motor_3.png","68","motor","3","291","1","0","0","",""
"null","","412555","HierDymtoqtf93","8vded2myi7","msl000385","iti","","null","img/motor_3.png","68","motor","","","","","","",""
"481","","413049","HierDymtoqtf93","8vded2myi7","msl000385","motor","","75","img/motor_8.png","76","motor","8","292","0","1","0","",""
"0","","413061","HierDymtoqtf93","8vded2myi7","msl000385","motorRepeat","","76","img/motor_8.png","76","motor","8","292","1","0","0","",""
"null","","413173","HierDymtoqtf93","8vded2myi7","msl000385","iti","","null","img/motor_8.png","76","motor","","","","","","",""
"627","","413813","HierDymtoqtf93","8vded2myi7","msl000385","motor","","68","img/motor_3.png","68","motor","3","293","1","0","0","",""
"null","","413925","HierDymtoqtf93","8vded2myi7","msl000385","iti","","null","img/motor_3.png","68","motor","","","","","","",""
"376","","414314","HierDymtoqtf93","8vded2myi7","msl000385","motor","","65","img/motor_2.png","83","motor","2","294","0","1","0","",""
"346","","414671","HierDymtoqtf93","8vded2myi7","msl000385","motorRepeat","","83","img/motor_2.png","83","motor","2","294","1","0","0","",""
"null","","414784","HierDymtoqtf93","8vded2myi7","msl000385","iti","","null","img/motor_2.png","83","motor","","","","","","",""
"561","","415357","HierDymtoqtf93","8vded2myi7","msl000385","motor","","75","img/motor_7.png","75","motor","7","295","1","0","0","",""
"null","","415471","HierDymtoqtf93","8vded2myi7","msl000385","iti","","null","img/motor_7.png","75","motor","","","","","","",""
"414","","415897","HierDymtoqtf93","8vded2myi7","msl000385","motor","","65","img/motor_1.png","65","motor","1","296","1","0","0","",""
"null","","416010","HierDymtoqtf93","8vded2myi7","msl000385","iti","","null","img/motor_1.png","65","motor","","","","","","",""
"372","","416394","HierDymtoqtf93","8vded2myi7","msl000385","motor","","70","img/motor_4.png","70","motor","4","297","1","0","0","",""
"null","","416507","HierDymtoqtf93","8vded2myi7","msl000385","iti","","null","img/motor_4.png","70","motor","","","","","","",""
"357","","416878","HierDymtoqtf93","8vded2myi7","msl000385","motor","","65","img/motor_1.png","65","motor","1","298","1","0","0","",""
"null","","416990","HierDymtoqtf93","8vded2myi7","msl000385","iti","","null","img/motor_1.png","65","motor","","","","","","",""
"469","","417471","HierDymtoqtf93","8vded2myi7","msl000385","motor","","72","img/motor_5.png","72","motor","5","299","1","0","0","",""
"null","","417583","HierDymtoqtf93","8vded2myi7","msl000385","iti","","null","img/motor_5.png","72","motor","","","","","","",""
"405","","418002","HierDymtoqtf93","8vded2myi7","msl000385","motor","","65","img/motor_1.png","65","motor","1","300","1","0","0","",""
"null","","418114","HierDymtoqtf93","8vded2myi7","msl000385","iti","","null","img/motor_1.png","65","motor","","","","","","",""
"614","","418741","HierDymtoqtf93","8vded2myi7","msl000385","motor","","83","img/motor_2.png","83","motor","2","301","1","0","0","",""
"null","","418853","HierDymtoqtf93","8vded2myi7","msl000385","iti","","null","img/motor_2.png","83","motor","","","","","","",""
"452","","419317","HierDymtoqtf93","8vded2myi7","msl000385","motor","","76","img/motor_8.png","76","motor","8","302","1","0","0","",""
"null","","419431","HierDymtoqtf93","8vded2myi7","msl000385","iti","","null","img/motor_8.png","76","motor","","","","","","",""
"466","","419909","HierDymtoqtf93","8vded2myi7","msl000385","motor","","70","img/motor_4.png","70","motor","4","303","1","0","0","",""
"null","","420022","HierDymtoqtf93","8vded2myi7","msl000385","iti","","null","img/motor_4.png","70","motor","","","","","","",""
"352","","420386","HierDymtoqtf93","8vded2myi7","msl000385","motor","","76","img/motor_8.png","76","motor","8","304","1","0","0","",""
"null","","420499","HierDymtoqtf93","8vded2myi7","msl000385","iti","","null","img/motor_8.png","76","motor","","","","","","",""
"863","","421375","HierDymtoqtf93","8vded2myi7","msl000385","motor","","72","img/motor_6.png","74","motor","6","305","0","1","0","",""
"120","","421507","HierDymtoqtf93","8vded2myi7","msl000385","motorRepeat","","74","img/motor_6.png","74","motor","6","305","1","0","0","",""
"null","","421621","HierDymtoqtf93","8vded2myi7","msl000385","iti","","null","img/motor_6.png","74","motor","","","","","","",""
"393","","422027","HierDymtoqtf93","8vded2myi7","msl000385","motor","","74","img/motor_8.png","76","motor","8","306","0","1","0","",""
"134","","422174","HierDymtoqtf93","8vded2myi7","msl000385","motorRepeat","","76","img/motor_8.png","76","motor","8","306","1","0","0","",""
"null","","422287","HierDymtoqtf93","8vded2myi7","msl000385","iti","","null","img/motor_8.png","76","motor","","","","","","",""
"542","","422841","HierDymtoqtf93","8vded2myi7","msl000385","motor","","74","img/motor_6.png","74","motor","6","307","1","0","0","",""
"null","","422955","HierDymtoqtf93","8vded2myi7","msl000385","iti","","null","img/motor_6.png","74","motor","","","","","","",""
"289","","423257","HierDymtoqtf93","8vded2myi7","msl000385","motor","","76","img/motor_7.png","75","motor","7","308","0","1","0","",""
"334","","423603","HierDymtoqtf93","8vded2myi7","msl000385","motorRepeat","","75","img/motor_7.png","75","motor","7","308","1","0","0","",""
"null","","423717","HierDymtoqtf93","8vded2myi7","msl000385","iti","","null","img/motor_7.png","75","motor","","","","","","",""
"600","","424330","HierDymtoqtf93","8vded2myi7","msl000385","motor","","70","img/motor_4.png","70","motor","4","309","1","0","0","",""
"null","","424444","HierDymtoqtf93","8vded2myi7","msl000385","iti","","null","img/motor_4.png","70","motor","","","","","","",""
"482","","424938","HierDymtoqtf93","8vded2myi7","msl000385","motor","","76","img/motor_8.png","76","motor","8","310","1","0","0","",""
"null","","425053","HierDymtoqtf93","8vded2myi7","msl000385","iti","","null","img/motor_8.png","76","motor","","","","","","",""
"610","","425675","HierDymtoqtf93","8vded2myi7","msl000385","motor","","65","img/motor_2.png","83","motor","2","311","0","1","0","",""
"299","","425985","HierDymtoqtf93","8vded2myi7","msl000385","motorRepeat","","83","img/motor_2.png","83","motor","2","311","1","0","0","",""
"null","","426098","HierDymtoqtf93","8vded2myi7","msl000385","iti","","null","img/motor_2.png","83","motor","","","","","","",""
"577","","426688","HierDymtoqtf93","8vded2myi7","msl000385","motor","","68","img/motor_3.png","68","motor","3","312","1","0","0","",""
"null","","426800","HierDymtoqtf93","8vded2myi7","msl000385","iti","","null","img/motor_3.png","68","motor","","","","","","",""
"613","","427426","HierDymtoqtf93","8vded2myi7","msl000385","motor","","83","img/motor_2.png","83","motor","2","313","1","0","0","",""
"null","","427538","HierDymtoqtf93","8vded2myi7","msl000385","iti","","null","img/motor_2.png","83","motor","","","","","","",""
"563","","428114","HierDymtoqtf93","8vded2myi7","msl000385","motor","","76","img/motor_8.png","76","motor","8","314","1","0","0","",""
"null","","428228","HierDymtoqtf93","8vded2myi7","msl000385","iti","","null","img/motor_8.png","76","motor","","","","","","",""
"753","","428991","HierDymtoqtf93","8vded2myi7","msl000385","motor","","72","img/motor_5.png","72","motor","5","315","1","0","0","",""
"null","","429105","HierDymtoqtf93","8vded2myi7","msl000385","iti","","null","img/motor_5.png","72","motor","","","","","","",""
"371","","429488","HierDymtoqtf93","8vded2myi7","msl000385","motor","","83","img/motor_3.png","68","motor","3","316","0","1","0","",""
"447","","429947","HierDymtoqtf93","8vded2myi7","msl000385","motorRepeat","","68","img/motor_3.png","68","motor","3","316","1","0","0","",""
"null","","430059","HierDymtoqtf93","8vded2myi7","msl000385","iti","","null","img/motor_3.png","68","motor","","","","","","",""
"592","","430663","HierDymtoqtf93","8vded2myi7","msl000385","motor","","83","img/motor_2.png","83","motor","2","317","1","0","0","",""
"null","","430776","HierDymtoqtf93","8vded2myi7","msl000385","iti","","null","img/motor_2.png","83","motor","","","","","","",""
"497","","431287","HierDymtoqtf93","8vded2myi7","msl000385","motor","","76","img/motor_8.png","76","motor","8","318","1","0","0","",""
"null","","431400","HierDymtoqtf93","8vded2myi7","msl000385","iti","","null","img/motor_8.png","76","motor","","","","","","",""
"504","","431917","HierDymtoqtf93","8vded2myi7","msl000385","motor","","74","img/motor_7.png","75","motor","7","319","0","1","0","",""
"306","","432235","HierDymtoqtf93","8vded2myi7","msl000385","motorRepeat","","75","img/motor_7.png","75","motor","7","319","1","0","0","",""
"null","","432348","HierDymtoqtf93","8vded2myi7","msl000385","iti","","null","img/motor_7.png","75","motor","","","","","","",""
"359","","432720","HierDymtoqtf93","8vded2myi7","msl000385","motor","","83","img/motor_4.png","70","motor","4","320","0","1","0","",""
"320","","433052","HierDymtoqtf93","8vded2myi7","msl000385","motorRepeat","","70","img/motor_4.png","70","motor","4","320","1","0","0","",""
"null","","433165","HierDymtoqtf93","8vded2myi7","msl000385","iti","","null","img/motor_4.png","70","motor","","","","","","",""
"361","","433538","HierDymtoqtf93","8vded2myi7","msl000385","motor","","83","img/motor_3.png","68","motor","3","321","0","1","0","",""
"282","","433832","HierDymtoqtf93","8vded2myi7","msl000385","motorRepeat","","68","img/motor_3.png","68","motor","3","321","1","0","0","",""
"null","","433944","HierDymtoqtf93","8vded2myi7","msl000385","iti","","null","img/motor_3.png","68","motor","","","","","","",""
"544","","434501","HierDymtoqtf93","8vded2myi7","msl000385","motor","","75","img/motor_7.png","75","motor","7","322","1","0","0","",""
"null","","434614","HierDymtoqtf93","8vded2myi7","msl000385","iti","","null","img/motor_7.png","75","motor","","","","","","",""
"439","","435066","HierDymtoqtf93","8vded2myi7","msl000385","motor","","75","img/motor_7.png","75","motor","7","323","1","0","0","",""
"null","","435179","HierDymtoqtf93","8vded2myi7","msl000385","iti","","null","img/motor_7.png","75","motor","","","","","","",""
"576","","435765","HierDymtoqtf93","8vded2myi7","msl000385","motor","","65","img/motor_1.png","65","motor","1","324","1","0","0","",""
"null","","435878","HierDymtoqtf93","8vded2myi7","msl000385","iti","","null","img/motor_1.png","65","motor","","","","","","",""
"821","","436711","HierDymtoqtf93","8vded2myi7","msl000385","motor","","72","img/motor_6.png","74","motor","6","325","0","1","0","",""
"239","","436963","HierDymtoqtf93","8vded2myi7","msl000385","motorRepeat","","74","img/motor_6.png","74","motor","6","325","1","0","0","",""
"null","","437076","HierDymtoqtf93","8vded2myi7","msl000385","iti","","null","img/motor_6.png","74","motor","","","","","","",""
"591","","437678","HierDymtoqtf93","8vded2myi7","msl000385","motor","","68","img/motor_4.png","70","motor","4","326","0","1","0","",""
"230","","437920","HierDymtoqtf93","8vded2myi7","msl000385","motorRepeat","","70","img/motor_4.png","70","motor","4","326","1","0","0","",""
"null","","438033","HierDymtoqtf93","8vded2myi7","msl000385","iti","","null","img/motor_4.png","70","motor","","","","","","",""
"405","","438451","HierDymtoqtf93","8vded2myi7","msl000385","motor","","74","img/motor_5.png","72","motor","5","327","0","1","0","",""
"333","","438797","HierDymtoqtf93","8vded2myi7","msl000385","motorRepeat","","70","img/motor_5.png","72","motor","5","327","0","1","0","",""
"103","","438911","HierDymtoqtf93","8vded2myi7","msl000385","motorRepeat","","72","img/motor_5.png","72","motor","5","327","1","0","0","",""
"null","","439026","HierDymtoqtf93","8vded2myi7","msl000385","iti","","null","img/motor_5.png","72","motor","","","","","","",""
"538","","439577","HierDymtoqtf93","8vded2myi7","msl000385","motor","","65","img/motor_1.png","65","motor","1","328","1","0","0","",""
"null","","439689","HierDymtoqtf93","8vded2myi7","msl000385","iti","","null","img/motor_1.png","65","motor","","","","","","",""
"496","","440197","HierDymtoqtf93","8vded2myi7","msl000385","motor","","75","img/motor_6.png","74","motor","6","329","0","1","0","",""
"376","","440585","HierDymtoqtf93","8vded2myi7","msl000385","motorRepeat","","74","img/motor_6.png","74","motor","6","329","1","0","0","",""
"null","","440698","HierDymtoqtf93","8vded2myi7","msl000385","iti","","null","img/motor_6.png","74","motor","","","","","","",""
"486","","441196","HierDymtoqtf93","8vded2myi7","msl000385","motor","","74","img/motor_6.png","74","motor","6","330","1","0","0","",""
"null","","441309","HierDymtoqtf93","8vded2myi7","msl000385","iti","","null","img/motor_6.png","74","motor","","","","","","",""
"462","","441783","HierDymtoqtf93","8vded2myi7","msl000385","motor","","68","img/motor_4.png","70","motor","4","331","0","1","0","",""
