rt,responses,time_elapsed,subject,prolificID,demoID,trialType,question_order,key_press,stim,corrresp,phase,stimNum,trialNum,corr,repeatTrial,motorSwitch,pracCounter,hierarchy
591689,"{""Q0"":""ms1000255""}",591722,HierDyvq8l8wz7,k2u21c8f7y,ms1000255,,,,,,,,,,,,,
2562,,594295,HierDyvq8l8wz7,k2u21c8f7y,ms1000255,,,,,,,,,,,,,
,,599833,HierDyvq8l8wz7,k2u21c8f7y,ms1000255,fullscreen,,,,,,,,,,,,
11317,"{""Vision"":""Yes"",""Handedness"":""Right"",""Gender"":""female""}",611161,HierDyvq8l8wz7,k2u21c8f7y,ms1000255,,"[0,1,2]",,,,,,,,,,,
2337,"{""Q0"":""20""}",613512,HierDyvq8l8wz7,k2u21c8f7y,ms1000255,,,,,,,,,,,,,
151341,,764866,HierDyvq8l8wz7,k2u21c8f7y,ms1000255,,,,,,,,,,,,,
609,,765486,HierDyvq8l8wz7,k2u21c8f7y,ms1000255,motor,,68,img/motor_2.png,83,motor,2,1,0,1,0,,
496,,765992,HierDyvq8l8wz7,k2u21c8f7y,ms1000255,motorRepeat,,83,img/motor_2.png,83,motor,2,1,1,0,0,,
null,,766102,HierDyvq8l8wz7,k2u21c8f7y,ms1000255,iti,,null,img/motor_2.png,83,motor,,,,,,,
928,,767041,HierDyvq8l8wz7,k2u21c8f7y,ms1000255,motor,,72,img/motor_5.png,72,motor,5,2,1,0,0,,
null,,767152,HierDyvq8l8wz7,k2u21c8f7y,ms1000255,iti,,null,img/motor_5.png,72,motor,,,,,,,
646,,767809,HierDyvq8l8wz7,k2u21c8f7y,ms1000255,motor,,74,img/motor_6.png,74,motor,6,3,1,0,0,,
null,,767921,HierDyvq8l8wz7,k2u21c8f7y,ms1000255,iti,,null,img/motor_6.png,74,motor,,,,,,,
556,,768486,HierDyvq8l8wz7,k2u21c8f7y,ms1000255,motor,,83,img/motor_2.png,83,motor,2,4,1,0,0,,
null,,768597,HierDyvq8l8wz7,k2u21c8f7y,ms1000255,iti,,null,img/motor_2.png,83,motor,,,,,,,
562,,769169,HierDyvq8l8wz7,k2u21c8f7y,ms1000255,motor,,68,img/motor_3.png,68,motor,3,5,1,0,0,,
null,,769281,HierDyvq8l8wz7,k2u21c8f7y,ms1000255,iti,,null,img/motor_3.png,68,motor,,,,,,,
705,,769997,HierDyvq8l8wz7,k2u21c8f7y,ms1000255,motor,,74,img/motor_6.png,74,motor,6,6,1,0,0,,
null,,770107,HierDyvq8l8wz7,k2u21c8f7y,ms1000255,iti,,null,img/motor_6.png,74,motor,,,,,,,
512,,770629,HierDyvq8l8wz7,k2u21c8f7y,ms1000255,motor,,72,img/motor_5.png,72,motor,5,7,1,0,0,,
null,,770741,HierDyvq8l8wz7,k2u21c8f7y,ms1000255,iti,,null,img/motor_5.png,72,motor,,,,,,,
642,,771394,HierDyvq8l8wz7,k2u21c8f7y,ms1000255,motor,,68,img/motor_2.png,83,motor,2,8,0,1,0,,
248,,771653,HierDyvq8l8wz7,k2u21c8f7y,ms1000255,motorRepeat,,83,img/motor_2.png,83,motor,2,8,1,0,0,,
null,,771766,HierDyvq8l8wz7,k2u21c8f7y,ms1000255,iti,,null,img/motor_2.png,83,motor,,,,,,,
600,,772377,HierDyvq8l8wz7,k2u21c8f7y,ms1000255,motor,,70,img/motor_4.png,70,motor,4,9,1,0,0,,
null,,772488,HierDyvq8l8wz7,k2u21c8f7y,ms1000255,iti,,null,img/motor_4.png,70,motor,,,,,,,
617,,773115,HierDyvq8l8wz7,k2u21c8f7y,ms1000255,motor,,75,img/motor_7.png,75,motor,7,10,1,0,0,,
null,,773227,HierDyvq8l8wz7,k2u21c8f7y,ms1000255,iti,,null,img/motor_7.png,75,motor,,,,,,,
425,,773661,HierDyvq8l8wz7,k2u21c8f7y,ms1000255,motor,,75,img/motor_7.png,75,motor,7,11,1,0,0,,
null,,773773,HierDyvq8l8wz7,k2u21c8f7y,ms1000255,iti,,null,img/motor_7.png,75,motor,,,,,,,
541,,774324,HierDyvq8l8wz7,k2u21c8f7y,ms1000255,motor,,83,img/motor_2.png,83,motor,2,12,1,0,0,,
null,,774435,HierDyvq8l8wz7,k2u21c8f7y,ms1000255,iti,,null,img/motor_2.png,83,motor,,,,,,,
535,,774981,HierDyvq8l8wz7,k2u21c8f7y,ms1000255,motor,,75,img/motor_7.png,75,motor,7,13,1,0,0,,
null,,775092,HierDyvq8l8wz7,k2u21c8f7y,ms1000255,iti,,null,img/motor_7.png,75,motor,,,,,,,
616,,775722,HierDyvq8l8wz7,k2u21c8f7y,ms1000255,motor,,74,img/motor_5.png,72,motor,5,14,0,1,0,,
237,,775969,HierDyvq8l8wz7,k2u21c8f7y,ms1000255,motorRepeat,,72,img/motor_5.png,72,motor,5,14,1,0,0,,
null,,776080,HierDyvq8l8wz7,k2u21c8f7y,ms1000255,iti,,null,img/motor_5.png,72,motor,,,,,,,
588,,776678,HierDyvq8l8wz7,k2u21c8f7y,ms1000255,motor,,65,img/motor_1.png,65,motor,1,15,1,0,0,,
null,,776789,HierDyvq8l8wz7,k2u21c8f7y,ms1000255,iti,,null,img/motor_1.png,65,motor,,,,,,,
335,,777136,HierDyvq8l8wz7,k2u21c8f7y,ms1000255,motor,,65,img/motor_1.png,65,motor,1,16,1,0,0,,
null,,777248,HierDyvq8l8wz7,k2u21c8f7y,ms1000255,iti,,null,img/motor_1.png,65,motor,,,,,,,
991,,778250,HierDyvq8l8wz7,k2u21c8f7y,ms1000255,motor,,74,img/motor_6.png,74,motor,6,17,1,0,0,,
null,,778362,HierDyvq8l8wz7,k2u21c8f7y,ms1000255,iti,,null,img/motor_6.png,74,motor,,,,,,,
371,,778742,HierDyvq8l8wz7,k2u21c8f7y,ms1000255,motor,,74,img/motor_6.png,74,motor,6,18,1,0,0,,
null,,778854,HierDyvq8l8wz7,k2u21c8f7y,ms1000255,iti,,null,img/motor_6.png,74,motor,,,,,,,
697,,779562,HierDyvq8l8wz7,k2u21c8f7y,ms1000255,motor,,83,img/motor_2.png,83,motor,2,19,1,0,0,,
null,,779672,HierDyvq8l8wz7,k2u21c8f7y,ms1000255,iti,,null,img/motor_2.png,83,motor,,,,,,,
555,,780236,HierDyvq8l8wz7,k2u21c8f7y,ms1000255,motor,,74,img/motor_6.png,74,motor,6,20,1,0,0,,
null,,780348,HierDyvq8l8wz7,k2u21c8f7y,ms1000255,iti,,null,img/motor_6.png,74,motor,,,,,,,
605,,780964,HierDyvq8l8wz7,k2u21c8f7y,ms1000255,motor,,70,img/motor_4.png,70,motor,4,21,1,0,0,,
null,,781075,HierDyvq8l8wz7,k2u21c8f7y,ms1000255,iti,,null,img/motor_4.png,70,motor,,,,,,,
530,,781616,HierDyvq8l8wz7,k2u21c8f7y,ms1000255,motor,,76,img/motor_8.png,76,motor,8,22,1,0,0,,
null,,781727,HierDyvq8l8wz7,k2u21c8f7y,ms1000255,iti,,null,img/motor_8.png,76,motor,,,,,,,
550,,782288,HierDyvq8l8wz7,k2u21c8f7y,ms1000255,motor,,70,img/motor_4.png,70,motor,4,23,1,0,0,,
null,,782400,HierDyvq8l8wz7,k2u21c8f7y,ms1000255,iti,,null,img/motor_4.png,70,motor,,,,,,,
538,,782947,HierDyvq8l8wz7,k2u21c8f7y,ms1000255,motor,,74,img/motor_5.png,72,motor,5,24,0,1,0,,
183,,783141,HierDyvq8l8wz7,k2u21c8f7y,ms1000255,motorRepeat,,72,img/motor_5.png,72,motor,5,24,1,0,0,,
null,,783252,HierDyvq8l8wz7,k2u21c8f7y,ms1000255,iti,,null,img/motor_5.png,72,motor,,,,,,,
466,,783729,HierDyvq8l8wz7,k2u21c8f7y,ms1000255,motor,,76,img/motor_8.png,76,motor,8,25,1,0,0,,
null,,783840,HierDyvq8l8wz7,k2u21c8f7y,ms1000255,iti,,null,img/motor_8.png,76,motor,,,,,,,
496,,784346,HierDyvq8l8wz7,k2u21c8f7y,ms1000255,motor,,74,img/motor_6.png,74,motor,6,26,1,0,0,,
null,,784457,HierDyvq8l8wz7,k2u21c8f7y,ms1000255,iti,,null,img/motor_6.png,74,motor,,,,,,,
416,,784883,HierDyvq8l8wz7,k2u21c8f7y,ms1000255,motor,,76,img/motor_8.png,76,motor,8,27,1,0,0,,
null,,784994,HierDyvq8l8wz7,k2u21c8f7y,ms1000255,iti,,null,img/motor_8.png,76,motor,,,,,,,
455,,785460,HierDyvq8l8wz7,k2u21c8f7y,ms1000255,motor,,68,img/motor_3.png,68,motor,3,28,1,0,0,,
null,,785571,HierDyvq8l8wz7,k2u21c8f7y,ms1000255,iti,,null,img/motor_3.png,68,motor,,,,,,,
471,,786053,HierDyvq8l8wz7,k2u21c8f7y,ms1000255,motor,,76,img/motor_8.png,76,motor,8,29,1,0,0,,
null,,786164,HierDyvq8l8wz7,k2u21c8f7y,ms1000255,iti,,null,img/motor_8.png,76,motor,,,,,,,
806,,786981,HierDyvq8l8wz7,k2u21c8f7y,ms1000255,motor,,75,img/motor_6.png,74,motor,6,30,0,1,0,,
416,,787407,HierDyvq8l8wz7,k2u21c8f7y,ms1000255,motorRepeat,,74,img/motor_6.png,74,motor,6,30,1,0,0,,
null,,787518,HierDyvq8l8wz7,k2u21c8f7y,ms1000255,iti,,null,img/motor_6.png,74,motor,,,,,,,
603,,788131,HierDyvq8l8wz7,k2u21c8f7y,ms1000255,motor,,75,img/motor_7.png,75,motor,7,31,1,0,0,,
null,,788242,HierDyvq8l8wz7,k2u21c8f7y,ms1000255,iti,,null,img/motor_7.png,75,motor,,,,,,,
541,,788793,HierDyvq8l8wz7,k2u21c8f7y,ms1000255,motor,,83,img/motor_2.png,83,motor,2,32,1,0,0,,
null,,788905,HierDyvq8l8wz7,k2u21c8f7y,ms1000255,iti,,null,img/motor_2.png,83,motor,,,,,,,
656,,789570,HierDyvq8l8wz7,k2u21c8f7y,ms1000255,motor,,72,img/motor_5.png,72,motor,5,33,1,0,0,,
null,,789682,HierDyvq8l8wz7,k2u21c8f7y,ms1000255,iti,,null,img/motor_5.png,72,motor,,,,,,,
545,,790236,HierDyvq8l8wz7,k2u21c8f7y,ms1000255,motor,,70,img/motor_4.png,70,motor,4,34,1,0,0,,
null,,790346,HierDyvq8l8wz7,k2u21c8f7y,ms1000255,iti,,null,img/motor_4.png,70,motor,,,,,,,
485,,790842,HierDyvq8l8wz7,k2u21c8f7y,ms1000255,motor,,76,img/motor_8.png,76,motor,8,35,1,0,0,,
null,,790953,HierDyvq8l8wz7,k2u21c8f7y,ms1000255,iti,,null,img/motor_8.png,76,motor,,,,,,,
465,,791428,HierDyvq8l8wz7,k2u21c8f7y,ms1000255,motor,,72,img/motor_5.png,72,motor,5,36,1,0,0,,
null,,791539,HierDyvq8l8wz7,k2u21c8f7y,ms1000255,iti,,null,img/motor_5.png,72,motor,,,,,,,
456,,792005,HierDyvq8l8wz7,k2u21c8f7y,ms1000255,motor,,76,img/motor_8.png,76,motor,8,37,1,0,0,,
null,,792116,HierDyvq8l8wz7,k2u21c8f7y,ms1000255,iti,,null,img/motor_8.png,76,motor,,,,,,,
556,,792683,HierDyvq8l8wz7,k2u21c8f7y,ms1000255,motor,,75,img/motor_7.png,75,motor,7,38,1,0,0,,
null,,792794,HierDyvq8l8wz7,k2u21c8f7y,ms1000255,iti,,null,img/motor_7.png,75,motor,,,,,,,
656,,793460,HierDyvq8l8wz7,k2u21c8f7y,ms1000255,motor,,68,img/motor_3.png,68,motor,3,39,1,0,0,,
null,,793572,HierDyvq8l8wz7,k2u21c8f7y,ms1000255,iti,,null,img/motor_3.png,68,motor,,,,,,,
521,,794103,HierDyvq8l8wz7,k2u21c8f7y,ms1000255,motor,,83,img/motor_2.png,83,motor,2,40,1,0,0,,
null,,794213,HierDyvq8l8wz7,k2u21c8f7y,ms1000255,iti,,null,img/motor_2.png,83,motor,,,,,,,
751,,794976,HierDyvq8l8wz7,k2u21c8f7y,ms1000255,motor,,74,img/motor_6.png,74,motor,6,41,1,0,0,,
null,,795086,HierDyvq8l8wz7,k2u21c8f7y,ms1000255,iti,,null,img/motor_6.png,74,motor,,,,,,,
513,,795610,HierDyvq8l8wz7,k2u21c8f7y,ms1000255,motor,,65,img/motor_1.png,65,motor,1,42,1,0,0,,
null,,795721,HierDyvq8l8wz7,k2u21c8f7y,ms1000255,iti,,null,img/motor_1.png,65,motor,,,,,,,
574,,796305,HierDyvq8l8wz7,k2u21c8f7y,ms1000255,motor,,76,img/motor_8.png,76,motor,8,43,1,0,0,,
null,,796417,HierDyvq8l8wz7,k2u21c8f7y,ms1000255,iti,,null,img/motor_8.png,76,motor,,,,,,,
523,,796952,HierDyvq8l8wz7,k2u21c8f7y,ms1000255,motor,,70,img/motor_4.png,70,motor,4,44,1,0,0,,
null,,797062,HierDyvq8l8wz7,k2u21c8f7y,ms1000255,iti,,null,img/motor_4.png,70,motor,,,,,,,
608,,797680,HierDyvq8l8wz7,k2u21c8f7y,ms1000255,motor,,83,img/motor_2.png,83,motor,2,45,1,0,0,,
null,,797793,HierDyvq8l8wz7,k2u21c8f7y,ms1000255,iti,,null,img/motor_2.png,83,motor,,,,,,,
671,,798474,HierDyvq8l8wz7,k2u21c8f7y,ms1000255,motor,,74,img/motor_6.png,74,motor,6,46,1,0,0,,
null,,798586,HierDyvq8l8wz7,k2u21c8f7y,ms1000255,iti,,null,img/motor_6.png,74,motor,,,,,,,
497,,799093,HierDyvq8l8wz7,k2u21c8f7y,ms1000255,motor,,72,img/motor_5.png,72,motor,5,47,1,0,0,,
null,,799205,HierDyvq8l8wz7,k2u21c8f7y,ms1000255,iti,,null,img/motor_5.png,72,motor,,,,,,,
523,,799738,HierDyvq8l8wz7,k2u21c8f7y,ms1000255,motor,,70,img/motor_4.png,70,motor,4,48,1,0,0,,
null,,799850,HierDyvq8l8wz7,k2u21c8f7y,ms1000255,iti,,null,img/motor_4.png,70,motor,,,,,,,
762,,800621,HierDyvq8l8wz7,k2u21c8f7y,ms1000255,motor,,75,img/motor_7.png,75,motor,7,49,1,0,0,,
null,,800732,HierDyvq8l8wz7,k2u21c8f7y,ms1000255,iti,,null,img/motor_7.png,75,motor,,,,,,,
411,,801153,HierDyvq8l8wz7,k2u21c8f7y,ms1000255,motor,,76,img/motor_8.png,76,motor,8,50,1,0,0,,
null,,801265,HierDyvq8l8wz7,k2u21c8f7y,ms1000255,iti,,null,img/motor_8.png,76,motor,,,,,,,
500,,801775,HierDyvq8l8wz7,k2u21c8f7y,ms1000255,motor,,68,img/motor_3.png,68,motor,3,51,1,0,0,,
null,,801887,HierDyvq8l8wz7,k2u21c8f7y,ms1000255,iti,,null,img/motor_3.png,68,motor,,,,,,,
688,,802585,HierDyvq8l8wz7,k2u21c8f7y,ms1000255,motor,,74,img/motor_6.png,74,motor,6,52,1,0,0,,
null,,802696,HierDyvq8l8wz7,k2u21c8f7y,ms1000255,iti,,null,img/motor_6.png,74,motor,,,,,,,
466,,803172,HierDyvq8l8wz7,k2u21c8f7y,ms1000255,motor,,68,img/motor_3.png,68,motor,3,53,1,0,0,,
null,,803284,HierDyvq8l8wz7,k2u21c8f7y,ms1000255,iti,,null,img/motor_3.png,68,motor,,,,,,,
444,,803738,HierDyvq8l8wz7,k2u21c8f7y,ms1000255,motor,,74,img/motor_6.png,74,motor,6,54,1,0,0,,
null,,803850,HierDyvq8l8wz7,k2u21c8f7y,ms1000255,iti,,null,img/motor_6.png,74,motor,,,,,,,
445,,804306,HierDyvq8l8wz7,k2u21c8f7y,ms1000255,motor,,65,img/motor_1.png,65,motor,1,55,1,0,0,,
null,,804417,HierDyvq8l8wz7,k2u21c8f7y,ms1000255,iti,,null,img/motor_1.png,65,motor,,,,,,,
547,,804975,HierDyvq8l8wz7,k2u21c8f7y,ms1000255,motor,,70,img/motor_4.png,70,motor,4,56,1,0,0,,
null,,805086,HierDyvq8l8wz7,k2u21c8f7y,ms1000255,iti,,null,img/motor_4.png,70,motor,,,,,,,
500,,805595,HierDyvq8l8wz7,k2u21c8f7y,ms1000255,motor,,68,img/motor_3.png,68,motor,3,57,1,0,0,,
null,,805706,HierDyvq8l8wz7,k2u21c8f7y,ms1000255,iti,,null,img/motor_3.png,68,motor,,,,,,,
407,,806125,HierDyvq8l8wz7,k2u21c8f7y,ms1000255,motor,,68,img/motor_3.png,68,motor,3,58,1,0,0,,
null,,806235,HierDyvq8l8wz7,k2u21c8f7y,ms1000255,iti,,null,img/motor_3.png,68,motor,,,,,,,
397,,806642,HierDyvq8l8wz7,k2u21c8f7y,ms1000255,motor,,70,img/motor_4.png,70,motor,4,59,1,0,0,,
null,,806754,HierDyvq8l8wz7,k2u21c8f7y,ms1000255,iti,,null,img/motor_4.png,70,motor,,,,,,,
519,,807283,HierDyvq8l8wz7,k2u21c8f7y,ms1000255,motor,,72,img/motor_5.png,72,motor,5,60,1,0,0,,
null,,807396,HierDyvq8l8wz7,k2u21c8f7y,ms1000255,iti,,null,img/motor_5.png,72,motor,,,,,,,
645,,808051,HierDyvq8l8wz7,k2u21c8f7y,ms1000255,motor,,75,img/motor_7.png,75,motor,7,61,1,0,0,,
null,,808163,HierDyvq8l8wz7,k2u21c8f7y,ms1000255,iti,,null,img/motor_7.png,75,motor,,,,,,,
342,,808517,HierDyvq8l8wz7,k2u21c8f7y,ms1000255,motor,,75,img/motor_7.png,75,motor,7,62,1,0,0,,
null,,808627,HierDyvq8l8wz7,k2u21c8f7y,ms1000255,iti,,null,img/motor_7.png,75,motor,,,,,,,
501,,809139,HierDyvq8l8wz7,k2u21c8f7y,ms1000255,motor,,68,img/motor_3.png,68,motor,3,63,1,0,0,,
null,,809251,HierDyvq8l8wz7,k2u21c8f7y,ms1000255,iti,,null,img/motor_3.png,68,motor,,,,,,,
631,,809893,HierDyvq8l8wz7,k2u21c8f7y,ms1000255,motor,,72,img/motor_5.png,72,motor,5,64,1,0,0,,
null,,810003,HierDyvq8l8wz7,k2u21c8f7y,ms1000255,iti,,null,img/motor_5.png,72,motor,,,,,,,
480,,810494,HierDyvq8l8wz7,k2u21c8f7y,ms1000255,motor,,75,img/motor_7.png,75,motor,7,65,1,0,0,,
null,,810605,HierDyvq8l8wz7,k2u21c8f7y,ms1000255,iti,,null,img/motor_7.png,75,motor,,,,,,,
411,,811027,HierDyvq8l8wz7,k2u21c8f7y,ms1000255,motor,,74,img/motor_6.png,74,motor,6,66,1,0,0,,
null,,811137,HierDyvq8l8wz7,k2u21c8f7y,ms1000255,iti,,null,img/motor_6.png,74,motor,,,,,,,
512,,811659,HierDyvq8l8wz7,k2u21c8f7y,ms1000255,motor,,68,img/motor_3.png,68,motor,3,67,1,0,0,,
null,,811770,HierDyvq8l8wz7,k2u21c8f7y,ms1000255,iti,,null,img/motor_3.png,68,motor,,,,,,,
450,,812230,HierDyvq8l8wz7,k2u21c8f7y,ms1000255,motor,,83,img/motor_2.png,83,motor,2,68,1,0,0,,
null,,812341,HierDyvq8l8wz7,k2u21c8f7y,ms1000255,iti,,null,img/motor_2.png,83,motor,,,,,,,
426,,812777,HierDyvq8l8wz7,k2u21c8f7y,ms1000255,motor,,70,img/motor_4.png,70,motor,4,69,1,0,0,,
null,,812889,HierDyvq8l8wz7,k2u21c8f7y,ms1000255,iti,,null,img/motor_4.png,70,motor,,,,,,,
429,,813329,HierDyvq8l8wz7,k2u21c8f7y,ms1000255,motor,,76,img/motor_8.png,76,motor,8,70,1,0,0,,
null,,813440,HierDyvq8l8wz7,k2u21c8f7y,ms1000255,iti,,null,img/motor_8.png,76,motor,,,,,,,
511,,813962,HierDyvq8l8wz7,k2u21c8f7y,ms1000255,motor,,70,img/motor_4.png,70,motor,4,71,1,0,0,,
null,,814074,HierDyvq8l8wz7,k2u21c8f7y,ms1000255,iti,,null,img/motor_4.png,70,motor,,,,,,,
486,,814573,HierDyvq8l8wz7,k2u21c8f7y,ms1000255,motor,,83,img/motor_2.png,83,motor,2,72,1,0,0,,
null,,814683,HierDyvq8l8wz7,k2u21c8f7y,ms1000255,iti,,null,img/motor_2.png,83,motor,,,,,,,
389,,815083,HierDyvq8l8wz7,k2u21c8f7y,ms1000255,motor,,68,img/motor_3.png,68,motor,3,73,1,0,0,,
null,,815195,HierDyvq8l8wz7,k2u21c8f7y,ms1000255,iti,,null,img/motor_3.png,68,motor,,,,,,,
390,,815594,HierDyvq8l8wz7,k2u21c8f7y,ms1000255,motor,,68,img/motor_3.png,68,motor,3,74,1,0,0,,
null,,815707,HierDyvq8l8wz7,k2u21c8f7y,ms1000255,iti,,null,img/motor_3.png,68,motor,,,,,,,
595,,816311,HierDyvq8l8wz7,k2u21c8f7y,ms1000255,motor,,72,img/motor_5.png,72,motor,5,75,1,0,0,,
null,,816422,HierDyvq8l8wz7,k2u21c8f7y,ms1000255,iti,,null,img/motor_5.png,72,motor,,,,,,,
530,,816963,HierDyvq8l8wz7,k2u21c8f7y,ms1000255,motor,,83,img/motor_2.png,83,motor,2,76,1,0,0,,
null,,817074,HierDyvq8l8wz7,k2u21c8f7y,ms1000255,iti,,null,img/motor_2.png,83,motor,,,,,,,
403,,817486,HierDyvq8l8wz7,k2u21c8f7y,ms1000255,motor,,70,img/motor_4.png,70,motor,4,77,1,0,0,,
null,,817597,HierDyvq8l8wz7,k2u21c8f7y,ms1000255,iti,,null,img/motor_4.png,70,motor,,,,,,,
470,,818078,HierDyvq8l8wz7,k2u21c8f7y,ms1000255,motor,,72,img/motor_5.png,72,motor,5,78,1,0,0,,
null,,818189,HierDyvq8l8wz7,k2u21c8f7y,ms1000255,iti,,null,img/motor_5.png,72,motor,,,,,,,
603,,818800,HierDyvq8l8wz7,k2u21c8f7y,ms1000255,motor,,83,img/motor_2.png,83,motor,2,79,1,0,0,,
null,,818911,HierDyvq8l8wz7,k2u21c8f7y,ms1000255,iti,,null,img/motor_2.png,83,motor,,,,,,,
413,,819334,HierDyvq8l8wz7,k2u21c8f7y,ms1000255,motor,,65,img/motor_1.png,65,motor,1,80,1,0,0,,
null,,819446,HierDyvq8l8wz7,k2u21c8f7y,ms1000255,iti,,null,img/motor_1.png,65,motor,,,,,,,
409,,819865,HierDyvq8l8wz7,k2u21c8f7y,ms1000255,motor,,76,img/motor_8.png,76,motor,8,81,1,0,0,,
null,,819976,HierDyvq8l8wz7,k2u21c8f7y,ms1000255,iti,,null,img/motor_8.png,76,motor,,,,,,,
479,,820466,HierDyvq8l8wz7,k2u21c8f7y,ms1000255,motor,,70,img/motor_4.png,70,motor,4,82,1,0,0,,
null,,820577,HierDyvq8l8wz7,k2u21c8f7y,ms1000255,iti,,null,img/motor_4.png,70,motor,,,,,,,
326,,820913,HierDyvq8l8wz7,k2u21c8f7y,ms1000255,motor,,70,img/motor_4.png,70,motor,4,83,1,0,0,,
null,,821024,HierDyvq8l8wz7,k2u21c8f7y,ms1000255,iti,,null,img/motor_4.png,70,motor,,,,,,,
465,,821500,HierDyvq8l8wz7,k2u21c8f7y,ms1000255,motor,,83,img/motor_2.png,83,motor,2,84,1,0,0,,
null,,821611,HierDyvq8l8wz7,k2u21c8f7y,ms1000255,iti,,null,img/motor_2.png,83,motor,,,,,,,
682,,822303,HierDyvq8l8wz7,k2u21c8f7y,ms1000255,motor,,75,img/motor_7.png,75,motor,7,85,1,0,0,,
null,,822414,HierDyvq8l8wz7,k2u21c8f7y,ms1000255,iti,,null,img/motor_7.png,75,motor,,,,,,,
447,,822872,HierDyvq8l8wz7,k2u21c8f7y,ms1000255,motor,,74,img/motor_6.png,74,motor,6,86,1,0,0,,
null,,822983,HierDyvq8l8wz7,k2u21c8f7y,ms1000255,iti,,null,img/motor_6.png,74,motor,,,,,,,
523,,823517,HierDyvq8l8wz7,k2u21c8f7y,ms1000255,motor,,65,img/motor_1.png,65,motor,1,87,1,0,0,,
null,,823628,HierDyvq8l8wz7,k2u21c8f7y,ms1000255,iti,,null,img/motor_1.png,65,motor,,,,,,,
417,,824054,HierDyvq8l8wz7,k2u21c8f7y,ms1000255,motor,,76,img/motor_8.png,76,motor,8,88,1,0,0,,
null,,824166,HierDyvq8l8wz7,k2u21c8f7y,ms1000255,iti,,null,img/motor_8.png,76,motor,,,,,,,
346,,824522,HierDyvq8l8wz7,k2u21c8f7y,ms1000255,motor,,76,img/motor_8.png,76,motor,8,89,1,0,0,,
null,,824633,HierDyvq8l8wz7,k2u21c8f7y,ms1000255,iti,,null,img/motor_8.png,76,motor,,,,,,,
519,,825163,HierDyvq8l8wz7,k2u21c8f7y,ms1000255,motor,,65,img/motor_2.png,83,motor,2,90,0,1,0,,
398,,825571,HierDyvq8l8wz7,k2u21c8f7y,ms1000255,motorRepeat,,68,img/motor_2.png,83,motor,2,90,0,1,0,,
69,,825651,HierDyvq8l8wz7,k2u21c8f7y,ms1000255,motorRepeat,,83,img/motor_2.png,83,motor,2,90,1,0,0,,
null,,825762,HierDyvq8l8wz7,k2u21c8f7y,ms1000255,iti,,null,img/motor_2.png,83,motor,,,,,,,
627,,826399,HierDyvq8l8wz7,k2u21c8f7y,ms1000255,motor,,76,img/motor_8.png,76,motor,8,91,1,0,0,,
null,,826510,HierDyvq8l8wz7,k2u21c8f7y,ms1000255,iti,,null,img/motor_8.png,76,motor,,,,,,,
567,,827089,HierDyvq8l8wz7,k2u21c8f7y,ms1000255,motor,,68,img/motor_3.png,68,motor,3,92,1,0,0,,
null,,827200,HierDyvq8l8wz7,k2u21c8f7y,ms1000255,iti,,null,img/motor_3.png,68,motor,,,,,,,
483,,827693,HierDyvq8l8wz7,k2u21c8f7y,ms1000255,motor,,83,img/motor_2.png,83,motor,2,93,1,0,0,,
null,,827806,HierDyvq8l8wz7,k2u21c8f7y,ms1000255,iti,,null,img/motor_2.png,83,motor,,,,,,,
611,,828427,HierDyvq8l8wz7,k2u21c8f7y,ms1000255,motor,,75,img/motor_7.png,75,motor,7,94,1,0,0,,
null,,828538,HierDyvq8l8wz7,k2u21c8f7y,ms1000255,iti,,null,img/motor_7.png,75,motor,,,,,,,
792,,829340,HierDyvq8l8wz7,k2u21c8f7y,ms1000255,motor,,83,img/motor_2.png,83,motor,2,95,1,0,0,,
null,,829450,HierDyvq8l8wz7,k2u21c8f7y,ms1000255,iti,,null,img/motor_2.png,83,motor,,,,,,,
330,,829791,HierDyvq8l8wz7,k2u21c8f7y,ms1000255,motor,,83,img/motor_2.png,83,motor,2,96,1,0,0,,
null,,829903,HierDyvq8l8wz7,k2u21c8f7y,ms1000255,iti,,null,img/motor_2.png,83,motor,,,,,,,
719,,830632,HierDyvq8l8wz7,k2u21c8f7y,ms1000255,motor,,74,img/motor_6.png,74,motor,6,97,1,0,0,,
null,,830742,HierDyvq8l8wz7,k2u21c8f7y,ms1000255,iti,,null,img/motor_6.png,74,motor,,,,,,,
474,,831227,HierDyvq8l8wz7,k2u21c8f7y,ms1000255,motor,,72,img/motor_5.png,72,motor,5,98,1,0,0,,
null,,831338,HierDyvq8l8wz7,k2u21c8f7y,ms1000255,iti,,null,img/motor_5.png,72,motor,,,,,,,
465,,831813,HierDyvq8l8wz7,k2u21c8f7y,ms1000255,motor,,76,img/motor_8.png,76,motor,8,99,1,0,0,,
null,,831924,HierDyvq8l8wz7,k2u21c8f7y,ms1000255,iti,,null,img/motor_8.png,76,motor,,,,,,,
562,,832497,HierDyvq8l8wz7,k2u21c8f7y,ms1000255,motor,,68,img/motor_3.png,68,motor,3,100,1,0,0,,
null,,832607,HierDyvq8l8wz7,k2u21c8f7y,ms1000255,iti,,null,img/motor_3.png,68,motor,,,,,,,
526,,833143,HierDyvq8l8wz7,k2u21c8f7y,ms1000255,motor,,75,img/motor_7.png,75,motor,7,101,1,0,0,,
null,,833255,HierDyvq8l8wz7,k2u21c8f7y,ms1000255,iti,,null,img/motor_7.png,75,motor,,,,,,,
432,,833697,HierDyvq8l8wz7,k2u21c8f7y,ms1000255,motor,,72,img/motor_5.png,72,motor,5,102,1,0,0,,
null,,833807,HierDyvq8l8wz7,k2u21c8f7y,ms1000255,iti,,null,img/motor_5.png,72,motor,,,,,,,
442,,834259,HierDyvq8l8wz7,k2u21c8f7y,ms1000255,motor,,74,img/motor_6.png,74,motor,6,103,1,0,0,,
null,,834371,HierDyvq8l8wz7,k2u21c8f7y,ms1000255,iti,,null,img/motor_6.png,74,motor,,,,,,,
524,,834905,HierDyvq8l8wz7,k2u21c8f7y,ms1000255,motor,,65,img/motor_1.png,65,motor,1,104,1,0,0,,
null,,835017,HierDyvq8l8wz7,k2u21c8f7y,ms1000255,iti,,null,img/motor_1.png,65,motor,,,,,,,
444,,835473,HierDyvq8l8wz7,k2u21c8f7y,ms1000255,motor,,83,img/motor_2.png,83,motor,2,105,1,0,0,,
null,,835585,HierDyvq8l8wz7,k2u21c8f7y,ms1000255,iti,,null,img/motor_2.png,83,motor,,,,,,,
345,,835941,HierDyvq8l8wz7,k2u21c8f7y,ms1000255,motor,,68,img/motor_3.png,68,motor,3,106,1,0,0,,
null,,836052,HierDyvq8l8wz7,k2u21c8f7y,ms1000255,iti,,null,img/motor_3.png,68,motor,,,,,,,
372,,836435,HierDyvq8l8wz7,k2u21c8f7y,ms1000255,motor,,65,img/motor_1.png,65,motor,1,107,1,0,0,,
null,,836546,HierDyvq8l8wz7,k2u21c8f7y,ms1000255,iti,,null,img/motor_1.png,65,motor,,,,,,,
426,,836983,HierDyvq8l8wz7,k2u21c8f7y,ms1000255,motor,,72,img/motor_5.png,72,motor,5,108,1,0,0,,
null,,837095,HierDyvq8l8wz7,k2u21c8f7y,ms1000255,iti,,null,img/motor_5.png,72,motor,,,,,,,
718,,837824,HierDyvq8l8wz7,k2u21c8f7y,ms1000255,motor,,68,img/motor_3.png,68,motor,3,109,1,0,0,,
null,,837934,HierDyvq8l8wz7,k2u21c8f7y,ms1000255,iti,,null,img/motor_3.png,68,motor,,,,,,,
414,,838359,HierDyvq8l8wz7,k2u21c8f7y,ms1000255,motor,,65,img/motor_1.png,65,motor,1,110,1,0,0,,
null,,838470,HierDyvq8l8wz7,k2u21c8f7y,ms1000255,iti,,null,img/motor_1.png,65,motor,,,,,,,
622,,839102,HierDyvq8l8wz7,k2u21c8f7y,ms1000255,motor,,72,img/motor_5.png,72,motor,5,111,1,0,0,,
null,,839214,HierDyvq8l8wz7,k2u21c8f7y,ms1000255,iti,,null,img/motor_5.png,72,motor,,,,,,,
614,,839841,HierDyvq8l8wz7,k2u21c8f7y,ms1000255,motor,,75,img/motor_7.png,75,motor,7,112,1,0,0,,
null,,839954,HierDyvq8l8wz7,k2u21c8f7y,ms1000255,iti,,null,img/motor_7.png,75,motor,,,,,,,
517,,840481,HierDyvq8l8wz7,k2u21c8f7y,ms1000255,motor,,70,img/motor_4.png,70,motor,4,113,1,0,0,,
null,,840594,HierDyvq8l8wz7,k2u21c8f7y,ms1000255,iti,,null,img/motor_4.png,70,motor,,,,,,,
309,,840913,HierDyvq8l8wz7,k2u21c8f7y,ms1000255,motor,,70,img/motor_4.png,70,motor,4,114,1,0,0,,
null,,841026,HierDyvq8l8wz7,k2u21c8f7y,ms1000255,iti,,null,img/motor_4.png,70,motor,,,,,,,
520,,841557,HierDyvq8l8wz7,k2u21c8f7y,ms1000255,motor,,74,img/motor_6.png,74,motor,6,115,1,0,0,,
null,,841668,HierDyvq8l8wz7,k2u21c8f7y,ms1000255,iti,,null,img/motor_6.png,74,motor,,,,,,,
369,,842048,HierDyvq8l8wz7,k2u21c8f7y,ms1000255,motor,,70,img/motor_4.png,70,motor,4,116,1,0,0,,
null,,842159,HierDyvq8l8wz7,k2u21c8f7y,ms1000255,iti,,null,img/motor_4.png,70,motor,,,,,,,
466,,842637,HierDyvq8l8wz7,k2u21c8f7y,ms1000255,motor,,83,img/motor_3.png,68,motor,3,117,0,1,0,,
48,,842697,HierDyvq8l8wz7,k2u21c8f7y,ms1000255,motorRepeat,,68,img/motor_3.png,68,motor,3,117,1,0,0,,
null,,842808,HierDyvq8l8wz7,k2u21c8f7y,ms1000255,iti,,null,img/motor_3.png,68,motor,,,,,,,
506,,843326,HierDyvq8l8wz7,k2u21c8f7y,ms1000255,motor,,76,img/motor_8.png,76,motor,8,118,1,0,0,,
null,,843438,HierDyvq8l8wz7,k2u21c8f7y,ms1000255,iti,,null,img/motor_8.png,76,motor,,,,,,,
616,,844065,HierDyvq8l8wz7,k2u21c8f7y,ms1000255,motor,,74,img/motor_6.png,74,motor,6,119,1,0,0,,
null,,844177,HierDyvq8l8wz7,k2u21c8f7y,ms1000255,iti,,null,img/motor_6.png,74,motor,,,,,,,
278,,844467,HierDyvq8l8wz7,k2u21c8f7y,ms1000255,motor,,74,img/motor_6.png,74,motor,6,120,1,0,0,,
null,,844579,HierDyvq8l8wz7,k2u21c8f7y,ms1000255,iti,,null,img/motor_6.png,74,motor,,,,,,,
731,,845320,HierDyvq8l8wz7,k2u21c8f7y,ms1000255,motor,,83,img/motor_2.png,83,motor,2,121,1,0,0,,
null,,845430,HierDyvq8l8wz7,k2u21c8f7y,ms1000255,iti,,null,img/motor_2.png,83,motor,,,,,,,
558,,845999,HierDyvq8l8wz7,k2u21c8f7y,ms1000255,motor,,72,img/motor_5.png,72,motor,5,122,1,0,0,,
null,,846112,HierDyvq8l8wz7,k2u21c8f7y,ms1000255,iti,,null,img/motor_5.png,72,motor,,,,,,,
472,,846595,HierDyvq8l8wz7,k2u21c8f7y,ms1000255,motor,,75,img/motor_7.png,75,motor,7,123,1,0,0,,
null,,846706,HierDyvq8l8wz7,k2u21c8f7y,ms1000255,iti,,null,img/motor_7.png,75,motor,,,,,,,
476,,847191,HierDyvq8l8wz7,k2u21c8f7y,ms1000255,motor,,74,img/motor_6.png,74,motor,6,124,1,0,0,,
null,,847304,HierDyvq8l8wz7,k2u21c8f7y,ms1000255,iti,,null,img/motor_6.png,74,motor,,,,,,,
354,,847669,HierDyvq8l8wz7,k2u21c8f7y,ms1000255,motor,,76,img/motor_8.png,76,motor,8,125,1,0,0,,
null,,847780,HierDyvq8l8wz7,k2u21c8f7y,ms1000255,iti,,null,img/motor_8.png,76,motor,,,,,,,
380,,848171,HierDyvq8l8wz7,k2u21c8f7y,ms1000255,motor,,75,img/motor_7.png,75,motor,7,126,1,0,0,,
null,,848282,HierDyvq8l8wz7,k2u21c8f7y,ms1000255,iti,,null,img/motor_7.png,75,motor,,,,,,,
336,,848630,HierDyvq8l8wz7,k2u21c8f7y,ms1000255,motor,,76,img/motor_8.png,76,motor,8,127,1,0,0,,
null,,848742,HierDyvq8l8wz7,k2u21c8f7y,ms1000255,iti,,null,img/motor_8.png,76,motor,,,,,,,
368,,849120,HierDyvq8l8wz7,k2u21c8f7y,ms1000255,motor,,75,img/motor_7.png,75,motor,7,128,1,0,0,,
null,,849231,HierDyvq8l8wz7,k2u21c8f7y,ms1000255,iti,,null,img/motor_7.png,75,motor,,,,,,,
348,,849590,HierDyvq8l8wz7,k2u21c8f7y,ms1000255,motor,,76,img/motor_8.png,76,motor,8,129,1,0,0,,
null,,849703,HierDyvq8l8wz7,k2u21c8f7y,ms1000255,iti,,null,img/motor_8.png,76,motor,,,,,,,
431,,850143,HierDyvq8l8wz7,k2u21c8f7y,ms1000255,motor,,76,img/motor_8.png,76,motor,8,130,1,0,0,,
null,,850255,HierDyvq8l8wz7,k2u21c8f7y,ms1000255,iti,,null,img/motor_8.png,76,motor,,,,,,,
456,,850721,HierDyvq8l8wz7,k2u21c8f7y,ms1000255,motor,,65,img/motor_1.png,65,motor,1,131,1,0,0,,
null,,850833,HierDyvq8l8wz7,k2u21c8f7y,ms1000255,iti,,null,img/motor_1.png,65,motor,,,,,,,
410,,851253,HierDyvq8l8wz7,k2u21c8f7y,ms1000255,motor,,76,img/motor_8.png,76,motor,8,132,1,0,0,,
null,,851364,HierDyvq8l8wz7,k2u21c8f7y,ms1000255,iti,,null,img/motor_8.png,76,motor,,,,,,,
490,,851864,HierDyvq8l8wz7,k2u21c8f7y,ms1000255,motor,,70,img/motor_4.png,70,motor,4,133,1,0,0,,
null,,851975,HierDyvq8l8wz7,k2u21c8f7y,ms1000255,iti,,null,img/motor_4.png,70,motor,,,,,,,
429,,852414,HierDyvq8l8wz7,k2u21c8f7y,ms1000255,motor,,65,img/motor_1.png,65,motor,1,134,1,0,0,,
null,,852524,HierDyvq8l8wz7,k2u21c8f7y,ms1000255,iti,,null,img/motor_1.png,65,motor,,,,,,,
444,,852978,HierDyvq8l8wz7,k2u21c8f7y,ms1000255,motor,,68,img/motor_3.png,68,motor,3,135,1,0,0,,
null,,853089,HierDyvq8l8wz7,k2u21c8f7y,ms1000255,iti,,null,img/motor_3.png,68,motor,,,,,,,
498,,853596,HierDyvq8l8wz7,k2u21c8f7y,ms1000255,motor,,74,img/motor_6.png,74,motor,6,136,1,0,0,,
null,,853708,HierDyvq8l8wz7,k2u21c8f7y,ms1000255,iti,,null,img/motor_6.png,74,motor,,,,,,,
425,,854143,HierDyvq8l8wz7,k2u21c8f7y,ms1000255,motor,,68,img/motor_2.png,83,motor,2,137,0,1,0,,
250,,854404,HierDyvq8l8wz7,k2u21c8f7y,ms1000255,motorRepeat,,83,img/motor_2.png,83,motor,2,137,1,0,0,,
null,,854515,HierDyvq8l8wz7,k2u21c8f7y,ms1000255,iti,,null,img/motor_2.png,83,motor,,,,,,,
319,,854843,HierDyvq8l8wz7,k2u21c8f7y,ms1000255,motor,,65,img/motor_1.png,65,motor,1,138,1,0,0,,
null,,854954,HierDyvq8l8wz7,k2u21c8f7y,ms1000255,iti,,null,img/motor_1.png,65,motor,,,,,,,
424,,855389,HierDyvq8l8wz7,k2u21c8f7y,ms1000255,motor,,70,img/motor_3.png,68,motor,3,139,0,1,0,,
287,,855686,HierDyvq8l8wz7,k2u21c8f7y,ms1000255,motorRepeat,,68,img/motor_3.png,68,motor,3,139,1,0,0,,
null,,855798,HierDyvq8l8wz7,k2u21c8f7y,ms1000255,iti,,null,img/motor_3.png,68,motor,,,,,,,
567,,856377,HierDyvq8l8wz7,k2u21c8f7y,ms1000255,motor,,83,img/motor_2.png,83,motor,2,140,1,0,0,,
null,,856489,HierDyvq8l8wz7,k2u21c8f7y,ms1000255,iti,,null,img/motor_2.png,83,motor,,,,,,,
457,,856955,HierDyvq8l8wz7,k2u21c8f7y,ms1000255,motor,,72,img/motor_5.png,72,motor,5,141,1,0,0,,
null,,857067,HierDyvq8l8wz7,k2u21c8f7y,ms1000255,iti,,null,img/motor_5.png,72,motor,,,,,,,
438,,857516,HierDyvq8l8wz7,k2u21c8f7y,ms1000255,motor,,75,img/motor_7.png,75,motor,7,142,1,0,0,,
null,,857628,HierDyvq8l8wz7,k2u21c8f7y,ms1000255,iti,,null,img/motor_7.png,75,motor,,,,,,,
365,,858003,HierDyvq8l8wz7,k2u21c8f7y,ms1000255,motor,,76,img/motor_8.png,76,motor,8,143,1,0,0,,
null,,858114,HierDyvq8l8wz7,k2u21c8f7y,ms1000255,iti,,null,img/motor_8.png,76,motor,,,,,,,
479,,858605,HierDyvq8l8wz7,k2u21c8f7y,ms1000255,motor,,70,img/motor_4.png,70,motor,4,144,1,0,0,,
null,,858716,HierDyvq8l8wz7,k2u21c8f7y,ms1000255,iti,,null,img/motor_4.png,70,motor,,,,,,,
405,,859132,HierDyvq8l8wz7,k2u21c8f7y,ms1000255,motor,,65,img/motor_1.png,65,motor,1,145,1,0,0,,
null,,859243,HierDyvq8l8wz7,k2u21c8f7y,ms1000255,iti,,null,img/motor_1.png,65,motor,,,,,,,
461,,859714,HierDyvq8l8wz7,k2u21c8f7y,ms1000255,motor,,72,img/motor_5.png,72,motor,5,146,1,0,0,,
null,,859826,HierDyvq8l8wz7,k2u21c8f7y,ms1000255,iti,,null,img/motor_5.png,72,motor,,,,,,,
464,,860302,HierDyvq8l8wz7,k2u21c8f7y,ms1000255,motor,,68,img/motor_3.png,68,motor,3,147,1,0,0,,
null,,860413,HierDyvq8l8wz7,k2u21c8f7y,ms1000255,iti,,null,img/motor_3.png,68,motor,,,,,,,
434,,860859,HierDyvq8l8wz7,k2u21c8f7y,ms1000255,motor,,65,img/motor_1.png,65,motor,1,148,1,0,0,,
null,,860970,HierDyvq8l8wz7,k2u21c8f7y,ms1000255,iti,,null,img/motor_1.png,65,motor,,,,,,,
398,,861378,HierDyvq8l8wz7,k2u21c8f7y,ms1000255,motor,,68,img/motor_2.png,83,motor,2,149,0,1,0,,
59,,861446,HierDyvq8l8wz7,k2u21c8f7y,ms1000255,motorRepeat,,83,img/motor_2.png,83,motor,2,149,1,0,0,,
null,,861557,HierDyvq8l8wz7,k2u21c8f7y,ms1000255,iti,,null,img/motor_2.png,83,motor,,,,,,,
471,,862039,HierDyvq8l8wz7,k2u21c8f7y,ms1000255,motor,,70,img/motor_4.png,70,motor,4,150,1,0,0,,
null,,862151,HierDyvq8l8wz7,k2u21c8f7y,ms1000255,iti,,null,img/motor_4.png,70,motor,,,,,,,
841,,863002,HierDyvq8l8wz7,k2u21c8f7y,ms1000255,motor,,74,img/motor_6.png,74,motor,6,151,1,0,0,,
null,,863113,HierDyvq8l8wz7,k2u21c8f7y,ms1000255,iti,,null,img/motor_6.png,74,motor,,,,,,,
617,,863741,HierDyvq8l8wz7,k2u21c8f7y,ms1000255,motor,,83,img/motor_2.png,83,motor,2,152,1,0,0,,
null,,863853,HierDyvq8l8wz7,k2u21c8f7y,ms1000255,iti,,null,img/motor_2.png,83,motor,,,,,,,
573,,864437,HierDyvq8l8wz7,k2u21c8f7y,ms1000255,motor,,74,img/motor_6.png,74,motor,6,153,1,0,0,,
null,,864548,HierDyvq8l8wz7,k2u21c8f7y,ms1000255,iti,,null,img/motor_6.png,74,motor,,,,,,,
527,,865086,HierDyvq8l8wz7,k2u21c8f7y,ms1000255,motor,,75,img/motor_7.png,75,motor,7,154,1,0,0,,
null,,865196,HierDyvq8l8wz7,k2u21c8f7y,ms1000255,iti,,null,img/motor_7.png,75,motor,,,,,,,
464,,865671,HierDyvq8l8wz7,k2u21c8f7y,ms1000255,motor,,65,img/motor_1.png,65,motor,1,155,1,0,0,,
null,,865783,HierDyvq8l8wz7,k2u21c8f7y,ms1000255,iti,,null,img/motor_1.png,65,motor,,,,,,,
461,,866254,HierDyvq8l8wz7,k2u21c8f7y,ms1000255,motor,,76,img/motor_8.png,76,motor,8,156,1,0,0,,
null,,866366,HierDyvq8l8wz7,k2u21c8f7y,ms1000255,iti,,null,img/motor_8.png,76,motor,,,,,,,
431,,866806,HierDyvq8l8wz7,k2u21c8f7y,ms1000255,motor,,68,img/motor_3.png,68,motor,3,157,1,0,0,,
null,,866919,HierDyvq8l8wz7,k2u21c8f7y,ms1000255,iti,,null,img/motor_3.png,68,motor,,,,,,,
385,,867315,HierDyvq8l8wz7,k2u21c8f7y,ms1000255,motor,,83,img/motor_2.png,83,motor,2,158,1,0,0,,
null,,867426,HierDyvq8l8wz7,k2u21c8f7y,ms1000255,iti,,null,img/motor_2.png,83,motor,,,,,,,
473,,867911,HierDyvq8l8wz7,k2u21c8f7y,ms1000255,motor,,65,img/motor_1.png,65,motor,1,159,1,0,0,,
null,,868023,HierDyvq8l8wz7,k2u21c8f7y,ms1000255,iti,,null,img/motor_1.png,65,motor,,,,,,,
419,,868451,HierDyvq8l8wz7,k2u21c8f7y,ms1000255,motor,,72,img/motor_5.png,72,motor,5,160,1,0,0,,
null,,868562,HierDyvq8l8wz7,k2u21c8f7y,ms1000255,iti,,null,img/motor_5.png,72,motor,,,,,,,
447,,869021,HierDyvq8l8wz7,k2u21c8f7y,ms1000255,motor,,83,img/motor_2.png,83,motor,2,161,1,0,0,,
null,,869131,HierDyvq8l8wz7,k2u21c8f7y,ms1000255,iti,,null,img/motor_2.png,83,motor,,,,,,,
344,,869486,HierDyvq8l8wz7,k2u21c8f7y,ms1000255,motor,,83,img/motor_2.png,83,motor,2,162,1,0,0,,
null,,869598,HierDyvq8l8wz7,k2u21c8f7y,ms1000255,iti,,null,img/motor_2.png,83,motor,,,,,,,
571,,870179,HierDyvq8l8wz7,k2u21c8f7y,ms1000255,motor,,75,img/motor_7.png,75,motor,7,163,1,0,0,,
null,,870290,HierDyvq8l8wz7,k2u21c8f7y,ms1000255,iti,,null,img/motor_7.png,75,motor,,,,,,,
408,,870707,HierDyvq8l8wz7,k2u21c8f7y,ms1000255,motor,,74,img/motor_6.png,74,motor,6,164,1,0,0,,
null,,870819,HierDyvq8l8wz7,k2u21c8f7y,ms1000255,iti,,null,img/motor_6.png,74,motor,,,,,,,
404,,871233,HierDyvq8l8wz7,k2u21c8f7y,ms1000255,motor,,70,img/motor_4.png,70,motor,4,165,1,0,0,,
null,,871344,HierDyvq8l8wz7,k2u21c8f7y,ms1000255,iti,,null,img/motor_4.png,70,motor,,,,,,,
466,,871819,HierDyvq8l8wz7,k2u21c8f7y,ms1000255,motor,,72,img/motor_5.png,72,motor,5,166,1,0,0,,
null,,871931,HierDyvq8l8wz7,k2u21c8f7y,ms1000255,iti,,null,img/motor_5.png,72,motor,,,,,,,
395,,872337,HierDyvq8l8wz7,k2u21c8f7y,ms1000255,motor,,76,img/motor_8.png,76,motor,8,167,1,0,0,,
null,,872448,HierDyvq8l8wz7,k2u21c8f7y,ms1000255,iti,,null,img/motor_8.png,76,motor,,,,,,,
441,,872899,HierDyvq8l8wz7,k2u21c8f7y,ms1000255,motor,,75,img/motor_7.png,75,motor,7,168,1,0,0,,
null,,873011,HierDyvq8l8wz7,k2u21c8f7y,ms1000255,iti,,null,img/motor_7.png,75,motor,,,,,,,
478,,873501,HierDyvq8l8wz7,k2u21c8f7y,ms1000255,motor,,70,img/motor_4.png,70,motor,4,169,1,0,0,,
null,,873612,HierDyvq8l8wz7,k2u21c8f7y,ms1000255,iti,,null,img/motor_4.png,70,motor,,,,,,,
362,,873984,HierDyvq8l8wz7,k2u21c8f7y,ms1000255,motor,,70,img/motor_4.png,70,motor,4,170,1,0,0,,
null,,874095,HierDyvq8l8wz7,k2u21c8f7y,ms1000255,iti,,null,img/motor_4.png,70,motor,,,,,,,
490,,874596,HierDyvq8l8wz7,k2u21c8f7y,ms1000255,motor,,68,img/motor_3.png,68,motor,3,171,1,0,0,,
null,,874707,HierDyvq8l8wz7,k2u21c8f7y,ms1000255,iti,,null,img/motor_3.png,68,motor,,,,,,,
592,,875309,HierDyvq8l8wz7,k2u21c8f7y,ms1000255,motor,,74,img/motor_6.png,74,motor,6,172,1,0,0,,
null,,875421,HierDyvq8l8wz7,k2u21c8f7y,ms1000255,iti,,null,img/motor_6.png,74,motor,,,,,,,
460,,875891,HierDyvq8l8wz7,k2u21c8f7y,ms1000255,motor,,72,img/motor_5.png,72,motor,5,173,1,0,0,,
null,,876002,HierDyvq8l8wz7,k2u21c8f7y,ms1000255,iti,,null,img/motor_5.png,72,motor,,,,,,,
380,,876391,HierDyvq8l8wz7,k2u21c8f7y,ms1000255,motor,,76,img/motor_8.png,76,motor,8,174,1,0,0,,
null,,876503,HierDyvq8l8wz7,k2u21c8f7y,ms1000255,iti,,null,img/motor_8.png,76,motor,,,,,,,
346,,876859,HierDyvq8l8wz7,k2u21c8f7y,ms1000255,motor,,75,img/motor_7.png,75,motor,7,175,1,0,0,,
null,,876971,HierDyvq8l8wz7,k2u21c8f7y,ms1000255,iti,,null,img/motor_7.png,75,motor,,,,,,,
405,,877386,HierDyvq8l8wz7,k2u21c8f7y,ms1000255,motor,,70,img/motor_4.png,70,motor,4,176,1,0,0,,
null,,877497,HierDyvq8l8wz7,k2u21c8f7y,ms1000255,iti,,null,img/motor_4.png,70,motor,,,,,,,
315,,877822,HierDyvq8l8wz7,k2u21c8f7y,ms1000255,motor,,68,img/motor_3.png,68,motor,3,177,1,0,0,,
null,,877934,HierDyvq8l8wz7,k2u21c8f7y,ms1000255,iti,,null,img/motor_3.png,68,motor,,,,,,,
380,,878325,HierDyvq8l8wz7,k2u21c8f7y,ms1000255,motor,,83,img/motor_2.png,83,motor,2,178,1,0,0,,
null,,878436,HierDyvq8l8wz7,k2u21c8f7y,ms1000255,iti,,null,img/motor_2.png,83,motor,,,,,,,
464,,878911,HierDyvq8l8wz7,k2u21c8f7y,ms1000255,motor,,76,img/motor_8.png,76,motor,8,179,1,0,0,,
null,,879023,HierDyvq8l8wz7,k2u21c8f7y,ms1000255,iti,,null,img/motor_8.png,76,motor,,,,,,,
603,,879638,HierDyvq8l8wz7,k2u21c8f7y,ms1000255,motor,,74,img/motor_6.png,74,motor,6,180,1,0,0,,
null,,879748,HierDyvq8l8wz7,k2u21c8f7y,ms1000255,iti,,null,img/motor_6.png,74,motor,,,,,,,
349,,880108,HierDyvq8l8wz7,k2u21c8f7y,ms1000255,motor,,72,img/motor_5.png,72,motor,5,181,1,0,0,,
null,,880219,HierDyvq8l8wz7,k2u21c8f7y,ms1000255,iti,,null,img/motor_5.png,72,motor,,,,,,,
620,,880849,HierDyvq8l8wz7,k2u21c8f7y,ms1000255,motor,,75,img/motor_7.png,75,motor,7,182,1,0,0,,
null,,880960,HierDyvq8l8wz7,k2u21c8f7y,ms1000255,iti,,null,img/motor_7.png,75,motor,,,,,,,
396,,881368,HierDyvq8l8wz7,k2u21c8f7y,ms1000255,motor,,72,img/motor_5.png,72,motor,5,183,1,0,0,,
null,,881479,HierDyvq8l8wz7,k2u21c8f7y,ms1000255,iti,,null,img/motor_5.png,72,motor,,,,,,,
400,,881889,HierDyvq8l8wz7,k2u21c8f7y,ms1000255,motor,,70,img/motor_4.png,70,motor,4,184,1,0,0,,
null,,882001,HierDyvq8l8wz7,k2u21c8f7y,ms1000255,iti,,null,img/motor_4.png,70,motor,,,,,,,
450,,882462,HierDyvq8l8wz7,k2u21c8f7y,ms1000255,motor,,74,img/motor_5.png,72,motor,5,185,0,1,0,,
711,,883184,HierDyvq8l8wz7,k2u21c8f7y,ms1000255,motorRepeat,,74,img/motor_5.png,72,motor,5,185,0,1,0,,
299,,883494,HierDyvq8l8wz7,k2u21c8f7y,ms1000255,motorRepeat,,72,img/motor_5.png,72,motor,5,185,1,0,0,,
null,,883606,HierDyvq8l8wz7,k2u21c8f7y,ms1000255,iti,,null,img/motor_5.png,72,motor,,,,,,,
691,,884306,HierDyvq8l8wz7,k2u21c8f7y,ms1000255,motor,,65,img/motor_1.png,65,motor,1,186,1,0,0,,
null,,884419,HierDyvq8l8wz7,k2u21c8f7y,ms1000255,iti,,null,img/motor_1.png,65,motor,,,,,,,
595,,885024,HierDyvq8l8wz7,k2u21c8f7y,ms1000255,motor,,70,img/motor_3.png,68,motor,3,187,0,1,0,,
310,,885346,HierDyvq8l8wz7,k2u21c8f7y,ms1000255,motorRepeat,,68,img/motor_3.png,68,motor,3,187,1,0,0,,
null,,885458,HierDyvq8l8wz7,k2u21c8f7y,ms1000255,iti,,null,img/motor_3.png,68,motor,,,,,,,
480,,885948,HierDyvq8l8wz7,k2u21c8f7y,ms1000255,motor,,68,img/motor_3.png,68,motor,3,188,1,0,0,,
null,,886060,HierDyvq8l8wz7,k2u21c8f7y,ms1000255,iti,,null,img/motor_3.png,68,motor,,,,,,,
837,,886908,HierDyvq8l8wz7,k2u21c8f7y,ms1000255,motor,,76,img/motor_8.png,76,motor,8,189,1,0,0,,
null,,887020,HierDyvq8l8wz7,k2u21c8f7y,ms1000255,iti,,null,img/motor_8.png,76,motor,,,,,,,
465,,887495,HierDyvq8l8wz7,k2u21c8f7y,ms1000255,motor,,75,img/motor_7.png,75,motor,7,190,1,0,0,,
null,,887605,HierDyvq8l8wz7,k2u21c8f7y,ms1000255,iti,,null,img/motor_7.png,75,motor,,,,,,,
410,,888027,HierDyvq8l8wz7,k2u21c8f7y,ms1000255,motor,,65,img/motor_1.png,65,motor,1,191,1,0,0,,
null,,888138,HierDyvq8l8wz7,k2u21c8f7y,ms1000255,iti,,null,img/motor_1.png,65,motor,,,,,,,
537,,888686,HierDyvq8l8wz7,k2u21c8f7y,ms1000255,motor,,70,img/motor_4.png,70,motor,4,192,1,0,0,,
null,,888797,HierDyvq8l8wz7,k2u21c8f7y,ms1000255,iti,,null,img/motor_4.png,70,motor,,,,,,,
526,,889332,HierDyvq8l8wz7,k2u21c8f7y,ms1000255,motor,,74,img/motor_6.png,74,motor,6,193,1,0,0,,
null,,889444,HierDyvq8l8wz7,k2u21c8f7y,ms1000255,iti,,null,img/motor_6.png,74,motor,,,,,,,
445,,889900,HierDyvq8l8wz7,k2u21c8f7y,ms1000255,motor,,70,img/motor_4.png,70,motor,4,194,1,0,0,,
null,,890011,HierDyvq8l8wz7,k2u21c8f7y,ms1000255,iti,,null,img/motor_4.png,70,motor,,,,,,,
468,,890490,HierDyvq8l8wz7,k2u21c8f7y,ms1000255,motor,,65,img/motor_1.png,65,motor,1,195,1,0,0,,
null,,890601,HierDyvq8l8wz7,k2u21c8f7y,ms1000255,iti,,null,img/motor_1.png,65,motor,,,,,,,
363,,890975,HierDyvq8l8wz7,k2u21c8f7y,ms1000255,motor,,65,img/motor_1.png,65,motor,1,196,1,0,0,,
null,,891086,HierDyvq8l8wz7,k2u21c8f7y,ms1000255,iti,,null,img/motor_1.png,65,motor,,,,,,,
502,,891600,HierDyvq8l8wz7,k2u21c8f7y,ms1000255,motor,,75,img/motor_7.png,75,motor,7,197,1,0,0,,
null,,891710,HierDyvq8l8wz7,k2u21c8f7y,ms1000255,iti,,null,img/motor_7.png,75,motor,,,,,,,
360,,892082,HierDyvq8l8wz7,k2u21c8f7y,ms1000255,motor,,76,img/motor_7.png,75,motor,7,198,0,1,0,,
417,,892510,HierDyvq8l8wz7,k2u21c8f7y,ms1000255,motorRepeat,,75,img/motor_7.png,75,motor,7,198,1,0,0,,
null,,892622,HierDyvq8l8wz7,k2u21c8f7y,ms1000255,iti,,null,img/motor_7.png,75,motor,,,,,,,
563,,893196,HierDyvq8l8wz7,k2u21c8f7y,ms1000255,motor,,83,img/motor_2.png,83,motor,2,199,1,0,0,,
null,,893308,HierDyvq8l8wz7,k2u21c8f7y,ms1000255,iti,,null,img/motor_2.png,83,motor,,,,,,,
566,,893885,HierDyvq8l8wz7,k2u21c8f7y,ms1000255,motor,,70,img/motor_4.png,70,motor,4,200,1,0,0,,
null,,893996,HierDyvq8l8wz7,k2u21c8f7y,ms1000255,iti,,null,img/motor_4.png,70,motor,,,,,,,
439,,894445,HierDyvq8l8wz7,k2u21c8f7y,ms1000255,motor,,75,img/motor_8.png,76,motor,8,201,0,1,0,,
199,,894654,HierDyvq8l8wz7,k2u21c8f7y,ms1000255,motorRepeat,,76,img/motor_8.png,76,motor,8,201,1,0,0,,
null,,894766,HierDyvq8l8wz7,k2u21c8f7y,ms1000255,iti,,null,img/motor_8.png,76,motor,,,,,,,
472,,895248,HierDyvq8l8wz7,k2u21c8f7y,ms1000255,motor,,65,img/motor_2.png,83,motor,2,202,0,1,0,,
256,,895514,HierDyvq8l8wz7,k2u21c8f7y,ms1000255,motorRepeat,,83,img/motor_2.png,83,motor,2,202,1,0,0,,
null,,895626,HierDyvq8l8wz7,k2u21c8f7y,ms1000255,iti,,null,img/motor_2.png,83,motor,,,,,,,
554,,896191,HierDyvq8l8wz7,k2u21c8f7y,ms1000255,motor,,65,img/motor_1.png,65,motor,1,203,1,0,0,,
null,,896302,HierDyvq8l8wz7,k2u21c8f7y,ms1000255,iti,,null,img/motor_1.png,65,motor,,,,,,,
622,,896934,HierDyvq8l8wz7,k2u21c8f7y,ms1000255,motor,,75,img/motor_6.png,74,motor,6,204,0,1,0,,
269,,897214,HierDyvq8l8wz7,k2u21c8f7y,ms1000255,motorRepeat,,74,img/motor_6.png,74,motor,6,204,1,0,0,,
null,,897325,HierDyvq8l8wz7,k2u21c8f7y,ms1000255,iti,,null,img/motor_6.png,74,motor,,,,,,,
518,,897854,HierDyvq8l8wz7,k2u21c8f7y,ms1000255,motor,,70,img/motor_4.png,70,motor,4,205,1,0,0,,
null,,897964,HierDyvq8l8wz7,k2u21c8f7y,ms1000255,iti,,null,img/motor_4.png,70,motor,,,,,,,
671,,898647,HierDyvq8l8wz7,k2u21c8f7y,ms1000255,motor,,68,img/motor_3.png,68,motor,3,206,1,0,0,,
null,,898757,HierDyvq8l8wz7,k2u21c8f7y,ms1000255,iti,,null,img/motor_3.png,68,motor,,,,,,,
672,,899440,HierDyvq8l8wz7,k2u21c8f7y,ms1000255,motor,,75,img/motor_7.png,75,motor,7,207,1,0,0,,
null,,899552,HierDyvq8l8wz7,k2u21c8f7y,ms1000255,iti,,null,img/motor_7.png,75,motor,,,,,,,
655,,900219,HierDyvq8l8wz7,k2u21c8f7y,ms1000255,motor,,68,img/motor_3.png,68,motor,3,208,1,0,0,,
null,,900331,HierDyvq8l8wz7,k2u21c8f7y,ms1000255,iti,,null,img/motor_3.png,68,motor,,,,,,,
551,,900895,HierDyvq8l8wz7,k2u21c8f7y,ms1000255,motor,,75,img/motor_7.png,75,motor,7,209,1,0,0,,
null,,901006,HierDyvq8l8wz7,k2u21c8f7y,ms1000255,iti,,null,img/motor_7.png,75,motor,,,,,,,
515,,901532,HierDyvq8l8wz7,k2u21c8f7y,ms1000255,motor,,70,img/motor_4.png,70,motor,4,210,1,0,0,,
null,,901643,HierDyvq8l8wz7,k2u21c8f7y,ms1000255,iti,,null,img/motor_4.png,70,motor,,,,,,,
386,,902040,HierDyvq8l8wz7,k2u21c8f7y,ms1000255,motor,,72,img/motor_5.png,72,motor,5,211,1,0,0,,
null,,902151,HierDyvq8l8wz7,k2u21c8f7y,ms1000255,iti,,null,img/motor_5.png,72,motor,,,,,,,
441,,902601,HierDyvq8l8wz7,k2u21c8f7y,ms1000255,motor,,75,img/motor_7.png,75,motor,7,212,1,0,0,,
null,,902711,HierDyvq8l8wz7,k2u21c8f7y,ms1000255,iti,,null,img/motor_7.png,75,motor,,,,,,,
506,,903230,HierDyvq8l8wz7,k2u21c8f7y,ms1000255,motor,,70,img/motor_4.png,70,motor,4,213,1,0,0,,
null,,903343,HierDyvq8l8wz7,k2u21c8f7y,ms1000255,iti,,null,img/motor_4.png,70,motor,,,,,,,
522,,903877,HierDyvq8l8wz7,k2u21c8f7y,ms1000255,motor,,68,img/motor_3.png,68,motor,3,214,1,0,0,,
null,,903989,HierDyvq8l8wz7,k2u21c8f7y,ms1000255,iti,,null,img/motor_3.png,68,motor,,,,,,,
408,,904409,HierDyvq8l8wz7,k2u21c8f7y,ms1000255,motor,,72,img/motor_5.png,72,motor,5,215,1,0,0,,
null,,904521,HierDyvq8l8wz7,k2u21c8f7y,ms1000255,iti,,null,img/motor_5.png,72,motor,,,,,,,
494,,905027,HierDyvq8l8wz7,k2u21c8f7y,ms1000255,motor,,70,img/motor_4.png,70,motor,4,216,1,0,0,,
null,,905139,HierDyvq8l8wz7,k2u21c8f7y,ms1000255,iti,,null,img/motor_4.png,70,motor,,,,,,,
478,,905627,HierDyvq8l8wz7,k2u21c8f7y,ms1000255,motor,,76,img/motor_8.png,76,motor,8,217,1,0,0,,
null,,905737,HierDyvq8l8wz7,k2u21c8f7y,ms1000255,iti,,null,img/motor_8.png,76,motor,,,,,,,
587,,906336,HierDyvq8l8wz7,k2u21c8f7y,ms1000255,motor,,83,img/motor_3.png,68,motor,3,218,0,1,0,,
205,,906552,HierDyvq8l8wz7,k2u21c8f7y,ms1000255,motorRepeat,,68,img/motor_3.png,68,motor,3,218,1,0,0,,
null,,906663,HierDyvq8l8wz7,k2u21c8f7y,ms1000255,iti,,null,img/motor_3.png,68,motor,,,,,,,
451,,907126,HierDyvq8l8wz7,k2u21c8f7y,ms1000255,motor,,76,img/motor_8.png,76,motor,8,219,1,0,0,,
null,,907238,HierDyvq8l8wz7,k2u21c8f7y,ms1000255,iti,,null,img/motor_8.png,76,motor,,,,,,,
562,,907810,HierDyvq8l8wz7,k2u21c8f7y,ms1000255,motor,,83,img/motor_2.png,83,motor,2,220,1,0,0,,
null,,907921,HierDyvq8l8wz7,k2u21c8f7y,ms1000255,iti,,null,img/motor_2.png,83,motor,,,,,,,
627,,908558,HierDyvq8l8wz7,k2u21c8f7y,ms1000255,motor,,75,img/motor_7.png,75,motor,7,221,1,0,0,,
null,,908670,HierDyvq8l8wz7,k2u21c8f7y,ms1000255,iti,,null,img/motor_7.png,75,motor,,,,,,,
426,,909106,HierDyvq8l8wz7,k2u21c8f7y,ms1000255,motor,,72,img/motor_5.png,72,motor,5,222,1,0,0,,
null,,909219,HierDyvq8l8wz7,k2u21c8f7y,ms1000255,iti,,null,img/motor_5.png,72,motor,,,,,,,
413,,909642,HierDyvq8l8wz7,k2u21c8f7y,ms1000255,motor,,70,img/motor_4.png,70,motor,4,223,1,0,0,,
null,,909754,HierDyvq8l8wz7,k2u21c8f7y,ms1000255,iti,,null,img/motor_4.png,70,motor,,,,,,,
597,,910361,HierDyvq8l8wz7,k2u21c8f7y,ms1000255,motor,,75,img/motor_6.png,74,motor,6,224,0,1,0,,
145,,910516,HierDyvq8l8wz7,k2u21c8f7y,ms1000255,motorRepeat,,74,img/motor_6.png,74,motor,6,224,1,0,0,,
null,,910627,HierDyvq8l8wz7,k2u21c8f7y,ms1000255,iti,,null,img/motor_6.png,74,motor,,,,,,,
446,,911085,HierDyvq8l8wz7,k2u21c8f7y,ms1000255,motor,,76,img/motor_8.png,76,motor,8,225,1,0,0,,
null,,911196,HierDyvq8l8wz7,k2u21c8f7y,ms1000255,iti,,null,img/motor_8.png,76,motor,,,,,,,
530,,911736,HierDyvq8l8wz7,k2u21c8f7y,ms1000255,motor,,65,img/motor_1.png,65,motor,1,226,1,0,0,,
null,,911848,HierDyvq8l8wz7,k2u21c8f7y,ms1000255,iti,,null,img/motor_1.png,65,motor,,,,,,,
393,,912253,HierDyvq8l8wz7,k2u21c8f7y,ms1000255,motor,,70,img/motor_4.png,70,motor,4,227,1,0,0,,
null,,912365,HierDyvq8l8wz7,k2u21c8f7y,ms1000255,iti,,null,img/motor_4.png,70,motor,,,,,,,
358,,912735,HierDyvq8l8wz7,k2u21c8f7y,ms1000255,motor,,76,img/motor_8.png,76,motor,8,228,1,0,0,,
null,,912847,HierDyvq8l8wz7,k2u21c8f7y,ms1000255,iti,,null,img/motor_8.png,76,motor,,,,,,,
430,,913287,HierDyvq8l8wz7,k2u21c8f7y,ms1000255,motor,,72,img/motor_5.png,72,motor,5,229,1,0,0,,
null,,913398,HierDyvq8l8wz7,k2u21c8f7y,ms1000255,iti,,null,img/motor_5.png,72,motor,,,,,,,
432,,913841,HierDyvq8l8wz7,k2u21c8f7y,ms1000255,motor,,70,img/motor_4.png,70,motor,4,230,1,0,0,,
null,,913952,HierDyvq8l8wz7,k2u21c8f7y,ms1000255,iti,,null,img/motor_4.png,70,motor,,,,,,,
500,,914461,HierDyvq8l8wz7,k2u21c8f7y,ms1000255,motor,,83,img/motor_2.png,83,motor,2,231,1,0,0,,
null,,914572,HierDyvq8l8wz7,k2u21c8f7y,ms1000255,iti,,null,img/motor_2.png,83,motor,,,,,,,
799,,915383,HierDyvq8l8wz7,k2u21c8f7y,ms1000255,motor,,75,img/motor_7.png,75,motor,7,232,1,0,0,,
null,,915494,HierDyvq8l8wz7,k2u21c8f7y,ms1000255,iti,,null,img/motor_7.png,75,motor,,,,,,,
432,,915937,HierDyvq8l8wz7,k2u21c8f7y,ms1000255,motor,,74,img/motor_6.png,74,motor,6,233,1,0,0,,
null,,916047,HierDyvq8l8wz7,k2u21c8f7y,ms1000255,iti,,null,img/motor_6.png,74,motor,,,,,,,
566,,916624,HierDyvq8l8wz7,k2u21c8f7y,ms1000255,motor,,68,img/motor_3.png,68,motor,3,234,1,0,0,,
null,,916737,HierDyvq8l8wz7,k2u21c8f7y,ms1000255,iti,,null,img/motor_3.png,68,motor,,,,,,,
455,,917202,HierDyvq8l8wz7,k2u21c8f7y,ms1000255,motor,,83,img/motor_2.png,83,motor,2,235,1,0,0,,
null,,917313,HierDyvq8l8wz7,k2u21c8f7y,ms1000255,iti,,null,img/motor_2.png,83,motor,,,,,,,
566,,917889,HierDyvq8l8wz7,k2u21c8f7y,ms1000255,motor,,75,img/motor_7.png,75,motor,7,236,1,0,0,,
null,,918001,HierDyvq8l8wz7,k2u21c8f7y,ms1000255,iti,,null,img/motor_7.png,75,motor,,,,,,,
584,,918597,HierDyvq8l8wz7,k2u21c8f7y,ms1000255,motor,,68,img/motor_3.png,68,motor,3,237,1,0,0,,
null,,918709,HierDyvq8l8wz7,k2u21c8f7y,ms1000255,iti,,null,img/motor_3.png,68,motor,,,,,,,
620,,919339,HierDyvq8l8wz7,k2u21c8f7y,ms1000255,motor,,70,img/motor_4.png,70,motor,4,238,1,0,0,,
null,,919451,HierDyvq8l8wz7,k2u21c8f7y,ms1000255,iti,,null,img/motor_4.png,70,motor,,,,,,,
466,,919927,HierDyvq8l8wz7,k2u21c8f7y,ms1000255,motor,,83,img/motor_2.png,83,motor,2,239,1,0,0,,
null,,920039,HierDyvq8l8wz7,k2u21c8f7y,ms1000255,iti,,null,img/motor_2.png,83,motor,,,,,,,
379,,920428,HierDyvq8l8wz7,k2u21c8f7y,ms1000255,motor,,70,img/motor_4.png,70,motor,4,240,1,0,0,,
null,,920540,HierDyvq8l8wz7,k2u21c8f7y,ms1000255,iti,,null,img/motor_4.png,70,motor,,,,,,,
484,,921036,HierDyvq8l8wz7,k2u21c8f7y,ms1000255,motor,,76,img/motor_8.png,76,motor,8,241,1,0,0,,
null,,921147,HierDyvq8l8wz7,k2u21c8f7y,ms1000255,iti,,null,img/motor_8.png,76,motor,,,,,,,
401,,921558,HierDyvq8l8wz7,k2u21c8f7y,ms1000255,motor,,72,img/motor_5.png,72,motor,5,242,1,0,0,,
null,,921669,HierDyvq8l8wz7,k2u21c8f7y,ms1000255,iti,,null,img/motor_5.png,72,motor,,,,,,,
341,,922021,HierDyvq8l8wz7,k2u21c8f7y,ms1000255,motor,,72,img/motor_5.png,72,motor,5,243,1,0,0,,
null,,922132,HierDyvq8l8wz7,k2u21c8f7y,ms1000255,iti,,null,img/motor_5.png,72,motor,,,,,,,
470,,922613,HierDyvq8l8wz7,k2u21c8f7y,ms1000255,motor,,74,img/motor_6.png,74,motor,6,244,1,0,0,,
null,,922726,HierDyvq8l8wz7,k2u21c8f7y,ms1000255,iti,,null,img/motor_6.png,74,motor,,,,,,,
433,,923169,HierDyvq8l8wz7,k2u21c8f7y,ms1000255,motor,,68,img/motor_3.png,68,motor,3,245,1,0,0,,
null,,923281,HierDyvq8l8wz7,k2u21c8f7y,ms1000255,iti,,null,img/motor_3.png,68,motor,,,,,,,
409,,923702,HierDyvq8l8wz7,k2u21c8f7y,ms1000255,motor,,65,img/motor_1.png,65,motor,1,246,1,0,0,,
null,,923813,HierDyvq8l8wz7,k2u21c8f7y,ms1000255,iti,,null,img/motor_1.png,65,motor,,,,,,,
591,,924414,HierDyvq8l8wz7,k2u21c8f7y,ms1000255,motor,,75,img/motor_7.png,75,motor,7,247,1,0,0,,
null,,924526,HierDyvq8l8wz7,k2u21c8f7y,ms1000255,iti,,null,img/motor_7.png,75,motor,,,,,,,
616,,925153,HierDyvq8l8wz7,k2u21c8f7y,ms1000255,motor,,83,img/motor_2.png,83,motor,2,248,1,0,0,,
null,,925264,HierDyvq8l8wz7,k2u21c8f7y,ms1000255,iti,,null,img/motor_2.png,83,motor,,,,,,,
299,,925574,HierDyvq8l8wz7,k2u21c8f7y,ms1000255,motor,,68,img/motor_3.png,68,motor,3,249,1,0,0,,
null,,925685,HierDyvq8l8wz7,k2u21c8f7y,ms1000255,iti,,null,img/motor_3.png,68,motor,,,,,,,
592,,926287,HierDyvq8l8wz7,k2u21c8f7y,ms1000255,motor,,74,img/motor_6.png,74,motor,6,250,1,0,0,,
null,,926398,HierDyvq8l8wz7,k2u21c8f7y,ms1000255,iti,,null,img/motor_6.png,74,motor,,,,,,,
439,,926845,HierDyvq8l8wz7,k2u21c8f7y,ms1000255,motor,,65,img/motor_1.png,65,motor,1,251,1,0,0,,
null,,926957,HierDyvq8l8wz7,k2u21c8f7y,ms1000255,iti,,null,img/motor_1.png,65,motor,,,,,,,
317,,927284,HierDyvq8l8wz7,k2u21c8f7y,ms1000255,motor,,65,img/motor_1.png,65,motor,1,252,1,0,0,,
null,,927394,HierDyvq8l8wz7,k2u21c8f7y,ms1000255,iti,,null,img/motor_1.png,65,motor,,,,,,,
561,,927967,HierDyvq8l8wz7,k2u21c8f7y,ms1000255,motor,,68,img/motor_3.png,68,motor,3,253,1,0,0,,
null,,928078,HierDyvq8l8wz7,k2u21c8f7y,ms1000255,iti,,null,img/motor_3.png,68,motor,,,,,,,
361,,928450,HierDyvq8l8wz7,k2u21c8f7y,ms1000255,motor,,68,img/motor_3.png,68,motor,3,254,1,0,0,,
null,,928562,HierDyvq8l8wz7,k2u21c8f7y,ms1000255,iti,,null,img/motor_3.png,68,motor,,,,,,,
578,,929152,HierDyvq8l8wz7,k2u21c8f7y,ms1000255,motor,,70,img/motor_4.png,70,motor,4,255,1,0,0,,
null,,929263,HierDyvq8l8wz7,k2u21c8f7y,ms1000255,iti,,null,img/motor_4.png,70,motor,,,,,,,
306,,929580,HierDyvq8l8wz7,k2u21c8f7y,ms1000255,motor,,70,img/motor_4.png,70,motor,4,256,1,0,0,,
null,,929691,HierDyvq8l8wz7,k2u21c8f7y,ms1000255,iti,,null,img/motor_4.png,70,motor,,,,,,,
515,,930216,HierDyvq8l8wz7,k2u21c8f7y,ms1000255,motor,,68,img/motor_3.png,68,motor,3,257,1,0,0,,
null,,930328,HierDyvq8l8wz7,k2u21c8f7y,ms1000255,iti,,null,img/motor_3.png,68,motor,,,,,,,
636,,930973,HierDyvq8l8wz7,k2u21c8f7y,ms1000255,motor,,74,img/motor_6.png,74,motor,6,258,1,0,0,,
null,,931085,HierDyvq8l8wz7,k2u21c8f7y,ms1000255,iti,,null,img/motor_6.png,74,motor,,,,,,,
425,,931521,HierDyvq8l8wz7,k2u21c8f7y,ms1000255,motor,,68,img/motor_3.png,68,motor,3,259,1,0,0,,
null,,931633,HierDyvq8l8wz7,k2u21c8f7y,ms1000255,iti,,null,img/motor_3.png,68,motor,,,,,,,
331,,931975,HierDyvq8l8wz7,k2u21c8f7y,ms1000255,motor,,68,img/motor_3.png,68,motor,3,260,1,0,0,,
null,,932087,HierDyvq8l8wz7,k2u21c8f7y,ms1000255,iti,,null,img/motor_3.png,68,motor,,,,,,,
548,,932646,HierDyvq8l8wz7,k2u21c8f7y,ms1000255,motor,,65,img/motor_1.png,65,motor,1,261,1,0,0,,
null,,932757,HierDyvq8l8wz7,k2u21c8f7y,ms1000255,iti,,null,img/motor_1.png,65,motor,,,,,,,
275,,933043,HierDyvq8l8wz7,k2u21c8f7y,ms1000255,motor,,68,img/motor_3.png,68,motor,3,262,1,0,0,,
null,,933155,HierDyvq8l8wz7,k2u21c8f7y,ms1000255,iti,,null,img/motor_3.png,68,motor,,,,,,,
520,,933685,HierDyvq8l8wz7,k2u21c8f7y,ms1000255,motor,,72,img/motor_5.png,72,motor,5,263,1,0,0,,
null,,933796,HierDyvq8l8wz7,k2u21c8f7y,ms1000255,iti,,null,img/motor_5.png,72,motor,,,,,,,
339,,934147,HierDyvq8l8wz7,k2u21c8f7y,ms1000255,motor,,76,img/motor_8.png,76,motor,8,264,1,0,0,,
null,,934260,HierDyvq8l8wz7,k2u21c8f7y,ms1000255,iti,,null,img/motor_8.png,76,motor,,,,,,,
356,,934627,HierDyvq8l8wz7,k2u21c8f7y,ms1000255,motor,,65,img/motor_1.png,65,motor,1,265,1,0,0,,
null,,934739,HierDyvq8l8wz7,k2u21c8f7y,ms1000255,iti,,null,img/motor_1.png,65,motor,,,,,,,
721,,935470,HierDyvq8l8wz7,k2u21c8f7y,ms1000255,motor,,75,img/motor_7.png,75,motor,7,266,1,0,0,,
null,,935582,HierDyvq8l8wz7,k2u21c8f7y,ms1000255,iti,,null,img/motor_7.png,75,motor,,,,,,,
597,,936189,HierDyvq8l8wz7,k2u21c8f7y,ms1000255,motor,,83,img/motor_2.png,83,motor,2,267,1,0,0,,
null,,936301,HierDyvq8l8wz7,k2u21c8f7y,ms1000255,iti,,null,img/motor_2.png,83,motor,,,,,,,
404,,936715,HierDyvq8l8wz7,k2u21c8f7y,ms1000255,motor,,65,img/motor_1.png,65,motor,1,268,1,0,0,,
null,,936827,HierDyvq8l8wz7,k2u21c8f7y,ms1000255,iti,,null,img/motor_1.png,65,motor,,,,,,,
446,,937284,HierDyvq8l8wz7,k2u21c8f7y,ms1000255,motor,,70,img/motor_4.png,70,motor,4,269,1,0,0,,
null,,937395,HierDyvq8l8wz7,k2u21c8f7y,ms1000255,iti,,null,img/motor_4.png,70,motor,,,,,,,
324,,937730,HierDyvq8l8wz7,k2u21c8f7y,ms1000255,motor,,68,img/motor_3.png,68,motor,3,270,1,0,0,,
null,,937842,HierDyvq8l8wz7,k2u21c8f7y,ms1000255,iti,,null,img/motor_3.png,68,motor,,,,,,,
355,,938207,HierDyvq8l8wz7,k2u21c8f7y,ms1000255,motor,,65,img/motor_1.png,65,motor,1,271,1,0,0,,
null,,938318,HierDyvq8l8wz7,k2u21c8f7y,ms1000255,iti,,null,img/motor_1.png,65,motor,,,,,,,
550,,938879,HierDyvq8l8wz7,k2u21c8f7y,ms1000255,motor,,74,img/motor_6.png,74,motor,6,272,1,0,0,,
null,,938991,HierDyvq8l8wz7,k2u21c8f7y,ms1000255,iti,,null,img/motor_6.png,74,motor,,,,,,,
570,,939572,HierDyvq8l8wz7,k2u21c8f7y,ms1000255,motor,,65,img/motor_1.png,65,motor,1,273,1,0,0,,
null,,939684,HierDyvq8l8wz7,k2u21c8f7y,ms1000255,iti,,null,img/motor_1.png,65,motor,,,,,,,
310,,940004,HierDyvq8l8wz7,k2u21c8f7y,ms1000255,motor,,65,img/motor_1.png,65,motor,1,274,1,0,0,,
null,,940115,HierDyvq8l8wz7,k2u21c8f7y,ms1000255,iti,,null,img/motor_1.png,65,motor,,,,,,,
480,,940606,HierDyvq8l8wz7,k2u21c8f7y,ms1000255,motor,,83,img/motor_2.png,83,motor,2,275,1,0,0,,
null,,940718,HierDyvq8l8wz7,k2u21c8f7y,ms1000255,iti,,null,img/motor_2.png,83,motor,,,,,,,
463,,941193,HierDyvq8l8wz7,k2u21c8f7y,ms1000255,motor,,76,img/motor_8.png,76,motor,8,276,1,0,0,,
null,,941305,HierDyvq8l8wz7,k2u21c8f7y,ms1000255,iti,,null,img/motor_8.png,76,motor,,,,,,,
371,,941684,HierDyvq8l8wz7,k2u21c8f7y,ms1000255,motor,,65,img/motor_1.png,65,motor,1,277,1,0,0,,
null,,941796,HierDyvq8l8wz7,k2u21c8f7y,ms1000255,iti,,null,img/motor_1.png,65,motor,,,,,,,
599,,942405,HierDyvq8l8wz7,k2u21c8f7y,ms1000255,motor,,75,img/motor_7.png,75,motor,7,278,1,0,0,,
null,,942516,HierDyvq8l8wz7,k2u21c8f7y,ms1000255,iti,,null,img/motor_7.png,75,motor,,,,,,,
719,,943246,HierDyvq8l8wz7,k2u21c8f7y,ms1000255,motor,,68,img/motor_3.png,68,motor,3,279,1,0,0,,
null,,943357,HierDyvq8l8wz7,k2u21c8f7y,ms1000255,iti,,null,img/motor_3.png,68,motor,,,,,,,
486,,943853,HierDyvq8l8wz7,k2u21c8f7y,ms1000255,motor,,75,img/motor_7.png,75,motor,7,280,1,0,0,,
null,,943964,HierDyvq8l8wz7,k2u21c8f7y,ms1000255,iti,,null,img/motor_7.png,75,motor,,,,,,,
479,,944455,HierDyvq8l8wz7,k2u21c8f7y,ms1000255,motor,,74,img/motor_6.png,74,motor,6,281,1,0,0,,
null,,944566,HierDyvq8l8wz7,k2u21c8f7y,ms1000255,iti,,null,img/motor_6.png,74,motor,,,,,,,
451,,945027,HierDyvq8l8wz7,k2u21c8f7y,ms1000255,motor,,75,img/motor_7.png,75,motor,7,282,1,0,0,,
null,,945140,HierDyvq8l8wz7,k2u21c8f7y,ms1000255,iti,,null,img/motor_7.png,75,motor,,,,,,,
358,,945509,HierDyvq8l8wz7,k2u21c8f7y,ms1000255,motor,,74,img/motor_6.png,74,motor,6,283,1,0,0,,
null,,945620,HierDyvq8l8wz7,k2u21c8f7y,ms1000255,iti,,null,img/motor_6.png,74,motor,,,,,,,
442,,946073,HierDyvq8l8wz7,k2u21c8f7y,ms1000255,motor,,72,img/motor_5.png,72,motor,5,284,1,0,0,,
null,,946184,HierDyvq8l8wz7,k2u21c8f7y,ms1000255,iti,,null,img/motor_5.png,72,motor,,,,,,,
343,,946538,HierDyvq8l8wz7,k2u21c8f7y,ms1000255,motor,,74,img/motor_6.png,74,motor,6,285,1,0,0,,
null,,946649,HierDyvq8l8wz7,k2u21c8f7y,ms1000255,iti,,null,img/motor_6.png,74,motor,,,,,,,
405,,947066,HierDyvq8l8wz7,k2u21c8f7y,ms1000255,motor,,72,img/motor_5.png,72,motor,5,286,1,0,0,,
null,,947177,HierDyvq8l8wz7,k2u21c8f7y,ms1000255,iti,,null,img/motor_5.png,72,motor,,,,,,,
571,,947760,HierDyvq8l8wz7,k2u21c8f7y,ms1000255,motor,,83,img/motor_2.png,83,motor,2,287,1,0,0,,
null,,947870,HierDyvq8l8wz7,k2u21c8f7y,ms1000255,iti,,null,img/motor_2.png,83,motor,,,,,,,
343,,948225,HierDyvq8l8wz7,k2u21c8f7y,ms1000255,motor,,70,img/motor_4.png,70,motor,4,288,1,0,0,,
null,,948336,HierDyvq8l8wz7,k2u21c8f7y,ms1000255,iti,,null,img/motor_4.png,70,motor,,,,,,,
379,,948727,HierDyvq8l8wz7,k2u21c8f7y,ms1000255,motor,,65,img/motor_1.png,65,motor,1,289,1,0,0,,
null,,948838,HierDyvq8l8wz7,k2u21c8f7y,ms1000255,iti,,null,img/motor_1.png,65,motor,,,,,,,
322,,949169,HierDyvq8l8wz7,k2u21c8f7y,ms1000255,motor,,70,img/motor_4.png,70,motor,4,290,1,0,0,,
null,,949281,HierDyvq8l8wz7,k2u21c8f7y,ms1000255,iti,,null,img/motor_4.png,70,motor,,,,,,,
422,,949714,HierDyvq8l8wz7,k2u21c8f7y,ms1000255,motor,,72,img/motor_5.png,72,motor,5,291,1,0,0,,
null,,949827,HierDyvq8l8wz7,k2u21c8f7y,ms1000255,iti,,null,img/motor_5.png,72,motor,,,,,,,
326,,950163,HierDyvq8l8wz7,k2u21c8f7y,ms1000255,motor,,72,img/motor_5.png,72,motor,5,292,1,0,0,,
null,,950274,HierDyvq8l8wz7,k2u21c8f7y,ms1000255,iti,,null,img/motor_5.png,72,motor,,,,,,,
456,,950740,HierDyvq8l8wz7,k2u21c8f7y,ms1000255,motor,,70,img/motor_4.png,70,motor,4,293,1,0,0,,
null,,950851,HierDyvq8l8wz7,k2u21c8f7y,ms1000255,iti,,null,img/motor_4.png,70,motor,,,,,,,
318,,951181,HierDyvq8l8wz7,k2u21c8f7y,ms1000255,motor,,70,img/motor_4.png,70,motor,4,294,1,0,0,,
null,,951293,HierDyvq8l8wz7,k2u21c8f7y,ms1000255,iti,,null,img/motor_4.png,70,motor,,,,,,,
480,,951783,HierDyvq8l8wz7,k2u21c8f7y,ms1000255,motor,,75,img/motor_7.png,75,motor,7,295,1,0,0,,
null,,951895,HierDyvq8l8wz7,k2u21c8f7y,ms1000255,iti,,null,img/motor_7.png,75,motor,,,,,,,
410,,952316,HierDyvq8l8wz7,k2u21c8f7y,ms1000255,motor,,72,img/motor_5.png,72,motor,5,296,1,0,0,,
null,,952427,HierDyvq8l8wz7,k2u21c8f7y,ms1000255,iti,,null,img/motor_5.png,72,motor,,,,,,,
500,,952938,HierDyvq8l8wz7,k2u21c8f7y,ms1000255,motor,,68,img/motor_3.png,68,motor,3,297,1,0,0,,
null,,953050,HierDyvq8l8wz7,k2u21c8f7y,ms1000255,iti,,null,img/motor_3.png,68,motor,,,,,,,
489,,953549,HierDyvq8l8wz7,k2u21c8f7y,ms1000255,motor,,72,img/motor_5.png,72,motor,5,298,1,0,0,,
null,,953660,HierDyvq8l8wz7,k2u21c8f7y,ms1000255,iti,,null,img/motor_5.png,72,motor,,,,,,,
407,,954078,HierDyvq8l8wz7,k2u21c8f7y,ms1000255,motor,,75,img/motor_7.png,75,motor,7,299,1,0,0,,
null,,954190,HierDyvq8l8wz7,k2u21c8f7y,ms1000255,iti,,null,img/motor_7.png,75,motor,,,,,,,
334,,954535,HierDyvq8l8wz7,k2u21c8f7y,ms1000255,motor,,75,img/motor_7.png,75,motor,7,300,1,0,0,,
null,,954647,HierDyvq8l8wz7,k2u21c8f7y,ms1000255,iti,,null,img/motor_7.png,75,motor,,,,,,,
434,,955090,HierDyvq8l8wz7,k2u21c8f7y,ms1000255,motor,,70,img/motor_4.png,70,motor,4,301,1,0,0,,
null,,955203,HierDyvq8l8wz7,k2u21c8f7y,ms1000255,iti,,null,img/motor_4.png,70,motor,,,,,,,
524,,955737,HierDyvq8l8wz7,k2u21c8f7y,ms1000255,motor,,83,img/motor_2.png,83,motor,2,302,1,0,0,,
null,,955848,HierDyvq8l8wz7,k2u21c8f7y,ms1000255,iti,,null,img/motor_2.png,83,motor,,,,,,,
503,,956362,HierDyvq8l8wz7,k2u21c8f7y,ms1000255,motor,,74,img/motor_6.png,74,motor,6,303,1,0,0,,
null,,956474,HierDyvq8l8wz7,k2u21c8f7y,ms1000255,iti,,null,img/motor_6.png,74,motor,,,,,,,
383,,956868,HierDyvq8l8wz7,k2u21c8f7y,ms1000255,motor,,75,img/motor_7.png,75,motor,7,304,1,0,0,,
null,,956980,HierDyvq8l8wz7,k2u21c8f7y,ms1000255,iti,,null,img/motor_7.png,75,motor,,,,,,,
388,,957379,HierDyvq8l8wz7,k2u21c8f7y,ms1000255,motor,,72,img/motor_5.png,72,motor,5,305,1,0,0,,
null,,957491,HierDyvq8l8wz7,k2u21c8f7y,ms1000255,iti,,null,img/motor_5.png,72,motor,,,,,,,
431,,957931,HierDyvq8l8wz7,k2u21c8f7y,ms1000255,motor,,65,img/motor_1.png,65,motor,1,306,1,0,0,,
null,,958043,HierDyvq8l8wz7,k2u21c8f7y,ms1000255,iti,,null,img/motor_1.png,65,motor,,,,,,,
359,,958413,HierDyvq8l8wz7,k2u21c8f7y,ms1000255,motor,,70,img/motor_4.png,70,motor,4,307,1,0,0,,
null,,958525,HierDyvq8l8wz7,k2u21c8f7y,ms1000255,iti,,null,img/motor_4.png,70,motor,,,,,,,
370,,958905,HierDyvq8l8wz7,k2u21c8f7y,ms1000255,motor,,65,img/motor_1.png,65,motor,1,308,1,0,0,,
null,,959017,HierDyvq8l8wz7,k2u21c8f7y,ms1000255,iti,,null,img/motor_1.png,65,motor,,,,,,,
459,,959487,HierDyvq8l8wz7,k2u21c8f7y,ms1000255,motor,,68,img/motor_3.png,68,motor,3,309,1,0,0,,
null,,959599,HierDyvq8l8wz7,k2u21c8f7y,ms1000255,iti,,null,img/motor_3.png,68,motor,,,,,,,
335,,959945,HierDyvq8l8wz7,k2u21c8f7y,ms1000255,motor,,70,img/motor_4.png,70,motor,4,310,1,0,0,,
null,,960056,HierDyvq8l8wz7,k2u21c8f7y,ms1000255,iti,,null,img/motor_4.png,70,motor,,,,,,,
560,,960626,HierDyvq8l8wz7,k2u21c8f7y,ms1000255,motor,,74,img/motor_6.png,74,motor,6,311,1,0,0,,
null,,960738,HierDyvq8l8wz7,k2u21c8f7y,ms1000255,iti,,null,img/motor_6.png,74,motor,,,,,,,
371,,961120,HierDyvq8l8wz7,k2u21c8f7y,ms1000255,motor,,70,img/motor_4.png,70,motor,4,312,1,0,0,,
null,,961232,HierDyvq8l8wz7,k2u21c8f7y,ms1000255,iti,,null,img/motor_4.png,70,motor,,,,,,,
450,,961692,HierDyvq8l8wz7,k2u21c8f7y,ms1000255,motor,,76,img/motor_7.png,75,motor,7,313,0,1,0,,
249,,961953,HierDyvq8l8wz7,k2u21c8f7y,ms1000255,motorRepeat,,75,img/motor_7.png,75,motor,7,313,1,0,0,,
null,,962064,HierDyvq8l8wz7,k2u21c8f7y,ms1000255,iti,,null,img/motor_7.png,75,motor,,,,,,,
334,,962410,HierDyvq8l8wz7,k2u21c8f7y,ms1000255,motor,,76,img/motor_8.png,76,motor,8,314,1,0,0,,
null,,962521,HierDyvq8l8wz7,k2u21c8f7y,ms1000255,iti,,null,img/motor_8.png,76,motor,,,,,,,
389,,962919,HierDyvq8l8wz7,k2u21c8f7y,ms1000255,motor,,65,img/motor_1.png,65,motor,1,315,1,0,0,,
null,,963032,HierDyvq8l8wz7,k2u21c8f7y,ms1000255,iti,,null,img/motor_1.png,65,motor,,,,,,,
450,,963493,HierDyvq8l8wz7,k2u21c8f7y,ms1000255,motor,,76,img/motor_8.png,76,motor,8,316,1,0,0,,
null,,963604,HierDyvq8l8wz7,k2u21c8f7y,ms1000255,iti,,null,img/motor_8.png,76,motor,,,,,,,
430,,964046,HierDyvq8l8wz7,k2u21c8f7y,ms1000255,motor,,74,img/motor_6.png,74,motor,6,317,1,0,0,,
null,,964159,HierDyvq8l8wz7,k2u21c8f7y,ms1000255,iti,,null,img/motor_6.png,74,motor,,,,,,,
352,,964523,HierDyvq8l8wz7,k2u21c8f7y,ms1000255,motor,,75,img/motor_7.png,75,motor,7,318,1,0,0,,
null,,964635,HierDyvq8l8wz7,k2u21c8f7y,ms1000255,iti,,null,img/motor_7.png,75,motor,,,,,,,
416,,965062,HierDyvq8l8wz7,k2u21c8f7y,ms1000255,motor,,65,img/motor_1.png,65,motor,1,319,1,0,0,,
null,,965173,HierDyvq8l8wz7,k2u21c8f7y,ms1000255,iti,,null,img/motor_1.png,65,motor,,,,,,,
612,,965796,HierDyvq8l8wz7,k2u21c8f7y,ms1000255,motor,,72,img/motor_5.png,72,motor,5,320,1,0,0,,
null,,965907,HierDyvq8l8wz7,k2u21c8f7y,ms1000255,iti,,null,img/motor_5.png,72,motor,,,,,,,
425,,966343,HierDyvq8l8wz7,k2u21c8f7y,ms1000255,motor,,68,img/motor_3.png,68,motor,3,321,1,0,0,,
null,,966455,HierDyvq8l8wz7,k2u21c8f7y,ms1000255,iti,,null,img/motor_3.png,68,motor,,,,,,,
536,,967003,HierDyvq8l8wz7,k2u21c8f7y,ms1000255,motor,,75,img/motor_7.png,75,motor,7,322,1,0,0,,
null,,967115,HierDyvq8l8wz7,k2u21c8f7y,ms1000255,iti,,null,img/motor_7.png,75,motor,,,,,,,
740,,967864,HierDyvq8l8wz7,k2u21c8f7y,ms1000255,motor,,76,img/motor_8.png,76,motor,8,323,1,0,0,,
null,,967976,HierDyvq8l8wz7,k2u21c8f7y,ms1000255,iti,,null,img/motor_8.png,76,motor,,,,,,,
640,,968630,HierDyvq8l8wz7,k2u21c8f7y,ms1000255,motor,,83,img/motor_2.png,83,motor,2,324,1,0,0,,
null,,968743,HierDyvq8l8wz7,k2u21c8f7y,ms1000255,iti,,null,img/motor_2.png,83,motor,,,,,,,
405,,969161,HierDyvq8l8wz7,k2u21c8f7y,ms1000255,motor,,68,img/motor_3.png,68,motor,3,325,1,0,0,,
null,,969273,HierDyvq8l8wz7,k2u21c8f7y,ms1000255,iti,,null,img/motor_3.png,68,motor,,,,,,,
554,,969838,HierDyvq8l8wz7,k2u21c8f7y,ms1000255,motor,,72,img/motor_5.png,72,motor,5,326,1,0,0,,
null,,969951,HierDyvq8l8wz7,k2u21c8f7y,ms1000255,iti,,null,img/motor_5.png,72,motor,,,,,,,
467,,970430,HierDyvq8l8wz7,k2u21c8f7y,ms1000255,motor,,76,img/motor_8.png,76,motor,8,327,1,0,0,,
null,,970542,HierDyvq8l8wz7,k2u21c8f7y,ms1000255,iti,,null,img/motor_8.png,76,motor,,,,,,,
519,,971072,HierDyvq8l8wz7,k2u21c8f7y,ms1000255,motor,,72,img/motor_5.png,72,motor,5,328,1,0,0,,
null,,971184,HierDyvq8l8wz7,k2u21c8f7y,ms1000255,iti,,null,img/motor_5.png,72,motor,,,,,,,
506,,971700,HierDyvq8l8wz7,k2u21c8f7y,ms1000255,motor,,68,img/motor_2.png,83,motor,2,329,0,1,0,,
274,,971987,HierDyvq8l8wz7,k2u21c8f7y,ms1000255,motorRepeat,,83,img/motor_2.png,83,motor,2,329,1,0,0,,
null,,972099,HierDyvq8l8wz7,k2u21c8f7y,ms1000255,iti,,null,img/motor_2.png,83,motor,,,,,,,
344,,972454,HierDyvq8l8wz7,k2u21c8f7y,ms1000255,motor,,68,img/motor_3.png,68,motor,3,330,1,0,0,,
null,,972566,HierDyvq8l8wz7,k2u21c8f7y,ms1000255,iti,,null,img/motor_3.png,68,motor,,,,,,,
385,,972961,HierDyvq8l8wz7,k2u21c8f7y,ms1000255,motor,,70,img/motor_4.png,70,motor,4,331,1,0,0,,
null,,973073,HierDyvq8l8wz7,k2u21c8f7y,ms1000255,iti,,null,img/motor_4.png,70,motor,,,,,,,
378,,973463,HierDyvq8l8wz7,k2u21c8f7y,ms1000255,motor,,83,img/motor_2.png,83,motor,2,332,1,0,0,,
null,,973574,HierDyvq8l8wz7,k2u21c8f7y,ms1000255,iti,,null,img/motor_2.png,83,motor,,,,,,,
460,,974043,HierDyvq8l8wz7,k2u21c8f7y,ms1000255,motor,,76,img/motor_8.png,76,motor,8,333,1,0,0,,
null,,974154,HierDyvq8l8wz7,k2u21c8f7y,ms1000255,iti,,null,img/motor_8.png,76,motor,,,,,,,
387,,974552,HierDyvq8l8wz7,k2u21c8f7y,ms1000255,motor,,65,img/motor_1.png,65,motor,1,334,1,0,0,,
null,,974663,HierDyvq8l8wz7,k2u21c8f7y,ms1000255,iti,,null,img/motor_1.png,65,motor,,,,,,,
538,,975212,HierDyvq8l8wz7,k2u21c8f7y,ms1000255,motor,,75,img/motor_7.png,75,motor,7,335,1,0,0,,
null,,975324,HierDyvq8l8wz7,k2u21c8f7y,ms1000255,iti,,null,img/motor_7.png,75,motor,,,,,,,
476,,975811,HierDyvq8l8wz7,k2u21c8f7y,ms1000255,motor,,68,img/motor_3.png,68,motor,3,336,1,0,0,,
null,,975923,HierDyvq8l8wz7,k2u21c8f7y,ms1000255,iti,,null,img/motor_3.png,68,motor,,,,,,,
370,,976303,HierDyvq8l8wz7,k2u21c8f7y,ms1000255,motor,,65,img/motor_1.png,65,motor,1,337,1,0,0,,
null,,976415,HierDyvq8l8wz7,k2u21c8f7y,ms1000255,iti,,null,img/motor_1.png,65,motor,,,,,,,
445,,976870,HierDyvq8l8wz7,k2u21c8f7y,ms1000255,motor,,76,img/motor_8.png,76,motor,8,338,1,0,0,,
null,,976981,HierDyvq8l8wz7,k2u21c8f7y,ms1000255,iti,,null,img/motor_8.png,76,motor,,,,,,,
389,,977382,HierDyvq8l8wz7,k2u21c8f7y,ms1000255,motor,,72,img/motor_4.png,70,motor,4,339,0,1,0,,
194,,977587,HierDyvq8l8wz7,k2u21c8f7y,ms1000255,motorRepeat,,70,img/motor_4.png,70,motor,4,339,1,0,0,,
null,,977698,HierDyvq8l8wz7,k2u21c8f7y,ms1000255,iti,,null,img/motor_4.png,70,motor,,,,,,,
516,,978225,HierDyvq8l8wz7,k2u21c8f7y,ms1000255,motor,,75,img/motor_7.png,75,motor,7,340,1,0,0,,
null,,978335,HierDyvq8l8wz7,k2u21c8f7y,ms1000255,iti,,null,img/motor_7.png,75,motor,,,,,,,
518,,978864,HierDyvq8l8wz7,k2u21c8f7y,ms1000255,motor,,70,img/motor_4.png,70,motor,4,341,1,0,0,,
null,,978975,HierDyvq8l8wz7,k2u21c8f7y,ms1000255,iti,,null,img/motor_4.png,70,motor,,,,,,,
468,,979454,HierDyvq8l8wz7,k2u21c8f7y,ms1000255,motor,,74,img/motor_6.png,74,motor,6,342,1,0,0,,
null,,979566,HierDyvq8l8wz7,k2u21c8f7y,ms1000255,iti,,null,img/motor_6.png,74,motor,,,,,,,
434,,980011,HierDyvq8l8wz7,k2u21c8f7y,ms1000255,motor,,75,img/motor_7.png,75,motor,7,343,1,0,0,,
null,,980123,HierDyvq8l8wz7,k2u21c8f7y,ms1000255,iti,,null,img/motor_7.png,75,motor,,,,,,,
501,,980635,HierDyvq8l8wz7,k2u21c8f7y,ms1000255,motor,,65,img/motor_1.png,65,motor,1,344,1,0,0,,
null,,980747,HierDyvq8l8wz7,k2u21c8f7y,ms1000255,iti,,null,img/motor_1.png,65,motor,,,,,,,
349,,981106,HierDyvq8l8wz7,k2u21c8f7y,ms1000255,motor,,65,img/motor_1.png,65,motor,1,345,1,0,0,,
null,,981218,HierDyvq8l8wz7,k2u21c8f7y,ms1000255,iti,,null,img/motor_1.png,65,motor,,,,,,,
474,,981703,HierDyvq8l8wz7,k2u21c8f7y,ms1000255,motor,,75,img/motor_7.png,75,motor,7,346,1,0,0,,
null,,981815,HierDyvq8l8wz7,k2u21c8f7y,ms1000255,iti,,null,img/motor_7.png,75,motor,,,,,,,
473,,982301,HierDyvq8l8wz7,k2u21c8f7y,ms1000255,motor,,72,img/motor_5.png,72,motor,5,347,1,0,0,,
null,,982412,HierDyvq8l8wz7,k2u21c8f7y,ms1000255,iti,,null,img/motor_5.png,72,motor,,,,,,,
457,,982879,HierDyvq8l8wz7,k2u21c8f7y,ms1000255,motor,,74,img/motor_6.png,74,motor,6,348,1,0,0,,
null,,982990,HierDyvq8l8wz7,k2u21c8f7y,ms1000255,iti,,null,img/motor_6.png,74,motor,,,,,,,
538,,983539,HierDyvq8l8wz7,k2u21c8f7y,ms1000255,motor,,70,img/motor_4.png,70,motor,4,349,1,0,0,,
null,,983652,HierDyvq8l8wz7,k2u21c8f7y,ms1000255,iti,,null,img/motor_4.png,70,motor,,,,,,,
380,,984041,HierDyvq8l8wz7,k2u21c8f7y,ms1000255,motor,,65,img/motor_1.png,65,motor,1,350,1,0,0,,
null,,984153,HierDyvq8l8wz7,k2u21c8f7y,ms1000255,iti,,null,img/motor_1.png,65,motor,,,,,,,
568,,984732,HierDyvq8l8wz7,k2u21c8f7y,ms1000255,motor,,74,img/motor_6.png,74,motor,6,351,1,0,0,,
null,,984843,HierDyvq8l8wz7,k2u21c8f7y,ms1000255,iti,,null,img/motor_6.png,74,motor,,,,,,,
386,,985241,HierDyvq8l8wz7,k2u21c8f7y,ms1000255,motor,,76,img/motor_8.png,76,motor,8,352,1,0,0,,
null,,985353,HierDyvq8l8wz7,k2u21c8f7y,ms1000255,iti,,null,img/motor_8.png,76,motor,,,,,,,
519,,985883,HierDyvq8l8wz7,k2u21c8f7y,ms1000255,motor,,68,img/motor_3.png,68,motor,3,353,1,0,0,,
null,,985995,HierDyvq8l8wz7,k2u21c8f7y,ms1000255,iti,,null,img/motor_3.png,68,motor,,,,,,,
562,,986567,HierDyvq8l8wz7,k2u21c8f7y,ms1000255,motor,,76,img/motor_8.png,76,motor,8,354,1,0,0,,
null,,986678,HierDyvq8l8wz7,k2u21c8f7y,ms1000255,iti,,null,img/motor_8.png,76,motor,,,,,,,
384,,987074,HierDyvq8l8wz7,k2u21c8f7y,ms1000255,motor,,65,img/motor_1.png,65,motor,1,355,1,0,0,,
null,,987186,HierDyvq8l8wz7,k2u21c8f7y,ms1000255,iti,,null,img/motor_1.png,65,motor,,,,,,,
380,,987576,HierDyvq8l8wz7,k2u21c8f7y,ms1000255,motor,,68,img/motor_2.png,83,motor,2,356,0,1,0,,
225,,987813,HierDyvq8l8wz7,k2u21c8f7y,ms1000255,motorRepeat,,83,img/motor_2.png,83,motor,2,356,1,0,0,,
null,,987924,HierDyvq8l8wz7,k2u21c8f7y,ms1000255,iti,,null,img/motor_2.png,83,motor,,,,,,,
369,,988304,HierDyvq8l8wz7,k2u21c8f7y,ms1000255,motor,,65,img/motor_1.png,65,motor,1,357,1,0,0,,
null,,988416,HierDyvq8l8wz7,k2u21c8f7y,ms1000255,iti,,null,img/motor_1.png,65,motor,,,,,,,
564,,988990,HierDyvq8l8wz7,k2u21c8f7y,ms1000255,motor,,72,img/motor_5.png,72,motor,5,358,1,0,0,,
null,,989102,HierDyvq8l8wz7,k2u21c8f7y,ms1000255,iti,,null,img/motor_5.png,72,motor,,,,,,,
350,,989463,HierDyvq8l8wz7,k2u21c8f7y,ms1000255,motor,,74,img/motor_6.png,74,motor,6,359,1,0,0,,
null,,989573,HierDyvq8l8wz7,k2u21c8f7y,ms1000255,iti,,null,img/motor_6.png,74,motor,,,,,,,
342,,989926,HierDyvq8l8wz7,k2u21c8f7y,ms1000255,motor,,76,img/motor_8.png,76,motor,8,360,1,0,0,,
null,,990037,HierDyvq8l8wz7,k2u21c8f7y,ms1000255,iti,,null,img/motor_8.png,76,motor,,,,,,,
478,,990526,HierDyvq8l8wz7,k2u21c8f7y,ms1000255,motor,,70,img/motor_4.png,70,motor,4,361,1,0,0,,
null,,990639,HierDyvq8l8wz7,k2u21c8f7y,ms1000255,iti,,null,img/motor_4.png,70,motor,,,,,,,
411,,991061,HierDyvq8l8wz7,k2u21c8f7y,ms1000255,motor,,74,img/motor_6.png,74,motor,6,362,1,0,0,,
null,,991173,HierDyvq8l8wz7,k2u21c8f7y,ms1000255,iti,,null,img/motor_6.png,74,motor,,,,,,,
627,,991812,HierDyvq8l8wz7,k2u21c8f7y,ms1000255,motor,,76,img/motor_8.png,76,motor,8,363,1,0,0,,
null,,991924,HierDyvq8l8wz7,k2u21c8f7y,ms1000255,iti,,null,img/motor_8.png,76,motor,,,,,,,
359,,992293,HierDyvq8l8wz7,k2u21c8f7y,ms1000255,motor,,76,img/motor_8.png,76,motor,8,364,1,0,0,,
null,,992405,HierDyvq8l8wz7,k2u21c8f7y,ms1000255,iti,,null,img/motor_8.png,76,motor,,,,,,,
576,,992991,HierDyvq8l8wz7,k2u21c8f7y,ms1000255,motor,,65,img/motor_2.png,83,motor,2,365,0,1,0,,
255,,993257,HierDyvq8l8wz7,k2u21c8f7y,ms1000255,motorRepeat,,83,img/motor_2.png,83,motor,2,365,1,0,0,,
null,,993370,HierDyvq8l8wz7,k2u21c8f7y,ms1000255,iti,,null,img/motor_2.png,83,motor,,,,,,,
459,,993839,HierDyvq8l8wz7,k2u21c8f7y,ms1000255,motor,,72,img/motor_5.png,72,motor,5,366,1,0,0,,
null,,993950,HierDyvq8l8wz7,k2u21c8f7y,ms1000255,iti,,null,img/motor_5.png,72,motor,,,,,,,
450,,994411,HierDyvq8l8wz7,k2u21c8f7y,ms1000255,motor,,68,img/motor_2.png,83,motor,2,367,0,1,0,,
80,,994501,HierDyvq8l8wz7,k2u21c8f7y,ms1000255,motorRepeat,,83,img/motor_2.png,83,motor,2,367,1,0,0,,
null,,994613,HierDyvq8l8wz7,k2u21c8f7y,ms1000255,iti,,null,img/motor_2.png,83,motor,,,,,,,
475,,995099,HierDyvq8l8wz7,k2u21c8f7y,ms1000255,motor,,75,img/motor_6.png,74,motor,6,368,0,1,0,,
331,,995442,HierDyvq8l8wz7,k2u21c8f7y,ms1000255,motorRepeat,,74,img/motor_6.png,74,motor,6,368,1,0,0,,
null,,995553,HierDyvq8l8wz7,k2u21c8f7y,ms1000255,iti,,null,img/motor_6.png,74,motor,,,,,,,
338,,995903,HierDyvq8l8wz7,k2u21c8f7y,ms1000255,motor,,74,img/motor_6.png,74,motor,6,369,1,0,0,,
null,,996015,HierDyvq8l8wz7,k2u21c8f7y,ms1000255,iti,,null,img/motor_6.png,74,motor,,,,,,,
535,,996562,HierDyvq8l8wz7,k2u21c8f7y,ms1000255,motor,,72,img/motor_5.png,72,motor,5,370,1,0,0,,
null,,996673,HierDyvq8l8wz7,k2u21c8f7y,ms1000255,iti,,null,img/motor_5.png,72,motor,,,,,,,
509,,997193,HierDyvq8l8wz7,k2u21c8f7y,ms1000255,motor,,65,img/motor_1.png,65,motor,1,371,1,0,0,,
null,,997304,HierDyvq8l8wz7,k2u21c8f7y,ms1000255,iti,,null,img/motor_1.png,65,motor,,,,,,,
608,,997924,HierDyvq8l8wz7,k2u21c8f7y,ms1000255,motor,,75,img/motor_7.png,75,motor,7,372,1,0,0,,
null,,998036,HierDyvq8l8wz7,k2u21c8f7y,ms1000255,iti,,null,img/motor_7.png,75,motor,,,,,,,
487,,998533,HierDyvq8l8wz7,k2u21c8f7y,ms1000255,motor,,83,img/motor_2.png,83,motor,2,373,1,0,0,,
null,,998644,HierDyvq8l8wz7,k2u21c8f7y,ms1000255,iti,,null,img/motor_2.png,83,motor,,,,,,,
379,,999034,HierDyvq8l8wz7,k2u21c8f7y,ms1000255,motor,,76,img/motor_8.png,76,motor,8,374,1,0,0,,
null,,999146,HierDyvq8l8wz7,k2u21c8f7y,ms1000255,iti,,null,img/motor_8.png,76,motor,,,,,,,
436,,999592,HierDyvq8l8wz7,k2u21c8f7y,ms1000255,motor,,75,img/motor_7.png,75,motor,7,375,1,0,0,,
null,,999704,HierDyvq8l8wz7,k2u21c8f7y,ms1000255,iti,,null,img/motor_7.png,75,motor,,,,,,,
370,,1000084,HierDyvq8l8wz7,k2u21c8f7y,ms1000255,motor,,75,img/motor_7.png,75,motor,7,376,1,0,0,,
null,,1000195,HierDyvq8l8wz7,k2u21c8f7y,ms1000255,iti,,null,img/motor_7.png,75,motor,,,,,,,
470,,1000675,HierDyvq8l8wz7,k2u21c8f7y,ms1000255,motor,,83,img/motor_1.png,65,motor,1,377,0,1,0,,
256,,1000942,HierDyvq8l8wz7,k2u21c8f7y,ms1000255,motorRepeat,,65,img/motor_1.png,65,motor,1,377,1,0,0,,
null,,1001053,HierDyvq8l8wz7,k2u21c8f7y,ms1000255,iti,,null,img/motor_1.png,65,motor,,,,,,,
421,,1001484,HierDyvq8l8wz7,k2u21c8f7y,ms1000255,motor,,83,img/motor_2.png,83,motor,2,378,1,0,0,,
null,,1001595,HierDyvq8l8wz7,k2u21c8f7y,ms1000255,iti,,null,img/motor_2.png,83,motor,,,,,,,
405,,1002011,HierDyvq8l8wz7,k2u21c8f7y,ms1000255,motor,,76,img/motor_8.png,76,motor,8,379,1,0,0,,
null,,1002123,HierDyvq8l8wz7,k2u21c8f7y,ms1000255,iti,,null,img/motor_8.png,76,motor,,,,,,,
387,,1002522,HierDyvq8l8wz7,k2u21c8f7y,ms1000255,motor,,74,img/motor_6.png,74,motor,6,380,1,0,0,,
null,,1002634,HierDyvq8l8wz7,k2u21c8f7y,ms1000255,iti,,null,img/motor_6.png,74,motor,,,,,,,
602,,1003246,HierDyvq8l8wz7,k2u21c8f7y,ms1000255,motor,,83,img/motor_2.png,83,motor,2,381,1,0,0,,
null,,1003358,HierDyvq8l8wz7,k2u21c8f7y,ms1000255,iti,,null,img/motor_2.png,83,motor,,,,,,,
362,,1003732,HierDyvq8l8wz7,k2u21c8f7y,ms1000255,motor,,83,img/motor_2.png,83,motor,2,382,1,0,0,,
null,,1003843,HierDyvq8l8wz7,k2u21c8f7y,ms1000255,iti,,null,img/motor_2.png,83,motor,,,,,,,
430,,1004287,HierDyvq8l8wz7,k2u21c8f7y,ms1000255,motor,,76,img/motor_8.png,76,motor,8,383,1,0,0,,
null,,1004398,HierDyvq8l8wz7,k2u21c8f7y,ms1000255,iti,,null,img/motor_8.png,76,motor,,,,,,,
440,,1004847,HierDyvq8l8wz7,k2u21c8f7y,ms1000255,motor,,72,img/motor_5.png,72,motor,5,384,1,0,0,,
null,,1004960,HierDyvq8l8wz7,k2u21c8f7y,ms1000255,iti,,null,img/motor_5.png,72,motor,,,,,,,
368,,1005339,HierDyvq8l8wz7,k2u21c8f7y,ms1000255,motor,,72,img/motor_5.png,72,motor,5,385,1,0,0,,
null,,1005451,HierDyvq8l8wz7,k2u21c8f7y,ms1000255,iti,,null,img/motor_5.png,72,motor,,,,,,,
429,,1005891,HierDyvq8l8wz7,k2u21c8f7y,ms1000255,motor,,65,img/motor_1.png,65,motor,1,386,1,0,0,,
null,,1006003,HierDyvq8l8wz7,k2u21c8f7y,ms1000255,iti,,null,img/motor_1.png,65,motor,,,,,,,
449,,1006464,HierDyvq8l8wz7,k2u21c8f7y,ms1000255,motor,,70,img/motor_4.png,70,motor,4,387,1,0,0,,
null,,1006576,HierDyvq8l8wz7,k2u21c8f7y,ms1000255,iti,,null,img/motor_4.png,70,motor,,,,,,,
558,,1007146,HierDyvq8l8wz7,k2u21c8f7y,ms1000255,motor,,75,img/motor_7.png,75,motor,7,388,1,0,0,,
null,,1007258,HierDyvq8l8wz7,k2u21c8f7y,ms1000255,iti,,null,img/motor_7.png,75,motor,,,,,,,
445,,1007713,HierDyvq8l8wz7,k2u21c8f7y,ms1000255,motor,,72,img/motor_5.png,72,motor,5,389,1,0,0,,
null,,1007824,HierDyvq8l8wz7,k2u21c8f7y,ms1000255,iti,,null,img/motor_5.png,72,motor,,,,,,,
374,,1008209,HierDyvq8l8wz7,k2u21c8f7y,ms1000255,motor,,74,img/motor_6.png,74,motor,6,390,1,0,0,,
null,,1008320,HierDyvq8l8wz7,k2u21c8f7y,ms1000255,iti,,null,img/motor_6.png,74,motor,,,,,,,
591,,1008922,HierDyvq8l8wz7,k2u21c8f7y,ms1000255,motor,,83,img/motor_2.png,83,motor,2,391,1,0,0,,
null,,1009033,HierDyvq8l8wz7,k2u21c8f7y,ms1000255,iti,,null,img/motor_2.png,83,motor,,,,,,,
350,,1009395,HierDyvq8l8wz7,k2u21c8f7y,ms1000255,motor,,68,img/motor_3.png,68,motor,3,392,1,0,0,,
null,,1009506,HierDyvq8l8wz7,k2u21c8f7y,ms1000255,iti,,null,img/motor_3.png,68,motor,,,,,,,
469,,1009986,HierDyvq8l8wz7,k2u21c8f7y,ms1000255,motor,,75,img/motor_7.png,75,motor,7,393,1,0,0,,
null,,1010097,HierDyvq8l8wz7,k2u21c8f7y,ms1000255,iti,,null,img/motor_7.png,75,motor,,,,,,,
390,,1010498,HierDyvq8l8wz7,k2u21c8f7y,ms1000255,motor,,83,img/motor_3.png,68,motor,3,394,0,1,0,,
351,,1010862,HierDyvq8l8wz7,k2u21c8f7y,ms1000255,motorRepeat,,68,img/motor_3.png,68,motor,3,394,1,0,0,,
null,,1010974,HierDyvq8l8wz7,k2u21c8f7y,ms1000255,iti,,null,img/motor_3.png,68,motor,,,,,,,
366,,1011352,HierDyvq8l8wz7,k2u21c8f7y,ms1000255,motor,,70,img/motor_4.png,70,motor,4,395,1,0,0,,
null,,1011464,HierDyvq8l8wz7,k2u21c8f7y,ms1000255,iti,,null,img/motor_4.png,70,motor,,,,,,,
476,,1011950,HierDyvq8l8wz7,k2u21c8f7y,ms1000255,motor,,75,img/motor_7.png,75,motor,7,396,1,0,0,,
null,,1012061,HierDyvq8l8wz7,k2u21c8f7y,ms1000255,iti,,null,img/motor_7.png,75,motor,,,,,,,
518,,1012591,HierDyvq8l8wz7,k2u21c8f7y,ms1000255,motor,,76,img/motor_8.png,76,motor,8,397,1,0,0,,
null,,1012703,HierDyvq8l8wz7,k2u21c8f7y,ms1000255,iti,,null,img/motor_8.png,76,motor,,,,,,,
431,,1013145,HierDyvq8l8wz7,k2u21c8f7y,ms1000255,motor,,65,img/motor_1.png,65,motor,1,398,1,0,0,,
null,,1013256,HierDyvq8l8wz7,k2u21c8f7y,ms1000255,iti,,null,img/motor_1.png,65,motor,,,,,,,
419,,1013685,HierDyvq8l8wz7,k2u21c8f7y,ms1000255,motor,,75,img/motor_6.png,74,motor,6,399,0,1,0,,
312,,1014008,HierDyvq8l8wz7,k2u21c8f7y,ms1000255,motorRepeat,,74,img/motor_6.png,74,motor,6,399,1,0,0,,
null,,1014120,HierDyvq8l8wz7,k2u21c8f7y,ms1000255,iti,,null,img/motor_6.png,74,motor,,,,,,,
624,,1014755,HierDyvq8l8wz7,k2u21c8f7y,ms1000255,motor,,70,img/motor_4.png,70,motor,4,400,1,0,0,,
null,,1014868,HierDyvq8l8wz7,k2u21c8f7y,ms1000255,iti,,null,img/motor_4.png,70,motor,,,,,,,
419,,1015297,HierDyvq8l8wz7,k2u21c8f7y,ms1000255,motor,,76,img/motor_8.png,76,motor,8,401,1,0,0,,
null,,1015409,HierDyvq8l8wz7,k2u21c8f7y,ms1000255,iti,,null,img/motor_8.png,76,motor,,,,,,,
548,,1015968,HierDyvq8l8wz7,k2u21c8f7y,ms1000255,motor,,68,img/motor_3.png,68,motor,3,402,1,0,0,,
null,,1016081,HierDyvq8l8wz7,k2u21c8f7y,ms1000255,iti,,null,img/motor_3.png,68,motor,,,,,,,
431,,1016524,HierDyvq8l8wz7,k2u21c8f7y,ms1000255,motor,,72,img/motor_5.png,72,motor,5,403,1,0,0,,
null,,1016635,HierDyvq8l8wz7,k2u21c8f7y,ms1000255,iti,,null,img/motor_5.png,72,motor,,,,,,,
381,,1017028,HierDyvq8l8wz7,k2u21c8f7y,ms1000255,motor,,74,img/motor_6.png,74,motor,6,404,1,0,0,,
null,,1017139,HierDyvq8l8wz7,k2u21c8f7y,ms1000255,iti,,null,img/motor_6.png,74,motor,,,,,,,
571,,1017721,HierDyvq8l8wz7,k2u21c8f7y,ms1000255,motor,,68,img/motor_3.png,68,motor,3,405,1,0,0,,
null,,1017833,HierDyvq8l8wz7,k2u21c8f7y,ms1000255,iti,,null,img/motor_3.png,68,motor,,,,,,,
468,,1018313,HierDyvq8l8wz7,k2u21c8f7y,ms1000255,motor,,76,img/motor_8.png,76,motor,8,406,1,0,0,,
null,,1018425,HierDyvq8l8wz7,k2u21c8f7y,ms1000255,iti,,null,img/motor_8.png,76,motor,,,,,,,
500,,1018935,HierDyvq8l8wz7,k2u21c8f7y,ms1000255,motor,,74,img/motor_6.png,74,motor,6,407,1,0,0,,
null,,1019047,HierDyvq8l8wz7,k2u21c8f7y,ms1000255,iti,,null,img/motor_6.png,74,motor,,,,,,,
373,,1019431,HierDyvq8l8wz7,k2u21c8f7y,ms1000255,motor,,76,img/motor_8.png,76,motor,8,408,1,0,0,,
null,,1019543,HierDyvq8l8wz7,k2u21c8f7y,ms1000255,iti,,null,img/motor_8.png,76,motor,,,,,,,
335,,1019889,HierDyvq8l8wz7,k2u21c8f7y,ms1000255,motor,,74,img/motor_6.png,74,motor,6,409,1,0,0,,
null,,1020000,HierDyvq8l8wz7,k2u21c8f7y,ms1000255,iti,,null,img/motor_6.png,74,motor,,,,,,,
408,,1020421,HierDyvq8l8wz7,k2u21c8f7y,ms1000255,motor,,75,img/motor_7.png,75,motor,7,410,1,0,0,,
null,,1020533,HierDyvq8l8wz7,k2u21c8f7y,ms1000255,iti,,null,img/motor_7.png,75,motor,,,,,,,
495,,1021038,HierDyvq8l8wz7,k2u21c8f7y,ms1000255,motor,,65,img/motor_1.png,65,motor,1,411,1,0,0,,
null,,1021151,HierDyvq8l8wz7,k2u21c8f7y,ms1000255,iti,,null,img/motor_1.png,65,motor,,,,,,,
485,,1021648,HierDyvq8l8wz7,k2u21c8f7y,ms1000255,motor,,72,img/motor_5.png,72,motor,5,412,1,0,0,,
null,,1021760,HierDyvq8l8wz7,k2u21c8f7y,ms1000255,iti,,null,img/motor_5.png,72,motor,,,,,,,
479,,1022248,HierDyvq8l8wz7,k2u21c8f7y,ms1000255,motor,,68,img/motor_3.png,68,motor,3,413,1,0,0,,
null,,1022361,HierDyvq8l8wz7,k2u21c8f7y,ms1000255,iti,,null,img/motor_3.png,68,motor,,,,,,,
490,,1022863,HierDyvq8l8wz7,k2u21c8f7y,ms1000255,motor,,83,img/motor_2.png,83,motor,2,414,1,0,0,,
null,,1022975,HierDyvq8l8wz7,k2u21c8f7y,ms1000255,iti,,null,img/motor_2.png,83,motor,,,,,,,
482,,1023466,HierDyvq8l8wz7,k2u21c8f7y,ms1000255,motor,,75,img/motor_6.png,74,motor,6,415,0,1,0,,
260,,1023738,HierDyvq8l8wz7,k2u21c8f7y,ms1000255,motorRepeat,,74,img/motor_6.png,74,motor,6,415,1,0,0,,
null,,1023849,HierDyvq8l8wz7,k2u21c8f7y,ms1000255,iti,,null,img/motor_6.png,74,motor,,,,,,,
422,,1024282,HierDyvq8l8wz7,k2u21c8f7y,ms1000255,motor,,83,img/motor_2.png,83,motor,2,416,1,0,0,,
null,,1024393,HierDyvq8l8wz7,k2u21c8f7y,ms1000255,iti,,null,img/motor_2.png,83,motor,,,,,,,
298,,1024703,HierDyvq8l8wz7,k2u21c8f7y,ms1000255,motor,,83,img/motor_2.png,83,motor,2,417,1,0,0,,
null,,1024815,HierDyvq8l8wz7,k2u21c8f7y,ms1000255,iti,,null,img/motor_2.png,83,motor,,,,,,,
519,,1025344,HierDyvq8l8wz7,k2u21c8f7y,ms1000255,motor,,72,img/motor_5.png,72,motor,5,418,1,0,0,,
null,,1025456,HierDyvq8l8wz7,k2u21c8f7y,ms1000255,iti,,null,img/motor_5.png,72,motor,,,,,,,
445,,1025911,HierDyvq8l8wz7,k2u21c8f7y,ms1000255,motor,,65,img/motor_1.png,65,motor,1,419,1,0,0,,
null,,1026022,HierDyvq8l8wz7,k2u21c8f7y,ms1000255,iti,,null,img/motor_1.png,65,motor,,,,,,,
384,,1026418,HierDyvq8l8wz7,k2u21c8f7y,ms1000255,motor,,68,img/motor_3.png,68,motor,3,420,1,0,0,,
null,,1026530,HierDyvq8l8wz7,k2u21c8f7y,ms1000255,iti,,null,img/motor_3.png,68,motor,,,,,,,
547,,1027087,HierDyvq8l8wz7,k2u21c8f7y,ms1000255,motor,,74,img/motor_6.png,74,motor,6,421,1,0,0,,
null,,1027199,HierDyvq8l8wz7,k2u21c8f7y,ms1000255,iti,,null,img/motor_6.png,74,motor,,,,,,,
495,,1027703,HierDyvq8l8wz7,k2u21c8f7y,ms1000255,motor,,83,img/motor_3.png,68,motor,3,422,0,1,0,,
201,,1027914,HierDyvq8l8wz7,k2u21c8f7y,ms1000255,motorRepeat,,68,img/motor_3.png,68,motor,3,422,1,0,0,,
null,,1028026,HierDyvq8l8wz7,k2u21c8f7y,ms1000255,iti,,null,img/motor_3.png,68,motor,,,,,,,
419,,1028458,HierDyvq8l8wz7,k2u21c8f7y,ms1000255,motor,,76,img/motor_8.png,76,motor,8,423,1,0,0,,
null,,1028571,HierDyvq8l8wz7,k2u21c8f7y,ms1000255,iti,,null,img/motor_8.png,76,motor,,,,,,,
366,,1028952,HierDyvq8l8wz7,k2u21c8f7y,ms1000255,motor,,72,img/motor_5.png,72,motor,5,424,1,0,0,,
null,,1029064,HierDyvq8l8wz7,k2u21c8f7y,ms1000255,iti,,null,img/motor_5.png,72,motor,,,,,,,
415,,1029490,HierDyvq8l8wz7,k2u21c8f7y,ms1000255,motor,,72,img/motor_5.png,72,motor,5,425,1,0,0,,
null,,1029604,HierDyvq8l8wz7,k2u21c8f7y,ms1000255,iti,,null,img/motor_5.png,72,motor,,,,,,,
499,,1030115,HierDyvq8l8wz7,k2u21c8f7y,ms1000255,motor,,68,img/motor_3.png,68,motor,3,426,1,0,0,,
null,,1030228,HierDyvq8l8wz7,k2u21c8f7y,ms1000255,iti,,null,img/motor_3.png,68,motor,,,,,,,
426,,1030665,HierDyvq8l8wz7,k2u21c8f7y,ms1000255,motor,,74,img/motor_5.png,72,motor,5,427,0,1,0,,
321,,1030997,HierDyvq8l8wz7,k2u21c8f7y,ms1000255,motorRepeat,,72,img/motor_5.png,72,motor,5,427,1,0,0,,
null,,1031108,HierDyvq8l8wz7,k2u21c8f7y,ms1000255,iti,,null,img/motor_5.png,72,motor,,,,,,,
478,,1031599,HierDyvq8l8wz7,k2u21c8f7y,ms1000255,motor,,65,img/motor_1.png,65,motor,1,428,1,0,0,,
null,,1031711,HierDyvq8l8wz7,k2u21c8f7y,ms1000255,iti,,null,img/motor_1.png,65,motor,,,,,,,
424,,1032146,HierDyvq8l8wz7,k2u21c8f7y,ms1000255,motor,,83,img/motor_2.png,83,motor,2,429,1,0,0,,
null,,1032258,HierDyvq8l8wz7,k2u21c8f7y,ms1000255,iti,,null,img/motor_2.png,83,motor,,,,,,,
491,,1032761,HierDyvq8l8wz7,k2u21c8f7y,ms1000255,motor,,72,img/motor_5.png,72,motor,5,430,1,0,0,,
null,,1032875,HierDyvq8l8wz7,k2u21c8f7y,ms1000255,iti,,null,img/motor_5.png,72,motor,,,,,,,
524,,1033412,HierDyvq8l8wz7,k2u21c8f7y,ms1000255,motor,,68,img/motor_3.png,68,motor,3,431,1,0,0,,
null,,1033524,HierDyvq8l8wz7,k2u21c8f7y,ms1000255,iti,,null,img/motor_3.png,68,motor,,,,,,,
507,,1034043,HierDyvq8l8wz7,k2u21c8f7y,ms1000255,motor,,75,img/motor_7.png,75,motor,7,432,1,0,0,,
null,,1034155,HierDyvq8l8wz7,k2u21c8f7y,ms1000255,iti,,null,img/motor_7.png,75,motor,,,,,,,
464,,1034630,HierDyvq8l8wz7,k2u21c8f7y,ms1000255,motor,,65,img/motor_1.png,65,motor,1,433,1,0,0,,
null,,1034742,HierDyvq8l8wz7,k2u21c8f7y,ms1000255,iti,,null,img/motor_1.png,65,motor,,,,,,,
549,,1035304,HierDyvq8l8wz7,k2u21c8f7y,ms1000255,motor,,74,img/motor_6.png,74,motor,6,434,1,0,0,,
null,,1035416,HierDyvq8l8wz7,k2u21c8f7y,ms1000255,iti,,null,img/motor_6.png,74,motor,,,,,,,
578,,1036005,HierDyvq8l8wz7,k2u21c8f7y,ms1000255,motor,,65,img/motor_1.png,65,motor,1,435,1,0,0,,
null,,1036117,HierDyvq8l8wz7,k2u21c8f7y,ms1000255,iti,,null,img/motor_1.png,65,motor,,,,,,,
400,,1036527,HierDyvq8l8wz7,k2u21c8f7y,ms1000255,motor,,76,img/motor_7.png,75,motor,7,436,0,1,0,,
301,,1036839,HierDyvq8l8wz7,k2u21c8f7y,ms1000255,motorRepeat,,75,img/motor_7.png,75,motor,7,436,1,0,0,,
null,,1036951,HierDyvq8l8wz7,k2u21c8f7y,ms1000255,iti,,null,img/motor_7.png,75,motor,,,,,,,
479,,1037440,HierDyvq8l8wz7,k2u21c8f7y,ms1000255,motor,,68,img/motor_3.png,68,motor,3,437,1,0,0,,
null,,1037552,HierDyvq8l8wz7,k2u21c8f7y,ms1000255,iti,,null,img/motor_3.png,68,motor,,,,,,,
537,,1038100,HierDyvq8l8wz7,k2u21c8f7y,ms1000255,motor,,75,img/motor_7.png,75,motor,7,438,1,0,0,,
null,,1038211,HierDyvq8l8wz7,k2u21c8f7y,ms1000255,iti,,null,img/motor_7.png,75,motor,,,,,,,
669,,1038891,HierDyvq8l8wz7,k2u21c8f7y,ms1000255,motor,,65,img/motor_1.png,65,motor,1,439,1,0,0,,
null,,1039003,HierDyvq8l8wz7,k2u21c8f7y,ms1000255,iti,,null,img/motor_1.png,65,motor,,,,,,,
533,,1039546,HierDyvq8l8wz7,k2u21c8f7y,ms1000255,motor,,74,img/motor_6.png,74,motor,6,440,1,0,0,,
null,,1039657,HierDyvq8l8wz7,k2u21c8f7y,ms1000255,iti,,null,img/motor_6.png,74,motor,,,,,,,
329,,1039997,HierDyvq8l8wz7,k2u21c8f7y,ms1000255,motor,,74,img/motor_6.png,74,motor,6,441,1,0,0,,
null,,1040109,HierDyvq8l8wz7,k2u21c8f7y,ms1000255,iti,,null,img/motor_6.png,74,motor,,,,,,,
371,,1040492,HierDyvq8l8wz7,k2u21c8f7y,ms1000255,motor,,75,img/motor_7.png,75,motor,7,442,1,0,0,,
null,,1040605,HierDyvq8l8wz7,k2u21c8f7y,ms1000255,iti,,null,img/motor_7.png,75,motor,,,,,,,
380,,1040994,HierDyvq8l8wz7,k2u21c8f7y,ms1000255,motor,,74,img/motor_6.png,74,motor,6,443,1,0,0,,
null,,1041106,HierDyvq8l8wz7,k2u21c8f7y,ms1000255,iti,,null,img/motor_6.png,74,motor,,,,,,,
631,,1041748,HierDyvq8l8wz7,k2u21c8f7y,ms1000255,motor,,68,img/motor_3.png,68,motor,3,444,1,0,0,,
null,,1041860,HierDyvq8l8wz7,k2u21c8f7y,ms1000255,iti,,null,img/motor_3.png,68,motor,,,,,,,
474,,1042346,HierDyvq8l8wz7,k2u21c8f7y,ms1000255,motor,,70,img/motor_4.png,70,motor,4,445,1,0,0,,
null,,1042457,HierDyvq8l8wz7,k2u21c8f7y,ms1000255,iti,,null,img/motor_4.png,70,motor,,,,,,,
419,,1042887,HierDyvq8l8wz7,k2u21c8f7y,ms1000255,motor,,65,img/motor_1.png,65,motor,1,446,1,0,0,,
null,,1043000,HierDyvq8l8wz7,k2u21c8f7y,ms1000255,iti,,null,img/motor_1.png,65,motor,,,,,,,
492,,1043501,HierDyvq8l8wz7,k2u21c8f7y,ms1000255,motor,,76,img/motor_8.png,76,motor,8,447,1,0,0,,
null,,1043613,HierDyvq8l8wz7,k2u21c8f7y,ms1000255,iti,,null,img/motor_8.png,76,motor,,,,,,,
501,,1044126,HierDyvq8l8wz7,k2u21c8f7y,ms1000255,motor,,83,img/motor_2.png,83,motor,2,448,1,0,0,,
null,,1044237,HierDyvq8l8wz7,k2u21c8f7y,ms1000255,iti,,null,img/motor_2.png,83,motor,,,,,,,
396,,1044644,HierDyvq8l8wz7,k2u21c8f7y,ms1000255,motor,,70,img/motor_4.png,70,motor,4,449,1,0,0,,
null,,1044756,HierDyvq8l8wz7,k2u21c8f7y,ms1000255,iti,,null,img/motor_4.png,70,motor,,,,,,,
378,,1045144,HierDyvq8l8wz7,k2u21c8f7y,ms1000255,motor,,74,img/motor_5.png,72,motor,5,450,0,1,0,,
281,,1045438,HierDyvq8l8wz7,k2u21c8f7y,ms1000255,motorRepeat,,72,img/motor_5.png,72,motor,5,450,1,0,0,,
null,,1045550,HierDyvq8l8wz7,k2u21c8f7y,ms1000255,iti,,null,img/motor_5.png,72,motor,,,,,,,
398,,1045958,HierDyvq8l8wz7,k2u21c8f7y,ms1000255,motor,,70,img/motor_4.png,70,motor,4,451,1,0,0,,
null,,1046069,HierDyvq8l8wz7,k2u21c8f7y,ms1000255,iti,,null,img/motor_4.png,70,motor,,,,,,,
445,,1046525,HierDyvq8l8wz7,k2u21c8f7y,ms1000255,motor,,65,img/motor_1.png,65,motor,1,452,1,0,0,,
null,,1046637,HierDyvq8l8wz7,k2u21c8f7y,ms1000255,iti,,null,img/motor_1.png,65,motor,,,,,,,
682,,1047330,HierDyvq8l8wz7,k2u21c8f7y,ms1000255,motor,,74,img/motor_6.png,74,motor,6,453,1,0,0,,
null,,1047441,HierDyvq8l8wz7,k2u21c8f7y,ms1000255,iti,,null,img/motor_6.png,74,motor,,,,,,,
564,,1048017,HierDyvq8l8wz7,k2u21c8f7y,ms1000255,motor,,65,img/motor_1.png,65,motor,1,454,1,0,0,,
null,,1048129,HierDyvq8l8wz7,k2u21c8f7y,ms1000255,iti,,null,img/motor_1.png,65,motor,,,,,,,
424,,1048562,HierDyvq8l8wz7,k2u21c8f7y,ms1000255,motor,,70,img/motor_4.png,70,motor,4,455,1,0,0,,
null,,1048675,HierDyvq8l8wz7,k2u21c8f7y,ms1000255,iti,,null,img/motor_4.png,70,motor,,,,,,,
550,,1049237,HierDyvq8l8wz7,k2u21c8f7y,ms1000255,motor,,75,img/motor_7.png,75,motor,7,456,1,0,0,,
null,,1049349,HierDyvq8l8wz7,k2u21c8f7y,ms1000255,iti,,null,img/motor_7.png,75,motor,,,,,,,
529,,1049889,HierDyvq8l8wz7,k2u21c8f7y,ms1000255,motor,,70,img/motor_4.png,70,motor,4,457,1,0,0,,
null,,1050001,HierDyvq8l8wz7,k2u21c8f7y,ms1000255,iti,,null,img/motor_4.png,70,motor,,,,,,,
463,,1050476,HierDyvq8l8wz7,k2u21c8f7y,ms1000255,motor,,83,img/motor_2.png,83,motor,2,458,1,0,0,,
null,,1050587,HierDyvq8l8wz7,k2u21c8f7y,ms1000255,iti,,null,img/motor_2.png,83,motor,,,,,,,
304,,1050904,HierDyvq8l8wz7,k2u21c8f7y,ms1000255,motor,,70,img/motor_3.png,68,motor,3,459,0,1,0,,
74,,1050989,HierDyvq8l8wz7,k2u21c8f7y,ms1000255,motorRepeat,,68,img/motor_3.png,68,motor,3,459,1,0,0,,
null,,1051100,HierDyvq8l8wz7,k2u21c8f7y,ms1000255,iti,,null,img/motor_3.png,68,motor,,,,,,,
51,,1051162,HierDyvq8l8wz7,k2u21c8f7y,ms1000255,motor,,68,img/motor_8.png,76,motor,8,460,0,1,0,,
423,,1051596,HierDyvq8l8wz7,k2u21c8f7y,ms1000255,motorRepeat,,76,img/motor_8.png,76,motor,8,460,1,0,0,,
null,,1051708,HierDyvq8l8wz7,k2u21c8f7y,ms1000255,iti,,null,img/motor_8.png,76,motor,,,,,,,
430,,1052149,HierDyvq8l8wz7,k2u21c8f7y,ms1000255,motor,,65,img/motor_2.png,83,motor,2,461,0,1,0,,
223,,1052385,HierDyvq8l8wz7,k2u21c8f7y,ms1000255,motorRepeat,,83,img/motor_2.png,83,motor,2,461,1,0,0,,
null,,1052497,HierDyvq8l8wz7,k2u21c8f7y,ms1000255,iti,,null,img/motor_2.png,83,motor,,,,,,,
731,,1053239,HierDyvq8l8wz7,k2u21c8f7y,ms1000255,motor,,72,img/motor_5.png,72,motor,5,462,1,0,0,,
null,,1053350,HierDyvq8l8wz7,k2u21c8f7y,ms1000255,iti,,null,img/motor_5.png,72,motor,,,,,,,
390,,1053750,HierDyvq8l8wz7,k2u21c8f7y,ms1000255,motor,,83,img/motor_2.png,83,motor,2,463,1,0,0,,
null,,1053861,HierDyvq8l8wz7,k2u21c8f7y,ms1000255,iti,,null,img/motor_2.png,83,motor,,,,,,,
629,,1054501,HierDyvq8l8wz7,k2u21c8f7y,ms1000255,motor,,75,img/motor_7.png,75,motor,7,464,1,0,0,,
null,,1054614,HierDyvq8l8wz7,k2u21c8f7y,ms1000255,iti,,null,img/motor_7.png,75,motor,,,,,,,
392,,1055018,HierDyvq8l8wz7,k2u21c8f7y,ms1000255,motor,,83,img/motor_2.png,83,motor,2,465,1,0,0,,
null,,1055130,HierDyvq8l8wz7,k2u21c8f7y,ms1000255,iti,,null,img/motor_2.png,83,motor,,,,,,,
515,,1055656,HierDyvq8l8wz7,k2u21c8f7y,ms1000255,motor,,76,img/motor_8.png,76,motor,8,466,1,0,0,,
null,,1055768,HierDyvq8l8wz7,k2u21c8f7y,ms1000255,iti,,null,img/motor_8.png,76,motor,,,,,,,
468,,1056247,HierDyvq8l8wz7,k2u21c8f7y,ms1000255,motor,,72,img/motor_5.png,72,motor,5,467,1,0,0,,
null,,1056359,HierDyvq8l8wz7,k2u21c8f7y,ms1000255,iti,,null,img/motor_5.png,72,motor,,,,,,,
391,,1056761,HierDyvq8l8wz7,k2u21c8f7y,ms1000255,motor,,76,img/motor_8.png,76,motor,8,468,1,0,0,,
null,,1056874,HierDyvq8l8wz7,k2u21c8f7y,ms1000255,iti,,null,img/motor_8.png,76,motor,,,,,,,
374,,1057259,HierDyvq8l8wz7,k2u21c8f7y,ms1000255,motor,,72,img/motor_5.png,72,motor,5,469,1,0,0,,
null,,1057371,HierDyvq8l8wz7,k2u21c8f7y,ms1000255,iti,,null,img/motor_5.png,72,motor,,,,,,,
477,,1057859,HierDyvq8l8wz7,k2u21c8f7y,ms1000255,motor,,68,img/motor_3.png,68,motor,3,470,1,0,0,,
null,,1057971,HierDyvq8l8wz7,k2u21c8f7y,ms1000255,iti,,null,img/motor_3.png,68,motor,,,,,,,
354,,1058335,HierDyvq8l8wz7,k2u21c8f7y,ms1000255,motor,,70,img/motor_4.png,70,motor,4,471,1,0,0,,
null,,1058446,HierDyvq8l8wz7,k2u21c8f7y,ms1000255,iti,,null,img/motor_4.png,70,motor,,,,,,,
552,,1059010,HierDyvq8l8wz7,k2u21c8f7y,ms1000255,motor,,74,img/motor_6.png,74,motor,6,472,1,0,0,,
null,,1059122,HierDyvq8l8wz7,k2u21c8f7y,ms1000255,iti,,null,img/motor_6.png,74,motor,,,,,,,
372,,1059505,HierDyvq8l8wz7,k2u21c8f7y,ms1000255,motor,,74,img/motor_6.png,74,motor,6,473,1,0,0,,
null,,1059616,HierDyvq8l8wz7,k2u21c8f7y,ms1000255,iti,,null,img/motor_6.png,74,motor,,,,,,,
374,,1060002,HierDyvq8l8wz7,k2u21c8f7y,ms1000255,motor,,76,img/motor_8.png,76,motor,8,474,1,0,0,,
null,,1060113,HierDyvq8l8wz7,k2u21c8f7y,ms1000255,iti,,null,img/motor_8.png,76,motor,,,,,,,
290,,1060414,HierDyvq8l8wz7,k2u21c8f7y,ms1000255,motor,,76,img/motor_8.png,76,motor,8,475,1,0,0,,
null,,1060526,HierDyvq8l8wz7,k2u21c8f7y,ms1000255,iti,,null,img/motor_8.png,76,motor,,,,,,,
443,,1060981,HierDyvq8l8wz7,k2u21c8f7y,ms1000255,motor,,83,img/motor_2.png,83,motor,2,476,1,0,0,,
null,,1061092,HierDyvq8l8wz7,k2u21c8f7y,ms1000255,iti,,null,img/motor_2.png,83,motor,,,,,,,
285,,1061389,HierDyvq8l8wz7,k2u21c8f7y,ms1000255,motor,,83,img/motor_1.png,65,motor,1,477,0,1,0,,
238,,1061638,HierDyvq8l8wz7,k2u21c8f7y,ms1000255,motorRepeat,,65,img/motor_1.png,65,motor,1,477,1,0,0,,
null,,1061750,HierDyvq8l8wz7,k2u21c8f7y,ms1000255,iti,,null,img/motor_1.png,65,motor,,,,,,,
455,,1062215,HierDyvq8l8wz7,k2u21c8f7y,ms1000255,motor,,72,img/motor_5.png,72,motor,5,478,1,0,0,,
null,,1062327,HierDyvq8l8wz7,k2u21c8f7y,ms1000255,iti,,null,img/motor_5.png,72,motor,,,,,,,
302,,1062640,HierDyvq8l8wz7,k2u21c8f7y,ms1000255,motor,,72,img/motor_5.png,72,motor,5,479,1,0,0,,
null,,1062752,HierDyvq8l8wz7,k2u21c8f7y,ms1000255,iti,,null,img/motor_5.png,72,motor,,,,,,,
483,,1063246,HierDyvq8l8wz7,k2u21c8f7y,ms1000255,motor,,65,img/motor_1.png,65,motor,1,480,1,0,0,,
null,,1063358,HierDyvq8l8wz7,k2u21c8f7y,ms1000255,iti,,null,img/motor_1.png,65,motor,,,,,,,
734,,1064103,HierDyvq8l8wz7,k2u21c8f7y,ms1000255,motor,,68,img/motor_3.png,68,motor,3,481,1,0,0,,
null,,1064215,HierDyvq8l8wz7,k2u21c8f7y,ms1000255,iti,,null,img/motor_3.png,68,motor,,,,,,,
340,,1064566,HierDyvq8l8wz7,k2u21c8f7y,ms1000255,motor,,65,img/motor_1.png,65,motor,1,482,1,0,0,,
null,,1064678,HierDyvq8l8wz7,k2u21c8f7y,ms1000255,iti,,null,img/motor_1.png,65,motor,,,,,,,
477,,1065166,HierDyvq8l8wz7,k2u21c8f7y,ms1000255,motor,,83,img/motor_2.png,83,motor,2,483,1,0,0,,
null,,1065278,HierDyvq8l8wz7,k2u21c8f7y,ms1000255,iti,,null,img/motor_2.png,83,motor,,,,,,,
385,,1065674,HierDyvq8l8wz7,k2u21c8f7y,ms1000255,motor,,83,img/motor_2.png,83,motor,2,484,1,0,0,,
null,,1065786,HierDyvq8l8wz7,k2u21c8f7y,ms1000255,iti,,null,img/motor_2.png,83,motor,,,,,,,
382,,1066180,HierDyvq8l8wz7,k2u21c8f7y,ms1000255,motor,,65,img/motor_1.png,65,motor,1,485,1,0,0,,
null,,1066292,HierDyvq8l8wz7,k2u21c8f7y,ms1000255,iti,,null,img/motor_1.png,65,motor,,,,,,,
665,,1066969,HierDyvq8l8wz7,k2u21c8f7y,ms1000255,motor,,74,img/motor_6.png,74,motor,6,486,1,0,0,,
null,,1067082,HierDyvq8l8wz7,k2u21c8f7y,ms1000255,iti,,null,img/motor_6.png,74,motor,,,,,,,
286,,1067380,HierDyvq8l8wz7,k2u21c8f7y,ms1000255,motor,,74,img/motor_6.png,74,motor,6,487,1,0,0,,
null,,1067491,HierDyvq8l8wz7,k2u21c8f7y,ms1000255,iti,,null,img/motor_6.png,74,motor,,,,,,,
59180,,1126685,HierDyvq8l8wz7,k2u21c8f7y,ms1000255,,,,,,,,,,,,,
1167,,1127863,HierDyvq8l8wz7,k2u21c8f7y,ms1000255,prac,,72,img/image3.bmp,72,prac,,,1,,,0,
null,,1128626,HierDyvq8l8wz7,k2u21c8f7y,ms1000255,feedback,,null,,na,prac,,,,,,,
1282,,1129919,HierDyvq8l8wz7,k2u21c8f7y,ms1000255,prac,,74,img/image4.bmp,75,prac,,,0,,,1,
null,,1130682,HierDyvq8l8wz7,k2u21c8f7y,ms1000255,feedback,,null,,na,prac,,,,,,,
850,,1131543,HierDyvq8l8wz7,k2u21c8f7y,ms1000255,prac,,75,img/image5.bmp,74,prac,,,0,,,2,
null,,1132307,HierDyvq8l8wz7,k2u21c8f7y,ms1000255,feedback,,null,,na,prac,,,,,,,
617,,1132935,HierDyvq8l8wz7,k2u21c8f7y,ms1000255,prac,,72,img/image4.bmp,75,prac,,,0,,,3,
null,,1133698,HierDyvq8l8wz7,k2u21c8f7y,ms1000255,feedback,,null,,na,prac,,,,,,,
460,,1134169,HierDyvq8l8wz7,k2u21c8f7y,ms1000255,prac,,74,img/image4.bmp,75,prac,,,0,,,4,
null,,1134931,HierDyvq8l8wz7,k2u21c8f7y,ms1000255,feedback,,null,,na,prac,,,,,,,
290,,1135233,HierDyvq8l8wz7,k2u21c8f7y,ms1000255,prac,,75,img/image3.bmp,72,prac,,,0,,,5,
null,,1135995,HierDyvq8l8wz7,k2u21c8f7y,ms1000255,feedback,,null,,na,prac,,,,,,,
698,,1136704,HierDyvq8l8wz7,k2u21c8f7y,ms1000255,prac,,72,img/image5.bmp,74,prac,,,0,,,6,
null,,1137466,HierDyvq8l8wz7,k2u21c8f7y,ms1000255,feedback,,null,,na,prac,,,,,,,
410,,1137887,HierDyvq8l8wz7,k2u21c8f7y,ms1000255,prac,,74,img/image4.bmp,75,prac,,,0,,,7,
null,,1138649,HierDyvq8l8wz7,k2u21c8f7y,ms1000255,feedback,,null,,na,prac,,,,,,,
21940,,1160603,HierDyvq8l8wz7,k2u21c8f7y,ms1000255,,,,,,prac,,,,,,,
15416,,1176033,HierDyvq8l8wz7,k2u21c8f7y,ms1000255,,,32,,,,,,,,,,
4457,,1180502,HierDyvq8l8wz7,k2u21c8f7y,ms1000255,,,,,,prac,,,,,,,
696,,1181210,HierDyvq8l8wz7,k2u21c8f7y,ms1000255,rl,,65,img/p_t_dots.png,76,test,8,1,0,,,,shape;pattern;color
null,,1182224,HierDyvq8l8wz7,k2u21c8f7y,ms1000255,feedback,,null,,na,test,,,,,,,
743,,1182977,HierDyvq8l8wz7,k2u21c8f7y,ms1000255,rl,,83,img/o_t_dots.png,75,test,7,NaN,0,,,,shape;pattern;color
null,,1183989,HierDyvq8l8wz7,k2u21c8f7y,ms1000255,feedback,,null,,na,test,,,,,,,
561,,1184563,HierDyvq8l8wz7,k2u21c8f7y,ms1000255,rl,,65,img/o_d_dots.png,68,test,3,NaN,0,,,,shape;pattern;color
null,,1185574,HierDyvq8l8wz7,k2u21c8f7y,ms1000255,feedback,,null,,na,test,,,,,,,
619,,1186205,HierDyvq8l8wz7,k2u21c8f7y,ms1000255,rl,,65,img/o_d_check.png,65,test,1,NaN,1,,,,shape;pattern;color
null,,1187218,HierDyvq8l8wz7,k2u21c8f7y,ms1000255,feedback,,null,,na,test,,,,,,,
733,,1187962,HierDyvq8l8wz7,k2u21c8f7y,ms1000255,rl,,83,img/p_d_dots.png,70,test,4,NaN,0,,,,shape;pattern;color
