"rt","responses","time_elapsed","subject","prolificID","demoID","trialType","question_order","key_press","stim","corrresp","phase","stimNum","trialNum","corr","repeatTrial","motorSwitch","pracCounter","hierarchy"
"8316","{""Q0"":""ms1000279""}","8344","HierDykxzvuv0r","c00flrwv4e","ms1000279","","","","","","","","","","","","",""
"3514","","11866","HierDykxzvuv0r","c00flrwv4e","ms1000279","","","","","","","","","","","","",""
"","","14271","HierDykxzvuv0r","c00flrwv4e","ms1000279","fullscreen","","","","","","","","","","","",""
"13639","{""Vision"":""Yes"",""Handedness"":""Left"",""Gender"":""female""}","27925","HierDykxzvuv0r","c00flrwv4e","ms1000279","","[0,1,2]","","","","","","","","","","",""
"4996","{""Q0"":""19""}","32938","HierDykxzvuv0r","c00flrwv4e","ms1000279","","","","","","","","","","","","",""
"119971","","152920","HierDykxzvuv0r","c00flrwv4e","ms1000279","","","","","","","","","","","","",""
"661","","153589","HierDykxzvuv0r","c00flrwv4e","ms1000279","motor","","70","img/motor_4.png","70","motor","4","1","1","0","0","",""
"null","","153705","HierDykxzvuv0r","c00flrwv4e","ms1000279","iti","","null","img/motor_4.png","70","motor","","","","","","",""
"492","","154205","HierDykxzvuv0r","c00flrwv4e","ms1000279","motor","","74","img/motor_5.png","72","motor","5","2","0","1","0","",""
"2655","","156870","HierDykxzvuv0r","c00flrwv4e","ms1000279","motorRepeat","","74","img/motor_5.png","72","motor","5","2","0","1","0","",""
"2880","","159757","HierDykxzvuv0r","c00flrwv4e","ms1000279","motorRepeat","","72","img/motor_5.png","72","motor","5","2","1","0","0","",""
"null","","159872","HierDykxzvuv0r","c00flrwv4e","ms1000279","iti","","null","img/motor_5.png","72","motor","","","","","","",""
"965","","160845","HierDykxzvuv0r","c00flrwv4e","ms1000279","motor","","83","img/motor_2.png","83","motor","2","3","1","0","0","",""
"null","","160954","HierDykxzvuv0r","c00flrwv4e","ms1000279","iti","","null","img/motor_2.png","83","motor","","","","","","",""
"604","","161565","HierDykxzvuv0r","c00flrwv4e","ms1000279","motor","","75","img/motor_7.png","75","motor","7","4","1","0","0","",""
"null","","161673","HierDykxzvuv0r","c00flrwv4e","ms1000279","iti","","null","img/motor_7.png","75","motor","","","","","","",""
"523","","162205","HierDykxzvuv0r","c00flrwv4e","ms1000279","motor","","72","img/motor_5.png","72","motor","5","5","1","0","0","",""
"null","","162319","HierDykxzvuv0r","c00flrwv4e","ms1000279","iti","","null","img/motor_5.png","72","motor","","","","","","",""
"461","","162788","HierDykxzvuv0r","c00flrwv4e","ms1000279","motor","","83","img/motor_1.png","65","motor","1","6","0","1","0","",""
"320","","163117","HierDykxzvuv0r","c00flrwv4e","ms1000279","motorRepeat","","65","img/motor_1.png","65","motor","1","6","1","0","0","",""
"null","","163231","HierDykxzvuv0r","c00flrwv4e","ms1000279","iti","","null","img/motor_1.png","65","motor","","","","","","",""
"806","","164046","HierDykxzvuv0r","c00flrwv4e","ms1000279","motor","","68","img/motor_3.png","68","motor","3","7","1","0","0","",""
"null","","164154","HierDykxzvuv0r","c00flrwv4e","ms1000279","iti","","null","img/motor_3.png","68","motor","","","","","","",""
"539","","164702","HierDykxzvuv0r","c00flrwv4e","ms1000279","motor","","74","img/motor_6.png","74","motor","6","8","1","0","0","",""
"null","","164809","HierDykxzvuv0r","c00flrwv4e","ms1000279","iti","","null","img/motor_6.png","74","motor","","","","","","",""
"403","","165221","HierDykxzvuv0r","c00flrwv4e","ms1000279","motor","","72","img/motor_5.png","72","motor","5","9","1","0","0","",""
"null","","165335","HierDykxzvuv0r","c00flrwv4e","ms1000279","iti","","null","img/motor_5.png","72","motor","","","","","","",""
"558","","165901","HierDykxzvuv0r","c00flrwv4e","ms1000279","motor","","83","img/motor_2.png","83","motor","2","10","1","0","0","",""
"null","","166016","HierDykxzvuv0r","c00flrwv4e","ms1000279","iti","","null","img/motor_2.png","83","motor","","","","","","",""
"486","","166509","HierDykxzvuv0r","c00flrwv4e","ms1000279","motor","","68","img/motor_3.png","68","motor","3","11","1","0","0","",""
"null","","166617","HierDykxzvuv0r","c00flrwv4e","ms1000279","iti","","null","img/motor_3.png","68","motor","","","","","","",""
"452","","167077","HierDykxzvuv0r","c00flrwv4e","ms1000279","motor","","76","img/motor_8.png","76","motor","8","12","1","0","0","",""
"null","","167191","HierDykxzvuv0r","c00flrwv4e","ms1000279","iti","","null","img/motor_8.png","76","motor","","","","","","",""
"670","","167875","HierDykxzvuv0r","c00flrwv4e","ms1000279","motor","","74","img/motor_6.png","74","motor","6","13","1","0","0","",""
"null","","167984","HierDykxzvuv0r","c00flrwv4e","ms1000279","iti","","null","img/motor_6.png","74","motor","","","","","","",""
"494","","168485","HierDykxzvuv0r","c00flrwv4e","ms1000279","motor","","83","img/motor_2.png","83","motor","2","14","1","0","0","",""
"null","","168593","HierDykxzvuv0r","c00flrwv4e","ms1000279","iti","","null","img/motor_2.png","83","motor","","","","","","",""
"604","","169205","HierDykxzvuv0r","c00flrwv4e","ms1000279","motor","","74","img/motor_6.png","74","motor","6","15","1","0","0","",""
"null","","169319","HierDykxzvuv0r","c00flrwv4e","ms1000279","iti","","null","img/motor_6.png","74","motor","","","","","","",""
"509","","169843","HierDykxzvuv0r","c00flrwv4e","ms1000279","motor","","70","img/motor_4.png","70","motor","4","16","1","0","0","",""
"null","","169958","HierDykxzvuv0r","c00flrwv4e","ms1000279","iti","","null","img/motor_4.png","70","motor","","","","","","",""
"495","","170467","HierDykxzvuv0r","c00flrwv4e","ms1000279","motor","","74","img/motor_6.png","74","motor","6","17","1","0","0","",""
"null","","170576","HierDykxzvuv0r","c00flrwv4e","ms1000279","iti","","null","img/motor_6.png","74","motor","","","","","","",""
"470","","171060","HierDykxzvuv0r","c00flrwv4e","ms1000279","motor","","75","img/motor_7.png","75","motor","7","18","1","0","0","",""
"null","","171174","HierDykxzvuv0r","c00flrwv4e","ms1000279","iti","","null","img/motor_7.png","75","motor","","","","","","",""
"413","","171597","HierDykxzvuv0r","c00flrwv4e","ms1000279","motor","","74","img/motor_6.png","74","motor","6","19","1","0","0","",""
"null","","171706","HierDykxzvuv0r","c00flrwv4e","ms1000279","iti","","null","img/motor_6.png","74","motor","","","","","","",""
"770","","172485","HierDykxzvuv0r","c00flrwv4e","ms1000279","motor","","68","img/motor_3.png","68","motor","3","20","1","0","0","",""
"null","","172593","HierDykxzvuv0r","c00flrwv4e","ms1000279","iti","","null","img/motor_3.png","68","motor","","","","","","",""
"364","","172971","HierDykxzvuv0r","c00flrwv4e","ms1000279","motor","","72","img/motor_5.png","72","motor","5","21","1","0","0","",""
"null","","173080","HierDykxzvuv0r","c00flrwv4e","ms1000279","iti","","null","img/motor_5.png","72","motor","","","","","","",""
"613","","173701","HierDykxzvuv0r","c00flrwv4e","ms1000279","motor","","68","img/motor_3.png","68","motor","3","22","1","0","0","",""
"null","","173809","HierDykxzvuv0r","c00flrwv4e","ms1000279","iti","","null","img/motor_3.png","68","motor","","","","","","",""
"428","","174245","HierDykxzvuv0r","c00flrwv4e","ms1000279","motor","","65","img/motor_1.png","65","motor","1","23","1","0","0","",""
"null","","174360","HierDykxzvuv0r","c00flrwv4e","ms1000279","iti","","null","img/motor_1.png","65","motor","","","","","","",""
"606","","174980","HierDykxzvuv0r","c00flrwv4e","ms1000279","motor","","65","img/motor_1.png","65","motor","1","24","1","0","0","",""
"null","","175088","HierDykxzvuv0r","c00flrwv4e","ms1000279","iti","","null","img/motor_1.png","65","motor","","","","","","",""
"588","","175686","HierDykxzvuv0r","c00flrwv4e","ms1000279","motor","","68","img/motor_3.png","68","motor","3","25","1","0","0","",""
"null","","175800","HierDykxzvuv0r","c00flrwv4e","ms1000279","iti","","null","img/motor_3.png","68","motor","","","","","","",""
"454","","176261","HierDykxzvuv0r","c00flrwv4e","ms1000279","motor","","72","img/motor_5.png","72","motor","5","26","1","0","0","",""
"null","","176368","HierDykxzvuv0r","c00flrwv4e","ms1000279","iti","","null","img/motor_5.png","72","motor","","","","","","",""
"325","","176701","HierDykxzvuv0r","c00flrwv4e","ms1000279","motor","","74","img/motor_6.png","74","motor","6","27","1","0","0","",""
"null","","176809","HierDykxzvuv0r","c00flrwv4e","ms1000279","iti","","null","img/motor_6.png","74","motor","","","","","","",""
"308","","177126","HierDykxzvuv0r","c00flrwv4e","ms1000279","motor","","74","img/motor_6.png","74","motor","6","28","1","0","0","",""
"null","","177234","HierDykxzvuv0r","c00flrwv4e","ms1000279","iti","","null","img/motor_6.png","74","motor","","","","","","",""
"539","","177781","HierDykxzvuv0r","c00flrwv4e","ms1000279","motor","","83","img/motor_2.png","83","motor","2","29","1","0","0","",""
"null","","177896","HierDykxzvuv0r","c00flrwv4e","ms1000279","iti","","null","img/motor_2.png","83","motor","","","","","","",""
"381","","178285","HierDykxzvuv0r","c00flrwv4e","ms1000279","motor","","68","img/motor_3.png","68","motor","3","30","1","0","0","",""
"null","","178394","HierDykxzvuv0r","c00flrwv4e","ms1000279","iti","","null","img/motor_3.png","68","motor","","","","","","",""
"404","","178805","HierDykxzvuv0r","c00flrwv4e","ms1000279","motor","","83","img/motor_2.png","83","motor","2","31","1","0","0","",""
"null","","178914","HierDykxzvuv0r","c00flrwv4e","ms1000279","iti","","null","img/motor_2.png","83","motor","","","","","","",""
"461","","179381","HierDykxzvuv0r","c00flrwv4e","ms1000279","motor","","76","img/motor_8.png","76","motor","8","32","1","0","0","",""
"null","","179489","HierDykxzvuv0r","c00flrwv4e","ms1000279","iti","","null","img/motor_8.png","76","motor","","","","","","",""
"533","","180029","HierDykxzvuv0r","c00flrwv4e","ms1000279","motor","","83","img/motor_2.png","83","motor","2","33","1","0","0","",""
"null","","180137","HierDykxzvuv0r","c00flrwv4e","ms1000279","iti","","null","img/motor_2.png","83","motor","","","","","","",""
"557","","180701","HierDykxzvuv0r","c00flrwv4e","ms1000279","motor","","75","img/motor_7.png","75","motor","7","34","1","0","0","",""
"null","","180815","HierDykxzvuv0r","c00flrwv4e","ms1000279","iti","","null","img/motor_7.png","75","motor","","","","","","",""
"413","","181237","HierDykxzvuv0r","c00flrwv4e","ms1000279","motor","","74","img/motor_5.png","72","motor","5","35","0","1","0","",""
"344","","181589","HierDykxzvuv0r","c00flrwv4e","ms1000279","motorRepeat","","72","img/motor_5.png","72","motor","5","35","1","0","0","",""
"null","","181697","HierDykxzvuv0r","c00flrwv4e","ms1000279","iti","","null","img/motor_5.png","72","motor","","","","","","",""
"532","","182237","HierDykxzvuv0r","c00flrwv4e","ms1000279","motor","","65","img/motor_1.png","65","motor","1","36","1","0","0","",""
"null","","182352","HierDykxzvuv0r","c00flrwv4e","ms1000279","iti","","null","img/motor_1.png","65","motor","","","","","","",""
"565","","182932","HierDykxzvuv0r","c00flrwv4e","ms1000279","motor","","83","img/motor_2.png","83","motor","2","37","1","0","0","",""
"null","","183047","HierDykxzvuv0r","c00flrwv4e","ms1000279","iti","","null","img/motor_2.png","83","motor","","","","","","",""
"430","","183485","HierDykxzvuv0r","c00flrwv4e","ms1000279","motor","","76","img/motor_8.png","76","motor","8","38","1","0","0","",""
"null","","183599","HierDykxzvuv0r","c00flrwv4e","ms1000279","iti","","null","img/motor_8.png","76","motor","","","","","","",""
"558","","184165","HierDykxzvuv0r","c00flrwv4e","ms1000279","motor","","83","img/motor_2.png","83","motor","2","39","1","0","0","",""
"null","","184273","HierDykxzvuv0r","c00flrwv4e","ms1000279","iti","","null","img/motor_2.png","83","motor","","","","","","",""
"555","","184837","HierDykxzvuv0r","c00flrwv4e","ms1000279","motor","","70","img/motor_4.png","70","motor","4","40","1","0","0","",""
"null","","184945","HierDykxzvuv0r","c00flrwv4e","ms1000279","iti","","null","img/motor_4.png","70","motor","","","","","","",""
"500","","185454","HierDykxzvuv0r","c00flrwv4e","ms1000279","motor","","68","img/motor_3.png","68","motor","3","41","1","0","0","",""
"null","","185568","HierDykxzvuv0r","c00flrwv4e","ms1000279","iti","","null","img/motor_3.png","68","motor","","","","","","",""
"725","","186301","HierDykxzvuv0r","c00flrwv4e","ms1000279","motor","","74","img/motor_6.png","74","motor","6","42","1","0","0","",""
"null","","186416","HierDykxzvuv0r","c00flrwv4e","ms1000279","iti","","null","img/motor_6.png","74","motor","","","","","","",""
"509","","186934","HierDykxzvuv0r","c00flrwv4e","ms1000279","motor","","65","img/motor_1.png","65","motor","1","43","1","0","0","",""
"null","","187048","HierDykxzvuv0r","c00flrwv4e","ms1000279","iti","","null","img/motor_1.png","65","motor","","","","","","",""
"388","","187446","HierDykxzvuv0r","c00flrwv4e","ms1000279","motor","","74","img/motor_6.png","74","motor","6","44","1","0","0","",""
"null","","187560","HierDykxzvuv0r","c00flrwv4e","ms1000279","iti","","null","img/motor_6.png","74","motor","","","","","","",""
"406","","187980","HierDykxzvuv0r","c00flrwv4e","ms1000279","motor","","76","img/motor_8.png","76","motor","8","45","1","0","0","",""
"null","","188089","HierDykxzvuv0r","c00flrwv4e","ms1000279","iti","","null","img/motor_8.png","76","motor","","","","","","",""
"580","","188678","HierDykxzvuv0r","c00flrwv4e","ms1000279","motor","","68","img/motor_3.png","68","motor","3","46","1","0","0","",""
"null","","188787","HierDykxzvuv0r","c00flrwv4e","ms1000279","iti","","null","img/motor_3.png","68","motor","","","","","","",""
"426","","189222","HierDykxzvuv0r","c00flrwv4e","ms1000279","motor","","68","img/motor_3.png","68","motor","3","47","1","0","0","",""
"null","","189329","HierDykxzvuv0r","c00flrwv4e","ms1000279","iti","","null","img/motor_3.png","68","motor","","","","","","",""
"532","","189876","HierDykxzvuv0r","c00flrwv4e","ms1000279","motor","","76","img/motor_7.png","75","motor","7","48","0","1","0","",""
"369","","190253","HierDykxzvuv0r","c00flrwv4e","ms1000279","motorRepeat","","75","img/motor_7.png","75","motor","7","48","1","0","0","",""
"null","","190361","HierDykxzvuv0r","c00flrwv4e","ms1000279","iti","","null","img/motor_7.png","75","motor","","","","","","",""
"693","","191061","HierDykxzvuv0r","c00flrwv4e","ms1000279","motor","","75","img/motor_7.png","75","motor","7","49","1","0","0","",""
"null","","191175","HierDykxzvuv0r","c00flrwv4e","ms1000279","iti","","null","img/motor_7.png","75","motor","","","","","","",""
"469","","191653","HierDykxzvuv0r","c00flrwv4e","ms1000279","motor","","76","img/motor_8.png","76","motor","8","50","1","0","0","",""
"null","","191767","HierDykxzvuv0r","c00flrwv4e","ms1000279","iti","","null","img/motor_8.png","76","motor","","","","","","",""
"574","","192350","HierDykxzvuv0r","c00flrwv4e","ms1000279","motor","","72","img/motor_5.png","72","motor","5","51","1","0","0","",""
"null","","192464","HierDykxzvuv0r","c00flrwv4e","ms1000279","iti","","null","img/motor_5.png","72","motor","","","","","","",""
"549","","193021","HierDykxzvuv0r","c00flrwv4e","ms1000279","motor","","83","img/motor_2.png","83","motor","2","52","1","0","0","",""
"null","","193128","HierDykxzvuv0r","c00flrwv4e","ms1000279","iti","","null","img/motor_2.png","83","motor","","","","","","",""
"358","","193499","HierDykxzvuv0r","c00flrwv4e","ms1000279","motor","","83","img/motor_2.png","83","motor","2","53","1","0","0","",""
"null","","193614","HierDykxzvuv0r","c00flrwv4e","ms1000279","iti","","null","img/motor_2.png","83","motor","","","","","","",""
"582","","194206","HierDykxzvuv0r","c00flrwv4e","ms1000279","motor","","70","img/motor_4.png","70","motor","4","54","1","0","0","",""
"null","","194320","HierDykxzvuv0r","c00flrwv4e","ms1000279","iti","","null","img/motor_4.png","70","motor","","","","","","",""
"445","","194780","HierDykxzvuv0r","c00flrwv4e","ms1000279","motor","","76","img/motor_8.png","76","motor","8","55","1","0","0","",""
"null","","194894","HierDykxzvuv0r","c00flrwv4e","ms1000279","iti","","null","img/motor_8.png","76","motor","","","","","","",""
"614","","195518","HierDykxzvuv0r","c00flrwv4e","ms1000279","motor","","83","img/motor_2.png","83","motor","2","56","1","0","0","",""
"null","","195625","HierDykxzvuv0r","c00flrwv4e","ms1000279","iti","","null","img/motor_2.png","83","motor","","","","","","",""
"564","","196204","HierDykxzvuv0r","c00flrwv4e","ms1000279","motor","","72","img/motor_5.png","72","motor","5","57","1","0","0","",""
"null","","196318","HierDykxzvuv0r","c00flrwv4e","ms1000279","iti","","null","img/motor_5.png","72","motor","","","","","","",""
"431","","196764","HierDykxzvuv0r","c00flrwv4e","ms1000279","motor","","76","img/motor_8.png","76","motor","8","58","1","0","0","",""
"null","","196884","HierDykxzvuv0r","c00flrwv4e","ms1000279","iti","","null","img/motor_8.png","76","motor","","","","","","",""
"545","","197449","HierDykxzvuv0r","c00flrwv4e","ms1000279","motor","","75","img/motor_7.png","75","motor","7","59","1","0","0","",""
"null","","197565","HierDykxzvuv0r","c00flrwv4e","ms1000279","iti","","null","img/motor_7.png","75","motor","","","","","","",""
"528","","198102","HierDykxzvuv0r","c00flrwv4e","ms1000279","motor","","83","img/motor_2.png","83","motor","2","60","1","0","0","",""
"null","","198216","HierDykxzvuv0r","c00flrwv4e","ms1000279","iti","","null","img/motor_2.png","83","motor","","","","","","",""
"538","","198773","HierDykxzvuv0r","c00flrwv4e","ms1000279","motor","","75","img/motor_7.png","75","motor","7","61","1","0","0","",""
"null","","198888","HierDykxzvuv0r","c00flrwv4e","ms1000279","iti","","null","img/motor_7.png","75","motor","","","","","","",""
"421","","199318","HierDykxzvuv0r","c00flrwv4e","ms1000279","motor","","74","img/motor_6.png","74","motor","6","62","1","0","0","",""
"null","","199426","HierDykxzvuv0r","c00flrwv4e","ms1000279","iti","","null","img/motor_6.png","74","motor","","","","","","",""
"412","","199851","HierDykxzvuv0r","c00flrwv4e","ms1000279","motor","","76","img/motor_8.png","76","motor","8","63","1","0","0","",""
"null","","199961","HierDykxzvuv0r","c00flrwv4e","ms1000279","iti","","null","img/motor_8.png","76","motor","","","","","","",""
"589","","200558","HierDykxzvuv0r","c00flrwv4e","ms1000279","motor","","74","img/motor_6.png","74","motor","6","64","1","0","0","",""
"null","","200666","HierDykxzvuv0r","c00flrwv4e","ms1000279","iti","","null","img/motor_6.png","74","motor","","","","","","",""
"452","","201132","HierDykxzvuv0r","c00flrwv4e","ms1000279","motor","","74","img/motor_6.png","74","motor","6","65","1","0","0","",""
"null","","201247","HierDykxzvuv0r","c00flrwv4e","ms1000279","iti","","null","img/motor_6.png","74","motor","","","","","","",""
"661","","201918","HierDykxzvuv0r","c00flrwv4e","ms1000279","motor","","70","img/motor_4.png","70","motor","4","66","1","0","0","",""
"null","","202026","HierDykxzvuv0r","c00flrwv4e","ms1000279","iti","","null","img/motor_4.png","70","motor","","","","","","",""
"427","","202462","HierDykxzvuv0r","c00flrwv4e","ms1000279","motor","","65","img/motor_1.png","65","motor","1","67","1","0","0","",""
"null","","202577","HierDykxzvuv0r","c00flrwv4e","ms1000279","iti","","null","img/motor_1.png","65","motor","","","","","","",""
"427","","203014","HierDykxzvuv0r","c00flrwv4e","ms1000279","motor","","83","img/motor_2.png","83","motor","2","68","1","0","0","",""
"null","","203128","HierDykxzvuv0r","c00flrwv4e","ms1000279","iti","","null","img/motor_2.png","83","motor","","","","","","",""
"540","","203678","HierDykxzvuv0r","c00flrwv4e","ms1000279","motor","","75","img/motor_7.png","75","motor","7","69","1","0","0","",""
"null","","203793","HierDykxzvuv0r","c00flrwv4e","ms1000279","iti","","null","img/motor_7.png","75","motor","","","","","","",""
"788","","204590","HierDykxzvuv0r","c00flrwv4e","ms1000279","motor","","75","img/motor_7.png","75","motor","7","70","1","0","0","",""
"null","","204704","HierDykxzvuv0r","c00flrwv4e","ms1000279","iti","","null","img/motor_7.png","75","motor","","","","","","",""
"541","","205260","HierDykxzvuv0r","c00flrwv4e","ms1000279","motor","","70","img/motor_4.png","70","motor","4","71","1","0","0","",""
"null","","205369","HierDykxzvuv0r","c00flrwv4e","ms1000279","iti","","null","img/motor_4.png","70","motor","","","","","","",""
"526","","205901","HierDykxzvuv0r","c00flrwv4e","ms1000279","motor","","72","img/motor_5.png","72","motor","5","72","1","0","0","",""
"null","","206015","HierDykxzvuv0r","c00flrwv4e","ms1000279","iti","","null","img/motor_5.png","72","motor","","","","","","",""
"494","","206524","HierDykxzvuv0r","c00flrwv4e","ms1000279","motor","","83","img/motor_2.png","83","motor","2","73","1","0","0","",""
"null","","206633","HierDykxzvuv0r","c00flrwv4e","ms1000279","iti","","null","img/motor_2.png","83","motor","","","","","","",""
"509","","207149","HierDykxzvuv0r","c00flrwv4e","ms1000279","motor","","68","img/motor_3.png","68","motor","3","74","1","0","0","",""
"null","","207264","HierDykxzvuv0r","c00flrwv4e","ms1000279","iti","","null","img/motor_3.png","68","motor","","","","","","",""
"379","","207660","HierDykxzvuv0r","c00flrwv4e","ms1000279","motor","","68","img/motor_3.png","68","motor","3","75","1","0","0","",""
"null","","207774","HierDykxzvuv0r","c00flrwv4e","ms1000279","iti","","null","img/motor_3.png","68","motor","","","","","","",""
"494","","208277","HierDykxzvuv0r","c00flrwv4e","ms1000279","motor","","76","img/motor_8.png","76","motor","8","76","1","0","0","",""
"null","","208392","HierDykxzvuv0r","c00flrwv4e","ms1000279","iti","","null","img/motor_8.png","76","motor","","","","","","",""
"501","","208901","HierDykxzvuv0r","c00flrwv4e","ms1000279","motor","","72","img/motor_5.png","72","motor","5","77","1","0","0","",""
"null","","209016","HierDykxzvuv0r","c00flrwv4e","ms1000279","iti","","null","img/motor_5.png","72","motor","","","","","","",""
"485","","209509","HierDykxzvuv0r","c00flrwv4e","ms1000279","motor","","83","img/motor_2.png","83","motor","2","78","1","0","0","",""
"null","","209623","HierDykxzvuv0r","c00flrwv4e","ms1000279","iti","","null","img/motor_2.png","83","motor","","","","","","",""
"374","","210005","HierDykxzvuv0r","c00flrwv4e","ms1000279","motor","","65","img/motor_1.png","65","motor","1","79","1","0","0","",""
"null","","210114","HierDykxzvuv0r","c00flrwv4e","ms1000279","iti","","null","img/motor_1.png","65","motor","","","","","","",""
"516","","210637","HierDykxzvuv0r","c00flrwv4e","ms1000279","motor","","72","img/motor_5.png","72","motor","5","80","1","0","0","",""
"null","","210746","HierDykxzvuv0r","c00flrwv4e","ms1000279","iti","","null","img/motor_5.png","72","motor","","","","","","",""
"612","","211365","HierDykxzvuv0r","c00flrwv4e","ms1000279","motor","","68","img/motor_3.png","68","motor","3","81","1","0","0","",""
"null","","211474","HierDykxzvuv0r","c00flrwv4e","ms1000279","iti","","null","img/motor_3.png","68","motor","","","","","","",""
"596","","212085","HierDykxzvuv0r","c00flrwv4e","ms1000279","motor","","74","img/motor_6.png","74","motor","6","82","1","0","0","",""
"null","","212200","HierDykxzvuv0r","c00flrwv4e","ms1000279","iti","","null","img/motor_6.png","74","motor","","","","","","",""
"397","","212612","HierDykxzvuv0r","c00flrwv4e","ms1000279","motor","","72","img/motor_5.png","72","motor","5","83","1","0","0","",""
"null","","212722","HierDykxzvuv0r","c00flrwv4e","ms1000279","iti","","null","img/motor_5.png","72","motor","","","","","","",""
"420","","213150","HierDykxzvuv0r","c00flrwv4e","ms1000279","motor","","76","img/motor_8.png","76","motor","8","84","1","0","0","",""
"null","","213264","HierDykxzvuv0r","c00flrwv4e","ms1000279","iti","","null","img/motor_8.png","76","motor","","","","","","",""
"517","","213790","HierDykxzvuv0r","c00flrwv4e","ms1000279","motor","","72","img/motor_5.png","72","motor","5","85","1","0","0","",""
"null","","213904","HierDykxzvuv0r","c00flrwv4e","ms1000279","iti","","null","img/motor_5.png","72","motor","","","","","","",""
"525","","214438","HierDykxzvuv0r","c00flrwv4e","ms1000279","motor","","75","img/motor_7.png","75","motor","7","86","1","0","0","",""
"null","","214552","HierDykxzvuv0r","c00flrwv4e","ms1000279","iti","","null","img/motor_7.png","75","motor","","","","","","",""
"421","","214982","HierDykxzvuv0r","c00flrwv4e","ms1000279","motor","","74","img/motor_6.png","74","motor","6","87","1","0","0","",""
"null","","215097","HierDykxzvuv0r","c00flrwv4e","ms1000279","iti","","null","img/motor_6.png","74","motor","","","","","","",""
"573","","215678","HierDykxzvuv0r","c00flrwv4e","ms1000279","motor","","70","img/motor_4.png","70","motor","4","88","1","0","0","",""
"null","","215786","HierDykxzvuv0r","c00flrwv4e","ms1000279","iti","","null","img/motor_4.png","70","motor","","","","","","",""
"372","","216166","HierDykxzvuv0r","c00flrwv4e","ms1000279","motor","","68","img/motor_3.png","68","motor","3","89","1","0","0","",""
"null","","216280","HierDykxzvuv0r","c00flrwv4e","ms1000279","iti","","null","img/motor_3.png","68","motor","","","","","","",""
"364","","216660","HierDykxzvuv0r","c00flrwv4e","ms1000279","motor","","65","img/motor_1.png","65","motor","1","90","1","0","0","",""
"null","","216769","HierDykxzvuv0r","c00flrwv4e","ms1000279","iti","","null","img/motor_1.png","65","motor","","","","","","",""
"605","","217382","HierDykxzvuv0r","c00flrwv4e","ms1000279","motor","","75","img/motor_7.png","75","motor","7","91","1","0","0","",""
"null","","217490","HierDykxzvuv0r","c00flrwv4e","ms1000279","iti","","null","img/motor_7.png","75","motor","","","","","","",""
"532","","218037","HierDykxzvuv0r","c00flrwv4e","ms1000279","motor","","68","img/motor_3.png","68","motor","3","92","1","0","0","",""
"null","","218146","HierDykxzvuv0r","c00flrwv4e","ms1000279","iti","","null","img/motor_3.png","68","motor","","","","","","",""
"684","","218844","HierDykxzvuv0r","c00flrwv4e","ms1000279","motor","","76","img/motor_8.png","76","motor","8","93","1","0","0","",""
"null","","218954","HierDykxzvuv0r","c00flrwv4e","ms1000279","iti","","null","img/motor_8.png","76","motor","","","","","","",""
"460","","219428","HierDykxzvuv0r","c00flrwv4e","ms1000279","motor","","68","img/motor_3.png","68","motor","3","94","1","0","0","",""
"null","","219544","HierDykxzvuv0r","c00flrwv4e","ms1000279","iti","","null","img/motor_3.png","68","motor","","","","","","",""
"559","","220109","HierDykxzvuv0r","c00flrwv4e","ms1000279","motor","","83","img/motor_2.png","83","motor","2","95","1","0","0","",""
"null","","220224","HierDykxzvuv0r","c00flrwv4e","ms1000279","iti","","null","img/motor_2.png","83","motor","","","","","","",""
"517","","220756","HierDykxzvuv0r","c00flrwv4e","ms1000279","motor","","76","img/motor_8.png","76","motor","8","96","1","0","0","",""
"null","","220865","HierDykxzvuv0r","c00flrwv4e","ms1000279","iti","","null","img/motor_8.png","76","motor","","","","","","",""
"621","","221500","HierDykxzvuv0r","c00flrwv4e","ms1000279","motor","","72","img/motor_5.png","72","motor","5","97","1","0","0","",""
"null","","221609","HierDykxzvuv0r","c00flrwv4e","ms1000279","iti","","null","img/motor_5.png","72","motor","","","","","","",""
"397","","222020","HierDykxzvuv0r","c00flrwv4e","ms1000279","motor","","76","img/motor_8.png","76","motor","8","98","1","0","0","",""
"null","","222136","HierDykxzvuv0r","c00flrwv4e","ms1000279","iti","","null","img/motor_8.png","76","motor","","","","","","",""
"414","","222557","HierDykxzvuv0r","c00flrwv4e","ms1000279","motor","","72","img/motor_5.png","72","motor","5","99","1","0","0","",""
"null","","222664","HierDykxzvuv0r","c00flrwv4e","ms1000279","iti","","null","img/motor_5.png","72","motor","","","","","","",""
"365","","223037","HierDykxzvuv0r","c00flrwv4e","ms1000279","motor","","72","img/motor_5.png","72","motor","5","100","1","0","0","",""
"null","","223152","HierDykxzvuv0r","c00flrwv4e","ms1000279","iti","","null","img/motor_5.png","72","motor","","","","","","",""
"509","","223670","HierDykxzvuv0r","c00flrwv4e","ms1000279","motor","","75","img/motor_7.png","75","motor","7","101","1","0","0","",""
"null","","223784","HierDykxzvuv0r","c00flrwv4e","ms1000279","iti","","null","img/motor_7.png","75","motor","","","","","","",""
"701","","224493","HierDykxzvuv0r","c00flrwv4e","ms1000279","motor","","68","img/motor_3.png","68","motor","3","102","1","0","0","",""
"null","","224602","HierDykxzvuv0r","c00flrwv4e","ms1000279","iti","","null","img/motor_3.png","68","motor","","","","","","",""
"388","","224997","HierDykxzvuv0r","c00flrwv4e","ms1000279","motor","","72","img/motor_5.png","72","motor","5","103","1","0","0","",""
"null","","225105","HierDykxzvuv0r","c00flrwv4e","ms1000279","iti","","null","img/motor_5.png","72","motor","","","","","","",""
"355","","225469","HierDykxzvuv0r","c00flrwv4e","ms1000279","motor","","72","img/motor_5.png","72","motor","5","104","1","0","0","",""
"null","","225584","HierDykxzvuv0r","c00flrwv4e","ms1000279","iti","","null","img/motor_5.png","72","motor","","","","","","",""
"525","","226119","HierDykxzvuv0r","c00flrwv4e","ms1000279","motor","","83","img/motor_2.png","83","motor","2","105","1","0","0","",""
"null","","226233","HierDykxzvuv0r","c00flrwv4e","ms1000279","iti","","null","img/motor_2.png","83","motor","","","","","","",""
"468","","226710","HierDykxzvuv0r","c00flrwv4e","ms1000279","motor","","75","img/motor_7.png","75","motor","7","106","1","0","0","",""
"null","","226818","HierDykxzvuv0r","c00flrwv4e","ms1000279","iti","","null","img/motor_7.png","75","motor","","","","","","",""
"580","","227406","HierDykxzvuv0r","c00flrwv4e","ms1000279","motor","","70","img/motor_4.png","70","motor","4","107","1","0","0","",""
"null","","227514","HierDykxzvuv0r","c00flrwv4e","ms1000279","iti","","null","img/motor_4.png","70","motor","","","","","","",""
"363","","227884","HierDykxzvuv0r","c00flrwv4e","ms1000279","motor","","70","img/motor_4.png","70","motor","4","108","1","0","0","",""
"null","","228000","HierDykxzvuv0r","c00flrwv4e","ms1000279","iti","","null","img/motor_4.png","70","motor","","","","","","",""
"430","","228437","HierDykxzvuv0r","c00flrwv4e","ms1000279","motor","","83","img/motor_2.png","83","motor","2","109","1","0","0","",""
"null","","228546","HierDykxzvuv0r","c00flrwv4e","ms1000279","iti","","null","img/motor_2.png","83","motor","","","","","","",""
"372","","228925","HierDykxzvuv0r","c00flrwv4e","ms1000279","motor","","65","img/motor_1.png","65","motor","1","110","1","0","0","",""
"null","","229033","HierDykxzvuv0r","c00flrwv4e","ms1000279","iti","","null","img/motor_1.png","65","motor","","","","","","",""
"445","","229486","HierDykxzvuv0r","c00flrwv4e","ms1000279","motor","","76","img/motor_8.png","76","motor","8","111","1","0","0","",""
"null","","229594","HierDykxzvuv0r","c00flrwv4e","ms1000279","iti","","null","img/motor_8.png","76","motor","","","","","","",""
"468","","230070","HierDykxzvuv0r","c00flrwv4e","ms1000279","motor","","83","img/motor_2.png","83","motor","2","112","1","0","0","",""
"null","","230184","HierDykxzvuv0r","c00flrwv4e","ms1000279","iti","","null","img/motor_2.png","83","motor","","","","","","",""
"437","","230630","HierDykxzvuv0r","c00flrwv4e","ms1000279","motor","","65","img/motor_1.png","65","motor","1","113","1","0","0","",""
"null","","230738","HierDykxzvuv0r","c00flrwv4e","ms1000279","iti","","null","img/motor_1.png","65","motor","","","","","","",""
"419","","231172","HierDykxzvuv0r","c00flrwv4e","ms1000279","motor","","72","img/motor_5.png","72","motor","5","114","1","0","0","",""
"null","","231280","HierDykxzvuv0r","c00flrwv4e","ms1000279","iti","","null","img/motor_5.png","72","motor","","","","","","",""
"509","","231799","HierDykxzvuv0r","c00flrwv4e","ms1000279","motor","","68","img/motor_4.png","70","motor","4","115","0","1","0","",""
"415","","232222","HierDykxzvuv0r","c00flrwv4e","ms1000279","motorRepeat","","70","img/motor_4.png","70","motor","4","115","1","0","0","",""
"null","","232337","HierDykxzvuv0r","c00flrwv4e","ms1000279","iti","","null","img/motor_4.png","70","motor","","","","","","",""
"589","","232933","HierDykxzvuv0r","c00flrwv4e","ms1000279","motor","","75","img/motor_7.png","75","motor","7","116","1","0","0","",""
"null","","233042","HierDykxzvuv0r","c00flrwv4e","ms1000279","iti","","null","img/motor_7.png","75","motor","","","","","","",""
"357","","233405","HierDykxzvuv0r","c00flrwv4e","ms1000279","motor","","76","img/motor_8.png","76","motor","8","117","1","0","0","",""
"null","","233520","HierDykxzvuv0r","c00flrwv4e","ms1000279","iti","","null","img/motor_8.png","76","motor","","","","","","",""
"573","","234102","HierDykxzvuv0r","c00flrwv4e","ms1000279","motor","","83","img/motor_2.png","83","motor","2","118","1","0","0","",""
"null","","234216","HierDykxzvuv0r","c00flrwv4e","ms1000279","iti","","null","img/motor_2.png","83","motor","","","","","","",""
"381","","234605","HierDykxzvuv0r","c00flrwv4e","ms1000279","motor","","76","img/motor_8.png","76","motor","8","119","1","0","0","",""
"null","","234714","HierDykxzvuv0r","c00flrwv4e","ms1000279","iti","","null","img/motor_8.png","76","motor","","","","","","",""
"533","","235253","HierDykxzvuv0r","c00flrwv4e","ms1000279","motor","","83","img/motor_2.png","83","motor","2","120","1","0","0","",""
"null","","235368","HierDykxzvuv0r","c00flrwv4e","ms1000279","iti","","null","img/motor_2.png","83","motor","","","","","","",""
"445","","235821","HierDykxzvuv0r","c00flrwv4e","ms1000279","motor","","68","img/motor_3.png","68","motor","3","121","1","0","0","",""
"null","","235930","HierDykxzvuv0r","c00flrwv4e","ms1000279","iti","","null","img/motor_3.png","68","motor","","","","","","",""
"508","","236452","HierDykxzvuv0r","c00flrwv4e","ms1000279","motor","","83","img/motor_2.png","83","motor","2","122","1","0","0","",""
"98","","236566","HierDykxzvuv0r","c00flrwv4e","ms1000279","iti","","83","img/motor_2.png","83","motor","","","","","","",""
"470","","237045","HierDykxzvuv0r","c00flrwv4e","ms1000279","motor","","72","img/motor_5.png","72","motor","5","123","1","0","0","",""
"null","","237160","HierDykxzvuv0r","c00flrwv4e","ms1000279","iti","","null","img/motor_5.png","72","motor","","","","","","",""
"510","","237684","HierDykxzvuv0r","c00flrwv4e","ms1000279","motor","","68","img/motor_4.png","70","motor","4","124","0","1","0","",""
"281","","237973","HierDykxzvuv0r","c00flrwv4e","ms1000279","motorRepeat","","70","img/motor_4.png","70","motor","4","124","1","0","0","",""
"null","","238088","HierDykxzvuv0r","c00flrwv4e","ms1000279","iti","","null","img/motor_4.png","70","motor","","","","","","",""
"365","","238461","HierDykxzvuv0r","c00flrwv4e","ms1000279","motor","","70","img/motor_4.png","70","motor","4","125","1","0","0","",""
"null","","238570","HierDykxzvuv0r","c00flrwv4e","ms1000279","iti","","null","img/motor_4.png","70","motor","","","","","","",""
"468","","239046","HierDykxzvuv0r","c00flrwv4e","ms1000279","motor","","65","img/motor_1.png","65","motor","1","126","1","0","0","",""
"null","","239161","HierDykxzvuv0r","c00flrwv4e","ms1000279","iti","","null","img/motor_1.png","65","motor","","","","","","",""
"453","","239622","HierDykxzvuv0r","c00flrwv4e","ms1000279","motor","","70","img/motor_4.png","70","motor","4","127","1","0","0","",""
"null","","239730","HierDykxzvuv0r","c00flrwv4e","ms1000279","iti","","null","img/motor_4.png","70","motor","","","","","","",""
"340","","240078","HierDykxzvuv0r","c00flrwv4e","ms1000279","motor","","65","img/motor_1.png","65","motor","1","128","1","0","0","",""
"null","","240186","HierDykxzvuv0r","c00flrwv4e","ms1000279","iti","","null","img/motor_1.png","65","motor","","","","","","",""
"652","","240845","HierDykxzvuv0r","c00flrwv4e","ms1000279","motor","","75","img/motor_7.png","75","motor","7","129","1","0","0","",""
"null","","240954","HierDykxzvuv0r","c00flrwv4e","ms1000279","iti","","null","img/motor_7.png","75","motor","","","","","","",""
"653","","241620","HierDykxzvuv0r","c00flrwv4e","ms1000279","motor","","83","img/motor_2.png","83","motor","2","130","1","0","0","",""
"null","","241735","HierDykxzvuv0r","c00flrwv4e","ms1000279","iti","","null","img/motor_2.png","83","motor","","","","","","",""
"1214","","242958","HierDykxzvuv0r","c00flrwv4e","ms1000279","motor","","70","img/motor_4.png","70","motor","4","131","1","0","0","",""
"null","","243072","HierDykxzvuv0r","c00flrwv4e","ms1000279","iti","","null","img/motor_4.png","70","motor","","","","","","",""
"589","","243669","HierDykxzvuv0r","c00flrwv4e","ms1000279","motor","","74","img/motor_6.png","74","motor","6","132","1","0","0","",""
"null","","243784","HierDykxzvuv0r","c00flrwv4e","ms1000279","iti","","null","img/motor_6.png","74","motor","","","","","","",""
"685","","244484","HierDykxzvuv0r","c00flrwv4e","ms1000279","motor","","68","img/motor_3.png","68","motor","3","133","1","0","0","",""
"null","","244600","HierDykxzvuv0r","c00flrwv4e","ms1000279","iti","","null","img/motor_3.png","68","motor","","","","","","",""
"725","","245334","HierDykxzvuv0r","c00flrwv4e","ms1000279","motor","","74","img/motor_6.png","74","motor","6","134","1","0","0","",""
"null","","245449","HierDykxzvuv0r","c00flrwv4e","ms1000279","iti","","null","img/motor_6.png","74","motor","","","","","","",""
"515","","245977","HierDykxzvuv0r","c00flrwv4e","ms1000279","motor","","72","img/motor_5.png","72","motor","5","135","1","0","0","",""
"null","","246085","HierDykxzvuv0r","c00flrwv4e","ms1000279","iti","","null","img/motor_5.png","72","motor","","","","","","",""
"537","","246636","HierDykxzvuv0r","c00flrwv4e","ms1000279","motor","","75","img/motor_7.png","75","motor","7","136","1","0","0","",""
"null","","246751","HierDykxzvuv0r","c00flrwv4e","ms1000279","iti","","null","img/motor_7.png","75","motor","","","","","","",""
"638","","247398","HierDykxzvuv0r","c00flrwv4e","ms1000279","motor","","68","img/motor_3.png","68","motor","3","137","1","0","0","",""
"null","","247507","HierDykxzvuv0r","c00flrwv4e","ms1000279","iti","","null","img/motor_3.png","68","motor","","","","","","",""
"436","","247957","HierDykxzvuv0r","c00flrwv4e","ms1000279","motor","","83","img/motor_2.png","83","motor","2","138","1","0","0","",""
"null","","248066","HierDykxzvuv0r","c00flrwv4e","ms1000279","iti","","null","img/motor_2.png","83","motor","","","","","","",""
"724","","248798","HierDykxzvuv0r","c00flrwv4e","ms1000279","motor","","74","img/motor_6.png","74","motor","6","139","1","0","0","",""
"null","","248913","HierDykxzvuv0r","c00flrwv4e","ms1000279","iti","","null","img/motor_6.png","74","motor","","","","","","",""
"428","","249349","HierDykxzvuv0r","c00flrwv4e","ms1000279","motor","","72","img/motor_5.png","72","motor","5","140","1","0","0","",""
"null","","249458","HierDykxzvuv0r","c00flrwv4e","ms1000279","iti","","null","img/motor_5.png","72","motor","","","","","","",""
"516","","249983","HierDykxzvuv0r","c00flrwv4e","ms1000279","motor","","68","img/motor_3.png","68","motor","3","141","1","0","0","",""
"null","","250090","HierDykxzvuv0r","c00flrwv4e","ms1000279","iti","","null","img/motor_3.png","68","motor","","","","","","",""
"603","","250702","HierDykxzvuv0r","c00flrwv4e","ms1000279","motor","","74","img/motor_6.png","74","motor","6","142","1","0","0","",""
"null","","250809","HierDykxzvuv0r","c00flrwv4e","ms1000279","iti","","null","img/motor_6.png","74","motor","","","","","","",""
"437","","251260","HierDykxzvuv0r","c00flrwv4e","ms1000279","motor","","76","img/motor_8.png","76","motor","8","143","1","0","0","",""
"null","","251375","HierDykxzvuv0r","c00flrwv4e","ms1000279","iti","","null","img/motor_8.png","76","motor","","","","","","",""
"550","","251934","HierDykxzvuv0r","c00flrwv4e","ms1000279","motor","","70","img/motor_4.png","70","motor","4","144","1","0","0","",""
"null","","252042","HierDykxzvuv0r","c00flrwv4e","ms1000279","iti","","null","img/motor_4.png","70","motor","","","","","","",""
"532","","252582","HierDykxzvuv0r","c00flrwv4e","ms1000279","motor","","75","img/motor_7.png","75","motor","7","145","1","0","0","",""
"null","","252690","HierDykxzvuv0r","c00flrwv4e","ms1000279","iti","","null","img/motor_7.png","75","motor","","","","","","",""
"700","","253398","HierDykxzvuv0r","c00flrwv4e","ms1000279","motor","","68","img/motor_3.png","68","motor","3","146","1","0","0","",""
"null","","253512","HierDykxzvuv0r","c00flrwv4e","ms1000279","iti","","null","img/motor_3.png","68","motor","","","","","","",""
"438","","253958","HierDykxzvuv0r","c00flrwv4e","ms1000279","motor","","76","img/motor_8.png","76","motor","8","147","1","0","0","",""
"null","","254073","HierDykxzvuv0r","c00flrwv4e","ms1000279","iti","","null","img/motor_8.png","76","motor","","","","","","",""
"622","","254702","HierDykxzvuv0r","c00flrwv4e","ms1000279","motor","","76","img/motor_8.png","76","motor","8","148","1","0","0","",""
"null","","254817","HierDykxzvuv0r","c00flrwv4e","ms1000279","iti","","null","img/motor_8.png","76","motor","","","","","","",""
"1077","","255908","HierDykxzvuv0r","c00flrwv4e","ms1000279","motor","","83","img/motor_2.png","83","motor","2","149","1","0","0","",""
"null","","256018","HierDykxzvuv0r","c00flrwv4e","ms1000279","iti","","null","img/motor_2.png","83","motor","","","","","","",""
"588","","256621","HierDykxzvuv0r","c00flrwv4e","ms1000279","motor","","74","img/motor_6.png","74","motor","6","150","1","0","0","",""
"null","","256730","HierDykxzvuv0r","c00flrwv4e","ms1000279","iti","","null","img/motor_6.png","74","motor","","","","","","",""
"620","","257365","HierDykxzvuv0r","c00flrwv4e","ms1000279","motor","","83","img/motor_2.png","83","motor","2","151","1","0","0","",""
"null","","257480","HierDykxzvuv0r","c00flrwv4e","ms1000279","iti","","null","img/motor_2.png","83","motor","","","","","","",""
"661","","258150","HierDykxzvuv0r","c00flrwv4e","ms1000279","motor","","70","img/motor_4.png","70","motor","4","152","1","0","0","",""
"null","","258264","HierDykxzvuv0r","c00flrwv4e","ms1000279","iti","","null","img/motor_4.png","70","motor","","","","","","",""
"484","","258758","HierDykxzvuv0r","c00flrwv4e","ms1000279","motor","","72","img/motor_5.png","72","motor","5","153","1","0","0","",""
"null","","258865","HierDykxzvuv0r","c00flrwv4e","ms1000279","iti","","null","img/motor_5.png","72","motor","","","","","","",""
"460","","259334","HierDykxzvuv0r","c00flrwv4e","ms1000279","motor","","75","img/motor_7.png","75","motor","7","154","1","0","0","",""
"null","","259449","HierDykxzvuv0r","c00flrwv4e","ms1000279","iti","","null","img/motor_7.png","75","motor","","","","","","",""
"484","","259941","HierDykxzvuv0r","c00flrwv4e","ms1000279","motor","","65","img/motor_1.png","65","motor","1","155","1","0","0","",""
"null","","260057","HierDykxzvuv0r","c00flrwv4e","ms1000279","iti","","null","img/motor_1.png","65","motor","","","","","","",""
"380","","260452","HierDykxzvuv0r","c00flrwv4e","ms1000279","motor","","65","img/motor_1.png","65","motor","1","156","1","0","0","",""
"null","","260561","HierDykxzvuv0r","c00flrwv4e","ms1000279","iti","","null","img/motor_1.png","65","motor","","","","","","",""
"526","","261100","HierDykxzvuv0r","c00flrwv4e","ms1000279","motor","","70","img/motor_4.png","70","motor","4","157","1","0","0","",""
"null","","261210","HierDykxzvuv0r","c00flrwv4e","ms1000279","iti","","null","img/motor_4.png","70","motor","","","","","","",""
"444","","261664","HierDykxzvuv0r","c00flrwv4e","ms1000279","motor","","83","img/motor_2.png","83","motor","2","158","1","0","0","",""
"null","","261773","HierDykxzvuv0r","c00flrwv4e","ms1000279","iti","","null","img/motor_2.png","83","motor","","","","","","",""
"417","","262199","HierDykxzvuv0r","c00flrwv4e","ms1000279","motor","","65","img/motor_1.png","65","motor","1","159","1","0","0","",""
"null","","262313","HierDykxzvuv0r","c00flrwv4e","ms1000279","iti","","null","img/motor_1.png","65","motor","","","","","","",""
"387","","262711","HierDykxzvuv0r","c00flrwv4e","ms1000279","motor","","83","img/motor_2.png","83","motor","2","160","1","0","0","",""
"null","","262826","HierDykxzvuv0r","c00flrwv4e","ms1000279","iti","","null","img/motor_2.png","83","motor","","","","","","",""
"522","","263358","HierDykxzvuv0r","c00flrwv4e","ms1000279","motor","","75","img/motor_7.png","75","motor","7","161","1","0","0","",""
"null","","263472","HierDykxzvuv0r","c00flrwv4e","ms1000279","iti","","null","img/motor_7.png","75","motor","","","","","","",""
"556","","264038","HierDykxzvuv0r","c00flrwv4e","ms1000279","motor","","68","img/motor_3.png","68","motor","3","162","1","0","0","",""
"null","","264146","HierDykxzvuv0r","c00flrwv4e","ms1000279","iti","","null","img/motor_3.png","68","motor","","","","","","",""
"436","","264590","HierDykxzvuv0r","c00flrwv4e","ms1000279","motor","","76","img/motor_8.png","76","motor","8","163","1","0","0","",""
"null","","264698","HierDykxzvuv0r","c00flrwv4e","ms1000279","iti","","null","img/motor_8.png","76","motor","","","","","","",""
"828","","265534","HierDykxzvuv0r","c00flrwv4e","ms1000279","motor","","68","img/motor_3.png","68","motor","3","164","1","0","0","",""
"null","","265648","HierDykxzvuv0r","c00flrwv4e","ms1000279","iti","","null","img/motor_3.png","68","motor","","","","","","",""
"677","","266334","HierDykxzvuv0r","c00flrwv4e","ms1000279","motor","","72","img/motor_5.png","72","motor","5","165","1","0","0","",""
"null","","266449","HierDykxzvuv0r","c00flrwv4e","ms1000279","iti","","null","img/motor_5.png","72","motor","","","","","","",""
"484","","266948","HierDykxzvuv0r","c00flrwv4e","ms1000279","motor","","70","img/motor_4.png","70","motor","4","166","1","0","0","",""
"null","","267064","HierDykxzvuv0r","c00flrwv4e","ms1000279","iti","","null","img/motor_4.png","70","motor","","","","","","",""
"542","","267621","HierDykxzvuv0r","c00flrwv4e","ms1000279","motor","","68","img/motor_3.png","68","motor","3","167","1","0","0","",""
"null","","267737","HierDykxzvuv0r","c00flrwv4e","ms1000279","iti","","null","img/motor_3.png","68","motor","","","","","","",""
"413","","268158","HierDykxzvuv0r","c00flrwv4e","ms1000279","motor","","65","img/motor_1.png","65","motor","1","168","1","0","0","",""
"null","","268266","HierDykxzvuv0r","c00flrwv4e","ms1000279","iti","","null","img/motor_1.png","65","motor","","","","","","",""
"604","","268878","HierDykxzvuv0r","c00flrwv4e","ms1000279","motor","","68","img/motor_3.png","68","motor","3","169","1","0","0","",""
"null","","268993","HierDykxzvuv0r","c00flrwv4e","ms1000279","iti","","null","img/motor_3.png","68","motor","","","","","","",""
"388","","269390","HierDykxzvuv0r","c00flrwv4e","ms1000279","motor","","76","img/motor_8.png","76","motor","8","170","1","0","0","",""
"null","","269504","HierDykxzvuv0r","c00flrwv4e","ms1000279","iti","","null","img/motor_8.png","76","motor","","","","","","",""
"549","","270062","HierDykxzvuv0r","c00flrwv4e","ms1000279","motor","","74","img/motor_6.png","74","motor","6","171","1","0","0","",""
"null","","270176","HierDykxzvuv0r","c00flrwv4e","ms1000279","iti","","null","img/motor_6.png","74","motor","","","","","","",""
"524","","270709","HierDykxzvuv0r","c00flrwv4e","ms1000279","motor","","83","img/motor_2.png","83","motor","2","172","1","0","0","",""
"null","","270824","HierDykxzvuv0r","c00flrwv4e","ms1000279","iti","","null","img/motor_2.png","83","motor","","","","","","",""
"333","","271166","HierDykxzvuv0r","c00flrwv4e","ms1000279","motor","","83","img/motor_2.png","83","motor","2","173","1","0","0","",""
"null","","271281","HierDykxzvuv0r","c00flrwv4e","ms1000279","iti","","null","img/motor_2.png","83","motor","","","","","","",""
"460","","271757","HierDykxzvuv0r","c00flrwv4e","ms1000279","motor","","70","img/motor_4.png","70","motor","4","174","1","0","0","",""
"null","","271871","HierDykxzvuv0r","c00flrwv4e","ms1000279","iti","","null","img/motor_4.png","70","motor","","","","","","",""
"414","","272294","HierDykxzvuv0r","c00flrwv4e","ms1000279","motor","","65","img/motor_1.png","65","motor","1","175","1","0","0","",""
"null","","272408","HierDykxzvuv0r","c00flrwv4e","ms1000279","iti","","null","img/motor_1.png","65","motor","","","","","","",""
"365","","272782","HierDykxzvuv0r","c00flrwv4e","ms1000279","motor","","76","img/motor_8.png","76","motor","8","176","1","0","0","",""
"null","","272891","HierDykxzvuv0r","c00flrwv4e","ms1000279","iti","","null","img/motor_8.png","76","motor","","","","","","",""
"348","","273246","HierDykxzvuv0r","c00flrwv4e","ms1000279","motor","","76","img/motor_8.png","76","motor","8","177","1","0","0","",""
"null","","273360","HierDykxzvuv0r","c00flrwv4e","ms1000279","iti","","null","img/motor_8.png","76","motor","","","","","","",""
"500","","273870","HierDykxzvuv0r","c00flrwv4e","ms1000279","motor","","74","img/motor_6.png","74","motor","6","178","1","0","0","",""
"null","","273978","HierDykxzvuv0r","c00flrwv4e","ms1000279","iti","","null","img/motor_6.png","74","motor","","","","","","",""
"723","","274716","HierDykxzvuv0r","c00flrwv4e","ms1000279","motor","","70","img/motor_4.png","70","motor","4","179","1","0","0","",""
"null","","274832","HierDykxzvuv0r","c00flrwv4e","ms1000279","iti","","null","img/motor_4.png","70","motor","","","","","","",""
"501","","275349","HierDykxzvuv0r","c00flrwv4e","ms1000279","motor","","72","img/motor_5.png","72","motor","5","180","1","0","0","",""
"null","","275464","HierDykxzvuv0r","c00flrwv4e","ms1000279","iti","","null","img/motor_5.png","72","motor","","","","","","",""
"685","","276158","HierDykxzvuv0r","c00flrwv4e","ms1000279","motor","","65","img/motor_1.png","65","motor","1","181","1","0","0","",""
"null","","276273","HierDykxzvuv0r","c00flrwv4e","ms1000279","iti","","null","img/motor_1.png","65","motor","","","","","","",""
"405","","276686","HierDykxzvuv0r","c00flrwv4e","ms1000279","motor","","72","img/motor_5.png","72","motor","5","182","1","0","0","",""
"null","","276801","HierDykxzvuv0r","c00flrwv4e","ms1000279","iti","","null","img/motor_5.png","72","motor","","","","","","",""
"691","","277508","HierDykxzvuv0r","c00flrwv4e","ms1000279","motor","","68","img/motor_3.png","68","motor","3","183","1","0","0","",""
"null","","277623","HierDykxzvuv0r","c00flrwv4e","ms1000279","iti","","null","img/motor_3.png","68","motor","","","","","","",""
"654","","278293","HierDykxzvuv0r","c00flrwv4e","ms1000279","motor","","70","img/motor_4.png","70","motor","4","184","1","0","0","",""
"null","","278402","HierDykxzvuv0r","c00flrwv4e","ms1000279","iti","","null","img/motor_4.png","70","motor","","","","","","",""
"404","","278815","HierDykxzvuv0r","c00flrwv4e","ms1000279","motor","","76","img/motor_8.png","76","motor","8","185","1","0","0","",""
"null","","278923","HierDykxzvuv0r","c00flrwv4e","ms1000279","iti","","null","img/motor_8.png","76","motor","","","","","","",""
"667","","279604","HierDykxzvuv0r","c00flrwv4e","ms1000279","motor","","68","img/motor_3.png","68","motor","3","186","1","0","0","",""
"null","","279720","HierDykxzvuv0r","c00flrwv4e","ms1000279","iti","","null","img/motor_3.png","68","motor","","","","","","",""
"588","","280317","HierDykxzvuv0r","c00flrwv4e","ms1000279","motor","","74","img/motor_6.png","74","motor","6","187","1","0","0","",""
"null","","280432","HierDykxzvuv0r","c00flrwv4e","ms1000279","iti","","null","img/motor_6.png","74","motor","","","","","","",""
"428","","280869","HierDykxzvuv0r","c00flrwv4e","ms1000279","motor","","75","img/motor_7.png","75","motor","7","188","1","0","0","",""
"null","","280978","HierDykxzvuv0r","c00flrwv4e","ms1000279","iti","","null","img/motor_7.png","75","motor","","","","","","",""
"452","","281438","HierDykxzvuv0r","c00flrwv4e","ms1000279","motor","","72","img/motor_5.png","72","motor","5","189","1","0","0","",""
"null","","281553","HierDykxzvuv0r","c00flrwv4e","ms1000279","iti","","null","img/motor_5.png","72","motor","","","","","","",""
"548","","282111","HierDykxzvuv0r","c00flrwv4e","ms1000279","motor","","68","img/motor_3.png","68","motor","3","190","1","0","0","",""
"null","","282226","HierDykxzvuv0r","c00flrwv4e","ms1000279","iti","","null","img/motor_3.png","68","motor","","","","","","",""
"397","","282630","HierDykxzvuv0r","c00flrwv4e","ms1000279","motor","","70","img/motor_4.png","70","motor","4","191","1","0","0","",""
"null","","282744","HierDykxzvuv0r","c00flrwv4e","ms1000279","iti","","null","img/motor_4.png","70","motor","","","","","","",""
"469","","283223","HierDykxzvuv0r","c00flrwv4e","ms1000279","motor","","72","img/motor_5.png","72","motor","5","192","1","0","0","",""
"null","","283338","HierDykxzvuv0r","c00flrwv4e","ms1000279","iti","","null","img/motor_5.png","72","motor","","","","","","",""
"419","","283767","HierDykxzvuv0r","c00flrwv4e","ms1000279","motor","","76","img/motor_8.png","76","motor","8","193","1","0","0","",""
"null","","283881","HierDykxzvuv0r","c00flrwv4e","ms1000279","iti","","null","img/motor_8.png","76","motor","","","","","","",""
"539","","284430","HierDykxzvuv0r","c00flrwv4e","ms1000279","motor","","70","img/motor_4.png","70","motor","4","194","1","0","0","",""
"null","","284539","HierDykxzvuv0r","c00flrwv4e","ms1000279","iti","","null","img/motor_4.png","70","motor","","","","","","",""
"499","","285046","HierDykxzvuv0r","c00flrwv4e","ms1000279","motor","","72","img/motor_5.png","72","motor","5","195","1","0","0","",""
"null","","285161","HierDykxzvuv0r","c00flrwv4e","ms1000279","iti","","null","img/motor_5.png","72","motor","","","","","","",""
"388","","285565","HierDykxzvuv0r","c00flrwv4e","ms1000279","motor","","70","img/motor_4.png","70","motor","4","196","1","0","0","",""
"null","","285674","HierDykxzvuv0r","c00flrwv4e","ms1000279","iti","","null","img/motor_4.png","70","motor","","","","","","",""
"476","","286158","HierDykxzvuv0r","c00flrwv4e","ms1000279","motor","","75","img/motor_7.png","75","motor","7","197","1","0","0","",""
"null","","286272","HierDykxzvuv0r","c00flrwv4e","ms1000279","iti","","null","img/motor_7.png","75","motor","","","","","","",""
"478","","286757","HierDykxzvuv0r","c00flrwv4e","ms1000279","motor","","65","img/motor_1.png","65","motor","1","198","1","0","0","",""
"null","","286873","HierDykxzvuv0r","c00flrwv4e","ms1000279","iti","","null","img/motor_1.png","65","motor","","","","","","",""
"549","","287437","HierDykxzvuv0r","c00flrwv4e","ms1000279","motor","","76","img/motor_7.png","75","motor","7","199","0","1","0","",""
"313","","287758","HierDykxzvuv0r","c00flrwv4e","ms1000279","motorRepeat","","75","img/motor_7.png","75","motor","7","199","1","0","0","",""
"null","","287872","HierDykxzvuv0r","c00flrwv4e","ms1000279","iti","","null","img/motor_7.png","75","motor","","","","","","",""
"566","","288453","HierDykxzvuv0r","c00flrwv4e","ms1000279","motor","","74","img/motor_6.png","74","motor","6","200","1","0","0","",""
"null","","288568","HierDykxzvuv0r","c00flrwv4e","ms1000279","iti","","null","img/motor_6.png","74","motor","","","","","","",""
"582","","289159","HierDykxzvuv0r","c00flrwv4e","ms1000279","motor","","68","img/motor_3.png","68","motor","3","201","1","0","0","",""
"null","","289273","HierDykxzvuv0r","c00flrwv4e","ms1000279","iti","","null","img/motor_3.png","68","motor","","","","","","",""
"396","","289678","HierDykxzvuv0r","c00flrwv4e","ms1000279","motor","","83","img/motor_2.png","83","motor","2","202","1","0","0","",""
"null","","289792","HierDykxzvuv0r","c00flrwv4e","ms1000279","iti","","null","img/motor_2.png","83","motor","","","","","","",""
"380","","290189","HierDykxzvuv0r","c00flrwv4e","ms1000279","motor","","65","img/motor_1.png","65","motor","1","203","1","0","0","",""
"null","","290304","HierDykxzvuv0r","c00flrwv4e","ms1000279","iti","","null","img/motor_1.png","65","motor","","","","","","",""
"559","","290871","HierDykxzvuv0r","c00flrwv4e","ms1000279","motor","","68","img/motor_3.png","68","motor","3","204","1","0","0","",""
"null","","290979","HierDykxzvuv0r","c00flrwv4e","ms1000279","iti","","null","img/motor_3.png","68","motor","","","","","","",""
"388","","291374","HierDykxzvuv0r","c00flrwv4e","ms1000279","motor","","65","img/motor_1.png","65","motor","1","205","1","0","0","",""
"null","","291482","HierDykxzvuv0r","c00flrwv4e","ms1000279","iti","","null","img/motor_1.png","65","motor","","","","","","",""
"428","","291919","HierDykxzvuv0r","c00flrwv4e","ms1000279","motor","","76","img/motor_8.png","76","motor","8","206","1","0","0","",""
"null","","292033","HierDykxzvuv0r","c00flrwv4e","ms1000279","iti","","null","img/motor_8.png","76","motor","","","","","","",""
"683","","292726","HierDykxzvuv0r","c00flrwv4e","ms1000279","motor","","68","img/motor_3.png","68","motor","3","207","1","0","0","",""
"null","","292842","HierDykxzvuv0r","c00flrwv4e","ms1000279","iti","","null","img/motor_3.png","68","motor","","","","","","",""
"565","","293414","HierDykxzvuv0r","c00flrwv4e","ms1000279","motor","","74","img/motor_6.png","74","motor","6","208","1","0","0","",""
"null","","293528","HierDykxzvuv0r","c00flrwv4e","ms1000279","iti","","null","img/motor_6.png","74","motor","","","","","","",""
"502","","294039","HierDykxzvuv0r","c00flrwv4e","ms1000279","motor","","65","img/motor_1.png","65","motor","1","209","1","0","0","",""
"null","","294147","HierDykxzvuv0r","c00flrwv4e","ms1000279","iti","","null","img/motor_1.png","65","motor","","","","","","",""
"587","","294742","HierDykxzvuv0r","c00flrwv4e","ms1000279","motor","","83","img/motor_2.png","83","motor","2","210","1","0","0","",""
"null","","294850","HierDykxzvuv0r","c00flrwv4e","ms1000279","iti","","null","img/motor_2.png","83","motor","","","","","","",""
"533","","295390","HierDykxzvuv0r","c00flrwv4e","ms1000279","motor","","70","img/motor_4.png","70","motor","4","211","1","0","0","",""
"null","","295498","HierDykxzvuv0r","c00flrwv4e","ms1000279","iti","","null","img/motor_4.png","70","motor","","","","","","",""
"451","","295958","HierDykxzvuv0r","c00flrwv4e","ms1000279","motor","","68","img/motor_3.png","68","motor","3","212","1","0","0","",""
"null","","296067","HierDykxzvuv0r","c00flrwv4e","ms1000279","iti","","null","img/motor_3.png","68","motor","","","","","","",""
"435","","296516","HierDykxzvuv0r","c00flrwv4e","ms1000279","motor","","83","img/motor_2.png","83","motor","2","213","1","0","0","",""
"null","","296632","HierDykxzvuv0r","c00flrwv4e","ms1000279","iti","","null","img/motor_2.png","83","motor","","","","","","",""
"365","","297012","HierDykxzvuv0r","c00flrwv4e","ms1000279","motor","","65","img/motor_1.png","65","motor","1","214","1","0","0","",""
"null","","297128","HierDykxzvuv0r","c00flrwv4e","ms1000279","iti","","null","img/motor_1.png","65","motor","","","","","","",""
"397","","297541","HierDykxzvuv0r","c00flrwv4e","ms1000279","motor","","70","img/motor_4.png","70","motor","4","215","1","0","0","",""
"null","","297650","HierDykxzvuv0r","c00flrwv4e","ms1000279","iti","","null","img/motor_4.png","70","motor","","","","","","",""
"429","","298093","HierDykxzvuv0r","c00flrwv4e","ms1000279","motor","","65","img/motor_1.png","65","motor","1","216","1","0","0","",""
"null","","298208","HierDykxzvuv0r","c00flrwv4e","ms1000279","iti","","null","img/motor_1.png","65","motor","","","","","","",""
"446","","298662","HierDykxzvuv0r","c00flrwv4e","ms1000279","motor","","72","img/motor_5.png","72","motor","5","217","1","0","0","",""
"null","","298777","HierDykxzvuv0r","c00flrwv4e","ms1000279","iti","","null","img/motor_5.png","72","motor","","","","","","",""
"372","","299164","HierDykxzvuv0r","c00flrwv4e","ms1000279","motor","","76","img/motor_8.png","76","motor","8","218","1","0","0","",""
"null","","299280","HierDykxzvuv0r","c00flrwv4e","ms1000279","iti","","null","img/motor_8.png","76","motor","","","","","","",""
"445","","299734","HierDykxzvuv0r","c00flrwv4e","ms1000279","motor","","72","img/motor_5.png","72","motor","5","219","1","0","0","",""
"null","","299849","HierDykxzvuv0r","c00flrwv4e","ms1000279","iti","","null","img/motor_5.png","72","motor","","","","","","",""
"501","","300365","HierDykxzvuv0r","c00flrwv4e","ms1000279","motor","","74","img/motor_6.png","74","motor","6","220","1","0","0","",""
"null","","300480","HierDykxzvuv0r","c00flrwv4e","ms1000279","iti","","null","img/motor_6.png","74","motor","","","","","","",""
"582","","301070","HierDykxzvuv0r","c00flrwv4e","ms1000279","motor","","68","img/motor_3.png","68","motor","3","221","1","0","0","",""
"null","","301184","HierDykxzvuv0r","c00flrwv4e","ms1000279","iti","","null","img/motor_3.png","68","motor","","","","","","",""
"533","","301726","HierDykxzvuv0r","c00flrwv4e","ms1000279","motor","","76","img/motor_8.png","76","motor","8","222","1","0","0","",""
"null","","301841","HierDykxzvuv0r","c00flrwv4e","ms1000279","iti","","null","img/motor_8.png","76","motor","","","","","","",""
"547","","302399","HierDykxzvuv0r","c00flrwv4e","ms1000279","motor","","83","img/motor_2.png","83","motor","2","223","1","0","0","",""
"null","","302513","HierDykxzvuv0r","c00flrwv4e","ms1000279","iti","","null","img/motor_2.png","83","motor","","","","","","",""
"445","","302967","HierDykxzvuv0r","c00flrwv4e","ms1000279","motor","","68","img/motor_3.png","68","motor","3","224","1","0","0","",""
"null","","303080","HierDykxzvuv0r","c00flrwv4e","ms1000279","iti","","null","img/motor_3.png","68","motor","","","","","","",""
"557","","303653","HierDykxzvuv0r","c00flrwv4e","ms1000279","motor","","75","img/motor_7.png","75","motor","7","225","1","0","0","",""
"null","","303768","HierDykxzvuv0r","c00flrwv4e","ms1000279","iti","","null","img/motor_7.png","75","motor","","","","","","",""
"438","","304214","HierDykxzvuv0r","c00flrwv4e","ms1000279","motor","","76","img/motor_8.png","76","motor","8","226","1","0","0","",""
"null","","304328","HierDykxzvuv0r","c00flrwv4e","ms1000279","iti","","null","img/motor_8.png","76","motor","","","","","","",""
"438","","304774","HierDykxzvuv0r","c00flrwv4e","ms1000279","motor","","65","img/motor_1.png","65","motor","1","227","1","0","0","",""
"null","","304890","HierDykxzvuv0r","c00flrwv4e","ms1000279","iti","","null","img/motor_1.png","65","motor","","","","","","",""
"677","","305575","HierDykxzvuv0r","c00flrwv4e","ms1000279","motor","","74","img/motor_6.png","74","motor","6","228","1","0","0","",""
"null","","305689","HierDykxzvuv0r","c00flrwv4e","ms1000279","iti","","null","img/motor_6.png","74","motor","","","","","","",""
"564","","306263","HierDykxzvuv0r","c00flrwv4e","ms1000279","motor","","70","img/motor_4.png","70","motor","4","229","1","0","0","",""
"null","","306371","HierDykxzvuv0r","c00flrwv4e","ms1000279","iti","","null","img/motor_4.png","70","motor","","","","","","",""
"565","","306942","HierDykxzvuv0r","c00flrwv4e","ms1000279","motor","","75","img/motor_7.png","75","motor","7","230","1","0","0","",""
"null","","307057","HierDykxzvuv0r","c00flrwv4e","ms1000279","iti","","null","img/motor_7.png","75","motor","","","","","","",""
"356","","307422","HierDykxzvuv0r","c00flrwv4e","ms1000279","motor","","75","img/motor_7.png","75","motor","7","231","1","0","0","",""
"null","","307538","HierDykxzvuv0r","c00flrwv4e","ms1000279","iti","","null","img/motor_7.png","75","motor","","","","","","",""
"476","","308023","HierDykxzvuv0r","c00flrwv4e","ms1000279","motor","","74","img/motor_6.png","74","motor","6","232","1","0","0","",""
"null","","308132","HierDykxzvuv0r","c00flrwv4e","ms1000279","iti","","null","img/motor_6.png","74","motor","","","","","","",""
"371","","308511","HierDykxzvuv0r","c00flrwv4e","ms1000279","motor","","76","img/motor_8.png","76","motor","8","233","1","0","0","",""
"null","","308619","HierDykxzvuv0r","c00flrwv4e","ms1000279","iti","","null","img/motor_8.png","76","motor","","","","","","",""
"411","","309045","HierDykxzvuv0r","c00flrwv4e","ms1000279","motor","","75","img/motor_7.png","75","motor","7","234","1","0","0","",""
"null","","309154","HierDykxzvuv0r","c00flrwv4e","ms1000279","iti","","null","img/motor_7.png","75","motor","","","","","","",""
"531","","309695","HierDykxzvuv0r","c00flrwv4e","ms1000279","motor","","65","img/motor_1.png","65","motor","1","235","1","0","0","",""
"null","","309810","HierDykxzvuv0r","c00flrwv4e","ms1000279","iti","","null","img/motor_1.png","65","motor","","","","","","",""
"476","","310301","HierDykxzvuv0r","c00flrwv4e","ms1000279","motor","","83","img/motor_2.png","83","motor","2","236","1","0","0","",""
"null","","310416","HierDykxzvuv0r","c00flrwv4e","ms1000279","iti","","null","img/motor_2.png","83","motor","","","","","","",""
"390","","310821","HierDykxzvuv0r","c00flrwv4e","ms1000279","motor","","83","img/motor_2.png","83","motor","2","237","1","0","0","",""
"null","","310930","HierDykxzvuv0r","c00flrwv4e","ms1000279","iti","","null","img/motor_2.png","83","motor","","","","","","",""
"389","","311333","HierDykxzvuv0r","c00flrwv4e","ms1000279","motor","","68","img/motor_3.png","68","motor","3","238","1","0","0","",""
"null","","311442","HierDykxzvuv0r","c00flrwv4e","ms1000279","iti","","null","img/motor_3.png","68","motor","","","","","","",""
"525","","311974","HierDykxzvuv0r","c00flrwv4e","ms1000279","motor","","72","img/motor_5.png","72","motor","5","239","1","0","0","",""
"null","","312083","HierDykxzvuv0r","c00flrwv4e","ms1000279","iti","","null","img/motor_5.png","72","motor","","","","","","",""
"524","","312615","HierDykxzvuv0r","c00flrwv4e","ms1000279","motor","","74","img/motor_6.png","74","motor","6","240","1","0","0","",""
"null","","312729","HierDykxzvuv0r","c00flrwv4e","ms1000279","iti","","null","img/motor_6.png","74","motor","","","","","","",""
"317","","313054","HierDykxzvuv0r","c00flrwv4e","ms1000279","motor","","75","img/motor_7.png","75","motor","7","241","1","0","0","",""
"null","","313169","HierDykxzvuv0r","c00flrwv4e","ms1000279","iti","","null","img/motor_7.png","75","motor","","","","","","",""
"516","","313694","HierDykxzvuv0r","c00flrwv4e","ms1000279","motor","","83","img/motor_2.png","83","motor","2","242","1","0","0","",""
"null","","313802","HierDykxzvuv0r","c00flrwv4e","ms1000279","iti","","null","img/motor_2.png","83","motor","","","","","","",""
"540","","314349","HierDykxzvuv0r","c00flrwv4e","ms1000279","motor","","72","img/motor_5.png","72","motor","5","243","1","0","0","",""
"null","","314457","HierDykxzvuv0r","c00flrwv4e","ms1000279","iti","","null","img/motor_5.png","72","motor","","","","","","",""
"605","","315077","HierDykxzvuv0r","c00flrwv4e","ms1000279","motor","","70","img/motor_4.png","70","motor","4","244","1","0","0","",""
"null","","315186","HierDykxzvuv0r","c00flrwv4e","ms1000279","iti","","null","img/motor_4.png","70","motor","","","","","","",""
"468","","315662","HierDykxzvuv0r","c00flrwv4e","ms1000279","motor","","75","img/motor_7.png","75","motor","7","245","1","0","0","",""
"null","","315770","HierDykxzvuv0r","c00flrwv4e","ms1000279","iti","","null","img/motor_7.png","75","motor","","","","","","",""
"451","","316230","HierDykxzvuv0r","c00flrwv4e","ms1000279","motor","","70","img/motor_4.png","70","motor","4","246","1","0","0","",""
"null","","316338","HierDykxzvuv0r","c00flrwv4e","ms1000279","iti","","null","img/motor_4.png","70","motor","","","","","","",""
"541","","316886","HierDykxzvuv0r","c00flrwv4e","ms1000279","motor","","74","img/motor_6.png","74","motor","6","247","1","0","0","",""
"null","","316995","HierDykxzvuv0r","c00flrwv4e","ms1000279","iti","","null","img/motor_6.png","74","motor","","","","","","",""
"515","","317525","HierDykxzvuv0r","c00flrwv4e","ms1000279","motor","","75","img/motor_7.png","75","motor","7","248","1","0","0","",""
"null","","317633","HierDykxzvuv0r","c00flrwv4e","ms1000279","iti","","null","img/motor_7.png","75","motor","","","","","","",""
"661","","318303","HierDykxzvuv0r","c00flrwv4e","ms1000279","motor","","74","img/motor_6.png","74","motor","6","249","1","0","0","",""
"null","","318411","HierDykxzvuv0r","c00flrwv4e","ms1000279","iti","","null","img/motor_6.png","74","motor","","","","","","",""
"707","","319133","HierDykxzvuv0r","c00flrwv4e","ms1000279","motor","","70","img/motor_4.png","70","motor","4","250","1","0","0","",""
"null","","319243","HierDykxzvuv0r","c00flrwv4e","ms1000279","iti","","null","img/motor_4.png","70","motor","","","","","","",""
"444","","319693","HierDykxzvuv0r","c00flrwv4e","ms1000279","motor","","76","img/motor_8.png","76","motor","8","251","1","0","0","",""
"null","","319808","HierDykxzvuv0r","c00flrwv4e","ms1000279","iti","","null","img/motor_8.png","76","motor","","","","","","",""
"525","","320342","HierDykxzvuv0r","c00flrwv4e","ms1000279","motor","","75","img/motor_7.png","75","motor","7","252","1","0","0","",""
"null","","320451","HierDykxzvuv0r","c00flrwv4e","ms1000279","iti","","null","img/motor_7.png","75","motor","","","","","","",""
"556","","321021","HierDykxzvuv0r","c00flrwv4e","ms1000279","motor","","70","img/motor_4.png","70","motor","4","253","1","0","0","",""
"null","","321137","HierDykxzvuv0r","c00flrwv4e","ms1000279","iti","","null","img/motor_4.png","70","motor","","","","","","",""
"541","","321693","HierDykxzvuv0r","c00flrwv4e","ms1000279","motor","","68","img/motor_3.png","68","motor","3","254","1","0","0","",""
"null","","321809","HierDykxzvuv0r","c00flrwv4e","ms1000279","iti","","null","img/motor_3.png","68","motor","","","","","","",""
"493","","322310","HierDykxzvuv0r","c00flrwv4e","ms1000279","motor","","75","img/motor_7.png","75","motor","7","255","1","0","0","",""
"null","","322425","HierDykxzvuv0r","c00flrwv4e","ms1000279","iti","","null","img/motor_7.png","75","motor","","","","","","",""
"516","","322958","HierDykxzvuv0r","c00flrwv4e","ms1000279","motor","","72","img/motor_5.png","72","motor","5","256","1","0","0","",""
"null","","323066","HierDykxzvuv0r","c00flrwv4e","ms1000279","iti","","null","img/motor_5.png","72","motor","","","","","","",""
"396","","323470","HierDykxzvuv0r","c00flrwv4e","ms1000279","motor","","74","img/motor_6.png","74","motor","6","257","1","0","0","",""
"null","","323586","HierDykxzvuv0r","c00flrwv4e","ms1000279","iti","","null","img/motor_6.png","74","motor","","","","","","",""
"325","","323918","HierDykxzvuv0r","c00flrwv4e","ms1000279","motor","","74","img/motor_6.png","74","motor","6","258","1","0","0","",""
"null","","324033","HierDykxzvuv0r","c00flrwv4e","ms1000279","iti","","null","img/motor_6.png","74","motor","","","","","","",""
"349","","324390","HierDykxzvuv0r","c00flrwv4e","ms1000279","motor","","72","img/motor_5.png","72","motor","5","259","1","0","0","",""
"null","","324498","HierDykxzvuv0r","c00flrwv4e","ms1000279","iti","","null","img/motor_5.png","72","motor","","","","","","",""
"443","","324957","HierDykxzvuv0r","c00flrwv4e","ms1000279","motor","","70","img/motor_4.png","70","motor","4","260","1","0","0","",""
"null","","325066","HierDykxzvuv0r","c00flrwv4e","ms1000279","iti","","null","img/motor_4.png","70","motor","","","","","","",""
"317","","325390","HierDykxzvuv0r","c00flrwv4e","ms1000279","motor","","74","img/motor_8.png","76","motor","8","261","0","1","0","",""
"264","","325663","HierDykxzvuv0r","c00flrwv4e","ms1000279","motorRepeat","","76","img/motor_8.png","76","motor","8","261","1","0","0","",""
"null","","325777","HierDykxzvuv0r","c00flrwv4e","ms1000279","iti","","null","img/motor_8.png","76","motor","","","","","","",""
"517","","326304","HierDykxzvuv0r","c00flrwv4e","ms1000279","motor","","75","img/motor_7.png","75","motor","7","262","1","0","0","",""
"null","","326420","HierDykxzvuv0r","c00flrwv4e","ms1000279","iti","","null","img/motor_7.png","75","motor","","","","","","",""
"559","","326998","HierDykxzvuv0r","c00flrwv4e","ms1000279","motor","","83","img/motor_3.png","68","motor","3","263","0","1","0","",""
"232","","327238","HierDykxzvuv0r","c00flrwv4e","ms1000279","motorRepeat","","68","img/motor_3.png","68","motor","3","263","1","0","0","",""
"null","","327347","HierDykxzvuv0r","c00flrwv4e","ms1000279","iti","","null","img/motor_3.png","68","motor","","","","","","",""
"419","","327775","HierDykxzvuv0r","c00flrwv4e","ms1000279","motor","","68","img/motor_3.png","68","motor","3","264","1","0","0","",""
"null","","327884","HierDykxzvuv0r","c00flrwv4e","ms1000279","iti","","null","img/motor_3.png","68","motor","","","","","","",""
"498","","328391","HierDykxzvuv0r","c00flrwv4e","ms1000279","motor","","72","img/motor_5.png","72","motor","5","265","1","0","0","",""
"null","","328498","HierDykxzvuv0r","c00flrwv4e","ms1000279","iti","","null","img/motor_5.png","72","motor","","","","","","",""
"524","","329031","HierDykxzvuv0r","c00flrwv4e","ms1000279","motor","","65","img/motor_2.png","83","motor","2","266","0","1","0","",""
"318","","329365","HierDykxzvuv0r","c00flrwv4e","ms1000279","motorRepeat","","83","img/motor_2.png","83","motor","2","266","1","0","0","",""
"null","","329482","HierDykxzvuv0r","c00flrwv4e","ms1000279","iti","","null","img/motor_2.png","83","motor","","","","","","",""
"641","","330129","HierDykxzvuv0r","c00flrwv4e","ms1000279","motor","","70","img/motor_4.png","70","motor","4","267","1","0","0","",""
"null","","330236","HierDykxzvuv0r","c00flrwv4e","ms1000279","iti","","null","img/motor_4.png","70","motor","","","","","","",""
"561","","330805","HierDykxzvuv0r","c00flrwv4e","ms1000279","motor","","72","img/motor_5.png","72","motor","5","268","1","0","0","",""
"null","","330914","HierDykxzvuv0r","c00flrwv4e","ms1000279","iti","","null","img/motor_5.png","72","motor","","","","","","",""
"564","","331494","HierDykxzvuv0r","c00flrwv4e","ms1000279","motor","","65","img/motor_1.png","65","motor","1","269","1","0","0","",""
"null","","331602","HierDykxzvuv0r","c00flrwv4e","ms1000279","iti","","null","img/motor_1.png","65","motor","","","","","","",""
"379","","331990","HierDykxzvuv0r","c00flrwv4e","ms1000279","motor","","72","img/motor_5.png","72","motor","5","270","1","0","0","",""
"null","","332106","HierDykxzvuv0r","c00flrwv4e","ms1000279","iti","","null","img/motor_5.png","72","motor","","","","","","",""
"435","","332557","HierDykxzvuv0r","c00flrwv4e","ms1000279","motor","","74","img/motor_6.png","74","motor","6","271","1","0","0","",""
"null","","332666","HierDykxzvuv0r","c00flrwv4e","ms1000279","iti","","null","img/motor_6.png","74","motor","","","","","","",""
"468","","333149","HierDykxzvuv0r","c00flrwv4e","ms1000279","motor","","72","img/motor_5.png","72","motor","5","272","1","0","0","",""
"null","","333258","HierDykxzvuv0r","c00flrwv4e","ms1000279","iti","","null","img/motor_5.png","72","motor","","","","","","",""
"556","","333823","HierDykxzvuv0r","c00flrwv4e","ms1000279","motor","","68","img/motor_3.png","68","motor","3","273","1","0","0","",""
"null","","333930","HierDykxzvuv0r","c00flrwv4e","ms1000279","iti","","null","img/motor_3.png","68","motor","","","","","","",""
"412","","334357","HierDykxzvuv0r","c00flrwv4e","ms1000279","motor","","65","img/motor_1.png","65","motor","1","274","1","0","0","",""
"null","","334466","HierDykxzvuv0r","c00flrwv4e","ms1000279","iti","","null","img/motor_1.png","65","motor","","","","","","",""
"549","","335023","HierDykxzvuv0r","c00flrwv4e","ms1000279","motor","","75","img/motor_6.png","74","motor","6","275","0","1","0","",""
"255","","335287","HierDykxzvuv0r","c00flrwv4e","ms1000279","motorRepeat","","74","img/motor_6.png","74","motor","6","275","1","0","0","",""
"null","","335401","HierDykxzvuv0r","c00flrwv4e","ms1000279","iti","","null","img/motor_6.png","74","motor","","","","","","",""
"556","","335966","HierDykxzvuv0r","c00flrwv4e","ms1000279","motor","","65","img/motor_1.png","65","motor","1","276","1","0","0","",""
"null","","336075","HierDykxzvuv0r","c00flrwv4e","ms1000279","iti","","null","img/motor_1.png","65","motor","","","","","","",""
"516","","336599","HierDykxzvuv0r","c00flrwv4e","ms1000279","motor","","72","img/motor_5.png","72","motor","5","277","1","0","0","",""
"null","","336714","HierDykxzvuv0r","c00flrwv4e","ms1000279","iti","","null","img/motor_5.png","72","motor","","","","","","",""
"437","","337158","HierDykxzvuv0r","c00flrwv4e","ms1000279","motor","","65","img/motor_1.png","65","motor","1","278","1","0","0","",""
"null","","337272","HierDykxzvuv0r","c00flrwv4e","ms1000279","iti","","null","img/motor_1.png","65","motor","","","","","","",""
"381","","337670","HierDykxzvuv0r","c00flrwv4e","ms1000279","motor","","65","img/motor_1.png","65","motor","1","279","1","0","0","",""
"null","","337785","HierDykxzvuv0r","c00flrwv4e","ms1000279","iti","","null","img/motor_1.png","65","motor","","","","","","",""
"468","","338262","HierDykxzvuv0r","c00flrwv4e","ms1000279","motor","","75","img/motor_7.png","75","motor","7","280","1","0","0","",""
"null","","338377","HierDykxzvuv0r","c00flrwv4e","ms1000279","iti","","null","img/motor_7.png","75","motor","","","","","","",""
"493","","338879","HierDykxzvuv0r","c00flrwv4e","ms1000279","motor","","72","img/motor_5.png","72","motor","5","281","1","0","0","",""
"null","","338994","HierDykxzvuv0r","c00flrwv4e","ms1000279","iti","","null","img/motor_5.png","72","motor","","","","","","",""
"459","","339462","HierDykxzvuv0r","c00flrwv4e","ms1000279","motor","","65","img/motor_1.png","65","motor","1","282","1","0","0","",""
"null","","339570","HierDykxzvuv0r","c00flrwv4e","ms1000279","iti","","null","img/motor_1.png","65","motor","","","","","","",""
"516","","340101","HierDykxzvuv0r","c00flrwv4e","ms1000279","motor","","68","img/motor_2.png","83","motor","2","283","0","1","0","",""
"241","","340351","HierDykxzvuv0r","c00flrwv4e","ms1000279","motorRepeat","","83","img/motor_2.png","83","motor","2","283","1","0","0","",""
"null","","340466","HierDykxzvuv0r","c00flrwv4e","ms1000279","iti","","null","img/motor_2.png","83","motor","","","","","","",""
"722","","341199","HierDykxzvuv0r","c00flrwv4e","ms1000279","motor","","74","img/motor_6.png","74","motor","6","284","1","0","0","",""
"null","","341306","HierDykxzvuv0r","c00flrwv4e","ms1000279","iti","","null","img/motor_6.png","74","motor","","","","","","",""
"556","","341870","HierDykxzvuv0r","c00flrwv4e","ms1000279","motor","","65","img/motor_1.png","65","motor","1","285","1","0","0","",""
"null","","341979","HierDykxzvuv0r","c00flrwv4e","ms1000279","iti","","null","img/motor_1.png","65","motor","","","","","","",""
"548","","342541","HierDykxzvuv0r","c00flrwv4e","ms1000279","motor","","72","img/motor_5.png","72","motor","5","286","1","0","0","",""
"null","","342657","HierDykxzvuv0r","c00flrwv4e","ms1000279","iti","","null","img/motor_5.png","72","motor","","","","","","",""
"437","","343109","HierDykxzvuv0r","c00flrwv4e","ms1000279","motor","","65","img/motor_1.png","65","motor","1","287","1","0","0","",""
"null","","343224","HierDykxzvuv0r","c00flrwv4e","ms1000279","iti","","null","img/motor_1.png","65","motor","","","","","","",""
"445","","343678","HierDykxzvuv0r","c00flrwv4e","ms1000279","motor","","76","img/motor_8.png","76","motor","8","288","1","0","0","",""
"null","","343794","HierDykxzvuv0r","c00flrwv4e","ms1000279","iti","","null","img/motor_8.png","76","motor","","","","","","",""
"588","","344397","HierDykxzvuv0r","c00flrwv4e","ms1000279","motor","","74","img/motor_6.png","74","motor","6","289","1","0","0","",""
"null","","344513","HierDykxzvuv0r","c00flrwv4e","ms1000279","iti","","null","img/motor_6.png","74","motor","","","","","","",""
"500","","345021","HierDykxzvuv0r","c00flrwv4e","ms1000279","motor","","65","img/motor_1.png","65","motor","1","290","1","0","0","",""
"null","","345137","HierDykxzvuv0r","c00flrwv4e","ms1000279","iti","","null","img/motor_1.png","65","motor","","","","","","",""
"677","","345823","HierDykxzvuv0r","c00flrwv4e","ms1000279","motor","","70","img/motor_4.png","70","motor","4","291","1","0","0","",""
"null","","345938","HierDykxzvuv0r","c00flrwv4e","ms1000279","iti","","null","img/motor_4.png","70","motor","","","","","","",""
"588","","346541","HierDykxzvuv0r","c00flrwv4e","ms1000279","motor","","83","img/motor_2.png","83","motor","2","292","1","0","0","",""
"null","","346649","HierDykxzvuv0r","c00flrwv4e","ms1000279","iti","","null","img/motor_2.png","83","motor","","","","","","",""
"638","","347295","HierDykxzvuv0r","c00flrwv4e","ms1000279","motor","","74","img/motor_6.png","74","motor","6","293","1","0","0","",""
"null","","347403","HierDykxzvuv0r","c00flrwv4e","ms1000279","iti","","null","img/motor_6.png","74","motor","","","","","","",""
"476","","347887","HierDykxzvuv0r","c00flrwv4e","ms1000279","motor","","65","img/motor_1.png","65","motor","1","294","1","0","0","",""
"null","","348002","HierDykxzvuv0r","c00flrwv4e","ms1000279","iti","","null","img/motor_1.png","65","motor","","","","","","",""
"508","","348526","HierDykxzvuv0r","c00flrwv4e","ms1000279","motor","","72","img/motor_5.png","72","motor","5","295","1","0","0","",""
"null","","348635","HierDykxzvuv0r","c00flrwv4e","ms1000279","iti","","null","img/motor_5.png","72","motor","","","","","","",""
"572","","349215","HierDykxzvuv0r","c00flrwv4e","ms1000279","motor","","70","img/motor_4.png","70","motor","4","296","1","0","0","",""
"null","","349323","HierDykxzvuv0r","c00flrwv4e","ms1000279","iti","","null","img/motor_4.png","70","motor","","","","","","",""
"451","","349782","HierDykxzvuv0r","c00flrwv4e","ms1000279","motor","","76","img/motor_8.png","76","motor","8","297","1","0","0","",""
"null","","349890","HierDykxzvuv0r","c00flrwv4e","ms1000279","iti","","null","img/motor_8.png","76","motor","","","","","","",""
"500","","350398","HierDykxzvuv0r","c00flrwv4e","ms1000279","motor","","70","img/motor_4.png","70","motor","4","298","1","0","0","",""
"null","","350507","HierDykxzvuv0r","c00flrwv4e","ms1000279","iti","","null","img/motor_4.png","70","motor","","","","","","",""
"563","","351086","HierDykxzvuv0r","c00flrwv4e","ms1000279","motor","","83","img/motor_2.png","83","motor","2","299","1","0","0","",""
"null","","351194","HierDykxzvuv0r","c00flrwv4e","ms1000279","iti","","null","img/motor_2.png","83","motor","","","","","","",""
"493","","351701","HierDykxzvuv0r","c00flrwv4e","ms1000279","motor","","68","img/motor_3.png","68","motor","3","300","1","0","0","",""
"null","","351810","HierDykxzvuv0r","c00flrwv4e","ms1000279","iti","","null","img/motor_3.png","68","motor","","","","","","",""
"564","","352382","HierDykxzvuv0r","c00flrwv4e","ms1000279","motor","","75","img/motor_7.png","75","motor","7","301","1","0","0","",""
"null","","352497","HierDykxzvuv0r","c00flrwv4e","ms1000279","iti","","null","img/motor_7.png","75","motor","","","","","","",""
"508","","353015","HierDykxzvuv0r","c00flrwv4e","ms1000279","motor","","70","img/motor_4.png","70","motor","4","302","1","0","0","",""
"null","","353130","HierDykxzvuv0r","c00flrwv4e","ms1000279","iti","","null","img/motor_4.png","70","motor","","","","","","",""
"563","","353710","HierDykxzvuv0r","c00flrwv4e","ms1000279","motor","","75","img/motor_7.png","75","motor","7","303","1","0","0","",""
"null","","353818","HierDykxzvuv0r","c00flrwv4e","ms1000279","iti","","null","img/motor_7.png","75","motor","","","","","","",""
"477","","354310","HierDykxzvuv0r","c00flrwv4e","ms1000279","motor","","75","img/motor_7.png","75","motor","7","304","1","0","0","",""
"null","","354418","HierDykxzvuv0r","c00flrwv4e","ms1000279","iti","","null","img/motor_7.png","75","motor","","","","","","",""
"523","","354949","HierDykxzvuv0r","c00flrwv4e","ms1000279","motor","","70","img/motor_4.png","70","motor","4","305","1","0","0","",""
"null","","355065","HierDykxzvuv0r","c00flrwv4e","ms1000279","iti","","null","img/motor_4.png","70","motor","","","","","","",""
"397","","355471","HierDykxzvuv0r","c00flrwv4e","ms1000279","motor","","65","img/motor_1.png","65","motor","1","306","1","0","0","",""
"null","","355579","HierDykxzvuv0r","c00flrwv4e","ms1000279","iti","","null","img/motor_1.png","65","motor","","","","","","",""
"451","","356039","HierDykxzvuv0r","c00flrwv4e","ms1000279","motor","","83","img/motor_2.png","83","motor","2","307","1","0","0","",""
"null","","356154","HierDykxzvuv0r","c00flrwv4e","ms1000279","iti","","null","img/motor_2.png","83","motor","","","","","","",""
"595","","356765","HierDykxzvuv0r","c00flrwv4e","ms1000279","motor","","74","img/motor_6.png","74","motor","6","308","1","0","0","",""
"null","","356875","HierDykxzvuv0r","c00flrwv4e","ms1000279","iti","","null","img/motor_6.png","74","motor","","","","","","",""
"572","","357454","HierDykxzvuv0r","c00flrwv4e","ms1000279","motor","","68","img/motor_3.png","68","motor","3","309","1","0","0","",""
"null","","357563","HierDykxzvuv0r","c00flrwv4e","ms1000279","iti","","null","img/motor_3.png","68","motor","","","","","","",""
"818","","358391","HierDykxzvuv0r","c00flrwv4e","ms1000279","motor","","75","img/motor_7.png","75","motor","7","310","1","0","0","",""
"null","","358500","HierDykxzvuv0r","c00flrwv4e","ms1000279","iti","","null","img/motor_7.png","75","motor","","","","","","",""
"419","","358926","HierDykxzvuv0r","c00flrwv4e","ms1000279","motor","","76","img/motor_8.png","76","motor","8","311","1","0","0","",""
"null","","359034","HierDykxzvuv0r","c00flrwv4e","ms1000279","iti","","null","img/motor_8.png","76","motor","","","","","","",""
"507","","359557","HierDykxzvuv0r","c00flrwv4e","ms1000279","motor","","70","img/motor_4.png","70","motor","4","312","1","0","0","",""
"null","","359674","HierDykxzvuv0r","c00flrwv4e","ms1000279","iti","","null","img/motor_4.png","70","motor","","","","","","",""
"517","","360199","HierDykxzvuv0r","c00flrwv4e","ms1000279","motor","","83","img/motor_2.png","83","motor","2","313","1","0","0","",""
"null","","360307","HierDykxzvuv0r","c00flrwv4e","ms1000279","iti","","null","img/motor_2.png","83","motor","","","","","","",""
"500","","360815","HierDykxzvuv0r","c00flrwv4e","ms1000279","motor","","72","img/motor_5.png","72","motor","5","314","1","0","0","",""
"null","","360924","HierDykxzvuv0r","c00flrwv4e","ms1000279","iti","","null","img/motor_5.png","72","motor","","","","","","",""
"548","","361478","HierDykxzvuv0r","c00flrwv4e","ms1000279","motor","","70","img/motor_4.png","70","motor","4","315","1","0","0","",""
"null","","361592","HierDykxzvuv0r","c00flrwv4e","ms1000279","iti","","null","img/motor_4.png","70","motor","","","","","","",""
"606","","362213","HierDykxzvuv0r","c00flrwv4e","ms1000279","motor","","74","img/motor_6.png","74","motor","6","316","1","0","0","",""
"null","","362329","HierDykxzvuv0r","c00flrwv4e","ms1000279","iti","","null","img/motor_6.png","74","motor","","","","","","",""
"573","","362911","HierDykxzvuv0r","c00flrwv4e","ms1000279","motor","","83","img/motor_2.png","83","motor","2","317","1","0","0","",""
"null","","363019","HierDykxzvuv0r","c00flrwv4e","ms1000279","iti","","null","img/motor_2.png","83","motor","","","","","","",""
"402","","363430","HierDykxzvuv0r","c00flrwv4e","ms1000279","motor","","76","img/motor_8.png","76","motor","8","318","1","0","0","",""
"null","","363545","HierDykxzvuv0r","c00flrwv4e","ms1000279","iti","","null","img/motor_8.png","76","motor","","","","","","",""
"429","","363989","HierDykxzvuv0r","c00flrwv4e","ms1000279","motor","","65","img/motor_1.png","65","motor","1","319","1","0","0","",""
"null","","364105","HierDykxzvuv0r","c00flrwv4e","ms1000279","iti","","null","img/motor_1.png","65","motor","","","","","","",""
"437","","364551","HierDykxzvuv0r","c00flrwv4e","ms1000279","motor","","70","img/motor_4.png","70","motor","4","320","1","0","0","",""
"null","","364666","HierDykxzvuv0r","c00flrwv4e","ms1000279","iti","","null","img/motor_4.png","70","motor","","","","","","",""
"388","","365063","HierDykxzvuv0r","c00flrwv4e","ms1000279","motor","","70","img/motor_4.png","70","motor","4","321","1","0","0","",""
"null","","365178","HierDykxzvuv0r","c00flrwv4e","ms1000279","iti","","null","img/motor_4.png","70","motor","","","","","","",""
"525","","365711","HierDykxzvuv0r","c00flrwv4e","ms1000279","motor","","83","img/motor_2.png","83","motor","2","322","1","0","0","",""
"null","","365826","HierDykxzvuv0r","c00flrwv4e","ms1000279","iti","","null","img/motor_2.png","83","motor","","","","","","",""
"405","","366239","HierDykxzvuv0r","c00flrwv4e","ms1000279","motor","","76","img/motor_8.png","76","motor","8","323","1","0","0","",""
"null","","366354","HierDykxzvuv0r","c00flrwv4e","ms1000279","iti","","null","img/motor_8.png","76","motor","","","","","","",""
"477","","366839","HierDykxzvuv0r","c00flrwv4e","ms1000279","motor","","75","img/motor_7.png","75","motor","7","324","1","0","0","",""
"null","","366948","HierDykxzvuv0r","c00flrwv4e","ms1000279","iti","","null","img/motor_7.png","75","motor","","","","","","",""
"443","","367405","HierDykxzvuv0r","c00flrwv4e","ms1000279","motor","","65","img/motor_1.png","65","motor","1","325","1","0","0","",""
"null","","367514","HierDykxzvuv0r","c00flrwv4e","ms1000279","iti","","null","img/motor_1.png","65","motor","","","","","","",""
"500","","368021","HierDykxzvuv0r","c00flrwv4e","ms1000279","motor","","75","img/motor_7.png","75","motor","7","326","1","0","0","",""
"null","","368136","HierDykxzvuv0r","c00flrwv4e","ms1000279","iti","","null","img/motor_7.png","75","motor","","","","","","",""
"390","","368535","HierDykxzvuv0r","c00flrwv4e","ms1000279","motor","","65","img/motor_1.png","65","motor","1","327","1","0","0","",""
"null","","368643","HierDykxzvuv0r","c00flrwv4e","ms1000279","iti","","null","img/motor_1.png","65","motor","","","","","","",""
"539","","369190","HierDykxzvuv0r","c00flrwv4e","ms1000279","motor","","74","img/motor_6.png","74","motor","6","328","1","0","0","",""
"null","","369299","HierDykxzvuv0r","c00flrwv4e","ms1000279","iti","","null","img/motor_6.png","74","motor","","","","","","",""
"636","","369950","HierDykxzvuv0r","c00flrwv4e","ms1000279","motor","","68","img/motor_2.png","83","motor","2","329","0","1","0","",""
"304","","370263","HierDykxzvuv0r","c00flrwv4e","ms1000279","motorRepeat","","83","img/motor_2.png","83","motor","2","329","1","0","0","",""
"null","","370378","HierDykxzvuv0r","c00flrwv4e","ms1000279","iti","","null","img/motor_2.png","83","motor","","","","","","",""
"476","","370870","HierDykxzvuv0r","c00flrwv4e","ms1000279","motor","","65","img/motor_1.png","65","motor","1","330","1","0","0","",""
"null","","370985","HierDykxzvuv0r","c00flrwv4e","ms1000279","iti","","null","img/motor_1.png","65","motor","","","","","","",""
"613","","371614","HierDykxzvuv0r","c00flrwv4e","ms1000279","motor","","68","img/motor_3.png","68","motor","3","331","1","0","0","",""
"null","","371723","HierDykxzvuv0r","c00flrwv4e","ms1000279","iti","","null","img/motor_3.png","68","motor","","","","","","",""
"677","","372405","HierDykxzvuv0r","c00flrwv4e","ms1000279","motor","","75","img/motor_7.png","75","motor","7","332","1","0","0","",""
"null","","372514","HierDykxzvuv0r","c00flrwv4e","ms1000279","iti","","null","img/motor_7.png","75","motor","","","","","","",""
"660","","373182","HierDykxzvuv0r","c00flrwv4e","ms1000279","motor","","83","img/motor_2.png","83","motor","2","333","1","0","0","",""
"null","","373290","HierDykxzvuv0r","c00flrwv4e","ms1000279","iti","","null","img/motor_2.png","83","motor","","","","","","",""
"453","","373751","HierDykxzvuv0r","c00flrwv4e","ms1000279","motor","","65","img/motor_1.png","65","motor","1","334","1","0","0","",""
"null","","373859","HierDykxzvuv0r","c00flrwv4e","ms1000279","iti","","null","img/motor_1.png","65","motor","","","","","","",""
"595","","374463","HierDykxzvuv0r","c00flrwv4e","ms1000279","motor","","68","img/motor_3.png","68","motor","3","335","1","0","0","",""
"null","","374578","HierDykxzvuv0r","c00flrwv4e","ms1000279","iti","","null","img/motor_3.png","68","motor","","","","","","",""
"1108","","375695","HierDykxzvuv0r","c00flrwv4e","ms1000279","motor","","83","img/motor_2.png","83","motor","2","336","1","0","0","",""
"null","","375810","HierDykxzvuv0r","c00flrwv4e","ms1000279","iti","","null","img/motor_2.png","83","motor","","","","","","",""
"420","","376238","HierDykxzvuv0r","c00flrwv4e","ms1000279","motor","","72","img/motor_5.png","72","motor","5","337","1","0","0","",""
"null","","376353","HierDykxzvuv0r","c00flrwv4e","ms1000279","iti","","null","img/motor_5.png","72","motor","","","","","","",""
"396","","376759","HierDykxzvuv0r","c00flrwv4e","ms1000279","motor","","75","img/motor_7.png","75","motor","7","338","1","0","0","",""
"null","","376867","HierDykxzvuv0r","c00flrwv4e","ms1000279","iti","","null","img/motor_7.png","75","motor","","","","","","",""
"666","","377549","HierDykxzvuv0r","c00flrwv4e","ms1000279","motor","","70","img/motor_4.png","70","motor","4","339","1","0","0","",""
"null","","377665","HierDykxzvuv0r","c00flrwv4e","ms1000279","iti","","null","img/motor_4.png","70","motor","","","","","","",""
"653","","378327","HierDykxzvuv0r","c00flrwv4e","ms1000279","motor","","74","img/motor_6.png","74","motor","6","340","1","0","0","",""
"null","","378442","HierDykxzvuv0r","c00flrwv4e","ms1000279","iti","","null","img/motor_6.png","74","motor","","","","","","",""
"860","","379311","HierDykxzvuv0r","c00flrwv4e","ms1000279","motor","","68","img/motor_3.png","68","motor","3","341","1","0","0","",""
"null","","379419","HierDykxzvuv0r","c00flrwv4e","ms1000279","iti","","null","img/motor_3.png","68","motor","","","","","","",""
"482","","379917","HierDykxzvuv0r","c00flrwv4e","ms1000279","motor","","65","img/motor_1.png","65","motor","1","342","1","0","0","",""
"null","","380033","HierDykxzvuv0r","c00flrwv4e","ms1000279","iti","","null","img/motor_1.png","65","motor","","","","","","",""
"477","","380519","HierDykxzvuv0r","c00flrwv4e","ms1000279","motor","","83","img/motor_2.png","83","motor","2","343","1","0","0","",""
"null","","380627","HierDykxzvuv0r","c00flrwv4e","ms1000279","iti","","null","img/motor_2.png","83","motor","","","","","","",""
"676","","381311","HierDykxzvuv0r","c00flrwv4e","ms1000279","motor","","74","img/motor_6.png","74","motor","6","344","1","0","0","",""
"null","","381426","HierDykxzvuv0r","c00flrwv4e","ms1000279","iti","","null","img/motor_6.png","74","motor","","","","","","",""
"395","","381838","HierDykxzvuv0r","c00flrwv4e","ms1000279","motor","","76","img/motor_8.png","76","motor","8","345","1","0","0","",""
"null","","381948","HierDykxzvuv0r","c00flrwv4e","ms1000279","iti","","null","img/motor_8.png","76","motor","","","","","","",""
"516","","382471","HierDykxzvuv0r","c00flrwv4e","ms1000279","motor","","70","img/motor_4.png","70","motor","4","346","1","0","0","",""
"null","","382579","HierDykxzvuv0r","c00flrwv4e","ms1000279","iti","","null","img/motor_4.png","70","motor","","","","","","",""
"547","","383135","HierDykxzvuv0r","c00flrwv4e","ms1000279","motor","","75","img/motor_7.png","75","motor","7","347","1","0","0","",""
"null","","383250","HierDykxzvuv0r","c00flrwv4e","ms1000279","iti","","null","img/motor_7.png","75","motor","","","","","","",""
"564","","383823","HierDykxzvuv0r","c00flrwv4e","ms1000279","motor","","83","img/motor_2.png","83","motor","2","348","1","0","0","",""
"null","","383939","HierDykxzvuv0r","c00flrwv4e","ms1000279","iti","","null","img/motor_2.png","83","motor","","","","","","",""
"339","","384287","HierDykxzvuv0r","c00flrwv4e","ms1000279","motor","","75","img/motor_8.png","76","motor","8","349","0","1","0","",""
"224","","384519","HierDykxzvuv0r","c00flrwv4e","ms1000279","motorRepeat","","76","img/motor_8.png","76","motor","8","349","1","0","0","",""
"null","","384634","HierDykxzvuv0r","c00flrwv4e","ms1000279","iti","","null","img/motor_8.png","76","motor","","","","","","",""
"476","","385118","HierDykxzvuv0r","c00flrwv4e","ms1000279","motor","","65","img/motor_1.png","65","motor","1","350","1","0","0","",""
"null","","385225","HierDykxzvuv0r","c00flrwv4e","ms1000279","iti","","null","img/motor_1.png","65","motor","","","","","","",""
"397","","385631","HierDykxzvuv0r","c00flrwv4e","ms1000279","motor","","76","img/motor_8.png","76","motor","8","351","1","0","0","",""
"null","","385739","HierDykxzvuv0r","c00flrwv4e","ms1000279","iti","","null","img/motor_8.png","76","motor","","","","","","",""
"715","","386463","HierDykxzvuv0r","c00flrwv4e","ms1000279","motor","","68","img/motor_3.png","68","motor","3","352","1","0","0","",""
"null","","386571","HierDykxzvuv0r","c00flrwv4e","ms1000279","iti","","null","img/motor_3.png","68","motor","","","","","","",""
"355","","386933","HierDykxzvuv0r","c00flrwv4e","ms1000279","motor","","68","img/motor_3.png","68","motor","3","353","1","0","0","",""
"null","","387048","HierDykxzvuv0r","c00flrwv4e","ms1000279","iti","","null","img/motor_3.png","68","motor","","","","","","",""
"469","","387527","HierDykxzvuv0r","c00flrwv4e","ms1000279","motor","","65","img/motor_1.png","65","motor","1","354","1","0","0","",""
"null","","387643","HierDykxzvuv0r","c00flrwv4e","ms1000279","iti","","null","img/motor_1.png","65","motor","","","","","","",""
"540","","388191","HierDykxzvuv0r","c00flrwv4e","ms1000279","motor","","74","img/motor_6.png","74","motor","6","355","1","0","0","",""
"null","","388306","HierDykxzvuv0r","c00flrwv4e","ms1000279","iti","","null","img/motor_6.png","74","motor","","","","","","",""
"363","","388678","HierDykxzvuv0r","c00flrwv4e","ms1000279","motor","","74","img/motor_6.png","74","motor","6","356","1","0","0","",""
"null","","388793","HierDykxzvuv0r","c00flrwv4e","ms1000279","iti","","null","img/motor_6.png","74","motor","","","","","","",""
"604","","389413","HierDykxzvuv0r","c00flrwv4e","ms1000279","motor","","83","img/motor_2.png","83","motor","2","357","1","0","0","",""
"null","","389530","HierDykxzvuv0r","c00flrwv4e","ms1000279","iti","","null","img/motor_2.png","83","motor","","","","","","",""
"517","","390055","HierDykxzvuv0r","c00flrwv4e","ms1000279","motor","","70","img/motor_4.png","70","motor","4","358","1","0","0","",""
"null","","390171","HierDykxzvuv0r","c00flrwv4e","ms1000279","iti","","null","img/motor_4.png","70","motor","","","","","","",""
"372","","390552","HierDykxzvuv0r","c00flrwv4e","ms1000279","motor","","65","img/motor_1.png","65","motor","1","359","1","0","0","",""
"null","","390669","HierDykxzvuv0r","c00flrwv4e","ms1000279","iti","","null","img/motor_1.png","65","motor","","","","","","",""
"815","","391502","HierDykxzvuv0r","c00flrwv4e","ms1000279","motor","","75","img/motor_7.png","75","motor","7","360","1","0","0","",""
"null","","391611","HierDykxzvuv0r","c00flrwv4e","ms1000279","iti","","null","img/motor_7.png","75","motor","","","","","","",""
"587","","392207","HierDykxzvuv0r","c00flrwv4e","ms1000279","motor","","83","img/motor_2.png","83","motor","2","361","1","0","0","",""
"null","","392315","HierDykxzvuv0r","c00flrwv4e","ms1000279","iti","","null","img/motor_2.png","83","motor","","","","","","",""
"363","","392686","HierDykxzvuv0r","c00flrwv4e","ms1000279","motor","","75","img/motor_7.png","75","motor","7","362","1","0","0","",""
"null","","392801","HierDykxzvuv0r","c00flrwv4e","ms1000279","iti","","null","img/motor_7.png","75","motor","","","","","","",""
"556","","393366","HierDykxzvuv0r","c00flrwv4e","ms1000279","motor","","72","img/motor_5.png","72","motor","5","363","1","0","0","",""
"null","","393482","HierDykxzvuv0r","c00flrwv4e","ms1000279","iti","","null","img/motor_5.png","72","motor","","","","","","",""
"388","","393879","HierDykxzvuv0r","c00flrwv4e","ms1000279","motor","","75","img/motor_7.png","75","motor","7","364","1","0","0","",""
"null","","393994","HierDykxzvuv0r","c00flrwv4e","ms1000279","iti","","null","img/motor_7.png","75","motor","","","","","","",""
"467","","394470","HierDykxzvuv0r","c00flrwv4e","ms1000279","motor","","76","img/motor_8.png","76","motor","8","365","1","0","0","",""
