"rt","responses","time_elapsed","subject","prolificID","demoID","trialType","question_order","key_press","stim","corrresp","phase","stimNum","trialNum","corr","repeatTrial","motorSwitch","pracCounter","hierarchy"
"5304","{""Q0"":""ms1000342""}","5342","HierDywevwzk4n","ffdao4j52c","ms1000342","","","","","","","","","","","","",""
"3380","","8735","HierDywevwzk4n","ffdao4j52c","ms1000342","","","","","","","","","","","","",""
"","","10883","HierDywevwzk4n","ffdao4j52c","ms1000342","fullscreen","","","","","","","","","","","",""
"16950","{""Vision"":""Yes"",""Handedness"":""Right"",""Gender"":""male""}","27845","HierDywevwzk4n","ffdao4j52c","ms1000342","","[0,1,2]","","","","","","","","","","",""
"5186","{""Q0"":""21""}","33045","HierDywevwzk4n","ffdao4j52c","ms1000342","","","","","","","","","","","","",""
"81304","","114362","HierDywevwzk4n","ffdao4j52c","ms1000342","","","","","","","","","","","","",""
"1214","","115588","HierDywevwzk4n","ffdao4j52c","ms1000342","motor","","76","img/motor_8.png","76","motor","8","1","1","0","0","",""
"null","","115702","HierDywevwzk4n","ffdao4j52c","ms1000342","iti","","null","img/motor_8.png","76","motor","","","","","","",""
"477","","116191","HierDywevwzk4n","ffdao4j52c","ms1000342","motor","","72","img/motor_5.png","72","motor","5","2","1","0","0","",""
"null","","116303","HierDywevwzk4n","ffdao4j52c","ms1000342","iti","","null","img/motor_5.png","72","motor","","","","","","",""
"469","","116785","HierDywevwzk4n","ffdao4j52c","ms1000342","motor","","70","img/motor_4.png","70","motor","4","3","1","0","0","",""
"null","","116898","HierDywevwzk4n","ffdao4j52c","ms1000342","iti","","null","img/motor_4.png","70","motor","","","","","","",""
"356","","117265","HierDywevwzk4n","ffdao4j52c","ms1000342","motor","","65","img/motor_1.png","65","motor","1","4","1","0","0","",""
"null","","117378","HierDywevwzk4n","ffdao4j52c","ms1000342","iti","","null","img/motor_1.png","65","motor","","","","","","",""
"444","","117833","HierDywevwzk4n","ffdao4j52c","ms1000342","motor","","74","img/motor_6.png","74","motor","6","5","1","0","0","",""
"null","","117945","HierDywevwzk4n","ffdao4j52c","ms1000342","iti","","null","img/motor_6.png","74","motor","","","","","","",""
"404","","118360","HierDywevwzk4n","ffdao4j52c","ms1000342","motor","","75","img/motor_7.png","75","motor","7","6","1","0","0","",""
"null","","118472","HierDywevwzk4n","ffdao4j52c","ms1000342","iti","","null","img/motor_7.png","75","motor","","","","","","",""
"363","","118846","HierDywevwzk4n","ffdao4j52c","ms1000342","motor","","74","img/motor_6.png","74","motor","6","7","1","0","0","",""
"null","","118957","HierDywevwzk4n","ffdao4j52c","ms1000342","iti","","null","img/motor_6.png","74","motor","","","","","","",""
"399","","119368","HierDywevwzk4n","ffdao4j52c","ms1000342","motor","","70","img/motor_4.png","70","motor","4","8","1","0","0","",""
"null","","119481","HierDywevwzk4n","ffdao4j52c","ms1000342","iti","","null","img/motor_4.png","70","motor","","","","","","",""
"399","","119891","HierDywevwzk4n","ffdao4j52c","ms1000342","motor","","75","img/motor_7.png","75","motor","7","9","1","0","0","",""
"null","","120002","HierDywevwzk4n","ffdao4j52c","ms1000342","iti","","null","img/motor_7.png","75","motor","","","","","","",""
"399","","120412","HierDywevwzk4n","ffdao4j52c","ms1000342","motor","","76","img/motor_8.png","76","motor","8","10","1","0","0","",""
"null","","120526","HierDywevwzk4n","ffdao4j52c","ms1000342","iti","","null","img/motor_8.png","76","motor","","","","","","",""
"348","","120885","HierDywevwzk4n","ffdao4j52c","ms1000342","motor","","72","img/motor_4.png","70","motor","4","11","0","1","0","",""
"74","","120971","HierDywevwzk4n","ffdao4j52c","ms1000342","motorRepeat","","70","img/motor_4.png","70","motor","4","11","1","0","0","",""
"null","","121082","HierDywevwzk4n","ffdao4j52c","ms1000342","iti","","null","img/motor_4.png","70","motor","","","","","","",""
"594","","121688","HierDywevwzk4n","ffdao4j52c","ms1000342","motor","","74","img/motor_6.png","74","motor","6","12","1","0","0","",""
"null","","121800","HierDywevwzk4n","ffdao4j52c","ms1000342","iti","","null","img/motor_6.png","74","motor","","","","","","",""
"369","","122179","HierDywevwzk4n","ffdao4j52c","ms1000342","motor","","72","img/motor_5.png","72","motor","5","13","1","0","0","",""
"null","","122291","HierDywevwzk4n","ffdao4j52c","ms1000342","iti","","null","img/motor_5.png","72","motor","","","","","","",""
"379","","122681","HierDywevwzk4n","ffdao4j52c","ms1000342","motor","","75","img/motor_7.png","75","motor","7","14","1","0","0","",""
"null","","122792","HierDywevwzk4n","ffdao4j52c","ms1000342","iti","","null","img/motor_7.png","75","motor","","","","","","",""
"399","","123202","HierDywevwzk4n","ffdao4j52c","ms1000342","motor","","83","img/motor_2.png","83","motor","2","15","1","0","0","",""
"null","","123314","HierDywevwzk4n","ffdao4j52c","ms1000342","iti","","null","img/motor_2.png","83","motor","","","","","","",""
"380","","123706","HierDywevwzk4n","ffdao4j52c","ms1000342","motor","","75","img/motor_7.png","75","motor","7","16","1","0","0","",""
"null","","123818","HierDywevwzk4n","ffdao4j52c","ms1000342","iti","","null","img/motor_7.png","75","motor","","","","","","",""
"344","","124173","HierDywevwzk4n","ffdao4j52c","ms1000342","motor","","83","img/motor_2.png","83","motor","2","17","1","0","0","",""
"null","","124285","HierDywevwzk4n","ffdao4j52c","ms1000342","iti","","null","img/motor_2.png","83","motor","","","","","","",""
"377","","124673","HierDywevwzk4n","ffdao4j52c","ms1000342","motor","","72","img/motor_5.png","72","motor","5","18","1","0","0","",""
"2","","124784","HierDywevwzk4n","ffdao4j52c","ms1000342","iti","","74","img/motor_5.png","72","motor","","","","","","",""
"561","","125358","HierDywevwzk4n","ffdao4j52c","ms1000342","motor","","83","img/motor_2.png","83","motor","2","19","1","0","0","",""
"null","","125470","HierDywevwzk4n","ffdao4j52c","ms1000342","iti","","null","img/motor_2.png","83","motor","","","","","","",""
"297","","125779","HierDywevwzk4n","ffdao4j52c","ms1000342","motor","","75","img/motor_8.png","76","motor","8","20","0","1","0","",""
"372","","126161","HierDywevwzk4n","ffdao4j52c","ms1000342","motorRepeat","","76","img/motor_8.png","76","motor","8","20","1","0","0","",""
"null","","126273","HierDywevwzk4n","ffdao4j52c","ms1000342","iti","","null","img/motor_8.png","76","motor","","","","","","",""
"468","","126752","HierDywevwzk4n","ffdao4j52c","ms1000342","motor","","76","img/motor_8.png","76","motor","8","21","1","0","0","",""
"null","","126864","HierDywevwzk4n","ffdao4j52c","ms1000342","iti","","null","img/motor_8.png","76","motor","","","","","","",""
"404","","127279","HierDywevwzk4n","ffdao4j52c","ms1000342","motor","","72","img/motor_5.png","72","motor","5","22","1","0","0","",""
"null","","127391","HierDywevwzk4n","ffdao4j52c","ms1000342","iti","","null","img/motor_5.png","72","motor","","","","","","",""
"403","","127806","HierDywevwzk4n","ffdao4j52c","ms1000342","motor","","76","img/motor_7.png","75","motor","7","23","0","1","0","",""
"282","","128099","HierDywevwzk4n","ffdao4j52c","ms1000342","motorRepeat","","75","img/motor_7.png","75","motor","7","23","1","0","0","",""
"null","","128211","HierDywevwzk4n","ffdao4j52c","ms1000342","iti","","null","img/motor_7.png","75","motor","","","","","","",""
"539","","128761","HierDywevwzk4n","ffdao4j52c","ms1000342","motor","","74","img/motor_6.png","74","motor","6","24","1","0","0","",""
"null","","128873","HierDywevwzk4n","ffdao4j52c","ms1000342","iti","","null","img/motor_6.png","74","motor","","","","","","",""
"387","","129271","HierDywevwzk4n","ffdao4j52c","ms1000342","motor","","76","img/motor_8.png","76","motor","8","25","1","0","0","",""
"null","","129383","HierDywevwzk4n","ffdao4j52c","ms1000342","iti","","null","img/motor_8.png","76","motor","","","","","","",""
"429","","129823","HierDywevwzk4n","ffdao4j52c","ms1000342","motor","","74","img/motor_6.png","74","motor","6","26","1","0","0","",""
"null","","129936","HierDywevwzk4n","ffdao4j52c","ms1000342","iti","","null","img/motor_6.png","74","motor","","","","","","",""
"403","","130351","HierDywevwzk4n","ffdao4j52c","ms1000342","motor","","75","img/motor_7.png","75","motor","7","27","1","0","0","",""
"null","","130464","HierDywevwzk4n","ffdao4j52c","ms1000342","iti","","null","img/motor_7.png","75","motor","","","","","","",""
"409","","130885","HierDywevwzk4n","ffdao4j52c","ms1000342","motor","","83","img/motor_4.png","70","motor","4","28","0","1","0","",""
"319","","131215","HierDywevwzk4n","ffdao4j52c","ms1000342","motorRepeat","","70","img/motor_4.png","70","motor","4","28","1","0","0","",""
"null","","131326","HierDywevwzk4n","ffdao4j52c","ms1000342","iti","","null","img/motor_4.png","70","motor","","","","","","",""
"485","","131823","HierDywevwzk4n","ffdao4j52c","ms1000342","motor","","65","img/motor_1.png","65","motor","1","29","1","0","0","",""
"null","","131934","HierDywevwzk4n","ffdao4j52c","ms1000342","iti","","null","img/motor_1.png","65","motor","","","","","","",""
"518","","132464","HierDywevwzk4n","ffdao4j52c","ms1000342","motor","","75","img/motor_7.png","75","motor","7","30","1","0","0","",""
"null","","132576","HierDywevwzk4n","ffdao4j52c","ms1000342","iti","","null","img/motor_7.png","75","motor","","","","","","",""
"409","","132996","HierDywevwzk4n","ffdao4j52c","ms1000342","motor","","76","img/motor_8.png","76","motor","8","31","1","0","0","",""
"null","","133107","HierDywevwzk4n","ffdao4j52c","ms1000342","iti","","null","img/motor_8.png","76","motor","","","","","","",""
"384","","133504","HierDywevwzk4n","ffdao4j52c","ms1000342","motor","","65","img/motor_1.png","65","motor","1","32","1","0","0","",""
"null","","133616","HierDywevwzk4n","ffdao4j52c","ms1000342","iti","","null","img/motor_1.png","65","motor","","","","","","",""
"404","","134030","HierDywevwzk4n","ffdao4j52c","ms1000342","motor","","76","img/motor_8.png","76","motor","8","33","1","0","0","",""
"null","","134142","HierDywevwzk4n","ffdao4j52c","ms1000342","iti","","null","img/motor_8.png","76","motor","","","","","","",""
"298","","134452","HierDywevwzk4n","ffdao4j52c","ms1000342","motor","","70","img/motor_4.png","70","motor","4","34","1","0","0","",""
"null","","134564","HierDywevwzk4n","ffdao4j52c","ms1000342","iti","","null","img/motor_4.png","70","motor","","","","","","",""
"388","","134963","HierDywevwzk4n","ffdao4j52c","ms1000342","motor","","74","img/motor_6.png","74","motor","6","35","1","0","0","",""
"null","","135076","HierDywevwzk4n","ffdao4j52c","ms1000342","iti","","null","img/motor_6.png","74","motor","","","","","","",""
"384","","135472","HierDywevwzk4n","ffdao4j52c","ms1000342","motor","","74","img/motor_6.png","74","motor","6","36","1","0","0","",""
"null","","135583","HierDywevwzk4n","ffdao4j52c","ms1000342","iti","","null","img/motor_6.png","74","motor","","","","","","",""
"350","","135944","HierDywevwzk4n","ffdao4j52c","ms1000342","motor","","65","img/motor_1.png","65","motor","1","37","1","0","0","",""
"null","","136057","HierDywevwzk4n","ffdao4j52c","ms1000342","iti","","null","img/motor_1.png","65","motor","","","","","","",""
"442","","136510","HierDywevwzk4n","ffdao4j52c","ms1000342","motor","","75","img/motor_7.png","75","motor","7","38","1","0","0","",""
"null","","136622","HierDywevwzk4n","ffdao4j52c","ms1000342","iti","","null","img/motor_7.png","75","motor","","","","","","",""
"392","","137026","HierDywevwzk4n","ffdao4j52c","ms1000342","motor","","70","img/motor_4.png","70","motor","4","39","1","0","0","",""
"null","","137138","HierDywevwzk4n","ffdao4j52c","ms1000342","iti","","null","img/motor_4.png","70","motor","","","","","","",""
"385","","137534","HierDywevwzk4n","ffdao4j52c","ms1000342","motor","","83","img/motor_2.png","83","motor","2","40","1","0","0","",""
"null","","137646","HierDywevwzk4n","ffdao4j52c","ms1000342","iti","","null","img/motor_2.png","83","motor","","","","","","",""
"558","","138216","HierDywevwzk4n","ffdao4j52c","ms1000342","motor","","68","img/motor_3.png","68","motor","3","41","1","0","0","",""
"null","","138328","HierDywevwzk4n","ffdao4j52c","ms1000342","iti","","null","img/motor_3.png","68","motor","","","","","","",""
"536","","138876","HierDywevwzk4n","ffdao4j52c","ms1000342","motor","","72","img/motor_5.png","72","motor","5","42","1","0","0","",""
"null","","138988","HierDywevwzk4n","ffdao4j52c","ms1000342","iti","","null","img/motor_5.png","72","motor","","","","","","",""
"413","","139413","HierDywevwzk4n","ffdao4j52c","ms1000342","motor","","76","img/motor_8.png","76","motor","8","43","1","0","0","",""
"null","","139525","HierDywevwzk4n","ffdao4j52c","ms1000342","iti","","null","img/motor_8.png","76","motor","","","","","","",""
"387","","139923","HierDywevwzk4n","ffdao4j52c","ms1000342","motor","","72","img/motor_5.png","72","motor","5","44","1","0","0","",""
"null","","140036","HierDywevwzk4n","ffdao4j52c","ms1000342","iti","","null","img/motor_5.png","72","motor","","","","","","",""
"365","","140411","HierDywevwzk4n","ffdao4j52c","ms1000342","motor","","65","img/motor_1.png","65","motor","1","45","1","0","0","",""
"null","","140523","HierDywevwzk4n","ffdao4j52c","ms1000342","iti","","null","img/motor_1.png","65","motor","","","","","","",""
"329","","140865","HierDywevwzk4n","ffdao4j52c","ms1000342","motor","","76","img/motor_8.png","76","motor","8","46","1","0","0","",""
"null","","140977","HierDywevwzk4n","ffdao4j52c","ms1000342","iti","","null","img/motor_8.png","76","motor","","","","","","",""
"422","","141412","HierDywevwzk4n","ffdao4j52c","ms1000342","motor","","83","img/motor_2.png","83","motor","2","47","1","0","0","",""
"null","","141523","HierDywevwzk4n","ffdao4j52c","ms1000342","iti","","null","img/motor_2.png","83","motor","","","","","","",""
"377","","141911","HierDywevwzk4n","ffdao4j52c","ms1000342","motor","","75","img/motor_7.png","75","motor","7","48","1","0","0","",""
"null","","142024","HierDywevwzk4n","ffdao4j52c","ms1000342","iti","","null","img/motor_7.png","75","motor","","","","","","",""
"354","","142388","HierDywevwzk4n","ffdao4j52c","ms1000342","motor","","76","img/motor_7.png","75","motor","7","49","0","1","0","",""
"29","","142428","HierDywevwzk4n","ffdao4j52c","ms1000342","motorRepeat","","75","img/motor_7.png","75","motor","7","49","1","0","0","",""
"null","","142540","HierDywevwzk4n","ffdao4j52c","ms1000342","iti","","null","img/motor_7.png","75","motor","","","","","","",""
"741","","143292","HierDywevwzk4n","ffdao4j52c","ms1000342","motor","","74","img/motor_6.png","74","motor","6","50","1","0","0","",""
"null","","143404","HierDywevwzk4n","ffdao4j52c","ms1000342","iti","","null","img/motor_6.png","74","motor","","","","","","",""
"419","","143834","HierDywevwzk4n","ffdao4j52c","ms1000342","motor","","75","img/motor_7.png","75","motor","7","51","1","0","0","",""
"null","","143947","HierDywevwzk4n","ffdao4j52c","ms1000342","iti","","null","img/motor_7.png","75","motor","","","","","","",""
"401","","144360","HierDywevwzk4n","ffdao4j52c","ms1000342","motor","","83","img/motor_3.png","68","motor","3","52","0","1","0","",""
"347","","144718","HierDywevwzk4n","ffdao4j52c","ms1000342","motorRepeat","","68","img/motor_3.png","68","motor","3","52","1","0","0","",""
"null","","144831","HierDywevwzk4n","ffdao4j52c","ms1000342","iti","","null","img/motor_3.png","68","motor","","","","","","",""
"424","","145266","HierDywevwzk4n","ffdao4j52c","ms1000342","motor","","70","img/motor_4.png","70","motor","4","53","1","0","0","",""
"null","","145379","HierDywevwzk4n","ffdao4j52c","ms1000342","iti","","null","img/motor_4.png","70","motor","","","","","","",""
"406","","145796","HierDywevwzk4n","ffdao4j52c","ms1000342","motor","","70","img/motor_4.png","70","motor","4","54","1","0","0","",""
"null","","145908","HierDywevwzk4n","ffdao4j52c","ms1000342","iti","","null","img/motor_4.png","70","motor","","","","","","",""
"596","","146516","HierDywevwzk4n","ffdao4j52c","ms1000342","motor","","83","img/motor_2.png","83","motor","2","55","1","0","0","",""
"null","","146628","HierDywevwzk4n","ffdao4j52c","ms1000342","iti","","null","img/motor_2.png","83","motor","","","","","","",""
"527","","147167","HierDywevwzk4n","ffdao4j52c","ms1000342","motor","","74","img/motor_6.png","74","motor","6","56","1","0","0","",""
"null","","147279","HierDywevwzk4n","ffdao4j52c","ms1000342","iti","","null","img/motor_6.png","74","motor","","","","","","",""
"498","","147789","HierDywevwzk4n","ffdao4j52c","ms1000342","motor","","83","img/motor_2.png","83","motor","2","57","1","0","0","",""
"null","","147900","HierDywevwzk4n","ffdao4j52c","ms1000342","iti","","null","img/motor_2.png","83","motor","","","","","","",""
"373","","148285","HierDywevwzk4n","ffdao4j52c","ms1000342","motor","","65","img/motor_1.png","65","motor","1","58","1","0","0","",""
"null","","148398","HierDywevwzk4n","ffdao4j52c","ms1000342","iti","","null","img/motor_1.png","65","motor","","","","","","",""
"415","","148824","HierDywevwzk4n","ffdao4j52c","ms1000342","motor","","68","img/motor_3.png","68","motor","3","59","1","0","0","",""
"null","","148935","HierDywevwzk4n","ffdao4j52c","ms1000342","iti","","null","img/motor_3.png","68","motor","","","","","","",""
"509","","149456","HierDywevwzk4n","ffdao4j52c","ms1000342","motor","","76","img/motor_8.png","76","motor","8","60","1","0","0","",""
"null","","149568","HierDywevwzk4n","ffdao4j52c","ms1000342","iti","","null","img/motor_8.png","76","motor","","","","","","",""
"412","","149993","HierDywevwzk4n","ffdao4j52c","ms1000342","motor","","75","img/motor_7.png","75","motor","7","61","1","0","0","",""
"null","","150105","HierDywevwzk4n","ffdao4j52c","ms1000342","iti","","null","img/motor_7.png","75","motor","","","","","","",""
"444","","150561","HierDywevwzk4n","ffdao4j52c","ms1000342","motor","","83","img/motor_2.png","83","motor","2","62","1","0","0","",""
"null","","150673","HierDywevwzk4n","ffdao4j52c","ms1000342","iti","","null","img/motor_2.png","83","motor","","","","","","",""
"529","","151213","HierDywevwzk4n","ffdao4j52c","ms1000342","motor","","68","img/motor_3.png","68","motor","3","63","1","0","0","",""
"null","","151326","HierDywevwzk4n","ffdao4j52c","ms1000342","iti","","null","img/motor_3.png","68","motor","","","","","","",""
"402","","151740","HierDywevwzk4n","ffdao4j52c","ms1000342","motor","","76","img/motor_8.png","76","motor","8","64","1","0","0","",""
"null","","151852","HierDywevwzk4n","ffdao4j52c","ms1000342","iti","","null","img/motor_8.png","76","motor","","","","","","",""
"400","","152264","HierDywevwzk4n","ffdao4j52c","ms1000342","motor","","68","img/motor_3.png","68","motor","3","65","1","0","0","",""
"null","","152376","HierDywevwzk4n","ffdao4j52c","ms1000342","iti","","null","img/motor_3.png","68","motor","","","","","","",""
"415","","152803","HierDywevwzk4n","ffdao4j52c","ms1000342","motor","","74","img/motor_6.png","74","motor","6","66","1","0","0","",""
"null","","152916","HierDywevwzk4n","ffdao4j52c","ms1000342","iti","","null","img/motor_6.png","74","motor","","","","","","",""
"470","","153397","HierDywevwzk4n","ffdao4j52c","ms1000342","motor","","70","img/motor_4.png","70","motor","4","67","1","0","0","",""
"null","","153510","HierDywevwzk4n","ffdao4j52c","ms1000342","iti","","null","img/motor_4.png","70","motor","","","","","","",""
"363","","153885","HierDywevwzk4n","ffdao4j52c","ms1000342","motor","","76","img/motor_8.png","76","motor","8","68","1","0","0","",""
"null","","153996","HierDywevwzk4n","ffdao4j52c","ms1000342","iti","","null","img/motor_8.png","76","motor","","","","","","",""
"351","","154360","HierDywevwzk4n","ffdao4j52c","ms1000342","motor","","72","img/motor_5.png","72","motor","5","69","1","0","0","",""
"null","","154473","HierDywevwzk4n","ffdao4j52c","ms1000342","iti","","null","img/motor_5.png","72","motor","","","","","","",""
"304","","154787","HierDywevwzk4n","ffdao4j52c","ms1000342","motor","","65","img/motor_1.png","65","motor","1","70","1","0","0","",""
"null","","154899","HierDywevwzk4n","ffdao4j52c","ms1000342","iti","","null","img/motor_1.png","65","motor","","","","","","",""
"373","","155283","HierDywevwzk4n","ffdao4j52c","ms1000342","motor","","72","img/motor_5.png","72","motor","5","71","1","0","0","",""
"null","","155395","HierDywevwzk4n","ffdao4j52c","ms1000342","iti","","null","img/motor_5.png","72","motor","","","","","","",""
"419","","155824","HierDywevwzk4n","ffdao4j52c","ms1000342","motor","","74","img/motor_6.png","74","motor","6","72","1","0","0","",""
"null","","155937","HierDywevwzk4n","ffdao4j52c","ms1000342","iti","","null","img/motor_6.png","74","motor","","","","","","",""
"398","","156347","HierDywevwzk4n","ffdao4j52c","ms1000342","motor","","68","img/motor_3.png","68","motor","3","73","1","0","0","",""
"null","","156459","HierDywevwzk4n","ffdao4j52c","ms1000342","iti","","null","img/motor_3.png","68","motor","","","","","","",""
"416","","156887","HierDywevwzk4n","ffdao4j52c","ms1000342","motor","","83","img/motor_2.png","83","motor","2","74","1","0","0","",""
"null","","156998","HierDywevwzk4n","ffdao4j52c","ms1000342","iti","","null","img/motor_2.png","83","motor","","","","","","",""
"424","","157433","HierDywevwzk4n","ffdao4j52c","ms1000342","motor","","70","img/motor_4.png","70","motor","4","75","1","0","0","",""
"null","","157546","HierDywevwzk4n","ffdao4j52c","ms1000342","iti","","null","img/motor_4.png","70","motor","","","","","","",""
"381","","157939","HierDywevwzk4n","ffdao4j52c","ms1000342","motor","","65","img/motor_2.png","83","motor","2","76","0","1","0","",""
"345","","158296","HierDywevwzk4n","ffdao4j52c","ms1000342","motorRepeat","","83","img/motor_2.png","83","motor","2","76","1","0","0","",""
"null","","158409","HierDywevwzk4n","ffdao4j52c","ms1000342","iti","","null","img/motor_2.png","83","motor","","","","","","",""
"488","","158907","HierDywevwzk4n","ffdao4j52c","ms1000342","motor","","65","img/motor_1.png","65","motor","1","77","1","0","0","",""
"null","","159020","HierDywevwzk4n","ffdao4j52c","ms1000342","iti","","null","img/motor_1.png","65","motor","","","","","","",""
"449","","159481","HierDywevwzk4n","ffdao4j52c","ms1000342","motor","","76","img/motor_8.png","76","motor","8","78","1","0","0","",""
"null","","159594","HierDywevwzk4n","ffdao4j52c","ms1000342","iti","","null","img/motor_8.png","76","motor","","","","","","",""
"375","","159981","HierDywevwzk4n","ffdao4j52c","ms1000342","motor","","65","img/motor_1.png","65","motor","1","79","1","0","0","",""
"null","","160094","HierDywevwzk4n","ffdao4j52c","ms1000342","iti","","null","img/motor_1.png","65","motor","","","","","","",""
"408","","160515","HierDywevwzk4n","ffdao4j52c","ms1000342","motor","","70","img/motor_4.png","70","motor","4","80","1","0","0","",""
"null","","160627","HierDywevwzk4n","ffdao4j52c","ms1000342","iti","","null","img/motor_4.png","70","motor","","","","","","",""
"434","","161072","HierDywevwzk4n","ffdao4j52c","ms1000342","motor","","65","img/motor_1.png","65","motor","1","81","1","0","0","",""
"null","","161184","HierDywevwzk4n","ffdao4j52c","ms1000342","iti","","null","img/motor_1.png","65","motor","","","","","","",""
"399","","161594","HierDywevwzk4n","ffdao4j52c","ms1000342","motor","","74","img/motor_7.png","75","motor","7","82","0","1","0","",""
"283","","161889","HierDywevwzk4n","ffdao4j52c","ms1000342","motorRepeat","","75","img/motor_7.png","75","motor","7","82","1","0","0","",""
"null","","162000","HierDywevwzk4n","ffdao4j52c","ms1000342","iti","","null","img/motor_7.png","75","motor","","","","","","",""
"502","","162515","HierDywevwzk4n","ffdao4j52c","ms1000342","motor","","75","img/motor_7.png","75","motor","7","83","1","0","0","",""
"null","","162626","HierDywevwzk4n","ffdao4j52c","ms1000342","iti","","null","img/motor_7.png","75","motor","","","","","","",""
"406","","163043","HierDywevwzk4n","ffdao4j52c","ms1000342","motor","","65","img/motor_1.png","65","motor","1","84","1","0","0","",""
"null","","163156","HierDywevwzk4n","ffdao4j52c","ms1000342","iti","","null","img/motor_1.png","65","motor","","","","","","",""
"410","","163580","HierDywevwzk4n","ffdao4j52c","ms1000342","motor","","83","img/motor_2.png","83","motor","2","85","1","0","0","",""
"null","","163692","HierDywevwzk4n","ffdao4j52c","ms1000342","iti","","null","img/motor_2.png","83","motor","","","","","","",""
"530","","164236","HierDywevwzk4n","ffdao4j52c","ms1000342","motor","","68","img/motor_3.png","68","motor","3","86","1","0","0","",""
"null","","164348","HierDywevwzk4n","ffdao4j52c","ms1000342","iti","","null","img/motor_3.png","68","motor","","","","","","",""
"487","","164848","HierDywevwzk4n","ffdao4j52c","ms1000342","motor","","72","img/motor_5.png","72","motor","5","87","1","0","0","",""
"null","","164961","HierDywevwzk4n","ffdao4j52c","ms1000342","iti","","null","img/motor_5.png","72","motor","","","","","","",""
"803","","165773","HierDywevwzk4n","ffdao4j52c","ms1000342","motor","","72","img/motor_6.png","74","motor","6","88","0","1","0","",""
"235","","166020","HierDywevwzk4n","ffdao4j52c","ms1000342","motorRepeat","","74","img/motor_6.png","74","motor","6","88","1","0","0","",""
"null","","166133","HierDywevwzk4n","ffdao4j52c","ms1000342","iti","","null","img/motor_6.png","74","motor","","","","","","",""
"459","","166603","HierDywevwzk4n","ffdao4j52c","ms1000342","motor","","76","img/motor_8.png","76","motor","8","89","1","0","0","",""
"null","","166716","HierDywevwzk4n","ffdao4j52c","ms1000342","iti","","null","img/motor_8.png","76","motor","","","","","","",""
"538","","167264","HierDywevwzk4n","ffdao4j52c","ms1000342","motor","","83","img/motor_2.png","83","motor","2","90","1","0","0","",""
"null","","167376","HierDywevwzk4n","ffdao4j52c","ms1000342","iti","","null","img/motor_2.png","83","motor","","","","","","",""
"371","","167756","HierDywevwzk4n","ffdao4j52c","ms1000342","motor","","72","img/motor_5.png","72","motor","5","91","1","0","0","",""
"null","","167868","HierDywevwzk4n","ffdao4j52c","ms1000342","iti","","null","img/motor_5.png","72","motor","","","","","","",""
"661","","168542","HierDywevwzk4n","ffdao4j52c","ms1000342","motor","","68","img/motor_3.png","68","motor","3","92","1","0","0","",""
"null","","168654","HierDywevwzk4n","ffdao4j52c","ms1000342","iti","","null","img/motor_3.png","68","motor","","","","","","",""
"441","","169107","HierDywevwzk4n","ffdao4j52c","ms1000342","motor","","83","img/motor_2.png","83","motor","2","93","1","0","0","",""
"null","","169220","HierDywevwzk4n","ffdao4j52c","ms1000342","iti","","null","img/motor_2.png","83","motor","","","","","","",""
"439","","169669","HierDywevwzk4n","ffdao4j52c","ms1000342","motor","","72","img/motor_5.png","72","motor","5","94","1","0","0","",""
"null","","169782","HierDywevwzk4n","ffdao4j52c","ms1000342","iti","","null","img/motor_5.png","72","motor","","","","","","",""
"398","","170192","HierDywevwzk4n","ffdao4j52c","ms1000342","motor","","76","img/motor_8.png","76","motor","8","95","1","0","0","",""
"null","","170304","HierDywevwzk4n","ffdao4j52c","ms1000342","iti","","null","img/motor_8.png","76","motor","","","","","","",""
"355","","170670","HierDywevwzk4n","ffdao4j52c","ms1000342","motor","","65","img/motor_1.png","65","motor","1","96","1","0","0","",""
"null","","170784","HierDywevwzk4n","ffdao4j52c","ms1000342","iti","","null","img/motor_1.png","65","motor","","","","","","",""
"362","","171157","HierDywevwzk4n","ffdao4j52c","ms1000342","motor","","72","img/motor_5.png","72","motor","5","97","1","0","0","",""
"null","","171268","HierDywevwzk4n","ffdao4j52c","ms1000342","iti","","null","img/motor_5.png","72","motor","","","","","","",""
"425","","171703","HierDywevwzk4n","ffdao4j52c","ms1000342","motor","","83","img/motor_2.png","83","motor","2","98","1","0","0","",""
"null","","171816","HierDywevwzk4n","ffdao4j52c","ms1000342","iti","","null","img/motor_2.png","83","motor","","","","","","",""
"393","","172220","HierDywevwzk4n","ffdao4j52c","ms1000342","motor","","83","img/motor_2.png","83","motor","2","99","1","0","0","",""
"null","","172332","HierDywevwzk4n","ffdao4j52c","ms1000342","iti","","null","img/motor_2.png","83","motor","","","","","","",""
"314","","172659","HierDywevwzk4n","ffdao4j52c","ms1000342","motor","","76","img/motor_8.png","76","motor","8","100","1","0","0","",""
"null","","172771","HierDywevwzk4n","ffdao4j52c","ms1000342","iti","","null","img/motor_8.png","76","motor","","","","","","",""
"409","","173192","HierDywevwzk4n","ffdao4j52c","ms1000342","motor","","75","img/motor_7.png","75","motor","7","101","1","0","0","",""
"null","","173303","HierDywevwzk4n","ffdao4j52c","ms1000342","iti","","null","img/motor_7.png","75","motor","","","","","","",""
"383","","173697","HierDywevwzk4n","ffdao4j52c","ms1000342","motor","","65","img/motor_1.png","65","motor","1","102","1","0","0","",""
"null","","173809","HierDywevwzk4n","ffdao4j52c","ms1000342","iti","","null","img/motor_1.png","65","motor","","","","","","",""
"347","","174168","HierDywevwzk4n","ffdao4j52c","ms1000342","motor","","76","img/motor_8.png","76","motor","8","103","1","0","0","",""
"null","","174281","HierDywevwzk4n","ffdao4j52c","ms1000342","iti","","null","img/motor_8.png","76","motor","","","","","","",""
"292","","174585","HierDywevwzk4n","ffdao4j52c","ms1000342","motor","","83","img/motor_2.png","83","motor","2","104","1","0","0","",""
"null","","174696","HierDywevwzk4n","ffdao4j52c","ms1000342","iti","","null","img/motor_2.png","83","motor","","","","","","",""
"410","","175118","HierDywevwzk4n","ffdao4j52c","ms1000342","motor","","70","img/motor_4.png","70","motor","4","105","1","0","0","",""
"null","","175231","HierDywevwzk4n","ffdao4j52c","ms1000342","iti","","null","img/motor_4.png","70","motor","","","","","","",""
"392","","175634","HierDywevwzk4n","ffdao4j52c","ms1000342","motor","","76","img/motor_8.png","76","motor","8","106","1","0","0","",""
"null","","175746","HierDywevwzk4n","ffdao4j52c","ms1000342","iti","","null","img/motor_8.png","76","motor","","","","","","",""
"360","","176117","HierDywevwzk4n","ffdao4j52c","ms1000342","motor","","76","img/motor_8.png","76","motor","8","107","1","0","0","",""
"null","","176230","HierDywevwzk4n","ffdao4j52c","ms1000342","iti","","null","img/motor_8.png","76","motor","","","","","","",""
"356","","176597","HierDywevwzk4n","ffdao4j52c","ms1000342","motor","","83","img/motor_2.png","83","motor","2","108","1","0","0","",""
"null","","176708","HierDywevwzk4n","ffdao4j52c","ms1000342","iti","","null","img/motor_2.png","83","motor","","","","","","",""
"329","","177048","HierDywevwzk4n","ffdao4j52c","ms1000342","motor","","76","img/motor_8.png","76","motor","8","109","1","0","0","",""
"null","","177161","HierDywevwzk4n","ffdao4j52c","ms1000342","iti","","null","img/motor_8.png","76","motor","","","","","","",""
"429","","177601","HierDywevwzk4n","ffdao4j52c","ms1000342","motor","","65","img/motor_1.png","65","motor","1","110","1","0","0","",""
"null","","177713","HierDywevwzk4n","ffdao4j52c","ms1000342","iti","","null","img/motor_1.png","65","motor","","","","","","",""
"391","","178115","HierDywevwzk4n","ffdao4j52c","ms1000342","motor","","70","img/motor_4.png","70","motor","4","111","1","0","0","",""
"null","","178228","HierDywevwzk4n","ffdao4j52c","ms1000342","iti","","null","img/motor_4.png","70","motor","","","","","","",""
"321","","178560","HierDywevwzk4n","ffdao4j52c","ms1000342","motor","","72","img/motor_5.png","72","motor","5","112","1","0","0","",""
"null","","178673","HierDywevwzk4n","ffdao4j52c","ms1000342","iti","","null","img/motor_5.png","72","motor","","","","","","",""
"377","","179063","HierDywevwzk4n","ffdao4j52c","ms1000342","motor","","75","img/motor_7.png","75","motor","7","113","1","0","0","",""
"null","","179176","HierDywevwzk4n","ffdao4j52c","ms1000342","iti","","null","img/motor_7.png","75","motor","","","","","","",""
"324","","179509","HierDywevwzk4n","ffdao4j52c","ms1000342","motor","","83","img/motor_2.png","83","motor","2","114","1","0","0","",""
"null","","179622","HierDywevwzk4n","ffdao4j52c","ms1000342","iti","","null","img/motor_2.png","83","motor","","","","","","",""
"366","","180001","HierDywevwzk4n","ffdao4j52c","ms1000342","motor","","65","img/motor_1.png","65","motor","1","115","1","0","0","",""
"null","","180113","HierDywevwzk4n","ffdao4j52c","ms1000342","iti","","null","img/motor_1.png","65","motor","","","","","","",""
"469","","180592","HierDywevwzk4n","ffdao4j52c","ms1000342","motor","","74","img/motor_6.png","74","motor","6","116","1","0","0","",""
"null","","180705","HierDywevwzk4n","ffdao4j52c","ms1000342","iti","","null","img/motor_6.png","74","motor","","","","","","",""
"334","","181050","HierDywevwzk4n","ffdao4j52c","ms1000342","motor","","74","img/motor_6.png","74","motor","6","117","1","0","0","",""
"null","","181164","HierDywevwzk4n","ffdao4j52c","ms1000342","iti","","null","img/motor_6.png","74","motor","","","","","","",""
"312","","181488","HierDywevwzk4n","ffdao4j52c","ms1000342","motor","","65","img/motor_1.png","65","motor","1","118","1","0","0","",""
"null","","181600","HierDywevwzk4n","ffdao4j52c","ms1000342","iti","","null","img/motor_1.png","65","motor","","","","","","",""
"338","","181949","HierDywevwzk4n","ffdao4j52c","ms1000342","motor","","70","img/motor_4.png","70","motor","4","119","1","0","0","",""
"null","","182062","HierDywevwzk4n","ffdao4j52c","ms1000342","iti","","null","img/motor_4.png","70","motor","","","","","","",""
"548","","182621","HierDywevwzk4n","ffdao4j52c","ms1000342","motor","","68","img/motor_3.png","68","motor","3","120","1","0","0","",""
"null","","182732","HierDywevwzk4n","ffdao4j52c","ms1000342","iti","","null","img/motor_3.png","68","motor","","","","","","",""
"468","","183213","HierDywevwzk4n","ffdao4j52c","ms1000342","motor","","75","img/motor_7.png","75","motor","7","121","1","0","0","",""
"null","","183326","HierDywevwzk4n","ffdao4j52c","ms1000342","iti","","null","img/motor_7.png","75","motor","","","","","","",""
"357","","183694","HierDywevwzk4n","ffdao4j52c","ms1000342","motor","","70","img/motor_4.png","70","motor","4","122","1","0","0","",""
"null","","183806","HierDywevwzk4n","ffdao4j52c","ms1000342","iti","","null","img/motor_4.png","70","motor","","","","","","",""
"334","","184151","HierDywevwzk4n","ffdao4j52c","ms1000342","motor","","70","img/motor_4.png","70","motor","4","123","1","0","0","",""
"null","","184263","HierDywevwzk4n","ffdao4j52c","ms1000342","iti","","null","img/motor_4.png","70","motor","","","","","","",""
"411","","184686","HierDywevwzk4n","ffdao4j52c","ms1000342","motor","","72","img/motor_5.png","72","motor","5","124","1","0","0","",""
"null","","184797","HierDywevwzk4n","ffdao4j52c","ms1000342","iti","","null","img/motor_5.png","72","motor","","","","","","",""
"525","","185333","HierDywevwzk4n","ffdao4j52c","ms1000342","motor","","68","img/motor_3.png","68","motor","3","125","1","0","0","",""
"null","","185445","HierDywevwzk4n","ffdao4j52c","ms1000342","iti","","null","img/motor_3.png","68","motor","","","","","","",""
"287","","185744","HierDywevwzk4n","ffdao4j52c","ms1000342","motor","","76","img/motor_8.png","76","motor","8","126","1","0","0","",""
"null","","185856","HierDywevwzk4n","ffdao4j52c","ms1000342","iti","","null","img/motor_8.png","76","motor","","","","","","",""
"372","","186241","HierDywevwzk4n","ffdao4j52c","ms1000342","motor","","70","img/motor_4.png","70","motor","4","127","1","0","0","",""
"null","","186352","HierDywevwzk4n","ffdao4j52c","ms1000342","iti","","null","img/motor_4.png","70","motor","","","","","","",""
"364","","186727","HierDywevwzk4n","ffdao4j52c","ms1000342","motor","","72","img/motor_5.png","72","motor","5","128","1","0","0","",""
"null","","186839","HierDywevwzk4n","ffdao4j52c","ms1000342","iti","","null","img/motor_5.png","72","motor","","","","","","",""
"403","","187253","HierDywevwzk4n","ffdao4j52c","ms1000342","motor","","76","img/motor_8.png","76","motor","8","129","1","0","0","",""
"null","","187366","HierDywevwzk4n","ffdao4j52c","ms1000342","iti","","null","img/motor_8.png","76","motor","","","","","","",""
"385","","187761","HierDywevwzk4n","ffdao4j52c","ms1000342","motor","","83","img/motor_3.png","68","motor","3","130","0","1","0","",""
"257","","188029","HierDywevwzk4n","ffdao4j52c","ms1000342","motorRepeat","","68","img/motor_3.png","68","motor","3","130","1","0","0","",""
"null","","188141","HierDywevwzk4n","ffdao4j52c","ms1000342","iti","","null","img/motor_3.png","68","motor","","","","","","",""
"440","","188594","HierDywevwzk4n","ffdao4j52c","ms1000342","motor","","83","img/motor_2.png","83","motor","2","131","1","0","0","",""
"null","","188706","HierDywevwzk4n","ffdao4j52c","ms1000342","iti","","null","img/motor_2.png","83","motor","","","","","","",""
"454","","189172","HierDywevwzk4n","ffdao4j52c","ms1000342","motor","","70","img/motor_4.png","70","motor","4","132","1","0","0","",""
"null","","189283","HierDywevwzk4n","ffdao4j52c","ms1000342","iti","","null","img/motor_4.png","70","motor","","","","","","",""
"424","","189720","HierDywevwzk4n","ffdao4j52c","ms1000342","motor","","65","img/motor_1.png","65","motor","1","133","1","0","0","",""
"null","","189832","HierDywevwzk4n","ffdao4j52c","ms1000342","iti","","null","img/motor_1.png","65","motor","","","","","","",""
"498","","190342","HierDywevwzk4n","ffdao4j52c","ms1000342","motor","","83","img/motor_2.png","83","motor","2","134","1","0","0","",""
"null","","190454","HierDywevwzk4n","ffdao4j52c","ms1000342","iti","","null","img/motor_2.png","83","motor","","","","","","",""
"368","","190834","HierDywevwzk4n","ffdao4j52c","ms1000342","motor","","83","img/motor_2.png","83","motor","2","135","1","0","0","",""
"null","","190946","HierDywevwzk4n","ffdao4j52c","ms1000342","iti","","null","img/motor_2.png","83","motor","","","","","","",""
"353","","191309","HierDywevwzk4n","ffdao4j52c","ms1000342","motor","","65","img/motor_1.png","65","motor","1","136","1","0","0","",""
"null","","191420","HierDywevwzk4n","ffdao4j52c","ms1000342","iti","","null","img/motor_1.png","65","motor","","","","","","",""
"410","","191841","HierDywevwzk4n","ffdao4j52c","ms1000342","motor","","65","img/motor_1.png","65","motor","1","137","1","0","0","",""
"null","","191954","HierDywevwzk4n","ffdao4j52c","ms1000342","iti","","null","img/motor_1.png","65","motor","","","","","","",""
"384","","192348","HierDywevwzk4n","ffdao4j52c","ms1000342","motor","","70","img/motor_3.png","68","motor","3","138","0","1","0","",""
"298","","192658","HierDywevwzk4n","ffdao4j52c","ms1000342","motorRepeat","","68","img/motor_3.png","68","motor","3","138","1","0","0","",""
"null","","192771","HierDywevwzk4n","ffdao4j52c","ms1000342","iti","","null","img/motor_3.png","68","motor","","","","","","",""
"552","","193333","HierDywevwzk4n","ffdao4j52c","ms1000342","motor","","76","img/motor_8.png","76","motor","8","139","1","0","0","",""
"null","","193445","HierDywevwzk4n","ffdao4j52c","ms1000342","iti","","null","img/motor_8.png","76","motor","","","","","","",""
"428","","193884","HierDywevwzk4n","ffdao4j52c","ms1000342","motor","","75","img/motor_7.png","75","motor","7","140","1","0","0","",""
"null","","193997","HierDywevwzk4n","ffdao4j52c","ms1000342","iti","","null","img/motor_7.png","75","motor","","","","","","",""
"615","","194624","HierDywevwzk4n","ffdao4j52c","ms1000342","motor","","83","img/motor_2.png","83","motor","2","141","1","0","0","",""
"null","","194736","HierDywevwzk4n","ffdao4j52c","ms1000342","iti","","null","img/motor_2.png","83","motor","","","","","","",""
"373","","195122","HierDywevwzk4n","ffdao4j52c","ms1000342","motor","","65","img/motor_1.png","65","motor","1","142","1","0","0","",""
"null","","195233","HierDywevwzk4n","ffdao4j52c","ms1000342","iti","","null","img/motor_1.png","65","motor","","","","","","",""
"318","","195562","HierDywevwzk4n","ffdao4j52c","ms1000342","motor","","70","img/motor_4.png","70","motor","4","143","1","0","0","",""
"null","","195675","HierDywevwzk4n","ffdao4j52c","ms1000342","iti","","null","img/motor_4.png","70","motor","","","","","","",""
"398","","196083","HierDywevwzk4n","ffdao4j52c","ms1000342","motor","","72","img/motor_5.png","72","motor","5","144","1","0","0","",""
"null","","196195","HierDywevwzk4n","ffdao4j52c","ms1000342","iti","","null","img/motor_5.png","72","motor","","","","","","",""
"464","","196671","HierDywevwzk4n","ffdao4j52c","ms1000342","motor","","74","img/motor_6.png","74","motor","6","145","1","0","0","",""
"null","","196783","HierDywevwzk4n","ffdao4j52c","ms1000342","iti","","null","img/motor_6.png","74","motor","","","","","","",""
"478","","197272","HierDywevwzk4n","ffdao4j52c","ms1000342","motor","","68","img/motor_3.png","68","motor","3","146","1","0","0","",""
"null","","197384","HierDywevwzk4n","ffdao4j52c","ms1000342","iti","","null","img/motor_3.png","68","motor","","","","","","",""
"430","","197826","HierDywevwzk4n","ffdao4j52c","ms1000342","motor","","72","img/motor_5.png","72","motor","5","147","1","0","0","",""
"null","","197938","HierDywevwzk4n","ffdao4j52c","ms1000342","iti","","null","img/motor_5.png","72","motor","","","","","","",""
"424","","198374","HierDywevwzk4n","ffdao4j52c","ms1000342","motor","","83","img/motor_2.png","83","motor","2","148","1","0","0","",""
"null","","198487","HierDywevwzk4n","ffdao4j52c","ms1000342","iti","","null","img/motor_2.png","83","motor","","","","","","",""
"430","","198929","HierDywevwzk4n","ffdao4j52c","ms1000342","motor","","75","img/motor_7.png","75","motor","7","149","1","0","0","",""
"null","","199041","HierDywevwzk4n","ffdao4j52c","ms1000342","iti","","null","img/motor_7.png","75","motor","","","","","","",""
"409","","199461","HierDywevwzk4n","ffdao4j52c","ms1000342","motor","","72","img/motor_5.png","72","motor","5","150","1","0","0","",""
"null","","199574","HierDywevwzk4n","ffdao4j52c","ms1000342","iti","","null","img/motor_5.png","72","motor","","","","","","",""
"700","","200286","HierDywevwzk4n","ffdao4j52c","ms1000342","motor","","70","img/motor_4.png","70","motor","4","151","1","0","0","",""
"null","","200398","HierDywevwzk4n","ffdao4j52c","ms1000342","iti","","null","img/motor_4.png","70","motor","","","","","","",""
"408","","200817","HierDywevwzk4n","ffdao4j52c","ms1000342","motor","","76","img/motor_8.png","76","motor","8","152","1","0","0","",""
"null","","200930","HierDywevwzk4n","ffdao4j52c","ms1000342","iti","","null","img/motor_8.png","76","motor","","","","","","",""
"588","","201530","HierDywevwzk4n","ffdao4j52c","ms1000342","motor","","65","img/motor_1.png","65","motor","1","153","1","0","0","",""
"null","","201642","HierDywevwzk4n","ffdao4j52c","ms1000342","iti","","null","img/motor_1.png","65","motor","","","","","","",""
"517","","202170","HierDywevwzk4n","ffdao4j52c","ms1000342","motor","","74","img/motor_6.png","74","motor","6","154","1","0","0","",""
"null","","202282","HierDywevwzk4n","ffdao4j52c","ms1000342","iti","","null","img/motor_6.png","74","motor","","","","","","",""
"426","","202719","HierDywevwzk4n","ffdao4j52c","ms1000342","motor","","76","img/motor_8.png","76","motor","8","155","1","0","0","",""
"null","","202831","HierDywevwzk4n","ffdao4j52c","ms1000342","iti","","null","img/motor_8.png","76","motor","","","","","","",""
"354","","203197","HierDywevwzk4n","ffdao4j52c","ms1000342","motor","","72","img/motor_5.png","72","motor","5","156","1","0","0","",""
"null","","203309","HierDywevwzk4n","ffdao4j52c","ms1000342","iti","","null","img/motor_5.png","72","motor","","","","","","",""
"348","","203669","HierDywevwzk4n","ffdao4j52c","ms1000342","motor","","72","img/motor_5.png","72","motor","5","157","1","0","0","",""
"null","","203782","HierDywevwzk4n","ffdao4j52c","ms1000342","iti","","null","img/motor_5.png","72","motor","","","","","","",""
"368","","204160","HierDywevwzk4n","ffdao4j52c","ms1000342","motor","","70","img/motor_4.png","70","motor","4","158","1","0","0","",""
"null","","204274","HierDywevwzk4n","ffdao4j52c","ms1000342","iti","","null","img/motor_4.png","70","motor","","","","","","",""
"399","","204684","HierDywevwzk4n","ffdao4j52c","ms1000342","motor","","74","img/motor_6.png","74","motor","6","159","1","0","0","",""
"null","","204797","HierDywevwzk4n","ffdao4j52c","ms1000342","iti","","null","img/motor_6.png","74","motor","","","","","","",""
"387","","205195","HierDywevwzk4n","ffdao4j52c","ms1000342","motor","","75","img/motor_7.png","75","motor","7","160","1","0","0","",""
"null","","205307","HierDywevwzk4n","ffdao4j52c","ms1000342","iti","","null","img/motor_7.png","75","motor","","","","","","",""
"335","","205653","HierDywevwzk4n","ffdao4j52c","ms1000342","motor","","65","img/motor_1.png","65","motor","1","161","1","0","0","",""
"null","","205766","HierDywevwzk4n","ffdao4j52c","ms1000342","iti","","null","img/motor_1.png","65","motor","","","","","","",""
"367","","206143","HierDywevwzk4n","ffdao4j52c","ms1000342","motor","","76","img/motor_7.png","75","motor","7","162","0","1","0","",""
"266","","206419","HierDywevwzk4n","ffdao4j52c","ms1000342","motorRepeat","","75","img/motor_7.png","75","motor","7","162","1","0","0","",""
"null","","206532","HierDywevwzk4n","ffdao4j52c","ms1000342","iti","","null","img/motor_7.png","75","motor","","","","","","",""
"442","","206986","HierDywevwzk4n","ffdao4j52c","ms1000342","motor","","76","img/motor_8.png","76","motor","8","163","1","0","0","",""
"null","","207097","HierDywevwzk4n","ffdao4j52c","ms1000342","iti","","null","img/motor_8.png","76","motor","","","","","","",""
"422","","207531","HierDywevwzk4n","ffdao4j52c","ms1000342","motor","","68","img/motor_3.png","68","motor","3","164","1","0","0","",""
"null","","207643","HierDywevwzk4n","ffdao4j52c","ms1000342","iti","","null","img/motor_3.png","68","motor","","","","","","",""
"436","","208091","HierDywevwzk4n","ffdao4j52c","ms1000342","motor","","75","img/motor_7.png","75","motor","7","165","1","0","0","",""
"null","","208203","HierDywevwzk4n","ffdao4j52c","ms1000342","iti","","null","img/motor_7.png","75","motor","","","","","","",""
"378","","208593","HierDywevwzk4n","ffdao4j52c","ms1000342","motor","","83","img/motor_2.png","83","motor","2","166","1","0","0","",""
"null","","208705","HierDywevwzk4n","ffdao4j52c","ms1000342","iti","","null","img/motor_2.png","83","motor","","","","","","",""
"411","","209127","HierDywevwzk4n","ffdao4j52c","ms1000342","motor","","75","img/motor_6.png","74","motor","6","167","0","1","0","",""
"279","","209418","HierDywevwzk4n","ffdao4j52c","ms1000342","motorRepeat","","74","img/motor_6.png","74","motor","6","167","1","0","0","",""
"null","","209530","HierDywevwzk4n","ffdao4j52c","ms1000342","iti","","null","img/motor_6.png","74","motor","","","","","","",""
"365","","209905","HierDywevwzk4n","ffdao4j52c","ms1000342","motor","","68","img/motor_3.png","68","motor","3","168","1","0","0","",""
"null","","210017","HierDywevwzk4n","ffdao4j52c","ms1000342","iti","","null","img/motor_3.png","68","motor","","","","","","",""
"472","","210500","HierDywevwzk4n","ffdao4j52c","ms1000342","motor","","72","img/motor_5.png","72","motor","5","169","1","0","0","",""
"null","","210613","HierDywevwzk4n","ffdao4j52c","ms1000342","iti","","null","img/motor_5.png","72","motor","","","","","","",""
"445","","211068","HierDywevwzk4n","ffdao4j52c","ms1000342","motor","","74","img/motor_6.png","74","motor","6","170","1","0","0","",""
"null","","211180","HierDywevwzk4n","ffdao4j52c","ms1000342","iti","","null","img/motor_6.png","74","motor","","","","","","",""
"388","","211580","HierDywevwzk4n","ffdao4j52c","ms1000342","motor","","83","img/motor_2.png","83","motor","2","171","1","0","0","",""
"null","","211692","HierDywevwzk4n","ffdao4j52c","ms1000342","iti","","null","img/motor_2.png","83","motor","","","","","","",""
"379","","212082","HierDywevwzk4n","ffdao4j52c","ms1000342","motor","","76","img/motor_8.png","76","motor","8","172","1","0","0","",""
"null","","212195","HierDywevwzk4n","ffdao4j52c","ms1000342","iti","","null","img/motor_8.png","76","motor","","","","","","",""
"440","","212647","HierDywevwzk4n","ffdao4j52c","ms1000342","motor","","83","img/motor_2.png","83","motor","2","173","1","0","0","",""
"null","","212760","HierDywevwzk4n","ffdao4j52c","ms1000342","iti","","null","img/motor_2.png","83","motor","","","","","","",""
"413","","213186","HierDywevwzk4n","ffdao4j52c","ms1000342","motor","","70","img/motor_4.png","70","motor","4","174","1","0","0","",""
"null","","213298","HierDywevwzk4n","ffdao4j52c","ms1000342","iti","","null","img/motor_4.png","70","motor","","","","","","",""
"31","","213341","HierDywevwzk4n","ffdao4j52c","ms1000342","motor","","70","img/motor_8.png","76","motor","8","175","0","1","0","",""
"410","","213763","HierDywevwzk4n","ffdao4j52c","ms1000342","motorRepeat","","76","img/motor_8.png","76","motor","8","175","1","0","0","",""
"null","","213875","HierDywevwzk4n","ffdao4j52c","ms1000342","iti","","null","img/motor_8.png","76","motor","","","","","","",""
"370","","214256","HierDywevwzk4n","ffdao4j52c","ms1000342","motor","","65","img/motor_1.png","65","motor","1","176","1","0","0","",""
"null","","214370","HierDywevwzk4n","ffdao4j52c","ms1000342","iti","","null","img/motor_1.png","65","motor","","","","","","",""
"416","","214798","HierDywevwzk4n","ffdao4j52c","ms1000342","motor","","74","img/motor_6.png","74","motor","6","177","1","0","0","",""
"null","","214910","HierDywevwzk4n","ffdao4j52c","ms1000342","iti","","null","img/motor_6.png","74","motor","","","","","","",""
"447","","215370","HierDywevwzk4n","ffdao4j52c","ms1000342","motor","","68","img/motor_3.png","68","motor","3","178","1","0","0","",""
"null","","215481","HierDywevwzk4n","ffdao4j52c","ms1000342","iti","","null","img/motor_3.png","68","motor","","","","","","",""
"356","","215847","HierDywevwzk4n","ffdao4j52c","ms1000342","motor","","65","img/motor_1.png","65","motor","1","179","1","0","0","",""
"null","","215959","HierDywevwzk4n","ffdao4j52c","ms1000342","iti","","null","img/motor_1.png","65","motor","","","","","","",""
"549","","216520","HierDywevwzk4n","ffdao4j52c","ms1000342","motor","","68","img/motor_3.png","68","motor","3","180","1","0","0","",""
"null","","216633","HierDywevwzk4n","ffdao4j52c","ms1000342","iti","","null","img/motor_3.png","68","motor","","","","","","",""
"355","","217000","HierDywevwzk4n","ffdao4j52c","ms1000342","motor","","65","img/motor_1.png","65","motor","1","181","1","0","0","",""
"null","","217113","HierDywevwzk4n","ffdao4j52c","ms1000342","iti","","null","img/motor_1.png","65","motor","","","","","","",""
"402","","217527","HierDywevwzk4n","ffdao4j52c","ms1000342","motor","","75","img/motor_8.png","76","motor","8","182","0","1","0","",""
"76","","217614","HierDywevwzk4n","ffdao4j52c","ms1000342","motorRepeat","","76","img/motor_8.png","76","motor","8","182","1","0","0","",""
"null","","217727","HierDywevwzk4n","ffdao4j52c","ms1000342","iti","","null","img/motor_8.png","76","motor","","","","","","",""
"481","","218219","HierDywevwzk4n","ffdao4j52c","ms1000342","motor","","72","img/motor_5.png","72","motor","5","183","1","0","0","",""
"null","","218331","HierDywevwzk4n","ffdao4j52c","ms1000342","iti","","null","img/motor_5.png","72","motor","","","","","","",""
"441","","218783","HierDywevwzk4n","ffdao4j52c","ms1000342","motor","","74","img/motor_6.png","74","motor","6","184","1","0","0","",""
"null","","218895","HierDywevwzk4n","ffdao4j52c","ms1000342","iti","","null","img/motor_6.png","74","motor","","","","","","",""
"388","","219295","HierDywevwzk4n","ffdao4j52c","ms1000342","motor","","70","img/motor_4.png","70","motor","4","185","1","0","0","",""
"null","","219407","HierDywevwzk4n","ffdao4j52c","ms1000342","iti","","null","img/motor_4.png","70","motor","","","","","","",""
"435","","219853","HierDywevwzk4n","ffdao4j52c","ms1000342","motor","","68","img/motor_3.png","68","motor","3","186","1","0","0","",""
"null","","219965","HierDywevwzk4n","ffdao4j52c","ms1000342","iti","","null","img/motor_3.png","68","motor","","","","","","",""
"347","","220324","HierDywevwzk4n","ffdao4j52c","ms1000342","motor","","65","img/motor_1.png","65","motor","1","187","1","0","0","",""
"null","","220435","HierDywevwzk4n","ffdao4j52c","ms1000342","iti","","null","img/motor_1.png","65","motor","","","","","","",""
"400","","220847","HierDywevwzk4n","ffdao4j52c","ms1000342","motor","","83","img/motor_3.png","68","motor","3","188","0","1","0","",""
"283","","221142","HierDywevwzk4n","ffdao4j52c","ms1000342","motorRepeat","","68","img/motor_3.png","68","motor","3","188","1","0","0","",""
"null","","221255","HierDywevwzk4n","ffdao4j52c","ms1000342","iti","","null","img/motor_3.png","68","motor","","","","","","",""
"388","","221654","HierDywevwzk4n","ffdao4j52c","ms1000342","motor","","75","img/motor_8.png","76","motor","8","189","0","1","0","",""
"88","","221754","HierDywevwzk4n","ffdao4j52c","ms1000342","motorRepeat","","76","img/motor_8.png","76","motor","8","189","1","0","0","",""
"null","","221865","HierDywevwzk4n","ffdao4j52c","ms1000342","iti","","null","img/motor_8.png","76","motor","","","","","","",""
"686","","222564","HierDywevwzk4n","ffdao4j52c","ms1000342","motor","","74","img/motor_6.png","74","motor","6","190","1","0","0","",""
"null","","222676","HierDywevwzk4n","ffdao4j52c","ms1000342","iti","","null","img/motor_6.png","74","motor","","","","","","",""
"462","","223149","HierDywevwzk4n","ffdao4j52c","ms1000342","motor","","76","img/motor_8.png","76","motor","8","191","1","0","0","",""
"null","","223261","HierDywevwzk4n","ffdao4j52c","ms1000342","iti","","null","img/motor_8.png","76","motor","","","","","","",""
"289","","223565","HierDywevwzk4n","ffdao4j52c","ms1000342","motor","","65","img/motor_1.png","65","motor","1","192","1","0","0","",""
"null","","223678","HierDywevwzk4n","ffdao4j52c","ms1000342","iti","","null","img/motor_1.png","65","motor","","","","","","",""
"388","","224078","HierDywevwzk4n","ffdao4j52c","ms1000342","motor","","72","img/motor_5.png","72","motor","5","193","1","0","0","",""
"null","","224191","HierDywevwzk4n","ffdao4j52c","ms1000342","iti","","null","img/motor_5.png","72","motor","","","","","","",""
"540","","224743","HierDywevwzk4n","ffdao4j52c","ms1000342","motor","","75","img/motor_7.png","75","motor","7","194","1","0","0","",""
"null","","224856","HierDywevwzk4n","ffdao4j52c","ms1000342","iti","","null","img/motor_7.png","75","motor","","","","","","",""
"385","","225253","HierDywevwzk4n","ffdao4j52c","ms1000342","motor","","76","img/motor_8.png","76","motor","8","195","1","0","0","",""
"null","","225367","HierDywevwzk4n","ffdao4j52c","ms1000342","iti","","null","img/motor_8.png","76","motor","","","","","","",""
"474","","225851","HierDywevwzk4n","ffdao4j52c","ms1000342","motor","","75","img/motor_7.png","75","motor","7","196","1","0","0","",""
"null","","225963","HierDywevwzk4n","ffdao4j52c","ms1000342","iti","","null","img/motor_7.png","75","motor","","","","","","",""
"373","","226347","HierDywevwzk4n","ffdao4j52c","ms1000342","motor","","65","img/motor_1.png","65","motor","1","197","1","0","0","",""
"null","","226460","HierDywevwzk4n","ffdao4j52c","ms1000342","iti","","null","img/motor_1.png","65","motor","","","","","","",""
"462","","226934","HierDywevwzk4n","ffdao4j52c","ms1000342","motor","","75","img/motor_7.png","75","motor","7","198","1","0","0","",""
"null","","227046","HierDywevwzk4n","ffdao4j52c","ms1000342","iti","","null","img/motor_7.png","75","motor","","","","","","",""
"487","","227543","HierDywevwzk4n","ffdao4j52c","ms1000342","motor","","75","img/motor_7.png","75","motor","7","199","1","0","0","",""
"null","","227657","HierDywevwzk4n","ffdao4j52c","ms1000342","iti","","null","img/motor_7.png","75","motor","","","","","","",""
"493","","228162","HierDywevwzk4n","ffdao4j52c","ms1000342","motor","","68","img/motor_3.png","68","motor","3","200","1","0","0","",""
"null","","228274","HierDywevwzk4n","ffdao4j52c","ms1000342","iti","","null","img/motor_3.png","68","motor","","","","","","",""
"347","","228633","HierDywevwzk4n","ffdao4j52c","ms1000342","motor","","65","img/motor_1.png","65","motor","1","201","1","0","0","",""
"null","","228745","HierDywevwzk4n","ffdao4j52c","ms1000342","iti","","null","img/motor_1.png","65","motor","","","","","","",""
"436","","229193","HierDywevwzk4n","ffdao4j52c","ms1000342","motor","","70","img/motor_4.png","70","motor","4","202","1","0","0","",""
"null","","229306","HierDywevwzk4n","ffdao4j52c","ms1000342","iti","","null","img/motor_4.png","70","motor","","","","","","",""
"453","","229772","HierDywevwzk4n","ffdao4j52c","ms1000342","motor","","74","img/motor_6.png","74","motor","6","203","1","0","0","",""
"null","","229884","HierDywevwzk4n","ffdao4j52c","ms1000342","iti","","null","img/motor_6.png","74","motor","","","","","","",""
"378","","230273","HierDywevwzk4n","ffdao4j52c","ms1000342","motor","","70","img/motor_4.png","70","motor","4","204","1","0","0","",""
"null","","230385","HierDywevwzk4n","ffdao4j52c","ms1000342","iti","","null","img/motor_4.png","70","motor","","","","","","",""
"343","","230740","HierDywevwzk4n","ffdao4j52c","ms1000342","motor","","65","img/motor_1.png","65","motor","1","205","1","0","0","",""
"null","","230852","HierDywevwzk4n","ffdao4j52c","ms1000342","iti","","null","img/motor_1.png","65","motor","","","","","","",""
"465","","231328","HierDywevwzk4n","ffdao4j52c","ms1000342","motor","","75","img/motor_7.png","75","motor","7","206","1","0","0","",""
"null","","231441","HierDywevwzk4n","ffdao4j52c","ms1000342","iti","","null","img/motor_7.png","75","motor","","","","","","",""
"434","","231886","HierDywevwzk4n","ffdao4j52c","ms1000342","motor","","72","img/motor_5.png","72","motor","5","207","1","0","0","",""
"null","","231998","HierDywevwzk4n","ffdao4j52c","ms1000342","iti","","null","img/motor_5.png","72","motor","","","","","","",""
"585","","232594","HierDywevwzk4n","ffdao4j52c","ms1000342","motor","","75","img/motor_7.png","75","motor","7","208","1","0","0","",""
"null","","232707","HierDywevwzk4n","ffdao4j52c","ms1000342","iti","","null","img/motor_7.png","75","motor","","","","","","",""
"365","","233083","HierDywevwzk4n","ffdao4j52c","ms1000342","motor","","76","img/motor_8.png","76","motor","8","209","1","0","0","",""
"null","","233196","HierDywevwzk4n","ffdao4j52c","ms1000342","iti","","null","img/motor_8.png","76","motor","","","","","","",""
"443","","233652","HierDywevwzk4n","ffdao4j52c","ms1000342","motor","","75","img/motor_7.png","75","motor","7","210","1","0","0","",""
"null","","233765","HierDywevwzk4n","ffdao4j52c","ms1000342","iti","","null","img/motor_7.png","75","motor","","","","","","",""
"453","","234230","HierDywevwzk4n","ffdao4j52c","ms1000342","motor","","72","img/motor_5.png","72","motor","5","211","1","0","0","",""
"null","","234342","HierDywevwzk4n","ffdao4j52c","ms1000342","iti","","null","img/motor_5.png","72","motor","","","","","","",""
"407","","234761","HierDywevwzk4n","ffdao4j52c","ms1000342","motor","","70","img/motor_4.png","70","motor","4","212","1","0","0","",""
"null","","234874","HierDywevwzk4n","ffdao4j52c","ms1000342","iti","","null","img/motor_4.png","70","motor","","","","","","",""
"448","","235334","HierDywevwzk4n","ffdao4j52c","ms1000342","motor","","75","img/motor_6.png","74","motor","6","213","0","1","0","",""
"254","","235600","HierDywevwzk4n","ffdao4j52c","ms1000342","motorRepeat","","74","img/motor_6.png","74","motor","6","213","1","0","0","",""
"null","","235712","HierDywevwzk4n","ffdao4j52c","ms1000342","iti","","null","img/motor_6.png","74","motor","","","","","","",""
"507","","236231","HierDywevwzk4n","ffdao4j52c","ms1000342","motor","","72","img/motor_5.png","72","motor","5","214","1","0","0","",""
"null","","236343","HierDywevwzk4n","ffdao4j52c","ms1000342","iti","","null","img/motor_5.png","72","motor","","","","","","",""
"352","","236704","HierDywevwzk4n","ffdao4j52c","ms1000342","motor","","76","img/motor_8.png","76","motor","8","215","1","0","0","",""
"null","","236816","HierDywevwzk4n","ffdao4j52c","ms1000342","iti","","null","img/motor_8.png","76","motor","","","","","","",""
"352","","237179","HierDywevwzk4n","ffdao4j52c","ms1000342","motor","","72","img/motor_5.png","72","motor","5","216","1","0","0","",""
"null","","237292","HierDywevwzk4n","ffdao4j52c","ms1000342","iti","","null","img/motor_5.png","72","motor","","","","","","",""
"416","","237719","HierDywevwzk4n","ffdao4j52c","ms1000342","motor","","70","img/motor_4.png","70","motor","4","217","1","0","0","",""
"null","","237831","HierDywevwzk4n","ffdao4j52c","ms1000342","iti","","null","img/motor_4.png","70","motor","","","","","","",""
"311","","238154","HierDywevwzk4n","ffdao4j52c","ms1000342","motor","","65","img/motor_1.png","65","motor","1","218","1","0","0","",""
"null","","238266","HierDywevwzk4n","ffdao4j52c","ms1000342","iti","","null","img/motor_1.png","65","motor","","","","","","",""
"372","","238651","HierDywevwzk4n","ffdao4j52c","ms1000342","motor","","76","img/motor_8.png","76","motor","8","219","1","0","0","",""
"null","","238763","HierDywevwzk4n","ffdao4j52c","ms1000342","iti","","null","img/motor_8.png","76","motor","","","","","","",""
"377","","239151","HierDywevwzk4n","ffdao4j52c","ms1000342","motor","","65","img/motor_1.png","65","motor","1","220","1","0","0","",""
"null","","239264","HierDywevwzk4n","ffdao4j52c","ms1000342","iti","","null","img/motor_1.png","65","motor","","","","","","",""
"435","","239711","HierDywevwzk4n","ffdao4j52c","ms1000342","motor","","83","img/motor_2.png","83","motor","2","221","1","0","0","",""
"null","","239824","HierDywevwzk4n","ffdao4j52c","ms1000342","iti","","null","img/motor_2.png","83","motor","","","","","","",""
"492","","240327","HierDywevwzk4n","ffdao4j52c","ms1000342","motor","","83","img/motor_2.png","83","motor","2","222","1","0","0","",""
"null","","240439","HierDywevwzk4n","ffdao4j52c","ms1000342","iti","","null","img/motor_2.png","83","motor","","","","","","",""
"584","","241035","HierDywevwzk4n","ffdao4j52c","ms1000342","motor","","74","img/motor_6.png","74","motor","6","223","1","0","0","",""
"null","","241146","HierDywevwzk4n","ffdao4j52c","ms1000342","iti","","null","img/motor_6.png","74","motor","","","","","","",""
"363","","241522","HierDywevwzk4n","ffdao4j52c","ms1000342","motor","","68","img/motor_3.png","68","motor","3","224","1","0","0","",""
"null","","241634","HierDywevwzk4n","ffdao4j52c","ms1000342","iti","","null","img/motor_3.png","68","motor","","","","","","",""
"418","","242063","HierDywevwzk4n","ffdao4j52c","ms1000342","motor","","75","img/motor_8.png","76","motor","8","225","0","1","0","",""
"230","","242305","HierDywevwzk4n","ffdao4j52c","ms1000342","motorRepeat","","76","img/motor_8.png","76","motor","8","225","1","0","0","",""
"null","","242418","HierDywevwzk4n","ffdao4j52c","ms1000342","iti","","null","img/motor_8.png","76","motor","","","","","","",""
"549","","242978","HierDywevwzk4n","ffdao4j52c","ms1000342","motor","","74","img/motor_6.png","74","motor","6","226","1","0","0","",""
"null","","243091","HierDywevwzk4n","ffdao4j52c","ms1000342","iti","","null","img/motor_6.png","74","motor","","","","","","",""
"454","","243556","HierDywevwzk4n","ffdao4j52c","ms1000342","motor","","83","img/motor_2.png","83","motor","2","227","1","0","0","",""
"null","","243669","HierDywevwzk4n","ffdao4j52c","ms1000342","iti","","null","img/motor_2.png","83","motor","","","","","","",""
"497","","244177","HierDywevwzk4n","ffdao4j52c","ms1000342","motor","","68","img/motor_3.png","68","motor","3","228","1","0","0","",""
"null","","244290","HierDywevwzk4n","ffdao4j52c","ms1000342","iti","","null","img/motor_3.png","68","motor","","","","","","",""
"447","","244749","HierDywevwzk4n","ffdao4j52c","ms1000342","motor","","72","img/motor_5.png","72","motor","5","229","1","0","0","",""
"null","","244861","HierDywevwzk4n","ffdao4j52c","ms1000342","iti","","null","img/motor_5.png","72","motor","","","","","","",""
"379","","245251","HierDywevwzk4n","ffdao4j52c","ms1000342","motor","","70","img/motor_4.png","70","motor","4","230","1","0","0","",""
"null","","245364","HierDywevwzk4n","ffdao4j52c","ms1000342","iti","","null","img/motor_4.png","70","motor","","","","","","",""
"463","","245838","HierDywevwzk4n","ffdao4j52c","ms1000342","motor","","74","img/motor_6.png","74","motor","6","231","1","0","0","",""
"null","","245951","HierDywevwzk4n","ffdao4j52c","ms1000342","iti","","null","img/motor_6.png","74","motor","","","","","","",""
"383","","246346","HierDywevwzk4n","ffdao4j52c","ms1000342","motor","","83","img/motor_2.png","83","motor","2","232","1","0","0","",""
"null","","246458","HierDywevwzk4n","ffdao4j52c","ms1000342","iti","","null","img/motor_2.png","83","motor","","","","","","",""
"398","","246868","HierDywevwzk4n","ffdao4j52c","ms1000342","motor","","72","img/motor_5.png","72","motor","5","233","1","0","0","",""
"null","","246981","HierDywevwzk4n","ffdao4j52c","ms1000342","iti","","null","img/motor_5.png","72","motor","","","","","","",""
"538","","247529","HierDywevwzk4n","ffdao4j52c","ms1000342","motor","","68","img/motor_3.png","68","motor","3","234","1","0","0","",""
"null","","247641","HierDywevwzk4n","ffdao4j52c","ms1000342","iti","","null","img/motor_3.png","68","motor","","","","","","",""
"471","","248123","HierDywevwzk4n","ffdao4j52c","ms1000342","motor","","75","img/motor_7.png","75","motor","7","235","1","0","0","",""
"null","","248235","HierDywevwzk4n","ffdao4j52c","ms1000342","iti","","null","img/motor_7.png","75","motor","","","","","","",""
"581","","248828","HierDywevwzk4n","ffdao4j52c","ms1000342","motor","","74","img/motor_6.png","74","motor","6","236","1","0","0","",""
"null","","248940","HierDywevwzk4n","ffdao4j52c","ms1000342","iti","","null","img/motor_6.png","74","motor","","","","","","",""
"386","","249338","HierDywevwzk4n","ffdao4j52c","ms1000342","motor","","76","img/motor_8.png","76","motor","8","237","1","0","0","",""
"null","","249450","HierDywevwzk4n","ffdao4j52c","ms1000342","iti","","null","img/motor_8.png","76","motor","","","","","","",""
"447","","249909","HierDywevwzk4n","ffdao4j52c","ms1000342","motor","","74","img/motor_6.png","74","motor","6","238","1","0","0","",""
"null","","250022","HierDywevwzk4n","ffdao4j52c","ms1000342","iti","","null","img/motor_6.png","74","motor","","","","","","",""
"524","","250558","HierDywevwzk4n","ffdao4j52c","ms1000342","motor","","83","img/motor_2.png","83","motor","2","239","1","0","0","",""
"null","","250672","HierDywevwzk4n","ffdao4j52c","ms1000342","iti","","null","img/motor_2.png","83","motor","","","","","","",""
"426","","251110","HierDywevwzk4n","ffdao4j52c","ms1000342","motor","","72","img/motor_6.png","74","motor","6","240","0","1","0","",""
"290","","251410","HierDywevwzk4n","ffdao4j52c","ms1000342","motorRepeat","","74","img/motor_6.png","74","motor","6","240","1","0","0","",""
"null","","251523","HierDywevwzk4n","ffdao4j52c","ms1000342","iti","","null","img/motor_6.png","74","motor","","","","","","",""
"409","","251943","HierDywevwzk4n","ffdao4j52c","ms1000342","motor","","65","img/motor_1.png","65","motor","1","241","1","0","0","",""
"null","","252056","HierDywevwzk4n","ffdao4j52c","ms1000342","iti","","null","img/motor_1.png","65","motor","","","","","","",""
"427","","252494","HierDywevwzk4n","ffdao4j52c","ms1000342","motor","","74","img/motor_6.png","74","motor","6","242","1","0","0","",""
"null","","252606","HierDywevwzk4n","ffdao4j52c","ms1000342","iti","","null","img/motor_6.png","74","motor","","","","","","",""
"354","","252972","HierDywevwzk4n","ffdao4j52c","ms1000342","motor","","65","img/motor_1.png","65","motor","1","243","1","0","0","",""
"null","","253085","HierDywevwzk4n","ffdao4j52c","ms1000342","iti","","null","img/motor_1.png","65","motor","","","","","","",""
"491","","253588","HierDywevwzk4n","ffdao4j52c","ms1000342","motor","","75","img/motor_7.png","75","motor","7","244","1","0","0","",""
"null","","253701","HierDywevwzk4n","ffdao4j52c","ms1000342","iti","","null","img/motor_7.png","75","motor","","","","","","",""
"313","","254026","HierDywevwzk4n","ffdao4j52c","ms1000342","motor","","68","img/motor_3.png","68","motor","3","245","1","0","0","",""
"null","","254138","HierDywevwzk4n","ffdao4j52c","ms1000342","iti","","null","img/motor_3.png","68","motor","","","","","","",""
"454","","254603","HierDywevwzk4n","ffdao4j52c","ms1000342","motor","","68","img/motor_3.png","68","motor","3","246","1","0","0","",""
"null","","254716","HierDywevwzk4n","ffdao4j52c","ms1000342","iti","","null","img/motor_3.png","68","motor","","","","","","",""
"488","","255215","HierDywevwzk4n","ffdao4j52c","ms1000342","motor","","75","img/motor_7.png","75","motor","7","247","1","0","0","",""
"null","","255327","HierDywevwzk4n","ffdao4j52c","ms1000342","iti","","null","img/motor_7.png","75","motor","","","","","","",""
"338","","255677","HierDywevwzk4n","ffdao4j52c","ms1000342","motor","","68","img/motor_3.png","68","motor","3","248","1","0","0","",""
"null","","255790","HierDywevwzk4n","ffdao4j52c","ms1000342","iti","","null","img/motor_3.png","68","motor","","","","","","",""
"348","","256150","HierDywevwzk4n","ffdao4j52c","ms1000342","motor","","68","img/motor_3.png","68","motor","3","249","1","0","0","",""
"null","","256262","HierDywevwzk4n","ffdao4j52c","ms1000342","iti","","null","img/motor_3.png","68","motor","","","","","","",""
"382","","256656","HierDywevwzk4n","ffdao4j52c","ms1000342","motor","","70","img/motor_4.png","70","motor","4","250","1","0","0","",""
"null","","256769","HierDywevwzk4n","ffdao4j52c","ms1000342","iti","","null","img/motor_4.png","70","motor","","","","","","",""
"413","","257193","HierDywevwzk4n","ffdao4j52c","ms1000342","motor","","76","img/motor_8.png","76","motor","8","251","1","0","0","",""
"null","","257305","HierDywevwzk4n","ffdao4j52c","ms1000342","iti","","null","img/motor_8.png","76","motor","","","","","","",""
"499","","257817","HierDywevwzk4n","ffdao4j52c","ms1000342","motor","","75","img/motor_7.png","75","motor","7","252","1","0","0","",""
"null","","257929","HierDywevwzk4n","ffdao4j52c","ms1000342","iti","","null","img/motor_7.png","75","motor","","","","","","",""
"328","","258269","HierDywevwzk4n","ffdao4j52c","ms1000342","motor","","65","img/motor_1.png","65","motor","1","253","1","0","0","",""
"null","","258381","HierDywevwzk4n","ffdao4j52c","ms1000342","iti","","null","img/motor_1.png","65","motor","","","","","","",""
"334","","258727","HierDywevwzk4n","ffdao4j52c","ms1000342","motor","","72","img/motor_5.png","72","motor","5","254","1","0","0","",""
"null","","258841","HierDywevwzk4n","ffdao4j52c","ms1000342","iti","","null","img/motor_5.png","72","motor","","","","","","",""
"314","","259165","HierDywevwzk4n","ffdao4j52c","ms1000342","motor","","83","img/motor_2.png","83","motor","2","255","1","0","0","",""
"null","","259278","HierDywevwzk4n","ffdao4j52c","ms1000342","iti","","null","img/motor_2.png","83","motor","","","","","","",""
"350","","259638","HierDywevwzk4n","ffdao4j52c","ms1000342","motor","","75","img/motor_7.png","75","motor","7","256","1","0","0","",""
"null","","259751","HierDywevwzk4n","ffdao4j52c","ms1000342","iti","","null","img/motor_7.png","75","motor","","","","","","",""
"394","","260156","HierDywevwzk4n","ffdao4j52c","ms1000342","motor","","65","img/motor_1.png","65","motor","1","257","1","0","0","",""
"null","","260268","HierDywevwzk4n","ffdao4j52c","ms1000342","iti","","null","img/motor_1.png","65","motor","","","","","","",""
"357","","260638","HierDywevwzk4n","ffdao4j52c","ms1000342","motor","","70","img/motor_4.png","70","motor","4","258","1","0","0","",""
"null","","260750","HierDywevwzk4n","ffdao4j52c","ms1000342","iti","","null","img/motor_4.png","70","motor","","","","","","",""
"493","","261254","HierDywevwzk4n","ffdao4j52c","ms1000342","motor","","75","img/motor_7.png","75","motor","7","259","1","0","0","",""
"null","","261365","HierDywevwzk4n","ffdao4j52c","ms1000342","iti","","null","img/motor_7.png","75","motor","","","","","","",""
"379","","261755","HierDywevwzk4n","ffdao4j52c","ms1000342","motor","","68","img/motor_3.png","68","motor","3","260","1","0","0","",""
"null","","261868","HierDywevwzk4n","ffdao4j52c","ms1000342","iti","","null","img/motor_3.png","68","motor","","","","","","",""
"650","","262528","HierDywevwzk4n","ffdao4j52c","ms1000342","motor","","74","img/motor_6.png","74","motor","6","261","1","0","0","",""
"null","","262640","HierDywevwzk4n","ffdao4j52c","ms1000342","iti","","null","img/motor_6.png","74","motor","","","","","","",""
"369","","263021","HierDywevwzk4n","ffdao4j52c","ms1000342","motor","","70","img/motor_4.png","70","motor","4","262","1","0","0","",""
"null","","263134","HierDywevwzk4n","ffdao4j52c","ms1000342","iti","","null","img/motor_4.png","70","motor","","","","","","",""
"437","","263583","HierDywevwzk4n","ffdao4j52c","ms1000342","motor","","74","img/motor_6.png","74","motor","6","263","1","0","0","",""
"null","","263697","HierDywevwzk4n","ffdao4j52c","ms1000342","iti","","null","img/motor_6.png","74","motor","","","","","","",""
"297","","264005","HierDywevwzk4n","ffdao4j52c","ms1000342","motor","","70","img/motor_4.png","70","motor","4","264","1","0","0","",""
"null","","264118","HierDywevwzk4n","ffdao4j52c","ms1000342","iti","","null","img/motor_4.png","70","motor","","","","","","",""
"407","","264537","HierDywevwzk4n","ffdao4j52c","ms1000342","motor","","68","img/motor_3.png","68","motor","3","265","1","0","0","",""
"null","","264649","HierDywevwzk4n","ffdao4j52c","ms1000342","iti","","null","img/motor_3.png","68","motor","","","","","","",""
"364","","265024","HierDywevwzk4n","ffdao4j52c","ms1000342","motor","","70","img/motor_4.png","70","motor","4","266","1","0","0","",""
"null","","265137","HierDywevwzk4n","ffdao4j52c","ms1000342","iti","","null","img/motor_4.png","70","motor","","","","","","",""
"362","","265511","HierDywevwzk4n","ffdao4j52c","ms1000342","motor","","65","img/motor_1.png","65","motor","1","267","1","0","0","",""
"null","","265622","HierDywevwzk4n","ffdao4j52c","ms1000342","iti","","null","img/motor_1.png","65","motor","","","","","","",""
"448","","266083","HierDywevwzk4n","ffdao4j52c","ms1000342","motor","","72","img/motor_5.png","72","motor","5","268","1","0","0","",""
"null","","266195","HierDywevwzk4n","ffdao4j52c","ms1000342","iti","","null","img/motor_5.png","72","motor","","","","","","",""
"413","","266620","HierDywevwzk4n","ffdao4j52c","ms1000342","motor","","75","img/motor_6.png","74","motor","6","269","0","1","0","",""
"53","","266686","HierDywevwzk4n","ffdao4j52c","ms1000342","motorRepeat","","74","img/motor_6.png","74","motor","6","269","1","0","0","",""
"null","","266798","HierDywevwzk4n","ffdao4j52c","ms1000342","iti","","null","img/motor_6.png","74","motor","","","","","","",""
"400","","267209","HierDywevwzk4n","ffdao4j52c","ms1000342","motor","","75","img/motor_7.png","75","motor","7","270","1","0","0","",""
"null","","267322","HierDywevwzk4n","ffdao4j52c","ms1000342","iti","","null","img/motor_7.png","75","motor","","","","","","",""
"393","","267725","HierDywevwzk4n","ffdao4j52c","ms1000342","motor","","76","img/motor_8.png","76","motor","8","271","1","0","0","",""
"null","","267839","HierDywevwzk4n","ffdao4j52c","ms1000342","iti","","null","img/motor_8.png","76","motor","","","","","","",""
"426","","268276","HierDywevwzk4n","ffdao4j52c","ms1000342","motor","","70","img/motor_4.png","70","motor","4","272","1","0","0","",""
"null","","268390","HierDywevwzk4n","ffdao4j52c","ms1000342","iti","","null","img/motor_4.png","70","motor","","","","","","",""
"383","","268785","HierDywevwzk4n","ffdao4j52c","ms1000342","motor","","70","img/motor_4.png","70","motor","4","273","1","0","0","",""
"null","","268897","HierDywevwzk4n","ffdao4j52c","ms1000342","iti","","null","img/motor_4.png","70","motor","","","","","","",""
"304","","269213","HierDywevwzk4n","ffdao4j52c","ms1000342","motor","","65","img/motor_1.png","65","motor","1","274","1","0","0","",""
"null","","269325","HierDywevwzk4n","ffdao4j52c","ms1000342","iti","","null","img/motor_1.png","65","motor","","","","","","",""
"362","","269698","HierDywevwzk4n","ffdao4j52c","ms1000342","motor","","68","img/motor_3.png","68","motor","3","275","1","0","0","",""
"null","","269811","HierDywevwzk4n","ffdao4j52c","ms1000342","iti","","null","img/motor_3.png","68","motor","","","","","","",""
"439","","270261","HierDywevwzk4n","ffdao4j52c","ms1000342","motor","","75","img/motor_7.png","75","motor","7","276","1","0","0","",""
"null","","270374","HierDywevwzk4n","ffdao4j52c","ms1000342","iti","","null","img/motor_7.png","75","motor","","","","","","",""
"391","","270777","HierDywevwzk4n","ffdao4j52c","ms1000342","motor","","72","img/motor_5.png","72","motor","5","277","1","0","0","",""
"null","","270890","HierDywevwzk4n","ffdao4j52c","ms1000342","iti","","null","img/motor_5.png","72","motor","","","","","","",""
"415","","271316","HierDywevwzk4n","ffdao4j52c","ms1000342","motor","","70","img/motor_3.png","68","motor","3","278","0","1","0","",""
"285","","271613","HierDywevwzk4n","ffdao4j52c","ms1000342","motorRepeat","","68","img/motor_3.png","68","motor","3","278","1","0","0","",""
"null","","271726","HierDywevwzk4n","ffdao4j52c","ms1000342","iti","","null","img/motor_3.png","68","motor","","","","","","",""
"456","","272194","HierDywevwzk4n","ffdao4j52c","ms1000342","motor","","74","img/motor_6.png","74","motor","6","279","1","0","0","",""
"null","","272305","HierDywevwzk4n","ffdao4j52c","ms1000342","iti","","null","img/motor_6.png","74","motor","","","","","","",""
"447","","272764","HierDywevwzk4n","ffdao4j52c","ms1000342","motor","","70","img/motor_4.png","70","motor","4","280","1","0","0","",""
"null","","272876","HierDywevwzk4n","ffdao4j52c","ms1000342","iti","","null","img/motor_4.png","70","motor","","","","","","",""
"459","","273347","HierDywevwzk4n","ffdao4j52c","ms1000342","motor","","75","img/motor_7.png","75","motor","7","281","1","0","0","",""
"null","","273461","HierDywevwzk4n","ffdao4j52c","ms1000342","iti","","null","img/motor_7.png","75","motor","","","","","","",""
"376","","273849","HierDywevwzk4n","ffdao4j52c","ms1000342","motor","","70","img/motor_4.png","70","motor","4","282","1","0","0","",""
"null","","273960","HierDywevwzk4n","ffdao4j52c","ms1000342","iti","","null","img/motor_4.png","70","motor","","","","","","",""
"420","","274392","HierDywevwzk4n","ffdao4j52c","ms1000342","motor","","68","img/motor_3.png","68","motor","3","283","1","0","0","",""
"null","","274506","HierDywevwzk4n","ffdao4j52c","ms1000342","iti","","null","img/motor_3.png","68","motor","","","","","","",""
"461","","274979","HierDywevwzk4n","ffdao4j52c","ms1000342","motor","","83","img/motor_2.png","83","motor","2","284","1","0","0","",""
"null","","275091","HierDywevwzk4n","ffdao4j52c","ms1000342","iti","","null","img/motor_2.png","83","motor","","","","","","",""
"538","","275641","HierDywevwzk4n","ffdao4j52c","ms1000342","motor","","74","img/motor_6.png","74","motor","6","285","1","0","0","",""
"null","","275754","HierDywevwzk4n","ffdao4j52c","ms1000342","iti","","null","img/motor_6.png","74","motor","","","","","","",""
"434","","276200","HierDywevwzk4n","ffdao4j52c","ms1000342","motor","","75","img/motor_7.png","75","motor","7","286","1","0","0","",""
"null","","276312","HierDywevwzk4n","ffdao4j52c","ms1000342","iti","","null","img/motor_7.png","75","motor","","","","","","",""
"513","","276836","HierDywevwzk4n","ffdao4j52c","ms1000342","motor","","72","img/motor_5.png","72","motor","5","287","1","0","0","",""
"null","","276948","HierDywevwzk4n","ffdao4j52c","ms1000342","iti","","null","img/motor_5.png","72","motor","","","","","","",""
"374","","277332","HierDywevwzk4n","ffdao4j52c","ms1000342","motor","","72","img/motor_5.png","72","motor","5","288","1","0","0","",""
"null","","277445","HierDywevwzk4n","ffdao4j52c","ms1000342","iti","","null","img/motor_5.png","72","motor","","","","","","",""
"385","","277841","HierDywevwzk4n","ffdao4j52c","ms1000342","motor","","76","img/motor_8.png","76","motor","8","289","1","0","0","",""
"null","","277954","HierDywevwzk4n","ffdao4j52c","ms1000342","iti","","null","img/motor_8.png","76","motor","","","","","","",""
"438","","278402","HierDywevwzk4n","ffdao4j52c","ms1000342","motor","","76","img/motor_8.png","76","motor","8","290","1","0","0","",""
"null","","278516","HierDywevwzk4n","ffdao4j52c","ms1000342","iti","","null","img/motor_8.png","76","motor","","","","","","",""
"412","","278939","HierDywevwzk4n","ffdao4j52c","ms1000342","motor","","70","img/motor_3.png","68","motor","3","291","0","1","0","",""
"19","","278970","HierDywevwzk4n","ffdao4j52c","ms1000342","motorRepeat","","68","img/motor_3.png","68","motor","3","291","1","0","0","",""
"null","","279082","HierDywevwzk4n","ffdao4j52c","ms1000342","iti","","null","img/motor_3.png","68","motor","","","","","","",""
"389","","279483","HierDywevwzk4n","ffdao4j52c","ms1000342","motor","","72","img/motor_5.png","72","motor","5","292","1","0","0","",""
"null","","279595","HierDywevwzk4n","ffdao4j52c","ms1000342","iti","","null","img/motor_5.png","72","motor","","","","","","",""
"386","","279994","HierDywevwzk4n","ffdao4j52c","ms1000342","motor","","76","img/motor_8.png","76","motor","8","293","1","0","0","",""
"null","","280107","HierDywevwzk4n","ffdao4j52c","ms1000342","iti","","null","img/motor_8.png","76","motor","","","","","","",""
"408","","280525","HierDywevwzk4n","ffdao4j52c","ms1000342","motor","","76","img/motor_8.png","76","motor","8","294","1","0","0","",""
"null","","280638","HierDywevwzk4n","ffdao4j52c","ms1000342","iti","","null","img/motor_8.png","76","motor","","","","","","",""
"430","","281079","HierDywevwzk4n","ffdao4j52c","ms1000342","motor","","74","img/motor_6.png","74","motor","6","295","1","0","0","",""
"null","","281192","HierDywevwzk4n","ffdao4j52c","ms1000342","iti","","null","img/motor_6.png","74","motor","","","","","","",""
"340","","281544","HierDywevwzk4n","ffdao4j52c","ms1000342","motor","","65","img/motor_1.png","65","motor","1","296","1","0","0","",""
"null","","281657","HierDywevwzk4n","ffdao4j52c","ms1000342","iti","","null","img/motor_1.png","65","motor","","","","","","",""
"356","","282026","HierDywevwzk4n","ffdao4j52c","ms1000342","motor","","83","img/motor_2.png","83","motor","2","297","1","0","0","",""
"null","","282139","HierDywevwzk4n","ffdao4j52c","ms1000342","iti","","null","img/motor_2.png","83","motor","","","","","","",""
"368","","282518","HierDywevwzk4n","ffdao4j52c","ms1000342","motor","","68","img/motor_3.png","68","motor","3","298","1","0","0","",""
"null","","282632","HierDywevwzk4n","ffdao4j52c","ms1000342","iti","","null","img/motor_3.png","68","motor","","","","","","",""
"356","","282999","HierDywevwzk4n","ffdao4j52c","ms1000342","motor","","75","img/motor_7.png","75","motor","7","299","1","0","0","",""
"null","","283111","HierDywevwzk4n","ffdao4j52c","ms1000342","iti","","null","img/motor_7.png","75","motor","","","","","","",""
"346","","283468","HierDywevwzk4n","ffdao4j52c","ms1000342","motor","","70","img/motor_4.png","70","motor","4","300","1","0","0","",""
"null","","283582","HierDywevwzk4n","ffdao4j52c","ms1000342","iti","","null","img/motor_4.png","70","motor","","","","","","",""
"402","","283995","HierDywevwzk4n","ffdao4j52c","ms1000342","motor","","72","img/motor_5.png","72","motor","5","301","1","0","0","",""
"null","","284106","HierDywevwzk4n","ffdao4j52c","ms1000342","iti","","null","img/motor_5.png","72","motor","","","","","","",""
"388","","284506","HierDywevwzk4n","ffdao4j52c","ms1000342","motor","","75","img/motor_7.png","75","motor","7","302","1","0","0","",""
"null","","284619","HierDywevwzk4n","ffdao4j52c","ms1000342","iti","","null","img/motor_7.png","75","motor","","","","","","",""
"427","","285057","HierDywevwzk4n","ffdao4j52c","ms1000342","motor","","68","img/motor_4.png","70","motor","4","303","0","1","0","",""
"246","","285315","HierDywevwzk4n","ffdao4j52c","ms1000342","motorRepeat","","70","img/motor_4.png","70","motor","4","303","1","0","0","",""
"null","","285427","HierDywevwzk4n","ffdao4j52c","ms1000342","iti","","null","img/motor_4.png","70","motor","","","","","","",""
"376","","285815","HierDywevwzk4n","ffdao4j52c","ms1000342","motor","","75","img/motor_7.png","75","motor","7","304","1","0","0","",""
"null","","285928","HierDywevwzk4n","ffdao4j52c","ms1000342","iti","","null","img/motor_7.png","75","motor","","","","","","",""
"435","","286373","HierDywevwzk4n","ffdao4j52c","ms1000342","motor","","72","img/motor_5.png","72","motor","5","305","1","0","0","",""
"null","","286486","HierDywevwzk4n","ffdao4j52c","ms1000342","iti","","null","img/motor_5.png","72","motor","","","","","","",""
"328","","286825","HierDywevwzk4n","ffdao4j52c","ms1000342","motor","","72","img/motor_5.png","72","motor","5","306","1","0","0","",""
"null","","286937","HierDywevwzk4n","ffdao4j52c","ms1000342","iti","","null","img/motor_5.png","72","motor","","","","","","",""
"294","","287243","HierDywevwzk4n","ffdao4j52c","ms1000342","motor","","65","img/motor_1.png","65","motor","1","307","1","0","0","",""
"null","","287355","HierDywevwzk4n","ffdao4j52c","ms1000342","iti","","null","img/motor_1.png","65","motor","","","","","","",""
"378","","287743","HierDywevwzk4n","ffdao4j52c","ms1000342","motor","","83","img/motor_2.png","83","motor","2","308","1","0","0","",""
"null","","287857","HierDywevwzk4n","ffdao4j52c","ms1000342","iti","","null","img/motor_2.png","83","motor","","","","","","",""
"496","","288366","HierDywevwzk4n","ffdao4j52c","ms1000342","motor","","68","img/motor_3.png","68","motor","3","309","1","0","0","",""
"null","","288478","HierDywevwzk4n","ffdao4j52c","ms1000342","iti","","null","img/motor_3.png","68","motor","","","","","","",""
"330","","288819","HierDywevwzk4n","ffdao4j52c","ms1000342","motor","","65","img/motor_1.png","65","motor","1","310","1","0","0","",""
"null","","288931","HierDywevwzk4n","ffdao4j52c","ms1000342","iti","","null","img/motor_1.png","65","motor","","","","","","",""
"753","","289697","HierDywevwzk4n","ffdao4j52c","ms1000342","motor","","83","img/motor_2.png","83","motor","2","311","1","0","0","",""
"null","","289809","HierDywevwzk4n","ffdao4j52c","ms1000342","iti","","null","img/motor_2.png","83","motor","","","","","","",""
"378","","290199","HierDywevwzk4n","ffdao4j52c","ms1000342","motor","","68","img/motor_3.png","68","motor","3","312","1","0","0","",""
"null","","290310","HierDywevwzk4n","ffdao4j52c","ms1000342","iti","","null","img/motor_3.png","68","motor","","","","","","",""
"350","","290671","HierDywevwzk4n","ffdao4j52c","ms1000342","motor","","68","img/motor_3.png","68","motor","3","313","1","0","0","",""
"null","","290783","HierDywevwzk4n","ffdao4j52c","ms1000342","iti","","null","img/motor_3.png","68","motor","","","","","","",""
"323","","291119","HierDywevwzk4n","ffdao4j52c","ms1000342","motor","","75","img/motor_8.png","76","motor","8","314","0","1","0","",""
"268","","291399","HierDywevwzk4n","ffdao4j52c","ms1000342","motorRepeat","","76","img/motor_8.png","76","motor","8","314","1","0","0","",""
"null","","291513","HierDywevwzk4n","ffdao4j52c","ms1000342","iti","","null","img/motor_8.png","76","motor","","","","","","",""
"427","","291951","HierDywevwzk4n","ffdao4j52c","ms1000342","motor","","70","img/motor_4.png","70","motor","4","315","1","0","0","",""
"null","","292063","HierDywevwzk4n","ffdao4j52c","ms1000342","iti","","null","img/motor_4.png","70","motor","","","","","","",""
"428","","292501","HierDywevwzk4n","ffdao4j52c","ms1000342","motor","","68","img/motor_3.png","68","motor","3","316","1","0","0","",""
"null","","292615","HierDywevwzk4n","ffdao4j52c","ms1000342","iti","","null","img/motor_3.png","68","motor","","","","","","",""
"313","","292940","HierDywevwzk4n","ffdao4j52c","ms1000342","motor","","76","img/motor_8.png","76","motor","8","317","1","0","0","",""
"null","","293051","HierDywevwzk4n","ffdao4j52c","ms1000342","iti","","null","img/motor_8.png","76","motor","","","","","","",""
"530","","293592","HierDywevwzk4n","ffdao4j52c","ms1000342","motor","","70","img/motor_4.png","70","motor","4","318","1","0","0","",""
"null","","293705","HierDywevwzk4n","ffdao4j52c","ms1000342","iti","","null","img/motor_4.png","70","motor","","","","","","",""
"498","","294214","HierDywevwzk4n","ffdao4j52c","ms1000342","motor","","75","img/motor_7.png","75","motor","7","319","1","0","0","",""
"null","","294327","HierDywevwzk4n","ffdao4j52c","ms1000342","iti","","null","img/motor_7.png","75","motor","","","","","","",""
"572","","294911","HierDywevwzk4n","ffdao4j52c","ms1000342","motor","","74","img/motor_6.png","74","motor","6","320","1","0","0","",""
"null","","295025","HierDywevwzk4n","ffdao4j52c","ms1000342","iti","","null","img/motor_6.png","74","motor","","","","","","",""
"404","","295440","HierDywevwzk4n","ffdao4j52c","ms1000342","motor","","72","img/motor_5.png","72","motor","5","321","1","0","0","",""
"null","","295552","HierDywevwzk4n","ffdao4j52c","ms1000342","iti","","null","img/motor_5.png","72","motor","","","","","","",""
"299","","295861","HierDywevwzk4n","ffdao4j52c","ms1000342","motor","","65","img/motor_1.png","65","motor","1","322","1","0","0","",""
"null","","295974","HierDywevwzk4n","ffdao4j52c","ms1000342","iti","","null","img/motor_1.png","65","motor","","","","","","",""
"533","","296519","HierDywevwzk4n","ffdao4j52c","ms1000342","motor","","65","img/motor_1.png","65","motor","1","323","1","0","0","",""
"null","","296632","HierDywevwzk4n","ffdao4j52c","ms1000342","iti","","null","img/motor_1.png","65","motor","","","","","","",""
"463","","297107","HierDywevwzk4n","ffdao4j52c","ms1000342","motor","","74","img/motor_6.png","74","motor","6","324","1","0","0","",""
"null","","297219","HierDywevwzk4n","ffdao4j52c","ms1000342","iti","","null","img/motor_6.png","74","motor","","","","","","",""
"434","","297664","HierDywevwzk4n","ffdao4j52c","ms1000342","motor","","72","img/motor_5.png","72","motor","5","325","1","0","0","",""
"null","","297776","HierDywevwzk4n","ffdao4j52c","ms1000342","iti","","null","img/motor_5.png","72","motor","","","","","","",""
"563","","298351","HierDywevwzk4n","ffdao4j52c","ms1000342","motor","","83","img/motor_2.png","83","motor","2","326","1","0","0","",""
"null","","298464","HierDywevwzk4n","ffdao4j52c","ms1000342","iti","","null","img/motor_2.png","83","motor","","","","","","",""
"354","","298829","HierDywevwzk4n","ffdao4j52c","ms1000342","motor","","70","img/motor_4.png","70","motor","4","327","1","0","0","",""
"null","","298942","HierDywevwzk4n","ffdao4j52c","ms1000342","iti","","null","img/motor_4.png","70","motor","","","","","","",""
"345","","299299","HierDywevwzk4n","ffdao4j52c","ms1000342","motor","","70","img/motor_4.png","70","motor","4","328","1","0","0","",""
"null","","299412","HierDywevwzk4n","ffdao4j52c","ms1000342","iti","","null","img/motor_4.png","70","motor","","","","","","",""
"358","","299781","HierDywevwzk4n","ffdao4j52c","ms1000342","motor","","76","img/motor_8.png","76","motor","8","329","1","0","0","",""
"null","","299894","HierDywevwzk4n","ffdao4j52c","ms1000342","iti","","null","img/motor_8.png","76","motor","","","","","","",""
"357","","300263","HierDywevwzk4n","ffdao4j52c","ms1000342","motor","","68","img/motor_3.png","68","motor","3","330","1","0","0","",""
"null","","300375","HierDywevwzk4n","ffdao4j52c","ms1000342","iti","","null","img/motor_3.png","68","motor","","","","","","",""
"453","","300841","HierDywevwzk4n","ffdao4j52c","ms1000342","motor","","75","img/motor_7.png","75","motor","7","331","1","0","0","",""
"null","","300953","HierDywevwzk4n","ffdao4j52c","ms1000342","iti","","null","img/motor_7.png","75","motor","","","","","","",""
"404","","301367","HierDywevwzk4n","ffdao4j52c","ms1000342","motor","","68","img/motor_3.png","68","motor","3","332","1","0","0","",""
"null","","301480","HierDywevwzk4n","ffdao4j52c","ms1000342","iti","","null","img/motor_3.png","68","motor","","","","","","",""
"389","","301880","HierDywevwzk4n","ffdao4j52c","ms1000342","motor","","68","img/motor_3.png","68","motor","3","333","1","0","0","",""
"null","","301994","HierDywevwzk4n","ffdao4j52c","ms1000342","iti","","null","img/motor_3.png","68","motor","","","","","","",""
"457","","302461","HierDywevwzk4n","ffdao4j52c","ms1000342","motor","","83","img/motor_2.png","83","motor","2","334","1","0","0","",""
"null","","302574","HierDywevwzk4n","ffdao4j52c","ms1000342","iti","","null","img/motor_2.png","83","motor","","","","","","",""
"424","","303010","HierDywevwzk4n","ffdao4j52c","ms1000342","motor","","76","img/motor_8.png","76","motor","8","335","1","0","0","",""
"null","","303122","HierDywevwzk4n","ffdao4j52c","ms1000342","iti","","null","img/motor_8.png","76","motor","","","","","","",""
"399","","303532","HierDywevwzk4n","ffdao4j52c","ms1000342","motor","","70","img/motor_4.png","70","motor","4","336","1","0","0","",""
"null","","303645","HierDywevwzk4n","ffdao4j52c","ms1000342","iti","","null","img/motor_4.png","70","motor","","","","","","",""
"565","","304222","HierDywevwzk4n","ffdao4j52c","ms1000342","motor","","83","img/motor_2.png","83","motor","2","337","1","0","0","",""
"null","","304334","HierDywevwzk4n","ffdao4j52c","ms1000342","iti","","null","img/motor_2.png","83","motor","","","","","","",""
"311","","304657","HierDywevwzk4n","ffdao4j52c","ms1000342","motor","","75","img/motor_6.png","74","motor","6","338","0","1","0","",""
"284","","304953","HierDywevwzk4n","ffdao4j52c","ms1000342","motorRepeat","","74","img/motor_6.png","74","motor","6","338","1","0","0","",""
"null","","305065","HierDywevwzk4n","ffdao4j52c","ms1000342","iti","","null","img/motor_6.png","74","motor","","","","","","",""
"453","","305529","HierDywevwzk4n","ffdao4j52c","ms1000342","motor","","72","img/motor_5.png","72","motor","5","339","1","0","0","",""
"null","","305642","HierDywevwzk4n","ffdao4j52c","ms1000342","iti","","null","img/motor_5.png","72","motor","","","","","","",""
"338","","305992","HierDywevwzk4n","ffdao4j52c","ms1000342","motor","","68","img/motor_3.png","68","motor","3","340","1","0","0","",""
"null","","306104","HierDywevwzk4n","ffdao4j52c","ms1000342","iti","","null","img/motor_3.png","68","motor","","","","","","",""
"513","","306630","HierDywevwzk4n","ffdao4j52c","ms1000342","motor","","75","img/motor_6.png","74","motor","6","341","0","1","0","",""
"253","","306896","HierDywevwzk4n","ffdao4j52c","ms1000342","motorRepeat","","74","img/motor_6.png","74","motor","6","341","1","0","0","",""
"null","","307008","HierDywevwzk4n","ffdao4j52c","ms1000342","iti","","null","img/motor_6.png","74","motor","","","","","","",""
"479","","307498","HierDywevwzk4n","ffdao4j52c","ms1000342","motor","","74","img/motor_6.png","74","motor","6","342","1","0","0","",""
"null","","307611","HierDywevwzk4n","ffdao4j52c","ms1000342","iti","","null","img/motor_6.png","74","motor","","","","","","",""
"366","","307989","HierDywevwzk4n","ffdao4j52c","ms1000342","motor","","76","img/motor_8.png","76","motor","8","343","1","0","0","",""
"null","","308102","HierDywevwzk4n","ffdao4j52c","ms1000342","iti","","null","img/motor_8.png","76","motor","","","","","","",""
"342","","308456","HierDywevwzk4n","ffdao4j52c","ms1000342","motor","","68","img/motor_3.png","68","motor","3","344","1","0","0","",""
"null","","308569","HierDywevwzk4n","ffdao4j52c","ms1000342","iti","","null","img/motor_3.png","68","motor","","","","","","",""
"472","","309054","HierDywevwzk4n","ffdao4j52c","ms1000342","motor","","72","img/motor_5.png","72","motor","5","345","1","0","0","",""
"null","","309167","HierDywevwzk4n","ffdao4j52c","ms1000342","iti","","null","img/motor_5.png","72","motor","","","","","","",""
"364","","309542","HierDywevwzk4n","ffdao4j52c","ms1000342","motor","","65","img/motor_1.png","65","motor","1","346","1","0","0","",""
"null","","309655","HierDywevwzk4n","ffdao4j52c","ms1000342","iti","","null","img/motor_1.png","65","motor","","","","","","",""
"387","","310053","HierDywevwzk4n","ffdao4j52c","ms1000342","motor","","65","img/motor_1.png","65","motor","1","347","1","0","0","",""
"null","","310167","HierDywevwzk4n","ffdao4j52c","ms1000342","iti","","null","img/motor_1.png","65","motor","","","","","","",""
"481","","310660","HierDywevwzk4n","ffdao4j52c","ms1000342","motor","","83","img/motor_2.png","83","motor","2","348","1","0","0","",""
"null","","310773","HierDywevwzk4n","ffdao4j52c","ms1000342","iti","","null","img/motor_2.png","83","motor","","","","","","",""
"475","","311259","HierDywevwzk4n","ffdao4j52c","ms1000342","motor","","65","img/motor_1.png","65","motor","1","349","1","0","0","",""
"null","","311371","HierDywevwzk4n","ffdao4j52c","ms1000342","iti","","null","img/motor_1.png","65","motor","","","","","","",""
"452","","311834","HierDywevwzk4n","ffdao4j52c","ms1000342","motor","","76","img/motor_8.png","76","motor","8","350","1","0","0","",""
"null","","311947","HierDywevwzk4n","ffdao4j52c","ms1000342","iti","","null","img/motor_8.png","76","motor","","","","","","",""
"383","","312341","HierDywevwzk4n","ffdao4j52c","ms1000342","motor","","72","img/motor_5.png","72","motor","5","351","1","0","0","",""
"null","","312454","HierDywevwzk4n","ffdao4j52c","ms1000342","iti","","null","img/motor_5.png","72","motor","","","","","","",""
"338","","312804","HierDywevwzk4n","ffdao4j52c","ms1000342","motor","","70","img/motor_4.png","70","motor","4","352","1","0","0","",""
"null","","312916","HierDywevwzk4n","ffdao4j52c","ms1000342","iti","","null","img/motor_4.png","70","motor","","","","","","",""
"494","","313421","HierDywevwzk4n","ffdao4j52c","ms1000342","motor","","68","img/motor_2.png","83","motor","2","353","0","1","0","",""
"456","","313889","HierDywevwzk4n","ffdao4j52c","ms1000342","motorRepeat","","83","img/motor_2.png","83","motor","2","353","1","0","0","",""
"null","","314002","HierDywevwzk4n","ffdao4j52c","ms1000342","iti","","null","img/motor_2.png","83","motor","","","","","","",""
"434","","314449","HierDywevwzk4n","ffdao4j52c","ms1000342","motor","","68","img/motor_3.png","68","motor","3","354","1","0","0","",""
"null","","314563","HierDywevwzk4n","ffdao4j52c","ms1000342","iti","","null","img/motor_3.png","68","motor","","","","","","",""
"372","","314947","HierDywevwzk4n","ffdao4j52c","ms1000342","motor","","68","img/motor_3.png","68","motor","3","355","1","0","0","",""
"null","","315060","HierDywevwzk4n","ffdao4j52c","ms1000342","iti","","null","img/motor_3.png","68","motor","","","","","","",""
"492","","315564","HierDywevwzk4n","ffdao4j52c","ms1000342","motor","","74","img/motor_6.png","74","motor","6","356","1","0","0","",""
"null","","315677","HierDywevwzk4n","ffdao4j52c","ms1000342","iti","","null","img/motor_6.png","74","motor","","","","","","",""
"484","","316172","HierDywevwzk4n","ffdao4j52c","ms1000342","motor","","83","img/motor_2.png","83","motor","2","357","1","0","0","",""
"null","","316285","HierDywevwzk4n","ffdao4j52c","ms1000342","iti","","null","img/motor_2.png","83","motor","","","","","","",""
"517","","316814","HierDywevwzk4n","ffdao4j52c","ms1000342","motor","","74","img/motor_7.png","75","motor","7","358","0","1","0","",""
