rt,responses,time_elapsed,subject,prolificID,demoID,trialType,question_order,key_press,stim,corrresp,phase,stimNum,trialNum,corr,repeatTrial,motorSwitch,pracCounter,hierarchy
128388,"{""Q0"":""ms1000254""}",128422,HierDyhe38tr2j,ia7fo1pdr4,ms1000254,,,,,,,,,,,,,
4303,,132737,HierDyhe38tr2j,ia7fo1pdr4,ms1000254,,,,,,,,,,,,,
,,134836,HierDyhe38tr2j,ia7fo1pdr4,ms1000254,fullscreen,,,,,,,,,,,,
18131,"{""Vision"":""Yes"",""Handedness"":""Right"",""Gender"":""nonbinary""}",152979,HierDyhe38tr2j,ia7fo1pdr4,ms1000254,,"[0,1,2]",,,,,,,,,,,
3478,"{""Q0"":""20""}",156469,HierDyhe38tr2j,ia7fo1pdr4,ms1000254,,,,,,,,,,,,,
91136,,247618,HierDyhe38tr2j,ia7fo1pdr4,ms1000254,,,,,,,,,,,,,
660,,248291,HierDyhe38tr2j,ia7fo1pdr4,ms1000254,motor,,76,img/motor_8.png,76,motor,8,1,1,0,0,,
null,,248403,HierDyhe38tr2j,ia7fo1pdr4,ms1000254,iti,,null,img/motor_8.png,76,motor,,,,,,,
495,,248907,HierDyhe38tr2j,ia7fo1pdr4,ms1000254,motor,,75,img/motor_7.png,75,motor,7,2,1,0,0,,
null,,249020,HierDyhe38tr2j,ia7fo1pdr4,ms1000254,iti,,null,img/motor_7.png,75,motor,,,,,,,
455,,249486,HierDyhe38tr2j,ia7fo1pdr4,ms1000254,motor,,72,img/motor_5.png,72,motor,5,3,1,0,0,,
null,,249596,HierDyhe38tr2j,ia7fo1pdr4,ms1000254,iti,,null,img/motor_5.png,72,motor,,,,,,,
374,,249980,HierDyhe38tr2j,ia7fo1pdr4,ms1000254,motor,,76,img/motor_8.png,76,motor,8,4,1,0,0,,
null,,250092,HierDyhe38tr2j,ia7fo1pdr4,ms1000254,iti,,null,img/motor_8.png,76,motor,,,,,,,
305,,250407,HierDyhe38tr2j,ia7fo1pdr4,ms1000254,motor,,72,img/motor_5.png,72,motor,5,5,1,0,0,,
null,,250517,HierDyhe38tr2j,ia7fo1pdr4,ms1000254,iti,,null,img/motor_5.png,72,motor,,,,,,,
476,,251005,HierDyhe38tr2j,ia7fo1pdr4,ms1000254,motor,,68,img/motor_3.png,68,motor,3,6,1,0,0,,
null,,251115,HierDyhe38tr2j,ia7fo1pdr4,ms1000254,iti,,null,img/motor_3.png,68,motor,,,,,,,
263,,251388,HierDyhe38tr2j,ia7fo1pdr4,ms1000254,motor,,70,img/motor_3.png,68,motor,3,7,0,1,0,,
451,,251849,HierDyhe38tr2j,ia7fo1pdr4,ms1000254,motorRepeat,,70,img/motor_3.png,68,motor,3,7,0,1,0,,
1474,,253334,HierDyhe38tr2j,ia7fo1pdr4,ms1000254,motorRepeat,,68,img/motor_3.png,68,motor,3,7,1,0,0,,
null,,253446,HierDyhe38tr2j,ia7fo1pdr4,ms1000254,iti,,null,img/motor_3.png,68,motor,,,,,,,
446,,253901,HierDyhe38tr2j,ia7fo1pdr4,ms1000254,motor,,76,img/motor_8.png,76,motor,8,8,1,0,0,,
null,,254013,HierDyhe38tr2j,ia7fo1pdr4,ms1000254,iti,,null,img/motor_8.png,76,motor,,,,,,,
343,,254364,HierDyhe38tr2j,ia7fo1pdr4,ms1000254,motor,,75,img/motor_7.png,75,motor,7,9,1,0,0,,
null,,254476,HierDyhe38tr2j,ia7fo1pdr4,ms1000254,iti,,null,img/motor_7.png,75,motor,,,,,,,
485,,254971,HierDyhe38tr2j,ia7fo1pdr4,ms1000254,motor,,65,img/motor_2.png,83,motor,2,10,0,1,0,,
258,,255240,HierDyhe38tr2j,ia7fo1pdr4,ms1000254,motorRepeat,,83,img/motor_2.png,83,motor,2,10,1,0,0,,
null,,255351,HierDyhe38tr2j,ia7fo1pdr4,ms1000254,iti,,null,img/motor_2.png,83,motor,,,,,,,
508,,255869,HierDyhe38tr2j,ia7fo1pdr4,ms1000254,motor,,70,img/motor_4.png,70,motor,4,11,1,0,0,,
null,,255981,HierDyhe38tr2j,ia7fo1pdr4,ms1000254,iti,,null,img/motor_4.png,70,motor,,,,,,,
425,,256417,HierDyhe38tr2j,ia7fo1pdr4,ms1000254,motor,,83,img/motor_2.png,83,motor,2,12,1,0,0,,
null,,256531,HierDyhe38tr2j,ia7fo1pdr4,ms1000254,iti,,null,img/motor_2.png,83,motor,,,,,,,
387,,256929,HierDyhe38tr2j,ia7fo1pdr4,ms1000254,motor,,65,img/motor_1.png,65,motor,1,13,1,0,0,,
null,,257042,HierDyhe38tr2j,ia7fo1pdr4,ms1000254,iti,,null,img/motor_1.png,65,motor,,,,,,,
361,,257412,HierDyhe38tr2j,ia7fo1pdr4,ms1000254,motor,,83,img/motor_2.png,83,motor,2,14,1,0,0,,
null,,257524,HierDyhe38tr2j,ia7fo1pdr4,ms1000254,iti,,null,img/motor_2.png,83,motor,,,,,,,
714,,258248,HierDyhe38tr2j,ia7fo1pdr4,ms1000254,motor,,72,img/motor_6.png,74,motor,6,15,0,1,0,,
463,,258721,HierDyhe38tr2j,ia7fo1pdr4,ms1000254,motorRepeat,,74,img/motor_6.png,74,motor,6,15,1,0,0,,
null,,258832,HierDyhe38tr2j,ia7fo1pdr4,ms1000254,iti,,null,img/motor_6.png,74,motor,,,,,,,
379,,259222,HierDyhe38tr2j,ia7fo1pdr4,ms1000254,motor,,75,img/motor_7.png,75,motor,7,16,1,0,0,,
null,,259333,HierDyhe38tr2j,ia7fo1pdr4,ms1000254,iti,,null,img/motor_7.png,75,motor,,,,,,,
511,,259855,HierDyhe38tr2j,ia7fo1pdr4,ms1000254,motor,,76,img/motor_8.png,76,motor,8,17,1,0,0,,
null,,259965,HierDyhe38tr2j,ia7fo1pdr4,ms1000254,iti,,null,img/motor_8.png,76,motor,,,,,,,
507,,260485,HierDyhe38tr2j,ia7fo1pdr4,ms1000254,motor,,65,img/motor_1.png,65,motor,1,18,1,0,0,,
null,,260597,HierDyhe38tr2j,ia7fo1pdr4,ms1000254,iti,,null,img/motor_1.png,65,motor,,,,,,,
378,,260985,HierDyhe38tr2j,ia7fo1pdr4,ms1000254,motor,,76,img/motor_8.png,76,motor,8,19,1,0,0,,
null,,261096,HierDyhe38tr2j,ia7fo1pdr4,ms1000254,iti,,null,img/motor_8.png,76,motor,,,,,,,
581,,261688,HierDyhe38tr2j,ia7fo1pdr4,ms1000254,motor,,68,img/motor_3.png,68,motor,3,20,1,0,0,,
null,,261801,HierDyhe38tr2j,ia7fo1pdr4,ms1000254,iti,,null,img/motor_3.png,68,motor,,,,,,,
388,,262199,HierDyhe38tr2j,ia7fo1pdr4,ms1000254,motor,,76,img/motor_8.png,76,motor,8,21,1,0,0,,
null,,262310,HierDyhe38tr2j,ia7fo1pdr4,ms1000254,iti,,null,img/motor_8.png,76,motor,,,,,,,
354,,262676,HierDyhe38tr2j,ia7fo1pdr4,ms1000254,motor,,74,img/motor_6.png,74,motor,6,22,1,0,0,,
null,,262787,HierDyhe38tr2j,ia7fo1pdr4,ms1000254,iti,,null,img/motor_6.png,74,motor,,,,,,,
371,,263168,HierDyhe38tr2j,ia7fo1pdr4,ms1000254,motor,,72,img/motor_5.png,72,motor,5,23,1,0,0,,
null,,263279,HierDyhe38tr2j,ia7fo1pdr4,ms1000254,iti,,null,img/motor_5.png,72,motor,,,,,,,
380,,263669,HierDyhe38tr2j,ia7fo1pdr4,ms1000254,motor,,74,img/motor_6.png,74,motor,6,24,1,0,0,,
null,,263781,HierDyhe38tr2j,ia7fo1pdr4,ms1000254,iti,,null,img/motor_6.png,74,motor,,,,,,,
401,,264191,HierDyhe38tr2j,ia7fo1pdr4,ms1000254,motor,,68,img/motor_4.png,70,motor,4,25,0,1,0,,
207,,264406,HierDyhe38tr2j,ia7fo1pdr4,ms1000254,motorRepeat,,70,img/motor_4.png,70,motor,4,25,1,0,0,,
null,,264518,HierDyhe38tr2j,ia7fo1pdr4,ms1000254,iti,,null,img/motor_4.png,70,motor,,,,,,,
341,,264870,HierDyhe38tr2j,ia7fo1pdr4,ms1000254,motor,,74,img/motor_6.png,74,motor,6,26,1,0,0,,
null,,264981,HierDyhe38tr2j,ia7fo1pdr4,ms1000254,iti,,null,img/motor_6.png,74,motor,,,,,,,
423,,265415,HierDyhe38tr2j,ia7fo1pdr4,ms1000254,motor,,74,img/motor_6.png,74,motor,6,27,1,0,0,,
null,,265527,HierDyhe38tr2j,ia7fo1pdr4,ms1000254,iti,,null,img/motor_6.png,74,motor,,,,,,,
701,,266236,HierDyhe38tr2j,ia7fo1pdr4,ms1000254,motor,,83,img/motor_2.png,83,motor,2,28,1,0,0,,
null,,266346,HierDyhe38tr2j,ia7fo1pdr4,ms1000254,iti,,null,img/motor_2.png,83,motor,,,,,,,
684,,267039,HierDyhe38tr2j,ia7fo1pdr4,ms1000254,motor,,72,img/motor_5.png,72,motor,5,29,1,0,0,,
null,,267150,HierDyhe38tr2j,ia7fo1pdr4,ms1000254,iti,,null,img/motor_5.png,72,motor,,,,,,,
399,,267560,HierDyhe38tr2j,ia7fo1pdr4,ms1000254,motor,,75,img/motor_7.png,75,motor,7,30,1,0,0,,
null,,267671,HierDyhe38tr2j,ia7fo1pdr4,ms1000254,iti,,null,img/motor_7.png,75,motor,,,,,,,
476,,268158,HierDyhe38tr2j,ia7fo1pdr4,ms1000254,motor,,75,img/motor_7.png,75,motor,7,31,1,0,0,,
null,,268270,HierDyhe38tr2j,ia7fo1pdr4,ms1000254,iti,,null,img/motor_7.png,75,motor,,,,,,,
614,,268895,HierDyhe38tr2j,ia7fo1pdr4,ms1000254,motor,,68,img/motor_3.png,68,motor,3,32,1,0,0,,
null,,269008,HierDyhe38tr2j,ia7fo1pdr4,ms1000254,iti,,null,img/motor_3.png,68,motor,,,,,,,
102,,269121,HierDyhe38tr2j,ia7fo1pdr4,ms1000254,motor,,70,img/motor_5.png,72,motor,5,33,0,1,0,,
431,,269561,HierDyhe38tr2j,ia7fo1pdr4,ms1000254,motorRepeat,,72,img/motor_5.png,72,motor,5,33,1,0,0,,
null,,269672,HierDyhe38tr2j,ia7fo1pdr4,ms1000254,iti,,null,img/motor_5.png,72,motor,,,,,,,
444,,270127,HierDyhe38tr2j,ia7fo1pdr4,ms1000254,motor,,70,img/motor_4.png,70,motor,4,34,1,0,0,,
null,,270238,HierDyhe38tr2j,ia7fo1pdr4,ms1000254,iti,,null,img/motor_4.png,70,motor,,,,,,,
400,,270647,HierDyhe38tr2j,ia7fo1pdr4,ms1000254,motor,,65,img/motor_1.png,65,motor,1,35,1,0,0,,
null,,270759,HierDyhe38tr2j,ia7fo1pdr4,ms1000254,iti,,null,img/motor_1.png,65,motor,,,,,,,
380,,271148,HierDyhe38tr2j,ia7fo1pdr4,ms1000254,motor,,65,img/motor_1.png,65,motor,1,36,1,0,0,,
null,,271260,HierDyhe38tr2j,ia7fo1pdr4,ms1000254,iti,,null,img/motor_1.png,65,motor,,,,,,,
401,,271672,HierDyhe38tr2j,ia7fo1pdr4,ms1000254,motor,,68,img/motor_2.png,83,motor,2,37,0,1,0,,
229,,271911,HierDyhe38tr2j,ia7fo1pdr4,ms1000254,motorRepeat,,83,img/motor_2.png,83,motor,2,37,1,0,0,,
null,,272022,HierDyhe38tr2j,ia7fo1pdr4,ms1000254,iti,,null,img/motor_2.png,83,motor,,,,,,,
372,,272405,HierDyhe38tr2j,ia7fo1pdr4,ms1000254,motor,,65,img/motor_1.png,65,motor,1,38,1,0,0,,
null,,272517,HierDyhe38tr2j,ia7fo1pdr4,ms1000254,iti,,null,img/motor_1.png,65,motor,,,,,,,
312,,272840,HierDyhe38tr2j,ia7fo1pdr4,ms1000254,motor,,65,img/motor_1.png,65,motor,1,39,1,0,0,,
null,,272951,HierDyhe38tr2j,ia7fo1pdr4,ms1000254,iti,,null,img/motor_1.png,65,motor,,,,,,,
1013,,273974,HierDyhe38tr2j,ia7fo1pdr4,ms1000254,motor,,74,img/motor_6.png,74,motor,6,40,1,0,0,,
null,,274086,HierDyhe38tr2j,ia7fo1pdr4,ms1000254,iti,,null,img/motor_6.png,74,motor,,,,,,,
360,,274457,HierDyhe38tr2j,ia7fo1pdr4,ms1000254,motor,,76,img/motor_8.png,76,motor,8,41,1,0,0,,
null,,274567,HierDyhe38tr2j,ia7fo1pdr4,ms1000254,iti,,null,img/motor_8.png,76,motor,,,,,,,
488,,275065,HierDyhe38tr2j,ia7fo1pdr4,ms1000254,motor,,70,img/motor_4.png,70,motor,4,42,1,0,0,,
null,,275175,HierDyhe38tr2j,ia7fo1pdr4,ms1000254,iti,,null,img/motor_4.png,70,motor,,,,,,,
362,,275547,HierDyhe38tr2j,ia7fo1pdr4,ms1000254,motor,,70,img/motor_4.png,70,motor,4,43,1,0,0,,
null,,275658,HierDyhe38tr2j,ia7fo1pdr4,ms1000254,iti,,null,img/motor_4.png,70,motor,,,,,,,
422,,276091,HierDyhe38tr2j,ia7fo1pdr4,ms1000254,motor,,72,img/motor_5.png,72,motor,5,44,1,0,0,,
null,,276201,HierDyhe38tr2j,ia7fo1pdr4,ms1000254,iti,,null,img/motor_5.png,72,motor,,,,,,,
560,,276772,HierDyhe38tr2j,ia7fo1pdr4,ms1000254,motor,,83,img/motor_2.png,83,motor,2,45,1,0,0,,
null,,276883,HierDyhe38tr2j,ia7fo1pdr4,ms1000254,iti,,null,img/motor_2.png,83,motor,,,,,,,
531,,277423,HierDyhe38tr2j,ia7fo1pdr4,ms1000254,motor,,76,img/motor_7.png,75,motor,7,46,0,1,0,,
186,,277619,HierDyhe38tr2j,ia7fo1pdr4,ms1000254,motorRepeat,,75,img/motor_7.png,75,motor,7,46,1,0,0,,
null,,277729,HierDyhe38tr2j,ia7fo1pdr4,ms1000254,iti,,null,img/motor_7.png,75,motor,,,,,,,
436,,278176,HierDyhe38tr2j,ia7fo1pdr4,ms1000254,motor,,83,img/motor_2.png,83,motor,2,47,1,0,0,,
null,,278288,HierDyhe38tr2j,ia7fo1pdr4,ms1000254,iti,,null,img/motor_2.png,83,motor,,,,,,,
422,,278720,HierDyhe38tr2j,ia7fo1pdr4,ms1000254,motor,,72,img/motor_5.png,72,motor,5,48,1,0,0,,
null,,278832,HierDyhe38tr2j,ia7fo1pdr4,ms1000254,iti,,null,img/motor_5.png,72,motor,,,,,,,
633,,279477,HierDyhe38tr2j,ia7fo1pdr4,ms1000254,motor,,76,img/motor_8.png,76,motor,8,49,1,0,0,,
null,,279588,HierDyhe38tr2j,ia7fo1pdr4,ms1000254,iti,,null,img/motor_8.png,76,motor,,,,,,,
370,,279968,HierDyhe38tr2j,ia7fo1pdr4,ms1000254,motor,,65,img/motor_1.png,65,motor,1,50,1,0,0,,
null,,280079,HierDyhe38tr2j,ia7fo1pdr4,ms1000254,iti,,null,img/motor_1.png,65,motor,,,,,,,
397,,280486,HierDyhe38tr2j,ia7fo1pdr4,ms1000254,motor,,76,img/motor_8.png,76,motor,8,51,1,0,0,,
null,,280597,HierDyhe38tr2j,ia7fo1pdr4,ms1000254,iti,,null,img/motor_8.png,76,motor,,,,,,,
370,,280978,HierDyhe38tr2j,ia7fo1pdr4,ms1000254,motor,,72,img/motor_5.png,72,motor,5,52,1,0,0,,
null,,281088,HierDyhe38tr2j,ia7fo1pdr4,ms1000254,iti,,null,img/motor_5.png,72,motor,,,,,,,
424,,281522,HierDyhe38tr2j,ia7fo1pdr4,ms1000254,motor,,70,img/motor_4.png,70,motor,4,53,1,0,0,,
null,,281632,HierDyhe38tr2j,ia7fo1pdr4,ms1000254,iti,,null,img/motor_4.png,70,motor,,,,,,,
340,,281984,HierDyhe38tr2j,ia7fo1pdr4,ms1000254,motor,,76,img/motor_8.png,76,motor,8,54,1,0,0,,
null,,282096,HierDyhe38tr2j,ia7fo1pdr4,ms1000254,iti,,null,img/motor_8.png,76,motor,,,,,,,
490,,282595,HierDyhe38tr2j,ia7fo1pdr4,ms1000254,motor,,83,img/motor_2.png,83,motor,2,55,1,0,0,,
null,,282706,HierDyhe38tr2j,ia7fo1pdr4,ms1000254,iti,,null,img/motor_2.png,83,motor,,,,,,,
470,,283185,HierDyhe38tr2j,ia7fo1pdr4,ms1000254,motor,,68,img/motor_3.png,68,motor,3,56,1,0,0,,
null,,283297,HierDyhe38tr2j,ia7fo1pdr4,ms1000254,iti,,null,img/motor_3.png,68,motor,,,,,,,
366,,283673,HierDyhe38tr2j,ia7fo1pdr4,ms1000254,motor,,76,img/motor_8.png,76,motor,8,57,1,0,0,,
null,,283784,HierDyhe38tr2j,ia7fo1pdr4,ms1000254,iti,,null,img/motor_8.png,76,motor,,,,,,,
453,,284247,HierDyhe38tr2j,ia7fo1pdr4,ms1000254,motor,,75,img/motor_7.png,75,motor,7,58,1,0,0,,
null,,284358,HierDyhe38tr2j,ia7fo1pdr4,ms1000254,iti,,null,img/motor_7.png,75,motor,,,,,,,
481,,284851,HierDyhe38tr2j,ia7fo1pdr4,ms1000254,motor,,70,img/motor_4.png,70,motor,4,59,1,0,0,,
null,,284963,HierDyhe38tr2j,ia7fo1pdr4,ms1000254,iti,,null,img/motor_4.png,70,motor,,,,,,,
423,,285395,HierDyhe38tr2j,ia7fo1pdr4,ms1000254,motor,,68,img/motor_3.png,68,motor,3,60,1,0,0,,
null,,285506,HierDyhe38tr2j,ia7fo1pdr4,ms1000254,iti,,null,img/motor_3.png,68,motor,,,,,,,
362,,285879,HierDyhe38tr2j,ia7fo1pdr4,ms1000254,motor,,65,img/motor_1.png,65,motor,1,61,1,0,0,,
null,,285990,HierDyhe38tr2j,ia7fo1pdr4,ms1000254,iti,,null,img/motor_1.png,65,motor,,,,,,,
304,,286305,HierDyhe38tr2j,ia7fo1pdr4,ms1000254,motor,,83,img/motor_2.png,83,motor,2,62,1,0,0,,
null,,286416,HierDyhe38tr2j,ia7fo1pdr4,ms1000254,iti,,null,img/motor_2.png,83,motor,,,,,,,
441,,286868,HierDyhe38tr2j,ia7fo1pdr4,ms1000254,motor,,75,img/motor_7.png,75,motor,7,63,1,0,0,,
null,,286978,HierDyhe38tr2j,ia7fo1pdr4,ms1000254,iti,,null,img/motor_7.png,75,motor,,,,,,,
367,,287355,HierDyhe38tr2j,ia7fo1pdr4,ms1000254,motor,,83,img/motor_2.png,83,motor,2,64,1,0,0,,
null,,287467,HierDyhe38tr2j,ia7fo1pdr4,ms1000254,iti,,null,img/motor_2.png,83,motor,,,,,,,
318,,287795,HierDyhe38tr2j,ia7fo1pdr4,ms1000254,motor,,65,img/motor_1.png,65,motor,1,65,1,0,0,,
null,,287905,HierDyhe38tr2j,ia7fo1pdr4,ms1000254,iti,,null,img/motor_1.png,65,motor,,,,,,,
377,,288292,HierDyhe38tr2j,ia7fo1pdr4,ms1000254,motor,,75,img/motor_7.png,75,motor,7,66,1,0,0,,
null,,288404,HierDyhe38tr2j,ia7fo1pdr4,ms1000254,iti,,null,img/motor_7.png,75,motor,,,,,,,
402,,288815,HierDyhe38tr2j,ia7fo1pdr4,ms1000254,motor,,83,img/motor_2.png,83,motor,2,67,1,0,0,,
null,,288927,HierDyhe38tr2j,ia7fo1pdr4,ms1000254,iti,,null,img/motor_2.png,83,motor,,,,,,,
417,,289353,HierDyhe38tr2j,ia7fo1pdr4,ms1000254,motor,,75,img/motor_6.png,74,motor,6,68,0,1,0,,
303,,289666,HierDyhe38tr2j,ia7fo1pdr4,ms1000254,motorRepeat,,72,img/motor_6.png,74,motor,6,68,0,1,0,,
336,,290013,HierDyhe38tr2j,ia7fo1pdr4,ms1000254,motorRepeat,,74,img/motor_6.png,74,motor,6,68,1,0,0,,
null,,290124,HierDyhe38tr2j,ia7fo1pdr4,ms1000254,iti,,null,img/motor_6.png,74,motor,,,,,,,
427,,290561,HierDyhe38tr2j,ia7fo1pdr4,ms1000254,motor,,70,img/motor_4.png,70,motor,4,69,1,0,0,,
null,,290672,HierDyhe38tr2j,ia7fo1pdr4,ms1000254,iti,,null,img/motor_4.png,70,motor,,,,,,,
365,,291047,HierDyhe38tr2j,ia7fo1pdr4,ms1000254,motor,,83,img/motor_2.png,83,motor,2,70,1,0,0,,
null,,291159,HierDyhe38tr2j,ia7fo1pdr4,ms1000254,iti,,null,img/motor_2.png,83,motor,,,,,,,
354,,291524,HierDyhe38tr2j,ia7fo1pdr4,ms1000254,motor,,70,img/motor_3.png,68,motor,3,71,0,1,0,,
9,,291543,HierDyhe38tr2j,ia7fo1pdr4,ms1000254,motorRepeat,,68,img/motor_3.png,68,motor,3,71,1,0,0,,
null,,291655,HierDyhe38tr2j,ia7fo1pdr4,ms1000254,iti,,null,img/motor_3.png,68,motor,,,,,,,
357,,292021,HierDyhe38tr2j,ia7fo1pdr4,ms1000254,motor,,75,img/motor_6.png,74,motor,6,72,0,1,0,,
255,,292288,HierDyhe38tr2j,ia7fo1pdr4,ms1000254,motorRepeat,,74,img/motor_6.png,74,motor,6,72,1,0,0,,
null,,292398,HierDyhe38tr2j,ia7fo1pdr4,ms1000254,iti,,null,img/motor_6.png,74,motor,,,,,,,
492,,292900,HierDyhe38tr2j,ia7fo1pdr4,ms1000254,motor,,70,img/motor_4.png,70,motor,4,73,1,0,0,,
null,,293012,HierDyhe38tr2j,ia7fo1pdr4,ms1000254,iti,,null,img/motor_4.png,70,motor,,,,,,,
378,,293399,HierDyhe38tr2j,ia7fo1pdr4,ms1000254,motor,,83,img/motor_2.png,83,motor,2,74,1,0,0,,
null,,293509,HierDyhe38tr2j,ia7fo1pdr4,ms1000254,iti,,null,img/motor_2.png,83,motor,,,,,,,
397,,293918,HierDyhe38tr2j,ia7fo1pdr4,ms1000254,motor,,70,img/motor_4.png,70,motor,4,75,1,0,0,,
null,,294029,HierDyhe38tr2j,ia7fo1pdr4,ms1000254,iti,,null,img/motor_4.png,70,motor,,,,,,,
368,,294406,HierDyhe38tr2j,ia7fo1pdr4,ms1000254,motor,,75,img/motor_7.png,75,motor,7,76,1,0,0,,
null,,294518,HierDyhe38tr2j,ia7fo1pdr4,ms1000254,iti,,null,img/motor_7.png,75,motor,,,,,,,
350,,294877,HierDyhe38tr2j,ia7fo1pdr4,ms1000254,motor,,76,img/motor_8.png,76,motor,8,77,1,0,0,,
null,,294988,HierDyhe38tr2j,ia7fo1pdr4,ms1000254,iti,,null,img/motor_8.png,76,motor,,,,,,,
406,,295405,HierDyhe38tr2j,ia7fo1pdr4,ms1000254,motor,,83,img/motor_2.png,83,motor,2,78,1,0,0,,
null,,295517,HierDyhe38tr2j,ia7fo1pdr4,ms1000254,iti,,null,img/motor_2.png,83,motor,,,,,,,
314,,295841,HierDyhe38tr2j,ia7fo1pdr4,ms1000254,motor,,76,img/motor_8.png,76,motor,8,79,1,0,0,,
null,,295952,HierDyhe38tr2j,ia7fo1pdr4,ms1000254,iti,,null,img/motor_8.png,76,motor,,,,,,,
360,,296323,HierDyhe38tr2j,ia7fo1pdr4,ms1000254,motor,,74,img/motor_6.png,74,motor,6,80,1,0,0,,
null,,296434,HierDyhe38tr2j,ia7fo1pdr4,ms1000254,iti,,null,img/motor_6.png,74,motor,,,,,,,
318,,296761,HierDyhe38tr2j,ia7fo1pdr4,ms1000254,motor,,74,img/motor_6.png,74,motor,6,81,1,0,0,,
null,,296872,HierDyhe38tr2j,ia7fo1pdr4,ms1000254,iti,,null,img/motor_6.png,74,motor,,,,,,,
410,,297292,HierDyhe38tr2j,ia7fo1pdr4,ms1000254,motor,,70,img/motor_4.png,70,motor,4,82,1,0,0,,
null,,297404,HierDyhe38tr2j,ia7fo1pdr4,ms1000254,iti,,null,img/motor_4.png,70,motor,,,,,,,
517,,297930,HierDyhe38tr2j,ia7fo1pdr4,ms1000254,motor,,72,img/motor_6.png,74,motor,6,83,0,1,0,,
194,,298135,HierDyhe38tr2j,ia7fo1pdr4,ms1000254,motorRepeat,,74,img/motor_6.png,74,motor,6,83,1,0,0,,
null,,298246,HierDyhe38tr2j,ia7fo1pdr4,ms1000254,iti,,null,img/motor_6.png,74,motor,,,,,,,
379,,298635,HierDyhe38tr2j,ia7fo1pdr4,ms1000254,motor,,72,img/motor_5.png,72,motor,5,84,1,0,0,,
null,,298746,HierDyhe38tr2j,ia7fo1pdr4,ms1000254,iti,,null,img/motor_5.png,72,motor,,,,,,,
297,,299055,HierDyhe38tr2j,ia7fo1pdr4,ms1000254,motor,,74,img/motor_6.png,74,motor,6,85,1,0,0,,
null,,299165,HierDyhe38tr2j,ia7fo1pdr4,ms1000254,iti,,null,img/motor_6.png,74,motor,,,,,,,
295,,299471,HierDyhe38tr2j,ia7fo1pdr4,ms1000254,motor,,72,img/motor_5.png,72,motor,5,86,1,0,0,,
null,,299581,HierDyhe38tr2j,ia7fo1pdr4,ms1000254,iti,,null,img/motor_5.png,72,motor,,,,,,,
391,,299984,HierDyhe38tr2j,ia7fo1pdr4,ms1000254,motor,,70,img/motor_3.png,68,motor,3,87,0,1,0,,
170,,300163,HierDyhe38tr2j,ia7fo1pdr4,ms1000254,motorRepeat,,68,img/motor_3.png,68,motor,3,87,1,0,0,,
null,,300275,HierDyhe38tr2j,ia7fo1pdr4,ms1000254,iti,,null,img/motor_3.png,68,motor,,,,,,,
290,,300576,HierDyhe38tr2j,ia7fo1pdr4,ms1000254,motor,,74,img/motor_8.png,76,motor,8,88,0,1,0,,
156,,300741,HierDyhe38tr2j,ia7fo1pdr4,ms1000254,motorRepeat,,76,img/motor_8.png,76,motor,8,88,1,0,0,,
null,,300852,HierDyhe38tr2j,ia7fo1pdr4,ms1000254,iti,,null,img/motor_8.png,76,motor,,,,,,,
612,,301474,HierDyhe38tr2j,ia7fo1pdr4,ms1000254,motor,,70,img/motor_4.png,70,motor,4,89,1,0,0,,
null,,301586,HierDyhe38tr2j,ia7fo1pdr4,ms1000254,iti,,null,img/motor_4.png,70,motor,,,,,,,
476,,302072,HierDyhe38tr2j,ia7fo1pdr4,ms1000254,motor,,74,img/motor_6.png,74,motor,6,90,1,0,0,,
null,,302184,HierDyhe38tr2j,ia7fo1pdr4,ms1000254,iti,,null,img/motor_6.png,74,motor,,,,,,,
454,,302648,HierDyhe38tr2j,ia7fo1pdr4,ms1000254,motor,,75,img/motor_7.png,75,motor,7,91,1,0,0,,
null,,302758,HierDyhe38tr2j,ia7fo1pdr4,ms1000254,iti,,null,img/motor_7.png,75,motor,,,,,,,
478,,303245,HierDyhe38tr2j,ia7fo1pdr4,ms1000254,motor,,72,img/motor_5.png,72,motor,5,92,1,0,0,,
null,,303356,HierDyhe38tr2j,ia7fo1pdr4,ms1000254,iti,,null,img/motor_5.png,72,motor,,,,,,,
507,,303875,HierDyhe38tr2j,ia7fo1pdr4,ms1000254,motor,,68,img/motor_3.png,68,motor,3,93,1,0,0,,
null,,303987,HierDyhe38tr2j,ia7fo1pdr4,ms1000254,iti,,null,img/motor_3.png,68,motor,,,,,,,
378,,304376,HierDyhe38tr2j,ia7fo1pdr4,ms1000254,motor,,74,img/motor_6.png,74,motor,6,94,1,0,0,,
null,,304487,HierDyhe38tr2j,ia7fo1pdr4,ms1000254,iti,,null,img/motor_6.png,74,motor,,,,,,,
572,,305069,HierDyhe38tr2j,ia7fo1pdr4,ms1000254,motor,,65,img/motor_1.png,65,motor,1,95,1,0,0,,
null,,305179,HierDyhe38tr2j,ia7fo1pdr4,ms1000254,iti,,null,img/motor_1.png,65,motor,,,,,,,
456,,305645,HierDyhe38tr2j,ia7fo1pdr4,ms1000254,motor,,72,img/motor_5.png,72,motor,5,96,1,0,0,,
null,,305756,HierDyhe38tr2j,ia7fo1pdr4,ms1000254,iti,,null,img/motor_5.png,72,motor,,,,,,,
648,,306414,HierDyhe38tr2j,ia7fo1pdr4,ms1000254,motor,,65,img/motor_1.png,65,motor,1,97,1,0,0,,
null,,306526,HierDyhe38tr2j,ia7fo1pdr4,ms1000254,iti,,null,img/motor_1.png,65,motor,,,,,,,
374,,306911,HierDyhe38tr2j,ia7fo1pdr4,ms1000254,motor,,83,img/motor_4.png,70,motor,4,98,0,1,0,,
80,,307000,HierDyhe38tr2j,ia7fo1pdr4,ms1000254,motorRepeat,,70,img/motor_4.png,70,motor,4,98,1,0,0,,
null,,307112,HierDyhe38tr2j,ia7fo1pdr4,ms1000254,iti,,null,img/motor_4.png,70,motor,,,,,,,
556,,307680,HierDyhe38tr2j,ia7fo1pdr4,ms1000254,motor,,83,img/motor_2.png,83,motor,2,99,1,0,0,,
null,,307791,HierDyhe38tr2j,ia7fo1pdr4,ms1000254,iti,,null,img/motor_2.png,83,motor,,,,,,,
386,,308186,HierDyhe38tr2j,ia7fo1pdr4,ms1000254,motor,,74,img/motor_6.png,74,motor,6,100,1,0,0,,
null,,308297,HierDyhe38tr2j,ia7fo1pdr4,ms1000254,iti,,null,img/motor_6.png,74,motor,,,,,,,
334,,308643,HierDyhe38tr2j,ia7fo1pdr4,ms1000254,motor,,74,img/motor_6.png,74,motor,6,101,1,0,0,,
null,,308753,HierDyhe38tr2j,ia7fo1pdr4,ms1000254,iti,,null,img/motor_6.png,74,motor,,,,,,,
355,,309120,HierDyhe38tr2j,ia7fo1pdr4,ms1000254,motor,,76,img/motor_8.png,76,motor,8,102,1,0,0,,
null,,309232,HierDyhe38tr2j,ia7fo1pdr4,ms1000254,iti,,null,img/motor_8.png,76,motor,,,,,,,
502,,309744,HierDyhe38tr2j,ia7fo1pdr4,ms1000254,motor,,70,img/motor_3.png,68,motor,3,103,0,1,0,,
390,,310145,HierDyhe38tr2j,ia7fo1pdr4,ms1000254,motorRepeat,,68,img/motor_3.png,68,motor,3,103,1,0,0,,
null,,310256,HierDyhe38tr2j,ia7fo1pdr4,ms1000254,iti,,null,img/motor_3.png,68,motor,,,,,,,
406,,310671,HierDyhe38tr2j,ia7fo1pdr4,ms1000254,motor,,76,img/motor_8.png,76,motor,8,104,1,0,0,,
null,,310783,HierDyhe38tr2j,ia7fo1pdr4,ms1000254,iti,,null,img/motor_8.png,76,motor,,,,,,,
516,,311310,HierDyhe38tr2j,ia7fo1pdr4,ms1000254,motor,,68,img/motor_2.png,83,motor,2,105,0,1,0,,
676,,311996,HierDyhe38tr2j,ia7fo1pdr4,ms1000254,motorRepeat,,83,img/motor_2.png,83,motor,2,105,1,0,0,,
null,,312108,HierDyhe38tr2j,ia7fo1pdr4,ms1000254,iti,,null,img/motor_2.png,83,motor,,,,,,,
457,,312574,HierDyhe38tr2j,ia7fo1pdr4,ms1000254,motor,,68,img/motor_3.png,68,motor,3,106,1,0,0,,
null,,312684,HierDyhe38tr2j,ia7fo1pdr4,ms1000254,iti,,null,img/motor_3.png,68,motor,,,,,,,
407,,313102,HierDyhe38tr2j,ia7fo1pdr4,ms1000254,motor,,72,img/motor_5.png,72,motor,5,107,1,0,0,,
null,,313213,HierDyhe38tr2j,ia7fo1pdr4,ms1000254,iti,,null,img/motor_5.png,72,motor,,,,,,,
408,,313631,HierDyhe38tr2j,ia7fo1pdr4,ms1000254,motor,,83,img/motor_1.png,65,motor,1,108,0,1,0,,
121,,313763,HierDyhe38tr2j,ia7fo1pdr4,ms1000254,motorRepeat,,65,img/motor_1.png,65,motor,1,108,1,0,0,,
null,,313874,HierDyhe38tr2j,ia7fo1pdr4,ms1000254,iti,,null,img/motor_1.png,65,motor,,,,,,,
494,,314377,HierDyhe38tr2j,ia7fo1pdr4,ms1000254,motor,,75,img/motor_7.png,75,motor,7,109,1,0,0,,
null,,314488,HierDyhe38tr2j,ia7fo1pdr4,ms1000254,iti,,null,img/motor_7.png,75,motor,,,,,,,
549,,315047,HierDyhe38tr2j,ia7fo1pdr4,ms1000254,motor,,70,img/motor_4.png,70,motor,4,110,1,0,0,,
null,,315159,HierDyhe38tr2j,ia7fo1pdr4,ms1000254,iti,,null,img/motor_4.png,70,motor,,,,,,,
572,,315741,HierDyhe38tr2j,ia7fo1pdr4,ms1000254,motor,,75,img/motor_7.png,75,motor,7,111,1,0,0,,
null,,315852,HierDyhe38tr2j,ia7fo1pdr4,ms1000254,iti,,null,img/motor_7.png,75,motor,,,,,,,
387,,316250,HierDyhe38tr2j,ia7fo1pdr4,ms1000254,motor,,75,img/motor_7.png,75,motor,7,112,1,0,0,,
null,,316361,HierDyhe38tr2j,ia7fo1pdr4,ms1000254,iti,,null,img/motor_7.png,75,motor,,,,,,,
435,,316806,HierDyhe38tr2j,ia7fo1pdr4,ms1000254,motor,,65,img/motor_1.png,65,motor,1,113,1,0,0,,
null,,316917,HierDyhe38tr2j,ia7fo1pdr4,ms1000254,iti,,null,img/motor_1.png,65,motor,,,,,,,
396,,317324,HierDyhe38tr2j,ia7fo1pdr4,ms1000254,motor,,70,img/motor_4.png,70,motor,4,114,1,0,0,,
null,,317434,HierDyhe38tr2j,ia7fo1pdr4,ms1000254,iti,,null,img/motor_4.png,70,motor,,,,,,,
391,,317835,HierDyhe38tr2j,ia7fo1pdr4,ms1000254,motor,,75,img/motor_8.png,76,motor,8,115,0,1,0,,
134,,317980,HierDyhe38tr2j,ia7fo1pdr4,ms1000254,motorRepeat,,76,img/motor_8.png,76,motor,8,115,1,0,0,,
null,,318090,HierDyhe38tr2j,ia7fo1pdr4,ms1000254,iti,,null,img/motor_8.png,76,motor,,,,,,,
534,,318634,HierDyhe38tr2j,ia7fo1pdr4,ms1000254,motor,,68,img/motor_3.png,68,motor,3,116,1,0,0,,
null,,318744,HierDyhe38tr2j,ia7fo1pdr4,ms1000254,iti,,null,img/motor_3.png,68,motor,,,,,,,
404,,319160,HierDyhe38tr2j,ia7fo1pdr4,ms1000254,motor,,83,img/motor_2.png,83,motor,2,117,1,0,0,,
null,,319271,HierDyhe38tr2j,ia7fo1pdr4,ms1000254,iti,,null,img/motor_2.png,83,motor,,,,,,,
362,,319642,HierDyhe38tr2j,ia7fo1pdr4,ms1000254,motor,,83,img/motor_2.png,83,motor,2,118,1,0,0,,
null,,319753,HierDyhe38tr2j,ia7fo1pdr4,ms1000254,iti,,null,img/motor_2.png,83,motor,,,,,,,
466,,320230,HierDyhe38tr2j,ia7fo1pdr4,ms1000254,motor,,70,img/motor_4.png,70,motor,4,119,1,0,0,,
null,,320342,HierDyhe38tr2j,ia7fo1pdr4,ms1000254,iti,,null,img/motor_4.png,70,motor,,,,,,,
373,,320730,HierDyhe38tr2j,ia7fo1pdr4,ms1000254,motor,,68,img/motor_3.png,68,motor,3,120,1,0,0,,
null,,320842,HierDyhe38tr2j,ia7fo1pdr4,ms1000254,iti,,null,img/motor_3.png,68,motor,,,,,,,
375,,321229,HierDyhe38tr2j,ia7fo1pdr4,ms1000254,motor,,70,img/motor_4.png,70,motor,4,121,1,0,0,,
null,,321340,HierDyhe38tr2j,ia7fo1pdr4,ms1000254,iti,,null,img/motor_4.png,70,motor,,,,,,,
401,,321752,HierDyhe38tr2j,ia7fo1pdr4,ms1000254,motor,,65,img/motor_1.png,65,motor,1,122,1,0,0,,
null,,321864,HierDyhe38tr2j,ia7fo1pdr4,ms1000254,iti,,null,img/motor_1.png,65,motor,,,,,,,
379,,322252,HierDyhe38tr2j,ia7fo1pdr4,ms1000254,motor,,76,img/motor_8.png,76,motor,8,123,1,0,0,,
null,,322363,HierDyhe38tr2j,ia7fo1pdr4,ms1000254,iti,,null,img/motor_8.png,76,motor,,,,,,,
405,,322780,HierDyhe38tr2j,ia7fo1pdr4,ms1000254,motor,,65,img/motor_1.png,65,motor,1,124,1,0,0,,
null,,322890,HierDyhe38tr2j,ia7fo1pdr4,ms1000254,iti,,null,img/motor_1.png,65,motor,,,,,,,
727,,323628,HierDyhe38tr2j,ia7fo1pdr4,ms1000254,motor,,74,img/motor_6.png,74,motor,6,125,1,0,0,,
null,,323739,HierDyhe38tr2j,ia7fo1pdr4,ms1000254,iti,,null,img/motor_6.png,74,motor,,,,,,,
415,,324165,HierDyhe38tr2j,ia7fo1pdr4,ms1000254,motor,,70,img/motor_4.png,70,motor,4,126,1,0,0,,
null,,324277,HierDyhe38tr2j,ia7fo1pdr4,ms1000254,iti,,null,img/motor_4.png,70,motor,,,,,,,
405,,324694,HierDyhe38tr2j,ia7fo1pdr4,ms1000254,motor,,76,img/motor_8.png,76,motor,8,127,1,0,0,,
null,,324806,HierDyhe38tr2j,ia7fo1pdr4,ms1000254,iti,,null,img/motor_8.png,76,motor,,,,,,,
373,,325190,HierDyhe38tr2j,ia7fo1pdr4,ms1000254,motor,,68,img/motor_3.png,68,motor,3,128,1,0,0,,
null,,325301,HierDyhe38tr2j,ia7fo1pdr4,ms1000254,iti,,null,img/motor_3.png,68,motor,,,,,,,
18,,325329,HierDyhe38tr2j,ia7fo1pdr4,ms1000254,motor,,70,img/motor_2.png,83,motor,2,129,0,1,0,,
427,,325767,HierDyhe38tr2j,ia7fo1pdr4,ms1000254,motorRepeat,,83,img/motor_2.png,83,motor,2,129,1,0,0,,
null,,325878,HierDyhe38tr2j,ia7fo1pdr4,ms1000254,iti,,null,img/motor_2.png,83,motor,,,,,,,
439,,326328,HierDyhe38tr2j,ia7fo1pdr4,ms1000254,motor,,72,img/motor_5.png,72,motor,5,130,1,0,0,,
null,,326439,HierDyhe38tr2j,ia7fo1pdr4,ms1000254,iti,,null,img/motor_5.png,72,motor,,,,,,,
324,,326775,HierDyhe38tr2j,ia7fo1pdr4,ms1000254,motor,,74,img/motor_7.png,75,motor,7,131,0,1,0,,
121,,326906,HierDyhe38tr2j,ia7fo1pdr4,ms1000254,motorRepeat,,75,img/motor_7.png,75,motor,7,131,1,0,0,,
null,,327018,HierDyhe38tr2j,ia7fo1pdr4,ms1000254,iti,,null,img/motor_7.png,75,motor,,,,,,,
305,,327334,HierDyhe38tr2j,ia7fo1pdr4,ms1000254,motor,,74,img/motor_6.png,74,motor,6,132,1,0,0,,
null,,327446,HierDyhe38tr2j,ia7fo1pdr4,ms1000254,iti,,null,img/motor_6.png,74,motor,,,,,,,
414,,327870,HierDyhe38tr2j,ia7fo1pdr4,ms1000254,motor,,65,img/motor_1.png,65,motor,1,133,1,0,0,,
null,,327982,HierDyhe38tr2j,ia7fo1pdr4,ms1000254,iti,,null,img/motor_1.png,65,motor,,,,,,,
457,,328449,HierDyhe38tr2j,ia7fo1pdr4,ms1000254,motor,,75,img/motor_6.png,74,motor,6,134,0,1,0,,
168,,328627,HierDyhe38tr2j,ia7fo1pdr4,ms1000254,motorRepeat,,74,img/motor_6.png,74,motor,6,134,1,0,0,,
null,,328738,HierDyhe38tr2j,ia7fo1pdr4,ms1000254,iti,,null,img/motor_6.png,74,motor,,,,,,,
375,,329124,HierDyhe38tr2j,ia7fo1pdr4,ms1000254,motor,,70,img/motor_3.png,68,motor,3,135,0,1,0,,
481,,329615,HierDyhe38tr2j,ia7fo1pdr4,ms1000254,motorRepeat,,68,img/motor_3.png,68,motor,3,135,1,0,0,,
null,,329725,HierDyhe38tr2j,ia7fo1pdr4,ms1000254,iti,,null,img/motor_3.png,68,motor,,,,,,,
307,,330043,HierDyhe38tr2j,ia7fo1pdr4,ms1000254,motor,,68,img/motor_3.png,68,motor,3,136,1,0,0,,
null,,330154,HierDyhe38tr2j,ia7fo1pdr4,ms1000254,iti,,null,img/motor_3.png,68,motor,,,,,,,
305,,330470,HierDyhe38tr2j,ia7fo1pdr4,ms1000254,motor,,74,img/motor_5.png,72,motor,5,137,0,1,0,,
236,,330717,HierDyhe38tr2j,ia7fo1pdr4,ms1000254,motorRepeat,,72,img/motor_5.png,72,motor,5,137,1,0,0,,
null,,330828,HierDyhe38tr2j,ia7fo1pdr4,ms1000254,iti,,null,img/motor_5.png,72,motor,,,,,,,
619,,331458,HierDyhe38tr2j,ia7fo1pdr4,ms1000254,motor,,68,img/motor_3.png,68,motor,3,138,1,0,0,,
null,,331570,HierDyhe38tr2j,ia7fo1pdr4,ms1000254,iti,,null,img/motor_3.png,68,motor,,,,,,,
328,,331907,HierDyhe38tr2j,ia7fo1pdr4,ms1000254,motor,,68,img/motor_2.png,83,motor,2,139,0,1,0,,
106,,332023,HierDyhe38tr2j,ia7fo1pdr4,ms1000254,motorRepeat,,83,img/motor_2.png,83,motor,2,139,1,0,0,,
null,,332135,HierDyhe38tr2j,ia7fo1pdr4,ms1000254,iti,,null,img/motor_2.png,83,motor,,,,,,,
352,,332498,HierDyhe38tr2j,ia7fo1pdr4,ms1000254,motor,,68,img/motor_3.png,68,motor,3,140,1,0,0,,
null,,332611,HierDyhe38tr2j,ia7fo1pdr4,ms1000254,iti,,null,img/motor_3.png,68,motor,,,,,,,
329,,332949,HierDyhe38tr2j,ia7fo1pdr4,ms1000254,motor,,68,img/motor_3.png,68,motor,3,141,1,0,0,,
null,,333061,HierDyhe38tr2j,ia7fo1pdr4,ms1000254,iti,,null,img/motor_3.png,68,motor,,,,,,,
340,,333411,HierDyhe38tr2j,ia7fo1pdr4,ms1000254,motor,,68,img/motor_4.png,70,motor,4,142,0,1,0,,
62,,333483,HierDyhe38tr2j,ia7fo1pdr4,ms1000254,motorRepeat,,70,img/motor_4.png,70,motor,4,142,1,0,0,,
null,,333594,HierDyhe38tr2j,ia7fo1pdr4,ms1000254,iti,,null,img/motor_4.png,70,motor,,,,,,,
476,,334079,HierDyhe38tr2j,ia7fo1pdr4,ms1000254,motor,,83,img/motor_2.png,83,motor,2,143,1,0,0,,
null,,334190,HierDyhe38tr2j,ia7fo1pdr4,ms1000254,iti,,null,img/motor_2.png,83,motor,,,,,,,
324,,334526,HierDyhe38tr2j,ia7fo1pdr4,ms1000254,motor,,70,img/motor_4.png,70,motor,4,144,1,0,0,,
null,,334637,HierDyhe38tr2j,ia7fo1pdr4,ms1000254,iti,,null,img/motor_4.png,70,motor,,,,,,,
537,,335184,HierDyhe38tr2j,ia7fo1pdr4,ms1000254,motor,,75,img/motor_7.png,75,motor,7,145,1,0,0,,
null,,335296,HierDyhe38tr2j,ia7fo1pdr4,ms1000254,iti,,null,img/motor_7.png,75,motor,,,,,,,
459,,335766,HierDyhe38tr2j,ia7fo1pdr4,ms1000254,motor,,65,img/motor_2.png,83,motor,2,146,0,1,0,,
386,,336162,HierDyhe38tr2j,ia7fo1pdr4,ms1000254,motorRepeat,,83,img/motor_2.png,83,motor,2,146,1,0,0,,
null,,336274,HierDyhe38tr2j,ia7fo1pdr4,ms1000254,iti,,null,img/motor_2.png,83,motor,,,,,,,
443,,336727,HierDyhe38tr2j,ia7fo1pdr4,ms1000254,motor,,76,img/motor_8.png,76,motor,8,147,1,0,0,,
null,,336839,HierDyhe38tr2j,ia7fo1pdr4,ms1000254,iti,,null,img/motor_8.png,76,motor,,,,,,,
373,,337222,HierDyhe38tr2j,ia7fo1pdr4,ms1000254,motor,,74,img/motor_6.png,74,motor,6,148,1,0,0,,
null,,337335,HierDyhe38tr2j,ia7fo1pdr4,ms1000254,iti,,null,img/motor_6.png,74,motor,,,,,,,
346,,337690,HierDyhe38tr2j,ia7fo1pdr4,ms1000254,motor,,76,img/motor_8.png,76,motor,8,149,1,0,0,,
null,,337802,HierDyhe38tr2j,ia7fo1pdr4,ms1000254,iti,,null,img/motor_8.png,76,motor,,,,,,,
370,,338183,HierDyhe38tr2j,ia7fo1pdr4,ms1000254,motor,,74,img/motor_7.png,75,motor,7,150,0,1,0,,
173,,338367,HierDyhe38tr2j,ia7fo1pdr4,ms1000254,motorRepeat,,75,img/motor_7.png,75,motor,7,150,1,0,0,,
null,,338479,HierDyhe38tr2j,ia7fo1pdr4,ms1000254,iti,,null,img/motor_7.png,75,motor,,,,,,,
369,,338860,HierDyhe38tr2j,ia7fo1pdr4,ms1000254,motor,,76,img/motor_8.png,76,motor,8,151,1,0,0,,
null,,338971,HierDyhe38tr2j,ia7fo1pdr4,ms1000254,iti,,null,img/motor_8.png,76,motor,,,,,,,
454,,339436,HierDyhe38tr2j,ia7fo1pdr4,ms1000254,motor,,65,img/motor_1.png,65,motor,1,152,1,0,0,,
null,,339547,HierDyhe38tr2j,ia7fo1pdr4,ms1000254,iti,,null,img/motor_1.png,65,motor,,,,,,,
380,,339938,HierDyhe38tr2j,ia7fo1pdr4,ms1000254,motor,,76,img/motor_8.png,76,motor,8,153,1,0,0,,
null,,340049,HierDyhe38tr2j,ia7fo1pdr4,ms1000254,iti,,null,img/motor_8.png,76,motor,,,,,,,
642,,340701,HierDyhe38tr2j,ia7fo1pdr4,ms1000254,motor,,68,img/motor_2.png,83,motor,2,154,0,1,0,,
200,,340912,HierDyhe38tr2j,ia7fo1pdr4,ms1000254,motorRepeat,,83,img/motor_2.png,83,motor,2,154,1,0,0,,
null,,341023,HierDyhe38tr2j,ia7fo1pdr4,ms1000254,iti,,null,img/motor_2.png,83,motor,,,,,,,
531,,341565,HierDyhe38tr2j,ia7fo1pdr4,ms1000254,motor,,74,img/motor_6.png,74,motor,6,155,1,0,0,,
null,,341676,HierDyhe38tr2j,ia7fo1pdr4,ms1000254,iti,,null,img/motor_6.png,74,motor,,,,,,,
490,,342178,HierDyhe38tr2j,ia7fo1pdr4,ms1000254,motor,,83,img/motor_2.png,83,motor,2,156,1,0,0,,
null,,342289,HierDyhe38tr2j,ia7fo1pdr4,ms1000254,iti,,null,img/motor_2.png,83,motor,,,,,,,
375,,342674,HierDyhe38tr2j,ia7fo1pdr4,ms1000254,motor,,76,img/motor_7.png,75,motor,7,157,0,1,0,,
129,,342814,HierDyhe38tr2j,ia7fo1pdr4,ms1000254,motorRepeat,,74,img/motor_7.png,75,motor,7,157,0,1,0,,
46,,342870,HierDyhe38tr2j,ia7fo1pdr4,ms1000254,motorRepeat,,75,img/motor_7.png,75,motor,7,157,1,0,0,,
null,,342982,HierDyhe38tr2j,ia7fo1pdr4,ms1000254,iti,,null,img/motor_7.png,75,motor,,,,,,,
367,,343357,HierDyhe38tr2j,ia7fo1pdr4,ms1000254,motor,,83,img/motor_2.png,83,motor,2,158,1,0,0,,
null,,343469,HierDyhe38tr2j,ia7fo1pdr4,ms1000254,iti,,null,img/motor_2.png,83,motor,,,,,,,
364,,343843,HierDyhe38tr2j,ia7fo1pdr4,ms1000254,motor,,68,img/motor_3.png,68,motor,3,159,1,0,0,,
null,,343954,HierDyhe38tr2j,ia7fo1pdr4,ms1000254,iti,,null,img/motor_3.png,68,motor,,,,,,,
427,,344392,HierDyhe38tr2j,ia7fo1pdr4,ms1000254,motor,,72,img/motor_5.png,72,motor,5,160,1,0,0,,
null,,344503,HierDyhe38tr2j,ia7fo1pdr4,ms1000254,iti,,null,img/motor_5.png,72,motor,,,,,,,
395,,344909,HierDyhe38tr2j,ia7fo1pdr4,ms1000254,motor,,83,img/motor_2.png,83,motor,2,161,1,0,0,,
null,,345020,HierDyhe38tr2j,ia7fo1pdr4,ms1000254,iti,,null,img/motor_2.png,83,motor,,,,,,,
329,,345360,HierDyhe38tr2j,ia7fo1pdr4,ms1000254,motor,,83,img/motor_3.png,68,motor,3,162,0,1,0,,
147,,345517,HierDyhe38tr2j,ia7fo1pdr4,ms1000254,motorRepeat,,68,img/motor_3.png,68,motor,3,162,1,0,0,,
null,,345628,HierDyhe38tr2j,ia7fo1pdr4,ms1000254,iti,,null,img/motor_3.png,68,motor,,,,,,,
384,,346022,HierDyhe38tr2j,ia7fo1pdr4,ms1000254,motor,,74,img/motor_6.png,74,motor,6,163,1,0,0,,
null,,346134,HierDyhe38tr2j,ia7fo1pdr4,ms1000254,iti,,null,img/motor_6.png,74,motor,,,,,,,
380,,346524,HierDyhe38tr2j,ia7fo1pdr4,ms1000254,motor,,72,img/motor_5.png,72,motor,5,164,1,0,0,,
null,,346636,HierDyhe38tr2j,ia7fo1pdr4,ms1000254,iti,,null,img/motor_5.png,72,motor,,,,,,,
430,,347077,HierDyhe38tr2j,ia7fo1pdr4,ms1000254,motor,,65,img/motor_1.png,65,motor,1,165,1,0,0,,
null,,347189,HierDyhe38tr2j,ia7fo1pdr4,ms1000254,iti,,null,img/motor_1.png,65,motor,,,,,,,
496,,347695,HierDyhe38tr2j,ia7fo1pdr4,ms1000254,motor,,68,img/motor_3.png,68,motor,3,166,1,0,0,,
null,,347806,HierDyhe38tr2j,ia7fo1pdr4,ms1000254,iti,,null,img/motor_3.png,68,motor,,,,,,,
300,,348117,HierDyhe38tr2j,ia7fo1pdr4,ms1000254,motor,,83,img/motor_2.png,83,motor,2,167,1,0,0,,
null,,348227,HierDyhe38tr2j,ia7fo1pdr4,ms1000254,iti,,null,img/motor_2.png,83,motor,,,,,,,
339,,348578,HierDyhe38tr2j,ia7fo1pdr4,ms1000254,motor,,65,img/motor_1.png,65,motor,1,168,1,0,0,,
null,,348691,HierDyhe38tr2j,ia7fo1pdr4,ms1000254,iti,,null,img/motor_1.png,65,motor,,,,,,,
342,,349043,HierDyhe38tr2j,ia7fo1pdr4,ms1000254,motor,,70,img/motor_4.png,70,motor,4,169,1,0,0,,
null,,349155,HierDyhe38tr2j,ia7fo1pdr4,ms1000254,iti,,null,img/motor_4.png,70,motor,,,,,,,
427,,349593,HierDyhe38tr2j,ia7fo1pdr4,ms1000254,motor,,72,img/motor_5.png,72,motor,5,170,1,0,0,,
null,,349706,HierDyhe38tr2j,ia7fo1pdr4,ms1000254,iti,,null,img/motor_5.png,72,motor,,,,,,,
328,,350044,HierDyhe38tr2j,ia7fo1pdr4,ms1000254,motor,,74,img/motor_6.png,74,motor,6,171,1,0,0,,
null,,350155,HierDyhe38tr2j,ia7fo1pdr4,ms1000254,iti,,null,img/motor_6.png,74,motor,,,,,,,
421,,350586,HierDyhe38tr2j,ia7fo1pdr4,ms1000254,motor,,76,img/motor_8.png,76,motor,8,172,1,0,0,,
null,,350698,HierDyhe38tr2j,ia7fo1pdr4,ms1000254,iti,,null,img/motor_8.png,76,motor,,,,,,,
460,,351170,HierDyhe38tr2j,ia7fo1pdr4,ms1000254,motor,,83,img/motor_2.png,83,motor,2,173,1,0,0,,
null,,351281,HierDyhe38tr2j,ia7fo1pdr4,ms1000254,iti,,null,img/motor_2.png,83,motor,,,,,,,
527,,351820,HierDyhe38tr2j,ia7fo1pdr4,ms1000254,motor,,72,img/motor_6.png,74,motor,6,174,0,1,0,,
90,,351921,HierDyhe38tr2j,ia7fo1pdr4,ms1000254,motorRepeat,,74,img/motor_6.png,74,motor,6,174,1,0,0,,
null,,352033,HierDyhe38tr2j,ia7fo1pdr4,ms1000254,iti,,null,img/motor_6.png,74,motor,,,,,,,
344,,352387,HierDyhe38tr2j,ia7fo1pdr4,ms1000254,motor,,75,img/motor_7.png,75,motor,7,175,1,0,0,,
null,,352499,HierDyhe38tr2j,ia7fo1pdr4,ms1000254,iti,,null,img/motor_7.png,75,motor,,,,,,,
495,,353006,HierDyhe38tr2j,ia7fo1pdr4,ms1000254,motor,,70,img/motor_4.png,70,motor,4,176,1,0,0,,
null,,353117,HierDyhe38tr2j,ia7fo1pdr4,ms1000254,iti,,null,img/motor_4.png,70,motor,,,,,,,
401,,353527,HierDyhe38tr2j,ia7fo1pdr4,ms1000254,motor,,75,img/motor_6.png,74,motor,6,177,0,1,0,,
139,,353678,HierDyhe38tr2j,ia7fo1pdr4,ms1000254,motorRepeat,,74,img/motor_6.png,74,motor,6,177,1,0,0,,
null,,353788,HierDyhe38tr2j,ia7fo1pdr4,ms1000254,iti,,null,img/motor_6.png,74,motor,,,,,,,
498,,354296,HierDyhe38tr2j,ia7fo1pdr4,ms1000254,motor,,72,img/motor_5.png,72,motor,5,178,1,0,0,,
null,,354407,HierDyhe38tr2j,ia7fo1pdr4,ms1000254,iti,,null,img/motor_5.png,72,motor,,,,,,,
505,,354922,HierDyhe38tr2j,ia7fo1pdr4,ms1000254,motor,,70,img/motor_4.png,70,motor,4,179,1,0,0,,
null,,355034,HierDyhe38tr2j,ia7fo1pdr4,ms1000254,iti,,null,img/motor_4.png,70,motor,,,,,,,
532,,355576,HierDyhe38tr2j,ia7fo1pdr4,ms1000254,motor,,75,img/motor_7.png,75,motor,7,180,1,0,0,,
null,,355688,HierDyhe38tr2j,ia7fo1pdr4,ms1000254,iti,,null,img/motor_7.png,75,motor,,,,,,,
385,,356082,HierDyhe38tr2j,ia7fo1pdr4,ms1000254,motor,,74,img/motor_6.png,74,motor,6,181,1,0,0,,
null,,356194,HierDyhe38tr2j,ia7fo1pdr4,ms1000254,iti,,null,img/motor_6.png,74,motor,,,,,,,
430,,356635,HierDyhe38tr2j,ia7fo1pdr4,ms1000254,motor,,65,img/motor_1.png,65,motor,1,182,1,0,0,,
null,,356746,HierDyhe38tr2j,ia7fo1pdr4,ms1000254,iti,,null,img/motor_1.png,65,motor,,,,,,,
381,,357138,HierDyhe38tr2j,ia7fo1pdr4,ms1000254,motor,,68,img/motor_3.png,68,motor,3,183,1,0,0,,
null,,357249,HierDyhe38tr2j,ia7fo1pdr4,ms1000254,iti,,null,img/motor_3.png,68,motor,,,,,,,
329,,357588,HierDyhe38tr2j,ia7fo1pdr4,ms1000254,motor,,83,img/motor_2.png,83,motor,2,184,1,0,0,,
null,,357700,HierDyhe38tr2j,ia7fo1pdr4,ms1000254,iti,,null,img/motor_2.png,83,motor,,,,,,,
339,,358051,HierDyhe38tr2j,ia7fo1pdr4,ms1000254,motor,,83,img/motor_2.png,83,motor,2,185,1,0,0,,
null,,358163,HierDyhe38tr2j,ia7fo1pdr4,ms1000254,iti,,null,img/motor_2.png,83,motor,,,,,,,
400,,358573,HierDyhe38tr2j,ia7fo1pdr4,ms1000254,motor,,74,img/motor_5.png,72,motor,5,186,0,1,0,,
124,,358707,HierDyhe38tr2j,ia7fo1pdr4,ms1000254,motorRepeat,,72,img/motor_5.png,72,motor,5,186,1,0,0,,
null,,358819,HierDyhe38tr2j,ia7fo1pdr4,ms1000254,iti,,null,img/motor_5.png,72,motor,,,,,,,
322,,359153,HierDyhe38tr2j,ia7fo1pdr4,ms1000254,motor,,75,img/motor_8.png,76,motor,8,187,0,1,0,,
78,,359242,HierDyhe38tr2j,ia7fo1pdr4,ms1000254,motorRepeat,,76,img/motor_8.png,76,motor,8,187,1,0,0,,
null,,359353,HierDyhe38tr2j,ia7fo1pdr4,ms1000254,iti,,null,img/motor_8.png,76,motor,,,,,,,
423,,359787,HierDyhe38tr2j,ia7fo1pdr4,ms1000254,motor,,68,img/motor_3.png,68,motor,3,188,1,0,0,,
null,,359898,HierDyhe38tr2j,ia7fo1pdr4,ms1000254,iti,,null,img/motor_3.png,68,motor,,,,,,,
376,,360285,HierDyhe38tr2j,ia7fo1pdr4,ms1000254,motor,,70,img/motor_4.png,70,motor,4,189,1,0,0,,
null,,360396,HierDyhe38tr2j,ia7fo1pdr4,ms1000254,iti,,null,img/motor_4.png,70,motor,,,,,,,
350,,360757,HierDyhe38tr2j,ia7fo1pdr4,ms1000254,motor,,70,img/motor_4.png,70,motor,4,190,1,0,0,,
null,,360868,HierDyhe38tr2j,ia7fo1pdr4,ms1000254,iti,,null,img/motor_4.png,70,motor,,,,,,,
350,,361228,HierDyhe38tr2j,ia7fo1pdr4,ms1000254,motor,,75,img/motor_8.png,76,motor,8,191,0,1,0,,
135,,361374,HierDyhe38tr2j,ia7fo1pdr4,ms1000254,motorRepeat,,76,img/motor_8.png,76,motor,8,191,1,0,0,,
null,,361486,HierDyhe38tr2j,ia7fo1pdr4,ms1000254,iti,,null,img/motor_8.png,76,motor,,,,,,,
335,,361832,HierDyhe38tr2j,ia7fo1pdr4,ms1000254,motor,,74,img/motor_6.png,74,motor,6,192,1,0,0,,
40,,361943,HierDyhe38tr2j,ia7fo1pdr4,ms1000254,iti,,75,img/motor_6.png,74,motor,,,,,,,
22,,361976,HierDyhe38tr2j,ia7fo1pdr4,ms1000254,motor,,74,img/motor_5.png,72,motor,5,193,0,1,0,,
390,,362376,HierDyhe38tr2j,ia7fo1pdr4,ms1000254,motorRepeat,,72,img/motor_5.png,72,motor,5,193,1,0,0,,
null,,362487,HierDyhe38tr2j,ia7fo1pdr4,ms1000254,iti,,null,img/motor_5.png,72,motor,,,,,,,
296,,362794,HierDyhe38tr2j,ia7fo1pdr4,ms1000254,motor,,74,img/motor_6.png,74,motor,6,194,1,0,0,,
null,,362905,HierDyhe38tr2j,ia7fo1pdr4,ms1000254,iti,,null,img/motor_6.png,74,motor,,,,,,,
460,,363378,HierDyhe38tr2j,ia7fo1pdr4,ms1000254,motor,,76,img/motor_8.png,76,motor,8,195,1,0,0,,
null,,363489,HierDyhe38tr2j,ia7fo1pdr4,ms1000254,iti,,null,img/motor_8.png,76,motor,,,,,,,
369,,363869,HierDyhe38tr2j,ia7fo1pdr4,ms1000254,motor,,70,img/motor_4.png,70,motor,4,196,1,0,0,,
null,,363981,HierDyhe38tr2j,ia7fo1pdr4,ms1000254,iti,,null,img/motor_4.png,70,motor,,,,,,,
389,,364381,HierDyhe38tr2j,ia7fo1pdr4,ms1000254,motor,,68,img/motor_3.png,68,motor,3,197,1,0,0,,
null,,364492,HierDyhe38tr2j,ia7fo1pdr4,ms1000254,iti,,null,img/motor_3.png,68,motor,,,,,,,
481,,364983,HierDyhe38tr2j,ia7fo1pdr4,ms1000254,motor,,72,img/motor_5.png,72,motor,5,198,1,0,0,,
null,,365095,HierDyhe38tr2j,ia7fo1pdr4,ms1000254,iti,,null,img/motor_5.png,72,motor,,,,,,,
458,,365563,HierDyhe38tr2j,ia7fo1pdr4,ms1000254,motor,,83,img/motor_2.png,83,motor,2,199,1,0,0,,
null,,365675,HierDyhe38tr2j,ia7fo1pdr4,ms1000254,iti,,null,img/motor_2.png,83,motor,,,,,,,
326,,366013,HierDyhe38tr2j,ia7fo1pdr4,ms1000254,motor,,76,img/motor_7.png,75,motor,7,200,0,1,0,,
281,,366304,HierDyhe38tr2j,ia7fo1pdr4,ms1000254,motorRepeat,,74,img/motor_7.png,75,motor,7,200,0,1,0,,
59,,366373,HierDyhe38tr2j,ia7fo1pdr4,ms1000254,motorRepeat,,75,img/motor_7.png,75,motor,7,200,1,0,0,,
null,,366485,HierDyhe38tr2j,ia7fo1pdr4,ms1000254,iti,,null,img/motor_7.png,75,motor,,,,,,,
399,,366893,HierDyhe38tr2j,ia7fo1pdr4,ms1000254,motor,,65,img/motor_1.png,65,motor,1,201,1,0,0,,
null,,367005,HierDyhe38tr2j,ia7fo1pdr4,ms1000254,iti,,null,img/motor_1.png,65,motor,,,,,,,
393,,367411,HierDyhe38tr2j,ia7fo1pdr4,ms1000254,motor,,75,img/motor_7.png,75,motor,7,202,1,0,0,,
null,,367522,HierDyhe38tr2j,ia7fo1pdr4,ms1000254,iti,,null,img/motor_7.png,75,motor,,,,,,,
403,,367935,HierDyhe38tr2j,ia7fo1pdr4,ms1000254,motor,,76,img/motor_8.png,76,motor,8,203,1,0,0,,
null,,368047,HierDyhe38tr2j,ia7fo1pdr4,ms1000254,iti,,null,img/motor_8.png,76,motor,,,,,,,
485,,368542,HierDyhe38tr2j,ia7fo1pdr4,ms1000254,motor,,70,img/motor_4.png,70,motor,4,204,1,0,0,,
null,,368654,HierDyhe38tr2j,ia7fo1pdr4,ms1000254,iti,,null,img/motor_4.png,70,motor,,,,,,,
341,,369006,HierDyhe38tr2j,ia7fo1pdr4,ms1000254,motor,,76,img/motor_8.png,76,motor,8,205,1,0,0,,
null,,369118,HierDyhe38tr2j,ia7fo1pdr4,ms1000254,iti,,null,img/motor_8.png,76,motor,,,,,,,
392,,369521,HierDyhe38tr2j,ia7fo1pdr4,ms1000254,motor,,74,img/motor_7.png,75,motor,7,206,0,1,0,,
123,,369654,HierDyhe38tr2j,ia7fo1pdr4,ms1000254,motorRepeat,,75,img/motor_7.png,75,motor,7,206,1,0,0,,
null,,369766,HierDyhe38tr2j,ia7fo1pdr4,ms1000254,iti,,null,img/motor_7.png,75,motor,,,,,,,
393,,370169,HierDyhe38tr2j,ia7fo1pdr4,ms1000254,motor,,70,img/motor_4.png,70,motor,4,207,1,0,0,,
null,,370281,HierDyhe38tr2j,ia7fo1pdr4,ms1000254,iti,,null,img/motor_4.png,70,motor,,,,,,,
531,,370823,HierDyhe38tr2j,ia7fo1pdr4,ms1000254,motor,,74,img/motor_5.png,72,motor,5,208,0,1,0,,
155,,370988,HierDyhe38tr2j,ia7fo1pdr4,ms1000254,motorRepeat,,72,img/motor_5.png,72,motor,5,208,1,0,0,,
null,,371097,HierDyhe38tr2j,ia7fo1pdr4,ms1000254,iti,,null,img/motor_5.png,72,motor,,,,,,,
458,,371566,HierDyhe38tr2j,ia7fo1pdr4,ms1000254,motor,,70,img/motor_4.png,70,motor,4,209,1,0,0,,
null,,371678,HierDyhe38tr2j,ia7fo1pdr4,ms1000254,iti,,null,img/motor_4.png,70,motor,,,,,,,
403,,372093,HierDyhe38tr2j,ia7fo1pdr4,ms1000254,motor,,74,img/motor_7.png,75,motor,7,210,0,1,0,,
220,,372323,HierDyhe38tr2j,ia7fo1pdr4,ms1000254,motorRepeat,,75,img/motor_7.png,75,motor,7,210,1,0,0,,
null,,372434,HierDyhe38tr2j,ia7fo1pdr4,ms1000254,iti,,null,img/motor_7.png,75,motor,,,,,,,
605,,373051,HierDyhe38tr2j,ia7fo1pdr4,ms1000254,motor,,70,img/motor_3.png,68,motor,3,211,0,1,0,,
49,,373110,HierDyhe38tr2j,ia7fo1pdr4,ms1000254,motorRepeat,,68,img/motor_3.png,68,motor,3,211,1,0,0,,
null,,373224,HierDyhe38tr2j,ia7fo1pdr4,ms1000254,iti,,null,img/motor_3.png,68,motor,,,,,,,
447,,373682,HierDyhe38tr2j,ia7fo1pdr4,ms1000254,motor,,83,img/motor_2.png,83,motor,2,212,1,0,0,,
null,,373793,HierDyhe38tr2j,ia7fo1pdr4,ms1000254,iti,,null,img/motor_2.png,83,motor,,,,,,,
361,,374165,HierDyhe38tr2j,ia7fo1pdr4,ms1000254,motor,,76,img/motor_8.png,76,motor,8,213,1,0,0,,
null,,374277,HierDyhe38tr2j,ia7fo1pdr4,ms1000254,iti,,null,img/motor_8.png,76,motor,,,,,,,
349,,374635,HierDyhe38tr2j,ia7fo1pdr4,ms1000254,motor,,76,img/motor_8.png,76,motor,8,214,1,0,0,,
null,,374746,HierDyhe38tr2j,ia7fo1pdr4,ms1000254,iti,,null,img/motor_8.png,76,motor,,,,,,,
296,,375053,HierDyhe38tr2j,ia7fo1pdr4,ms1000254,motor,,74,img/motor_6.png,74,motor,6,215,1,0,0,,
null,,375164,HierDyhe38tr2j,ia7fo1pdr4,ms1000254,iti,,null,img/motor_6.png,74,motor,,,,,,,
396,,375570,HierDyhe38tr2j,ia7fo1pdr4,ms1000254,motor,,70,img/motor_4.png,70,motor,4,216,1,0,0,,
null,,375682,HierDyhe38tr2j,ia7fo1pdr4,ms1000254,iti,,null,img/motor_4.png,70,motor,,,,,,,
350,,376042,HierDyhe38tr2j,ia7fo1pdr4,ms1000254,motor,,70,img/motor_4.png,70,motor,4,217,1,0,0,,
null,,376153,HierDyhe38tr2j,ia7fo1pdr4,ms1000254,iti,,null,img/motor_4.png,70,motor,,,,,,,
344,,376508,HierDyhe38tr2j,ia7fo1pdr4,ms1000254,motor,,76,img/motor_8.png,76,motor,8,218,1,0,0,,
null,,376620,HierDyhe38tr2j,ia7fo1pdr4,ms1000254,iti,,null,img/motor_8.png,76,motor,,,,,,,
361,,376992,HierDyhe38tr2j,ia7fo1pdr4,ms1000254,motor,,76,img/motor_8.png,76,motor,8,219,1,0,0,,
null,,377102,HierDyhe38tr2j,ia7fo1pdr4,ms1000254,iti,,null,img/motor_8.png,76,motor,,,,,,,
529,,377642,HierDyhe38tr2j,ia7fo1pdr4,ms1000254,motor,,72,img/motor_5.png,72,motor,5,220,1,0,0,,
null,,377754,HierDyhe38tr2j,ia7fo1pdr4,ms1000254,iti,,null,img/motor_5.png,72,motor,,,,,,,
362,,378126,HierDyhe38tr2j,ia7fo1pdr4,ms1000254,motor,,72,img/motor_5.png,72,motor,5,221,1,0,0,,
null,,378238,HierDyhe38tr2j,ia7fo1pdr4,ms1000254,iti,,null,img/motor_5.png,72,motor,,,,,,,
499,,378749,HierDyhe38tr2j,ia7fo1pdr4,ms1000254,motor,,83,img/motor_2.png,83,motor,2,222,1,0,0,,
null,,378859,HierDyhe38tr2j,ia7fo1pdr4,ms1000254,iti,,null,img/motor_2.png,83,motor,,,,,,,
399,,379267,HierDyhe38tr2j,ia7fo1pdr4,ms1000254,motor,,83,img/motor_2.png,83,motor,2,223,1,0,0,,
null,,379378,HierDyhe38tr2j,ia7fo1pdr4,ms1000254,iti,,null,img/motor_2.png,83,motor,,,,,,,
369,,379759,HierDyhe38tr2j,ia7fo1pdr4,ms1000254,motor,,70,img/motor_4.png,70,motor,4,224,1,0,0,,
null,,379870,HierDyhe38tr2j,ia7fo1pdr4,ms1000254,iti,,null,img/motor_4.png,70,motor,,,,,,,
415,,380295,HierDyhe38tr2j,ia7fo1pdr4,ms1000254,motor,,74,img/motor_5.png,72,motor,5,225,0,1,0,,
119,,380425,HierDyhe38tr2j,ia7fo1pdr4,ms1000254,motorRepeat,,72,img/motor_5.png,72,motor,5,225,1,0,0,,
null,,380538,HierDyhe38tr2j,ia7fo1pdr4,ms1000254,iti,,null,img/motor_5.png,72,motor,,,,,,,
420,,380968,HierDyhe38tr2j,ia7fo1pdr4,ms1000254,motor,,70,img/motor_4.png,70,motor,4,226,1,0,0,,
null,,381081,HierDyhe38tr2j,ia7fo1pdr4,ms1000254,iti,,null,img/motor_4.png,70,motor,,,,,,,
384,,381475,HierDyhe38tr2j,ia7fo1pdr4,ms1000254,motor,,68,img/motor_3.png,68,motor,3,227,1,0,0,,
null,,381586,HierDyhe38tr2j,ia7fo1pdr4,ms1000254,iti,,null,img/motor_3.png,68,motor,,,,,,,
411,,382008,HierDyhe38tr2j,ia7fo1pdr4,ms1000254,motor,,76,img/motor_8.png,76,motor,8,228,1,0,0,,
null,,382119,HierDyhe38tr2j,ia7fo1pdr4,ms1000254,iti,,null,img/motor_8.png,76,motor,,,,,,,
388,,382517,HierDyhe38tr2j,ia7fo1pdr4,ms1000254,motor,,72,img/motor_5.png,72,motor,5,229,1,0,0,,
null,,382628,HierDyhe38tr2j,ia7fo1pdr4,ms1000254,iti,,null,img/motor_5.png,72,motor,,,,,,,
376,,383015,HierDyhe38tr2j,ia7fo1pdr4,ms1000254,motor,,70,img/motor_4.png,70,motor,4,230,1,0,0,,
null,,383126,HierDyhe38tr2j,ia7fo1pdr4,ms1000254,iti,,null,img/motor_4.png,70,motor,,,,,,,
497,,383633,HierDyhe38tr2j,ia7fo1pdr4,ms1000254,motor,,75,img/motor_7.png,75,motor,7,231,1,0,0,,
null,,383745,HierDyhe38tr2j,ia7fo1pdr4,ms1000254,iti,,null,img/motor_7.png,75,motor,,,,,,,
591,,384347,HierDyhe38tr2j,ia7fo1pdr4,ms1000254,motor,,83,img/motor_2.png,83,motor,2,232,1,0,0,,
null,,384458,HierDyhe38tr2j,ia7fo1pdr4,ms1000254,iti,,null,img/motor_2.png,83,motor,,,,,,,
514,,384986,HierDyhe38tr2j,ia7fo1pdr4,ms1000254,motor,,75,img/motor_7.png,75,motor,7,233,1,0,0,,
null,,385098,HierDyhe38tr2j,ia7fo1pdr4,ms1000254,iti,,null,img/motor_7.png,75,motor,,,,,,,
437,,385545,HierDyhe38tr2j,ia7fo1pdr4,ms1000254,motor,,70,img/motor_4.png,70,motor,4,234,1,0,0,,
null,,385657,HierDyhe38tr2j,ia7fo1pdr4,ms1000254,iti,,null,img/motor_4.png,70,motor,,,,,,,
394,,386062,HierDyhe38tr2j,ia7fo1pdr4,ms1000254,motor,,75,img/motor_8.png,76,motor,8,235,0,1,0,,
180,,386254,HierDyhe38tr2j,ia7fo1pdr4,ms1000254,motorRepeat,,76,img/motor_8.png,76,motor,8,235,1,0,0,,
null,,386366,HierDyhe38tr2j,ia7fo1pdr4,ms1000254,iti,,null,img/motor_8.png,76,motor,,,,,,,
364,,386740,HierDyhe38tr2j,ia7fo1pdr4,ms1000254,motor,,70,img/motor_3.png,68,motor,3,236,0,1,0,,
342,,387093,HierDyhe38tr2j,ia7fo1pdr4,ms1000254,motorRepeat,,68,img/motor_3.png,68,motor,3,236,1,0,0,,
null,,387204,HierDyhe38tr2j,ia7fo1pdr4,ms1000254,iti,,null,img/motor_3.png,68,motor,,,,,,,
485,,387699,HierDyhe38tr2j,ia7fo1pdr4,ms1000254,motor,,74,img/motor_6.png,74,motor,6,237,1,0,0,,
null,,387810,HierDyhe38tr2j,ia7fo1pdr4,ms1000254,iti,,null,img/motor_6.png,74,motor,,,,,,,
290,,388111,HierDyhe38tr2j,ia7fo1pdr4,ms1000254,motor,,74,img/motor_6.png,74,motor,6,238,1,0,0,,
null,,388223,HierDyhe38tr2j,ia7fo1pdr4,ms1000254,iti,,null,img/motor_6.png,74,motor,,,,,,,
456,,388689,HierDyhe38tr2j,ia7fo1pdr4,ms1000254,motor,,75,img/motor_7.png,75,motor,7,239,1,0,0,,
null,,388800,HierDyhe38tr2j,ia7fo1pdr4,ms1000254,iti,,null,img/motor_7.png,75,motor,,,,,,,
339,,389153,HierDyhe38tr2j,ia7fo1pdr4,ms1000254,motor,,74,img/motor_6.png,74,motor,6,240,1,0,0,,
null,,389266,HierDyhe38tr2j,ia7fo1pdr4,ms1000254,iti,,null,img/motor_6.png,74,motor,,,,,,,
481,,389758,HierDyhe38tr2j,ia7fo1pdr4,ms1000254,motor,,68,img/motor_3.png,68,motor,3,241,1,0,0,,
null,,389870,HierDyhe38tr2j,ia7fo1pdr4,ms1000254,iti,,null,img/motor_3.png,68,motor,,,,,,,
490,,390373,HierDyhe38tr2j,ia7fo1pdr4,ms1000254,motor,,75,img/motor_7.png,75,motor,7,242,1,0,0,,
null,,390486,HierDyhe38tr2j,ia7fo1pdr4,ms1000254,iti,,null,img/motor_7.png,75,motor,,,,,,,
441,,390937,HierDyhe38tr2j,ia7fo1pdr4,ms1000254,motor,,68,img/motor_3.png,68,motor,3,243,1,0,0,,
null,,391048,HierDyhe38tr2j,ia7fo1pdr4,ms1000254,iti,,null,img/motor_3.png,68,motor,,,,,,,
400,,391459,HierDyhe38tr2j,ia7fo1pdr4,ms1000254,motor,,75,img/motor_7.png,75,motor,7,244,1,0,0,,
null,,391570,HierDyhe38tr2j,ia7fo1pdr4,ms1000254,iti,,null,img/motor_7.png,75,motor,,,,,,,
511,,392093,HierDyhe38tr2j,ia7fo1pdr4,ms1000254,motor,,68,img/motor_4.png,70,motor,4,245,0,1,0,,
273,,392377,HierDyhe38tr2j,ia7fo1pdr4,ms1000254,motorRepeat,,70,img/motor_4.png,70,motor,4,245,1,0,0,,
null,,392488,HierDyhe38tr2j,ia7fo1pdr4,ms1000254,iti,,null,img/motor_4.png,70,motor,,,,,,,
461,,392959,HierDyhe38tr2j,ia7fo1pdr4,ms1000254,motor,,72,img/motor_5.png,72,motor,5,246,1,0,0,,
null,,393071,HierDyhe38tr2j,ia7fo1pdr4,ms1000254,iti,,null,img/motor_5.png,72,motor,,,,,,,
392,,393474,HierDyhe38tr2j,ia7fo1pdr4,ms1000254,motor,,70,img/motor_4.png,70,motor,4,247,1,0,0,,
null,,393586,HierDyhe38tr2j,ia7fo1pdr4,ms1000254,iti,,null,img/motor_4.png,70,motor,,,,,,,
509,,394107,HierDyhe38tr2j,ia7fo1pdr4,ms1000254,motor,,72,img/motor_6.png,74,motor,6,248,0,1,0,,
28,,394146,HierDyhe38tr2j,ia7fo1pdr4,ms1000254,motorRepeat,,74,img/motor_6.png,74,motor,6,248,1,0,0,,
null,,394257,HierDyhe38tr2j,ia7fo1pdr4,ms1000254,iti,,null,img/motor_6.png,74,motor,,,,,,,
308,,394576,HierDyhe38tr2j,ia7fo1pdr4,ms1000254,motor,,75,img/motor_7.png,75,motor,7,249,1,0,0,,
null,,394688,HierDyhe38tr2j,ia7fo1pdr4,ms1000254,iti,,null,img/motor_7.png,75,motor,,,,,,,
512,,395210,HierDyhe38tr2j,ia7fo1pdr4,ms1000254,motor,,68,img/motor_3.png,68,motor,3,250,1,0,0,,
null,,395322,HierDyhe38tr2j,ia7fo1pdr4,ms1000254,iti,,null,img/motor_3.png,68,motor,,,,,,,
446,,395779,HierDyhe38tr2j,ia7fo1pdr4,ms1000254,motor,,65,img/motor_1.png,65,motor,1,251,1,0,0,,
null,,395889,HierDyhe38tr2j,ia7fo1pdr4,ms1000254,iti,,null,img/motor_1.png,65,motor,,,,,,,
417,,396319,HierDyhe38tr2j,ia7fo1pdr4,ms1000254,motor,,70,img/motor_4.png,70,motor,4,252,1,0,0,,
null,,396430,HierDyhe38tr2j,ia7fo1pdr4,ms1000254,iti,,null,img/motor_4.png,70,motor,,,,,,,
525,,396966,HierDyhe38tr2j,ia7fo1pdr4,ms1000254,motor,,83,img/motor_2.png,83,motor,2,253,1,0,0,,
null,,397078,HierDyhe38tr2j,ia7fo1pdr4,ms1000254,iti,,null,img/motor_2.png,83,motor,,,,,,,
354,,397443,HierDyhe38tr2j,ia7fo1pdr4,ms1000254,motor,,70,img/motor_4.png,70,motor,4,254,1,0,0,,
null,,397553,HierDyhe38tr2j,ia7fo1pdr4,ms1000254,iti,,null,img/motor_4.png,70,motor,,,,,,,
336,,397901,HierDyhe38tr2j,ia7fo1pdr4,ms1000254,motor,,68,img/motor_3.png,68,motor,3,255,1,0,0,,
null,,398012,HierDyhe38tr2j,ia7fo1pdr4,ms1000254,iti,,null,img/motor_3.png,68,motor,,,,,,,
385,,398406,HierDyhe38tr2j,ia7fo1pdr4,ms1000254,motor,,70,img/motor_4.png,70,motor,4,256,1,0,0,,
null,,398518,HierDyhe38tr2j,ia7fo1pdr4,ms1000254,iti,,null,img/motor_4.png,70,motor,,,,,,,
443,,398971,HierDyhe38tr2j,ia7fo1pdr4,ms1000254,motor,,74,img/motor_6.png,74,motor,6,257,1,0,0,,
null,,399082,HierDyhe38tr2j,ia7fo1pdr4,ms1000254,iti,,null,img/motor_6.png,74,motor,,,,,,,
445,,399538,HierDyhe38tr2j,ia7fo1pdr4,ms1000254,motor,,70,img/motor_3.png,68,motor,3,258,0,1,0,,
160,,399710,HierDyhe38tr2j,ia7fo1pdr4,ms1000254,motorRepeat,,68,img/motor_3.png,68,motor,3,258,1,0,0,,
null,,399821,HierDyhe38tr2j,ia7fo1pdr4,ms1000254,iti,,null,img/motor_3.png,68,motor,,,,,,,
536,,400367,HierDyhe38tr2j,ia7fo1pdr4,ms1000254,motor,,76,img/motor_8.png,76,motor,8,259,1,0,0,,
null,,400479,HierDyhe38tr2j,ia7fo1pdr4,ms1000254,iti,,null,img/motor_8.png,76,motor,,,,,,,
494,,400983,HierDyhe38tr2j,ia7fo1pdr4,ms1000254,motor,,75,img/motor_7.png,75,motor,7,260,1,0,0,,
null,,401094,HierDyhe38tr2j,ia7fo1pdr4,ms1000254,iti,,null,img/motor_7.png,75,motor,,,,,,,
341,,401445,HierDyhe38tr2j,ia7fo1pdr4,ms1000254,motor,,74,img/motor_5.png,72,motor,5,261,0,1,0,,
362,,401817,HierDyhe38tr2j,ia7fo1pdr4,ms1000254,motorRepeat,,72,img/motor_5.png,72,motor,5,261,1,0,0,,
null,,401929,HierDyhe38tr2j,ia7fo1pdr4,ms1000254,iti,,null,img/motor_5.png,72,motor,,,,,,,
354,,402292,HierDyhe38tr2j,ia7fo1pdr4,ms1000254,motor,,72,img/motor_5.png,72,motor,5,262,1,0,0,,
null,,402404,HierDyhe38tr2j,ia7fo1pdr4,ms1000254,iti,,null,img/motor_5.png,72,motor,,,,,,,
450,,402865,HierDyhe38tr2j,ia7fo1pdr4,ms1000254,motor,,65,img/motor_1.png,65,motor,1,263,1,0,0,,
null,,402977,HierDyhe38tr2j,ia7fo1pdr4,ms1000254,iti,,null,img/motor_1.png,65,motor,,,,,,,
526,,403514,HierDyhe38tr2j,ia7fo1pdr4,ms1000254,motor,,75,img/motor_7.png,75,motor,7,264,1,0,0,,
null,,403626,HierDyhe38tr2j,ia7fo1pdr4,ms1000254,iti,,null,img/motor_7.png,75,motor,,,,,,,
385,,404021,HierDyhe38tr2j,ia7fo1pdr4,ms1000254,motor,,76,img/motor_8.png,76,motor,8,265,1,0,0,,
null,,404131,HierDyhe38tr2j,ia7fo1pdr4,ms1000254,iti,,null,img/motor_8.png,76,motor,,,,,,,
440,,404582,HierDyhe38tr2j,ia7fo1pdr4,ms1000254,motor,,65,img/motor_1.png,65,motor,1,266,1,0,0,,
null,,404694,HierDyhe38tr2j,ia7fo1pdr4,ms1000254,iti,,null,img/motor_1.png,65,motor,,,,,,,
622,,405327,HierDyhe38tr2j,ia7fo1pdr4,ms1000254,motor,,68,img/motor_3.png,68,motor,3,267,1,0,0,,
null,,405438,HierDyhe38tr2j,ia7fo1pdr4,ms1000254,iti,,null,img/motor_3.png,68,motor,,,,,,,
444,,405891,HierDyhe38tr2j,ia7fo1pdr4,ms1000254,motor,,75,img/motor_7.png,75,motor,7,268,1,0,0,,
null,,406003,HierDyhe38tr2j,ia7fo1pdr4,ms1000254,iti,,null,img/motor_7.png,75,motor,,,,,,,
430,,406444,HierDyhe38tr2j,ia7fo1pdr4,ms1000254,motor,,74,img/motor_6.png,74,motor,6,269,1,0,0,,
null,,406556,HierDyhe38tr2j,ia7fo1pdr4,ms1000254,iti,,null,img/motor_6.png,74,motor,,,,,,,
293,,406859,HierDyhe38tr2j,ia7fo1pdr4,ms1000254,motor,,75,img/motor_7.png,75,motor,7,270,1,0,0,,
null,,406970,HierDyhe38tr2j,ia7fo1pdr4,ms1000254,iti,,null,img/motor_7.png,75,motor,,,,,,,
308,,407289,HierDyhe38tr2j,ia7fo1pdr4,ms1000254,motor,,74,img/motor_6.png,74,motor,6,271,1,0,0,,
null,,407400,HierDyhe38tr2j,ia7fo1pdr4,ms1000254,iti,,null,img/motor_6.png,74,motor,,,,,,,
496,,407908,HierDyhe38tr2j,ia7fo1pdr4,ms1000254,motor,,68,img/motor_2.png,83,motor,2,272,0,1,0,,
109,,408030,HierDyhe38tr2j,ia7fo1pdr4,ms1000254,motorRepeat,,83,img/motor_2.png,83,motor,2,272,1,0,0,,
null,,408142,HierDyhe38tr2j,ia7fo1pdr4,ms1000254,iti,,null,img/motor_2.png,83,motor,,,,,,,
357,,408510,HierDyhe38tr2j,ia7fo1pdr4,ms1000254,motor,,76,img/motor_8.png,76,motor,8,273,1,0,0,,
null,,408621,HierDyhe38tr2j,ia7fo1pdr4,ms1000254,iti,,null,img/motor_8.png,76,motor,,,,,,,
423,,409054,HierDyhe38tr2j,ia7fo1pdr4,ms1000254,motor,,70,img/motor_4.png,70,motor,4,274,1,0,0,,
null,,409166,HierDyhe38tr2j,ia7fo1pdr4,ms1000254,iti,,null,img/motor_4.png,70,motor,,,,,,,
385,,409563,HierDyhe38tr2j,ia7fo1pdr4,ms1000254,motor,,65,img/motor_1.png,65,motor,1,275,1,0,0,,
null,,409674,HierDyhe38tr2j,ia7fo1pdr4,ms1000254,iti,,null,img/motor_1.png,65,motor,,,,,,,
421,,410105,HierDyhe38tr2j,ia7fo1pdr4,ms1000254,motor,,74,img/motor_5.png,72,motor,5,276,0,1,0,,
204,,410320,HierDyhe38tr2j,ia7fo1pdr4,ms1000254,motorRepeat,,72,img/motor_5.png,72,motor,5,276,1,0,0,,
null,,410431,HierDyhe38tr2j,ia7fo1pdr4,ms1000254,iti,,null,img/motor_5.png,72,motor,,,,,,,
346,,410788,HierDyhe38tr2j,ia7fo1pdr4,ms1000254,motor,,68,img/motor_2.png,83,motor,2,277,0,1,0,,
129,,410929,HierDyhe38tr2j,ia7fo1pdr4,ms1000254,motorRepeat,,83,img/motor_2.png,83,motor,2,277,1,0,0,,
null,,411041,HierDyhe38tr2j,ia7fo1pdr4,ms1000254,iti,,null,img/motor_2.png,83,motor,,,,,,,
408,,411461,HierDyhe38tr2j,ia7fo1pdr4,ms1000254,motor,,65,img/motor_1.png,65,motor,1,278,1,0,0,,
null,,411572,HierDyhe38tr2j,ia7fo1pdr4,ms1000254,iti,,null,img/motor_1.png,65,motor,,,,,,,
400,,411982,HierDyhe38tr2j,ia7fo1pdr4,ms1000254,motor,,76,img/motor_8.png,76,motor,8,279,1,0,0,,
null,,412094,HierDyhe38tr2j,ia7fo1pdr4,ms1000254,iti,,null,img/motor_8.png,76,motor,,,,,,,
355,,412458,HierDyhe38tr2j,ia7fo1pdr4,ms1000254,motor,,65,img/motor_2.png,83,motor,2,280,0,1,0,,
287,,412756,HierDyhe38tr2j,ia7fo1pdr4,ms1000254,motorRepeat,,83,img/motor_2.png,83,motor,2,280,1,0,0,,
null,,412867,HierDyhe38tr2j,ia7fo1pdr4,ms1000254,iti,,null,img/motor_2.png,83,motor,,,,,,,
329,,413207,HierDyhe38tr2j,ia7fo1pdr4,ms1000254,motor,,83,img/motor_1.png,65,motor,1,281,0,1,0,,
160,,413377,HierDyhe38tr2j,ia7fo1pdr4,ms1000254,motorRepeat,,65,img/motor_1.png,65,motor,1,281,1,0,0,,
null,,413489,HierDyhe38tr2j,ia7fo1pdr4,ms1000254,iti,,null,img/motor_1.png,65,motor,,,,,,,
372,,413872,HierDyhe38tr2j,ia7fo1pdr4,ms1000254,motor,,74,img/motor_5.png,72,motor,5,282,0,1,0,,
265,,414148,HierDyhe38tr2j,ia7fo1pdr4,ms1000254,motorRepeat,,72,img/motor_5.png,72,motor,5,282,1,0,0,,
null,,414258,HierDyhe38tr2j,ia7fo1pdr4,ms1000254,iti,,null,img/motor_5.png,72,motor,,,,,,,
404,,414675,HierDyhe38tr2j,ia7fo1pdr4,ms1000254,motor,,70,img/motor_4.png,70,motor,4,283,1,0,0,,
null,,414786,HierDyhe38tr2j,ia7fo1pdr4,ms1000254,iti,,null,img/motor_4.png,70,motor,,,,,,,
405,,415201,HierDyhe38tr2j,ia7fo1pdr4,ms1000254,motor,,83,img/motor_2.png,83,motor,2,284,1,0,0,,
null,,415315,HierDyhe38tr2j,ia7fo1pdr4,ms1000254,iti,,null,img/motor_2.png,83,motor,,,,,,,
388,,415713,HierDyhe38tr2j,ia7fo1pdr4,ms1000254,motor,,76,img/motor_7.png,75,motor,7,285,0,1,0,,
239,,415963,HierDyhe38tr2j,ia7fo1pdr4,ms1000254,motorRepeat,,75,img/motor_7.png,75,motor,7,285,1,0,0,,
null,,416076,HierDyhe38tr2j,ia7fo1pdr4,ms1000254,iti,,null,img/motor_7.png,75,motor,,,,,,,
593,,416680,HierDyhe38tr2j,ia7fo1pdr4,ms1000254,motor,,70,img/motor_3.png,68,motor,3,286,0,1,0,,
15,,416706,HierDyhe38tr2j,ia7fo1pdr4,ms1000254,motorRepeat,,68,img/motor_3.png,68,motor,3,286,1,0,0,,
null,,416818,HierDyhe38tr2j,ia7fo1pdr4,ms1000254,iti,,null,img/motor_3.png,68,motor,,,,,,,
611,,417439,HierDyhe38tr2j,ia7fo1pdr4,ms1000254,motor,,74,img/motor_6.png,74,motor,6,287,1,0,0,,
null,,417550,HierDyhe38tr2j,ia7fo1pdr4,ms1000254,iti,,null,img/motor_6.png,74,motor,,,,,,,
551,,418113,HierDyhe38tr2j,ia7fo1pdr4,ms1000254,motor,,72,img/motor_5.png,72,motor,5,288,1,0,0,,
null,,418223,HierDyhe38tr2j,ia7fo1pdr4,ms1000254,iti,,null,img/motor_5.png,72,motor,,,,,,,
286,,418521,HierDyhe38tr2j,ia7fo1pdr4,ms1000254,motor,,74,img/motor_6.png,74,motor,6,289,1,0,0,,
null,,418632,HierDyhe38tr2j,ia7fo1pdr4,ms1000254,iti,,null,img/motor_6.png,74,motor,,,,,,,
378,,419021,HierDyhe38tr2j,ia7fo1pdr4,ms1000254,motor,,65,img/motor_1.png,65,motor,1,290,1,0,0,,
null,,419131,HierDyhe38tr2j,ia7fo1pdr4,ms1000254,iti,,null,img/motor_1.png,65,motor,,,,,,,
396,,419538,HierDyhe38tr2j,ia7fo1pdr4,ms1000254,motor,,76,img/motor_8.png,76,motor,8,291,1,0,0,,
null,,419649,HierDyhe38tr2j,ia7fo1pdr4,ms1000254,iti,,null,img/motor_8.png,76,motor,,,,,,,
573,,420233,HierDyhe38tr2j,ia7fo1pdr4,ms1000254,motor,,70,img/motor_3.png,68,motor,3,292,0,1,0,,
12,,420255,HierDyhe38tr2j,ia7fo1pdr4,ms1000254,motorRepeat,,68,img/motor_3.png,68,motor,3,292,1,0,0,,
null,,420366,HierDyhe38tr2j,ia7fo1pdr4,ms1000254,iti,,null,img/motor_3.png,68,motor,,,,,,,
407,,420784,HierDyhe38tr2j,ia7fo1pdr4,ms1000254,motor,,74,img/motor_6.png,74,motor,6,293,1,0,0,,
null,,420895,HierDyhe38tr2j,ia7fo1pdr4,ms1000254,iti,,null,img/motor_6.png,74,motor,,,,,,,
491,,421397,HierDyhe38tr2j,ia7fo1pdr4,ms1000254,motor,,83,img/motor_3.png,68,motor,3,294,0,1,0,,
44,,421451,HierDyhe38tr2j,ia7fo1pdr4,ms1000254,motorRepeat,,68,img/motor_3.png,68,motor,3,294,1,0,0,,
null,,421565,HierDyhe38tr2j,ia7fo1pdr4,ms1000254,iti,,null,img/motor_3.png,68,motor,,,,,,,
316,,421892,HierDyhe38tr2j,ia7fo1pdr4,ms1000254,motor,,74,img/motor_3.png,68,motor,3,295,0,1,0,,
9,,421912,HierDyhe38tr2j,ia7fo1pdr4,ms1000254,motorRepeat,,68,img/motor_3.png,68,motor,3,295,1,0,0,,
null,,422024,HierDyhe38tr2j,ia7fo1pdr4,ms1000254,iti,,null,img/motor_3.png,68,motor,,,,,,,
370,,422405,HierDyhe38tr2j,ia7fo1pdr4,ms1000254,motor,,74,img/motor_6.png,74,motor,6,296,1,0,0,,
null,,422515,HierDyhe38tr2j,ia7fo1pdr4,ms1000254,iti,,null,img/motor_6.png,74,motor,,,,,,,
397,,422923,HierDyhe38tr2j,ia7fo1pdr4,ms1000254,motor,,75,img/motor_7.png,75,motor,7,297,1,0,0,,
null,,423034,HierDyhe38tr2j,ia7fo1pdr4,ms1000254,iti,,null,img/motor_7.png,75,motor,,,,,,,
521,,423565,HierDyhe38tr2j,ia7fo1pdr4,ms1000254,motor,,83,img/motor_2.png,83,motor,2,298,1,0,0,,
null,,423677,HierDyhe38tr2j,ia7fo1pdr4,ms1000254,iti,,null,img/motor_2.png,83,motor,,,,,,,
404,,424092,HierDyhe38tr2j,ia7fo1pdr4,ms1000254,motor,,65,img/motor_1.png,65,motor,1,299,1,0,0,,
null,,424202,HierDyhe38tr2j,ia7fo1pdr4,ms1000254,iti,,null,img/motor_1.png,65,motor,,,,,,,
623,,424836,HierDyhe38tr2j,ia7fo1pdr4,ms1000254,motor,,72,img/motor_5.png,72,motor,5,300,1,0,0,,
null,,424947,HierDyhe38tr2j,ia7fo1pdr4,ms1000254,iti,,null,img/motor_5.png,72,motor,,,,,,,
288,,425246,HierDyhe38tr2j,ia7fo1pdr4,ms1000254,motor,,74,img/motor_6.png,74,motor,6,301,1,0,0,,
null,,425358,HierDyhe38tr2j,ia7fo1pdr4,ms1000254,iti,,null,img/motor_6.png,74,motor,,,,,,,
404,,425772,HierDyhe38tr2j,ia7fo1pdr4,ms1000254,motor,,70,img/motor_4.png,70,motor,4,302,1,0,0,,
null,,425884,HierDyhe38tr2j,ia7fo1pdr4,ms1000254,iti,,null,img/motor_4.png,70,motor,,,,,,,
331,,426226,HierDyhe38tr2j,ia7fo1pdr4,ms1000254,motor,,83,img/motor_1.png,65,motor,1,303,0,1,0,,
336,,426574,HierDyhe38tr2j,ia7fo1pdr4,ms1000254,motorRepeat,,65,img/motor_1.png,65,motor,1,303,1,0,0,,
null,,426685,HierDyhe38tr2j,ia7fo1pdr4,ms1000254,iti,,null,img/motor_1.png,65,motor,,,,,,,
478,,427174,HierDyhe38tr2j,ia7fo1pdr4,ms1000254,motor,,68,img/motor_3.png,68,motor,3,304,1,0,0,,
null,,427286,HierDyhe38tr2j,ia7fo1pdr4,ms1000254,iti,,null,img/motor_3.png,68,motor,,,,,,,
370,,427666,HierDyhe38tr2j,ia7fo1pdr4,ms1000254,motor,,74,img/motor_5.png,72,motor,5,305,0,1,0,,
270,,427946,HierDyhe38tr2j,ia7fo1pdr4,ms1000254,motorRepeat,,72,img/motor_5.png,72,motor,5,305,1,0,0,,
null,,428058,HierDyhe38tr2j,ia7fo1pdr4,ms1000254,iti,,null,img/motor_5.png,72,motor,,,,,,,
314,,428383,HierDyhe38tr2j,ia7fo1pdr4,ms1000254,motor,,75,img/motor_7.png,75,motor,7,306,1,0,0,,
null,,428494,HierDyhe38tr2j,ia7fo1pdr4,ms1000254,iti,,null,img/motor_7.png,75,motor,,,,,,,
352,,428857,HierDyhe38tr2j,ia7fo1pdr4,ms1000254,motor,,75,img/motor_7.png,75,motor,7,307,1,0,0,,
null,,428969,HierDyhe38tr2j,ia7fo1pdr4,ms1000254,iti,,null,img/motor_7.png,75,motor,,,,,,,
345,,429325,HierDyhe38tr2j,ia7fo1pdr4,ms1000254,motor,,74,img/motor_6.png,74,motor,6,308,1,0,0,,
null,,429437,HierDyhe38tr2j,ia7fo1pdr4,ms1000254,iti,,null,img/motor_6.png,74,motor,,,,,,,
378,,429824,HierDyhe38tr2j,ia7fo1pdr4,ms1000254,motor,,68,img/motor_2.png,83,motor,2,309,0,1,0,,
57,,429892,HierDyhe38tr2j,ia7fo1pdr4,ms1000254,motorRepeat,,83,img/motor_2.png,83,motor,2,309,1,0,0,,
null,,430003,HierDyhe38tr2j,ia7fo1pdr4,ms1000254,iti,,null,img/motor_2.png,83,motor,,,,,,,
359,,430373,HierDyhe38tr2j,ia7fo1pdr4,ms1000254,motor,,76,img/motor_8.png,76,motor,8,310,1,0,0,,
null,,430483,HierDyhe38tr2j,ia7fo1pdr4,ms1000254,iti,,null,img/motor_8.png,76,motor,,,,,,,
510,,431004,HierDyhe38tr2j,ia7fo1pdr4,ms1000254,motor,,72,img/motor_5.png,72,motor,5,311,1,0,0,,
null,,431116,HierDyhe38tr2j,ia7fo1pdr4,ms1000254,iti,,null,img/motor_5.png,72,motor,,,,,,,
335,,431461,HierDyhe38tr2j,ia7fo1pdr4,ms1000254,motor,,76,img/motor_8.png,76,motor,8,312,1,0,0,,
null,,431572,HierDyhe38tr2j,ia7fo1pdr4,ms1000254,iti,,null,img/motor_8.png,76,motor,,,,,,,
464,,432048,HierDyhe38tr2j,ia7fo1pdr4,ms1000254,motor,,75,img/motor_6.png,74,motor,6,313,0,1,0,,
76,,432134,HierDyhe38tr2j,ia7fo1pdr4,ms1000254,motorRepeat,,74,img/motor_6.png,74,motor,6,313,1,0,0,,
null,,432247,HierDyhe38tr2j,ia7fo1pdr4,ms1000254,iti,,null,img/motor_6.png,74,motor,,,,,,,
472,,432729,HierDyhe38tr2j,ia7fo1pdr4,ms1000254,motor,,83,img/motor_2.png,83,motor,2,314,1,0,0,,
null,,432840,HierDyhe38tr2j,ia7fo1pdr4,ms1000254,iti,,null,img/motor_2.png,83,motor,,,,,,,
368,,433220,HierDyhe38tr2j,ia7fo1pdr4,ms1000254,motor,,74,img/motor_5.png,72,motor,5,315,0,1,0,,
250,,433482,HierDyhe38tr2j,ia7fo1pdr4,ms1000254,motorRepeat,,72,img/motor_5.png,72,motor,5,315,1,0,0,,
null,,433593,HierDyhe38tr2j,ia7fo1pdr4,ms1000254,iti,,null,img/motor_5.png,72,motor,,,,,,,
302,,433905,HierDyhe38tr2j,ia7fo1pdr4,ms1000254,motor,,76,img/motor_8.png,76,motor,8,316,1,0,0,,
null,,434017,HierDyhe38tr2j,ia7fo1pdr4,ms1000254,iti,,null,img/motor_8.png,76,motor,,,,,,,
852,,434880,HierDyhe38tr2j,ia7fo1pdr4,ms1000254,motor,,70,img/motor_4.png,70,motor,4,317,1,0,0,,
null,,434991,HierDyhe38tr2j,ia7fo1pdr4,ms1000254,iti,,null,img/motor_4.png,70,motor,,,,,,,
389,,435390,HierDyhe38tr2j,ia7fo1pdr4,ms1000254,motor,,65,img/motor_1.png,65,motor,1,318,1,0,0,,
null,,435503,HierDyhe38tr2j,ia7fo1pdr4,ms1000254,iti,,null,img/motor_1.png,65,motor,,,,,,,
349,,435861,HierDyhe38tr2j,ia7fo1pdr4,ms1000254,motor,,70,img/motor_4.png,70,motor,4,319,1,0,0,,
null,,435973,HierDyhe38tr2j,ia7fo1pdr4,ms1000254,iti,,null,img/motor_4.png,70,motor,,,,,,,
398,,436381,HierDyhe38tr2j,ia7fo1pdr4,ms1000254,motor,,65,img/motor_1.png,65,motor,1,320,1,0,0,,
null,,436493,HierDyhe38tr2j,ia7fo1pdr4,ms1000254,iti,,null,img/motor_1.png,65,motor,,,,,,,
342,,436845,HierDyhe38tr2j,ia7fo1pdr4,ms1000254,motor,,70,img/motor_4.png,70,motor,4,321,1,0,0,,
null,,436958,HierDyhe38tr2j,ia7fo1pdr4,ms1000254,iti,,null,img/motor_4.png,70,motor,,,,,,,
494,,437462,HierDyhe38tr2j,ia7fo1pdr4,ms1000254,motor,,74,img/motor_7.png,75,motor,7,322,0,1,0,,
93,,437566,HierDyhe38tr2j,ia7fo1pdr4,ms1000254,motorRepeat,,75,img/motor_7.png,75,motor,7,322,1,0,0,,
null,,437677,HierDyhe38tr2j,ia7fo1pdr4,ms1000254,iti,,null,img/motor_7.png,75,motor,,,,,,,
506,,438194,HierDyhe38tr2j,ia7fo1pdr4,ms1000254,motor,,72,img/motor_5.png,72,motor,5,323,1,0,0,,
null,,438306,HierDyhe38tr2j,ia7fo1pdr4,ms1000254,iti,,null,img/motor_5.png,72,motor,,,,,,,
624,,438941,HierDyhe38tr2j,ia7fo1pdr4,ms1000254,motor,,65,img/motor_1.png,65,motor,1,324,1,0,0,,
null,,439053,HierDyhe38tr2j,ia7fo1pdr4,ms1000254,iti,,null,img/motor_1.png,65,motor,,,,,,,
366,,439428,HierDyhe38tr2j,ia7fo1pdr4,ms1000254,motor,,75,img/motor_6.png,74,motor,6,325,0,1,0,,
146,,439586,HierDyhe38tr2j,ia7fo1pdr4,ms1000254,motorRepeat,,74,img/motor_6.png,74,motor,6,325,1,0,0,,
null,,439696,HierDyhe38tr2j,ia7fo1pdr4,ms1000254,iti,,null,img/motor_6.png,74,motor,,,,,,,
566,,440272,HierDyhe38tr2j,ia7fo1pdr4,ms1000254,motor,,70,img/motor_3.png,68,motor,3,326,0,1,0,,
306,,440590,HierDyhe38tr2j,ia7fo1pdr4,ms1000254,motorRepeat,,68,img/motor_3.png,68,motor,3,326,1,0,0,,
null,,440700,HierDyhe38tr2j,ia7fo1pdr4,ms1000254,iti,,null,img/motor_3.png,68,motor,,,,,,,
364,,441076,HierDyhe38tr2j,ia7fo1pdr4,ms1000254,motor,,65,img/motor_1.png,65,motor,1,327,1,0,0,,
null,,441186,HierDyhe38tr2j,ia7fo1pdr4,ms1000254,iti,,null,img/motor_1.png,65,motor,,,,,,,
436,,441635,HierDyhe38tr2j,ia7fo1pdr4,ms1000254,motor,,72,img/motor_5.png,72,motor,5,328,1,0,0,,
null,,441746,HierDyhe38tr2j,ia7fo1pdr4,ms1000254,iti,,null,img/motor_5.png,72,motor,,,,,,,
455,,442211,HierDyhe38tr2j,ia7fo1pdr4,ms1000254,motor,,68,img/motor_3.png,68,motor,3,329,1,0,0,,
null,,442323,HierDyhe38tr2j,ia7fo1pdr4,ms1000254,iti,,null,img/motor_3.png,68,motor,,,,,,,
315,,442649,HierDyhe38tr2j,ia7fo1pdr4,ms1000254,motor,,72,img/motor_7.png,75,motor,7,330,0,1,0,,
189,,442849,HierDyhe38tr2j,ia7fo1pdr4,ms1000254,motorRepeat,,75,img/motor_7.png,75,motor,7,330,1,0,0,,
null,,442960,HierDyhe38tr2j,ia7fo1pdr4,ms1000254,iti,,null,img/motor_7.png,75,motor,,,,,,,
426,,443397,HierDyhe38tr2j,ia7fo1pdr4,ms1000254,motor,,65,img/motor_1.png,65,motor,1,331,1,0,0,,
null,,443508,HierDyhe38tr2j,ia7fo1pdr4,ms1000254,iti,,null,img/motor_1.png,65,motor,,,,,,,
319,,443838,HierDyhe38tr2j,ia7fo1pdr4,ms1000254,motor,,75,img/motor_7.png,75,motor,7,332,1,0,0,,
null,,443949,HierDyhe38tr2j,ia7fo1pdr4,ms1000254,iti,,null,img/motor_7.png,75,motor,,,,,,,
419,,444380,HierDyhe38tr2j,ia7fo1pdr4,ms1000254,motor,,76,img/motor_8.png,76,motor,8,333,1,0,0,,
null,,444490,HierDyhe38tr2j,ia7fo1pdr4,ms1000254,iti,,null,img/motor_8.png,76,motor,,,,,,,
341,,444843,HierDyhe38tr2j,ia7fo1pdr4,ms1000254,motor,,76,img/motor_8.png,76,motor,8,334,1,0,0,,
null,,444954,HierDyhe38tr2j,ia7fo1pdr4,ms1000254,iti,,null,img/motor_8.png,76,motor,,,,,,,
509,,445474,HierDyhe38tr2j,ia7fo1pdr4,ms1000254,motor,,70,img/motor_4.png,70,motor,4,335,1,0,0,,
null,,445587,HierDyhe38tr2j,ia7fo1pdr4,ms1000254,iti,,null,img/motor_4.png,70,motor,,,,,,,
374,,445972,HierDyhe38tr2j,ia7fo1pdr4,ms1000254,motor,,68,img/motor_3.png,68,motor,3,336,1,0,0,,
null,,446083,HierDyhe38tr2j,ia7fo1pdr4,ms1000254,iti,,null,img/motor_3.png,68,motor,,,,,,,
390,,446485,HierDyhe38tr2j,ia7fo1pdr4,ms1000254,motor,,65,img/motor_1.png,65,motor,1,337,1,0,0,,
null,,446596,HierDyhe38tr2j,ia7fo1pdr4,ms1000254,iti,,null,img/motor_1.png,65,motor,,,,,,,
340,,446947,HierDyhe38tr2j,ia7fo1pdr4,ms1000254,motor,,83,img/motor_2.png,83,motor,2,338,1,0,0,,
null,,447058,HierDyhe38tr2j,ia7fo1pdr4,ms1000254,iti,,null,img/motor_2.png,83,motor,,,,,,,
388,,447457,HierDyhe38tr2j,ia7fo1pdr4,ms1000254,motor,,83,img/motor_2.png,83,motor,2,339,1,0,0,,
null,,447570,HierDyhe38tr2j,ia7fo1pdr4,ms1000254,iti,,null,img/motor_2.png,83,motor,,,,,,,
480,,448060,HierDyhe38tr2j,ia7fo1pdr4,ms1000254,motor,,72,img/motor_5.png,72,motor,5,340,1,0,0,,
null,,448171,HierDyhe38tr2j,ia7fo1pdr4,ms1000254,iti,,null,img/motor_5.png,72,motor,,,,,,,
379,,448561,HierDyhe38tr2j,ia7fo1pdr4,ms1000254,motor,,83,img/motor_2.png,83,motor,2,341,1,0,0,,
null,,448673,HierDyhe38tr2j,ia7fo1pdr4,ms1000254,iti,,null,img/motor_2.png,83,motor,,,,,,,
345,,449028,HierDyhe38tr2j,ia7fo1pdr4,ms1000254,motor,,72,img/motor_3.png,68,motor,3,342,0,1,0,,
84,,449124,HierDyhe38tr2j,ia7fo1pdr4,ms1000254,motorRepeat,,68,img/motor_3.png,68,motor,3,342,1,0,0,,
null,,449236,HierDyhe38tr2j,ia7fo1pdr4,ms1000254,iti,,null,img/motor_3.png,68,motor,,,,,,,
408,,449658,HierDyhe38tr2j,ia7fo1pdr4,ms1000254,motor,,70,img/motor_4.png,70,motor,4,343,1,0,0,,
null,,449771,HierDyhe38tr2j,ia7fo1pdr4,ms1000254,iti,,null,img/motor_4.png,70,motor,,,,,,,
365,,450148,HierDyhe38tr2j,ia7fo1pdr4,ms1000254,motor,,70,img/motor_4.png,70,motor,4,344,1,0,0,,
null,,450260,HierDyhe38tr2j,ia7fo1pdr4,ms1000254,iti,,null,img/motor_4.png,70,motor,,,,,,,
378,,450650,HierDyhe38tr2j,ia7fo1pdr4,ms1000254,motor,,76,img/motor_8.png,76,motor,8,345,1,0,0,,
null,,450761,HierDyhe38tr2j,ia7fo1pdr4,ms1000254,iti,,null,img/motor_8.png,76,motor,,,,,,,
390,,451162,HierDyhe38tr2j,ia7fo1pdr4,ms1000254,motor,,65,img/motor_1.png,65,motor,1,346,1,0,0,,
null,,451275,HierDyhe38tr2j,ia7fo1pdr4,ms1000254,iti,,null,img/motor_1.png,65,motor,,,,,,,
514,,451800,HierDyhe38tr2j,ia7fo1pdr4,ms1000254,motor,,70,img/motor_6.png,74,motor,6,347,0,1,0,,
136,,451946,HierDyhe38tr2j,ia7fo1pdr4,ms1000254,motorRepeat,,74,img/motor_6.png,74,motor,6,347,1,0,0,,
null,,452058,HierDyhe38tr2j,ia7fo1pdr4,ms1000254,iti,,null,img/motor_6.png,74,motor,,,,,,,
439,,452509,HierDyhe38tr2j,ia7fo1pdr4,ms1000254,motor,,83,img/motor_2.png,83,motor,2,348,1,0,0,,
null,,452621,HierDyhe38tr2j,ia7fo1pdr4,ms1000254,iti,,null,img/motor_2.png,83,motor,,,,,,,
459,,453091,HierDyhe38tr2j,ia7fo1pdr4,ms1000254,motor,,76,img/motor_8.png,76,motor,8,349,1,0,0,,
null,,453202,HierDyhe38tr2j,ia7fo1pdr4,ms1000254,iti,,null,img/motor_8.png,76,motor,,,,,,,
370,,453585,HierDyhe38tr2j,ia7fo1pdr4,ms1000254,motor,,75,img/motor_7.png,75,motor,7,350,1,0,0,,
null,,453699,HierDyhe38tr2j,ia7fo1pdr4,ms1000254,iti,,null,img/motor_7.png,75,motor,,,,,,,
356,,454069,HierDyhe38tr2j,ia7fo1pdr4,ms1000254,motor,,75,img/motor_7.png,75,motor,7,351,1,0,0,,
0,,454181,HierDyhe38tr2j,ia7fo1pdr4,ms1000254,iti,,74,img/motor_7.png,75,motor,,,,,,,
435,,454627,HierDyhe38tr2j,ia7fo1pdr4,ms1000254,motor,,72,img/motor_5.png,72,motor,5,352,1,0,0,,
null,,454739,HierDyhe38tr2j,ia7fo1pdr4,ms1000254,iti,,null,img/motor_5.png,72,motor,,,,,,,
411,,455162,HierDyhe38tr2j,ia7fo1pdr4,ms1000254,motor,,75,img/motor_7.png,75,motor,7,353,1,0,0,,
null,,455275,HierDyhe38tr2j,ia7fo1pdr4,ms1000254,iti,,null,img/motor_7.png,75,motor,,,,,,,
371,,455657,HierDyhe38tr2j,ia7fo1pdr4,ms1000254,motor,,72,img/motor_5.png,72,motor,5,354,1,0,0,,
null,,455769,HierDyhe38tr2j,ia7fo1pdr4,ms1000254,iti,,null,img/motor_5.png,72,motor,,,,,,,
461,,456241,HierDyhe38tr2j,ia7fo1pdr4,ms1000254,motor,,70,img/motor_3.png,68,motor,3,355,0,1,0,,
343,,456595,HierDyhe38tr2j,ia7fo1pdr4,ms1000254,motorRepeat,,68,img/motor_3.png,68,motor,3,355,1,0,0,,
null,,456709,HierDyhe38tr2j,ia7fo1pdr4,ms1000254,iti,,null,img/motor_3.png,68,motor,,,,,,,
330,,457049,HierDyhe38tr2j,ia7fo1pdr4,ms1000254,motor,,83,img/motor_2.png,83,motor,2,356,1,0,0,,
null,,457160,HierDyhe38tr2j,ia7fo1pdr4,ms1000254,iti,,null,img/motor_2.png,83,motor,,,,,,,
401,,457573,HierDyhe38tr2j,ia7fo1pdr4,ms1000254,motor,,75,img/motor_6.png,74,motor,6,357,0,1,0,,
161,,457746,HierDyhe38tr2j,ia7fo1pdr4,ms1000254,motorRepeat,,74,img/motor_6.png,74,motor,6,357,1,0,0,,
null,,457858,HierDyhe38tr2j,ia7fo1pdr4,ms1000254,iti,,null,img/motor_6.png,74,motor,,,,,,,
477,,458347,HierDyhe38tr2j,ia7fo1pdr4,ms1000254,motor,,65,img/motor_1.png,65,motor,1,358,1,0,0,,
null,,458459,HierDyhe38tr2j,ia7fo1pdr4,ms1000254,iti,,null,img/motor_1.png,65,motor,,,,,,,
446,,458916,HierDyhe38tr2j,ia7fo1pdr4,ms1000254,motor,,68,img/motor_3.png,68,motor,3,359,1,0,0,,
null,,459027,HierDyhe38tr2j,ia7fo1pdr4,ms1000254,iti,,null,img/motor_3.png,68,motor,,,,,,,
470,,459508,HierDyhe38tr2j,ia7fo1pdr4,ms1000254,motor,,65,img/motor_1.png,65,motor,1,360,1,0,0,,
null,,459621,HierDyhe38tr2j,ia7fo1pdr4,ms1000254,iti,,null,img/motor_1.png,65,motor,,,,,,,
398,,460029,HierDyhe38tr2j,ia7fo1pdr4,ms1000254,motor,,70,img/motor_4.png,70,motor,4,361,1,0,0,,
null,,460141,HierDyhe38tr2j,ia7fo1pdr4,ms1000254,iti,,null,img/motor_4.png,70,motor,,,,,,,
331,,460484,HierDyhe38tr2j,ia7fo1pdr4,ms1000254,motor,,65,img/motor_1.png,65,motor,1,362,1,0,0,,
null,,460595,HierDyhe38tr2j,ia7fo1pdr4,ms1000254,iti,,null,img/motor_1.png,65,motor,,,,,,,
408,,461014,HierDyhe38tr2j,ia7fo1pdr4,ms1000254,motor,,83,img/motor_2.png,83,motor,2,363,1,0,0,,
null,,461126,HierDyhe38tr2j,ia7fo1pdr4,ms1000254,iti,,null,img/motor_2.png,83,motor,,,,,,,
499,,461636,HierDyhe38tr2j,ia7fo1pdr4,ms1000254,motor,,72,img/motor_5.png,72,motor,5,364,1,0,0,,
null,,461748,HierDyhe38tr2j,ia7fo1pdr4,ms1000254,iti,,null,img/motor_5.png,72,motor,,,,,,,
445,,462205,HierDyhe38tr2j,ia7fo1pdr4,ms1000254,motor,,65,img/motor_2.png,83,motor,2,365,0,1,0,,
108,,462325,HierDyhe38tr2j,ia7fo1pdr4,ms1000254,motorRepeat,,83,img/motor_2.png,83,motor,2,365,1,0,0,,
null,,462436,HierDyhe38tr2j,ia7fo1pdr4,ms1000254,iti,,null,img/motor_2.png,83,motor,,,,,,,
349,,462796,HierDyhe38tr2j,ia7fo1pdr4,ms1000254,motor,,83,img/motor_4.png,70,motor,4,366,0,1,0,,
84,,462893,HierDyhe38tr2j,ia7fo1pdr4,ms1000254,motorRepeat,,70,img/motor_4.png,70,motor,4,366,1,0,0,,
null,,463006,HierDyhe38tr2j,ia7fo1pdr4,ms1000254,iti,,null,img/motor_4.png,70,motor,,,,,,,
481,,463497,HierDyhe38tr2j,ia7fo1pdr4,ms1000254,motor,,72,img/motor_5.png,72,motor,5,367,1,0,0,,
null,,463610,HierDyhe38tr2j,ia7fo1pdr4,ms1000254,iti,,null,img/motor_5.png,72,motor,,,,,,,
395,,464016,HierDyhe38tr2j,ia7fo1pdr4,ms1000254,motor,,83,img/motor_3.png,68,motor,3,368,0,1,0,,
251,,464279,HierDyhe38tr2j,ia7fo1pdr4,ms1000254,motorRepeat,,70,img/motor_3.png,68,motor,3,368,0,1,0,,
692,,464983,HierDyhe38tr2j,ia7fo1pdr4,ms1000254,motorRepeat,,68,img/motor_3.png,68,motor,3,368,1,0,0,,
null,,465095,HierDyhe38tr2j,ia7fo1pdr4,ms1000254,iti,,null,img/motor_3.png,68,motor,,,,,,,
466,,465573,HierDyhe38tr2j,ia7fo1pdr4,ms1000254,motor,,70,img/motor_4.png,70,motor,4,369,1,0,0,,
null,,465684,HierDyhe38tr2j,ia7fo1pdr4,ms1000254,iti,,null,img/motor_4.png,70,motor,,,,,,,
344,,466040,HierDyhe38tr2j,ia7fo1pdr4,ms1000254,motor,,70,img/motor_4.png,70,motor,4,370,1,0,0,,
null,,466151,HierDyhe38tr2j,ia7fo1pdr4,ms1000254,iti,,null,img/motor_4.png,70,motor,,,,,,,
473,,466635,HierDyhe38tr2j,ia7fo1pdr4,ms1000254,motor,,83,img/motor_2.png,83,motor,2,371,1,0,0,,
null,,466748,HierDyhe38tr2j,ia7fo1pdr4,ms1000254,iti,,null,img/motor_2.png,83,motor,,,,,,,
283,,467042,HierDyhe38tr2j,ia7fo1pdr4,ms1000254,motor,,83,img/motor_2.png,83,motor,2,372,1,0,0,,
null,,467154,HierDyhe38tr2j,ia7fo1pdr4,ms1000254,iti,,null,img/motor_2.png,83,motor,,,,,,,
436,,467600,HierDyhe38tr2j,ia7fo1pdr4,ms1000254,motor,,75,img/motor_6.png,74,motor,6,373,0,1,0,,
125,,467736,HierDyhe38tr2j,ia7fo1pdr4,ms1000254,motorRepeat,,74,img/motor_6.png,74,motor,6,373,1,0,0,,
69,,467848,HierDyhe38tr2j,ia7fo1pdr4,ms1000254,iti,,72,img/motor_6.png,74,motor,,,,,,,
554,,468413,HierDyhe38tr2j,ia7fo1pdr4,ms1000254,motor,,65,img/motor_1.png,65,motor,1,374,1,0,0,,
null,,468524,HierDyhe38tr2j,ia7fo1pdr4,ms1000254,iti,,null,img/motor_1.png,65,motor,,,,,,,
666,,469203,HierDyhe38tr2j,ia7fo1pdr4,ms1000254,motor,,68,img/motor_3.png,68,motor,3,375,1,0,0,,
null,,469315,HierDyhe38tr2j,ia7fo1pdr4,ms1000254,iti,,null,img/motor_3.png,68,motor,,,,,,,
493,,469818,HierDyhe38tr2j,ia7fo1pdr4,ms1000254,motor,,72,img/motor_5.png,72,motor,5,376,1,0,0,,
null,,469930,HierDyhe38tr2j,ia7fo1pdr4,ms1000254,iti,,null,img/motor_5.png,72,motor,,,,,,,
351,,470293,HierDyhe38tr2j,ia7fo1pdr4,ms1000254,motor,,76,img/motor_8.png,76,motor,8,377,1,0,0,,
null,,470404,HierDyhe38tr2j,ia7fo1pdr4,ms1000254,iti,,null,img/motor_8.png,76,motor,,,,,,,
382,,470799,HierDyhe38tr2j,ia7fo1pdr4,ms1000254,motor,,65,img/motor_1.png,65,motor,1,378,1,0,0,,
null,,470911,HierDyhe38tr2j,ia7fo1pdr4,ms1000254,iti,,null,img/motor_1.png,65,motor,,,,,,,
424,,471346,HierDyhe38tr2j,ia7fo1pdr4,ms1000254,motor,,76,img/motor_7.png,75,motor,7,379,0,1,0,,
160,,471517,HierDyhe38tr2j,ia7fo1pdr4,ms1000254,motorRepeat,,74,img/motor_7.png,75,motor,7,379,0,1,0,,
201,,471730,HierDyhe38tr2j,ia7fo1pdr4,ms1000254,motorRepeat,,75,img/motor_7.png,75,motor,7,379,1,0,0,,
null,,471842,HierDyhe38tr2j,ia7fo1pdr4,ms1000254,iti,,null,img/motor_7.png,75,motor,,,,,,,
436,,472289,HierDyhe38tr2j,ia7fo1pdr4,ms1000254,motor,,65,img/motor_1.png,65,motor,1,380,1,0,0,,
null,,472401,HierDyhe38tr2j,ia7fo1pdr4,ms1000254,iti,,null,img/motor_1.png,65,motor,,,,,,,
535,,472947,HierDyhe38tr2j,ia7fo1pdr4,ms1000254,motor,,76,img/motor_8.png,76,motor,8,381,1,0,0,,
null,,473059,HierDyhe38tr2j,ia7fo1pdr4,ms1000254,iti,,null,img/motor_8.png,76,motor,,,,,,,
368,,473439,HierDyhe38tr2j,ia7fo1pdr4,ms1000254,motor,,76,img/motor_8.png,76,motor,8,382,1,0,0,,
null,,473550,HierDyhe38tr2j,ia7fo1pdr4,ms1000254,iti,,null,img/motor_8.png,76,motor,,,,,,,
424,,473986,HierDyhe38tr2j,ia7fo1pdr4,ms1000254,motor,,74,img/motor_6.png,74,motor,6,383,1,0,0,,
null,,474097,HierDyhe38tr2j,ia7fo1pdr4,ms1000254,iti,,null,img/motor_6.png,74,motor,,,,,,,
327,,474436,HierDyhe38tr2j,ia7fo1pdr4,ms1000254,motor,,74,img/motor_5.png,72,motor,5,384,0,1,0,,
87,,474534,HierDyhe38tr2j,ia7fo1pdr4,ms1000254,motorRepeat,,72,img/motor_5.png,72,motor,5,384,1,0,0,,
null,,474646,HierDyhe38tr2j,ia7fo1pdr4,ms1000254,iti,,null,img/motor_5.png,72,motor,,,,,,,
489,,475146,HierDyhe38tr2j,ia7fo1pdr4,ms1000254,motor,,65,img/motor_1.png,65,motor,1,385,1,0,0,,
null,,475259,HierDyhe38tr2j,ia7fo1pdr4,ms1000254,iti,,null,img/motor_1.png,65,motor,,,,,,,
373,,475642,HierDyhe38tr2j,ia7fo1pdr4,ms1000254,motor,,65,img/motor_2.png,83,motor,2,386,0,1,0,,
146,,475799,HierDyhe38tr2j,ia7fo1pdr4,ms1000254,motorRepeat,,83,img/motor_2.png,83,motor,2,386,1,0,0,,
null,,475911,HierDyhe38tr2j,ia7fo1pdr4,ms1000254,iti,,null,img/motor_2.png,83,motor,,,,,,,
480,,476403,HierDyhe38tr2j,ia7fo1pdr4,ms1000254,motor,,74,img/motor_6.png,74,motor,6,387,1,0,0,,
null,,476515,HierDyhe38tr2j,ia7fo1pdr4,ms1000254,iti,,null,img/motor_6.png,74,motor,,,,,,,
389,,476914,HierDyhe38tr2j,ia7fo1pdr4,ms1000254,motor,,76,img/motor_8.png,76,motor,8,388,1,0,0,,
null,,477025,HierDyhe38tr2j,ia7fo1pdr4,ms1000254,iti,,null,img/motor_8.png,76,motor,,,,,,,
465,,477500,HierDyhe38tr2j,ia7fo1pdr4,ms1000254,motor,,83,img/motor_2.png,83,motor,2,389,1,0,0,,
null,,477612,HierDyhe38tr2j,ia7fo1pdr4,ms1000254,iti,,null,img/motor_2.png,83,motor,,,,,,,
309,,477933,HierDyhe38tr2j,ia7fo1pdr4,ms1000254,motor,,76,img/motor_8.png,76,motor,8,390,1,0,0,,
null,,478043,HierDyhe38tr2j,ia7fo1pdr4,ms1000254,iti,,null,img/motor_8.png,76,motor,,,,,,,
481,,478537,HierDyhe38tr2j,ia7fo1pdr4,ms1000254,motor,,76,img/motor_8.png,76,motor,8,391,1,0,0,,
null,,478649,HierDyhe38tr2j,ia7fo1pdr4,ms1000254,iti,,null,img/motor_8.png,76,motor,,,,,,,
447,,479108,HierDyhe38tr2j,ia7fo1pdr4,ms1000254,motor,,72,img/motor_5.png,72,motor,5,392,1,0,0,,
null,,479221,HierDyhe38tr2j,ia7fo1pdr4,ms1000254,iti,,null,img/motor_5.png,72,motor,,,,,,,
302,,479535,HierDyhe38tr2j,ia7fo1pdr4,ms1000254,motor,,74,img/motor_7.png,75,motor,7,393,0,1,0,,
146,,479693,HierDyhe38tr2j,ia7fo1pdr4,ms1000254,motorRepeat,,75,img/motor_7.png,75,motor,7,393,1,0,0,,
null,,479803,HierDyhe38tr2j,ia7fo1pdr4,ms1000254,iti,,null,img/motor_7.png,75,motor,,,,,,,
447,,480262,HierDyhe38tr2j,ia7fo1pdr4,ms1000254,motor,,65,img/motor_1.png,65,motor,1,394,1,0,0,,
null,,480375,HierDyhe38tr2j,ia7fo1pdr4,ms1000254,iti,,null,img/motor_1.png,65,motor,,,,,,,
356,,480742,HierDyhe38tr2j,ia7fo1pdr4,ms1000254,motor,,65,img/motor_1.png,65,motor,1,395,1,0,0,,
null,,480853,HierDyhe38tr2j,ia7fo1pdr4,ms1000254,iti,,null,img/motor_1.png,65,motor,,,,,,,
478,,481342,HierDyhe38tr2j,ia7fo1pdr4,ms1000254,motor,,68,img/motor_3.png,68,motor,3,396,1,0,0,,
null,,481453,HierDyhe38tr2j,ia7fo1pdr4,ms1000254,iti,,null,img/motor_3.png,68,motor,,,,,,,
409,,481873,HierDyhe38tr2j,ia7fo1pdr4,ms1000254,motor,,74,img/motor_6.png,74,motor,6,397,1,0,0,,
null,,481985,HierDyhe38tr2j,ia7fo1pdr4,ms1000254,iti,,null,img/motor_6.png,74,motor,,,,,,,
510,,482507,HierDyhe38tr2j,ia7fo1pdr4,ms1000254,motor,,68,img/motor_3.png,68,motor,3,398,1,0,0,,
null,,482618,HierDyhe38tr2j,ia7fo1pdr4,ms1000254,iti,,null,img/motor_3.png,68,motor,,,,,,,
358,,482989,HierDyhe38tr2j,ia7fo1pdr4,ms1000254,motor,,74,img/motor_7.png,75,motor,7,399,0,1,0,,
325,,483325,HierDyhe38tr2j,ia7fo1pdr4,ms1000254,motorRepeat,,75,img/motor_7.png,75,motor,7,399,1,0,0,,
null,,483436,HierDyhe38tr2j,ia7fo1pdr4,ms1000254,iti,,null,img/motor_7.png,75,motor,,,,,,,
430,,483877,HierDyhe38tr2j,ia7fo1pdr4,ms1000254,motor,,76,img/motor_8.png,76,motor,8,400,1,0,0,,
null,,483988,HierDyhe38tr2j,ia7fo1pdr4,ms1000254,iti,,null,img/motor_8.png,76,motor,,,,,,,
410,,484410,HierDyhe38tr2j,ia7fo1pdr4,ms1000254,motor,,74,img/motor_6.png,74,motor,6,401,1,0,0,,
null,,484521,HierDyhe38tr2j,ia7fo1pdr4,ms1000254,iti,,null,img/motor_6.png,74,motor,,,,,,,
384,,484917,HierDyhe38tr2j,ia7fo1pdr4,ms1000254,motor,,72,img/motor_4.png,70,motor,4,402,0,1,0,,
128,,485057,HierDyhe38tr2j,ia7fo1pdr4,ms1000254,motorRepeat,,70,img/motor_4.png,70,motor,4,402,1,0,0,,
null,,485168,HierDyhe38tr2j,ia7fo1pdr4,ms1000254,iti,,null,img/motor_4.png,70,motor,,,,,,,
397,,485574,HierDyhe38tr2j,ia7fo1pdr4,ms1000254,motor,,65,img/motor_1.png,65,motor,1,403,1,0,0,,
null,,485686,HierDyhe38tr2j,ia7fo1pdr4,ms1000254,iti,,null,img/motor_1.png,65,motor,,,,,,,
390,,486086,HierDyhe38tr2j,ia7fo1pdr4,ms1000254,motor,,75,img/motor_6.png,74,motor,6,404,0,1,0,,
110,,486207,HierDyhe38tr2j,ia7fo1pdr4,ms1000254,motorRepeat,,74,img/motor_6.png,74,motor,6,404,1,0,0,,
null,,486319,HierDyhe38tr2j,ia7fo1pdr4,ms1000254,iti,,null,img/motor_6.png,74,motor,,,,,,,
468,,486800,HierDyhe38tr2j,ia7fo1pdr4,ms1000254,motor,,65,img/motor_2.png,83,motor,2,405,0,1,0,,
64,,486874,HierDyhe38tr2j,ia7fo1pdr4,ms1000254,motorRepeat,,83,img/motor_2.png,83,motor,2,405,1,0,0,,
null,,486986,HierDyhe38tr2j,ia7fo1pdr4,ms1000254,iti,,null,img/motor_2.png,83,motor,,,,,,,
400,,487398,HierDyhe38tr2j,ia7fo1pdr4,ms1000254,motor,,65,img/motor_1.png,65,motor,1,406,1,0,0,,
null,,487509,HierDyhe38tr2j,ia7fo1pdr4,ms1000254,iti,,null,img/motor_1.png,65,motor,,,,,,,
363,,487883,HierDyhe38tr2j,ia7fo1pdr4,ms1000254,motor,,70,img/motor_4.png,70,motor,4,407,1,0,0,,
null,,487996,HierDyhe38tr2j,ia7fo1pdr4,ms1000254,iti,,null,img/motor_4.png,70,motor,,,,,,,
388,,488395,HierDyhe38tr2j,ia7fo1pdr4,ms1000254,motor,,70,img/motor_5.png,72,motor,5,408,0,1,0,,
240,,488646,HierDyhe38tr2j,ia7fo1pdr4,ms1000254,motorRepeat,,72,img/motor_5.png,72,motor,5,408,1,0,0,,
null,,488758,HierDyhe38tr2j,ia7fo1pdr4,ms1000254,iti,,null,img/motor_5.png,72,motor,,,,,,,
400,,489168,HierDyhe38tr2j,ia7fo1pdr4,ms1000254,motor,,65,img/motor_1.png,65,motor,1,409,1,0,0,,
null,,489280,HierDyhe38tr2j,ia7fo1pdr4,ms1000254,iti,,null,img/motor_1.png,65,motor,,,,,,,
391,,489681,HierDyhe38tr2j,ia7fo1pdr4,ms1000254,motor,,76,img/motor_6.png,74,motor,6,410,0,1,0,,
136,,489827,HierDyhe38tr2j,ia7fo1pdr4,ms1000254,motorRepeat,,74,img/motor_6.png,74,motor,6,410,1,0,0,,
null,,489939,HierDyhe38tr2j,ia7fo1pdr4,ms1000254,iti,,null,img/motor_6.png,74,motor,,,,,,,
444,,490394,HierDyhe38tr2j,ia7fo1pdr4,ms1000254,motor,,76,img/motor_8.png,76,motor,8,411,1,0,0,,
null,,490506,HierDyhe38tr2j,ia7fo1pdr4,ms1000254,iti,,null,img/motor_8.png,76,motor,,,,,,,
323,,490840,HierDyhe38tr2j,ia7fo1pdr4,ms1000254,motor,,74,img/motor_5.png,72,motor,5,412,0,1,0,,
197,,491047,HierDyhe38tr2j,ia7fo1pdr4,ms1000254,motorRepeat,,72,img/motor_5.png,72,motor,5,412,1,0,0,,
null,,491160,HierDyhe38tr2j,ia7fo1pdr4,ms1000254,iti,,null,img/motor_5.png,72,motor,,,,,,,
485,,491656,HierDyhe38tr2j,ia7fo1pdr4,ms1000254,motor,,75,img/motor_7.png,75,motor,7,413,1,0,0,,
null,,491767,HierDyhe38tr2j,ia7fo1pdr4,ms1000254,iti,,null,img/motor_7.png,75,motor,,,,,,,
394,,492173,HierDyhe38tr2j,ia7fo1pdr4,ms1000254,motor,,72,img/motor_5.png,72,motor,5,414,1,0,0,,
null,,492284,HierDyhe38tr2j,ia7fo1pdr4,ms1000254,iti,,null,img/motor_5.png,72,motor,,,,,,,
317,,492613,HierDyhe38tr2j,ia7fo1pdr4,ms1000254,motor,,72,img/motor_5.png,72,motor,5,415,1,0,0,,
null,,492724,HierDyhe38tr2j,ia7fo1pdr4,ms1000254,iti,,null,img/motor_5.png,72,motor,,,,,,,
381,,493116,HierDyhe38tr2j,ia7fo1pdr4,ms1000254,motor,,70,img/motor_3.png,68,motor,3,416,0,1,0,,
209,,493337,HierDyhe38tr2j,ia7fo1pdr4,ms1000254,motorRepeat,,70,img/motor_3.png,68,motor,3,416,0,1,0,,
184,,493532,HierDyhe38tr2j,ia7fo1pdr4,ms1000254,motorRepeat,,68,img/motor_3.png,68,motor,3,416,1,0,0,,
85,,493644,HierDyhe38tr2j,ia7fo1pdr4,ms1000254,iti,,68,img/motor_3.png,68,motor,,,,,,,
319,,493975,HierDyhe38tr2j,ia7fo1pdr4,ms1000254,motor,,65,img/motor_1.png,65,motor,1,417,1,0,0,,
null,,494086,HierDyhe38tr2j,ia7fo1pdr4,ms1000254,iti,,null,img/motor_1.png,65,motor,,,,,,,
262,,494360,HierDyhe38tr2j,ia7fo1pdr4,ms1000254,motor,,65,img/motor_1.png,65,motor,1,418,1,0,0,,
null,,494471,HierDyhe38tr2j,ia7fo1pdr4,ms1000254,iti,,null,img/motor_1.png,65,motor,,,,,,,
505,,494989,HierDyhe38tr2j,ia7fo1pdr4,ms1000254,motor,,74,img/motor_6.png,74,motor,6,419,1,0,0,,
null,,495100,HierDyhe38tr2j,ia7fo1pdr4,ms1000254,iti,,null,img/motor_6.png,74,motor,,,,,,,
428,,495539,HierDyhe38tr2j,ia7fo1pdr4,ms1000254,motor,,75,img/motor_7.png,75,motor,7,420,1,0,0,,
null,,495651,HierDyhe38tr2j,ia7fo1pdr4,ms1000254,iti,,null,img/motor_7.png,75,motor,,,,,,,
440,,496101,HierDyhe38tr2j,ia7fo1pdr4,ms1000254,motor,,68,img/motor_3.png,68,motor,3,421,1,0,0,,
null,,496214,HierDyhe38tr2j,ia7fo1pdr4,ms1000254,iti,,null,img/motor_3.png,68,motor,,,,,,,
420,,496646,HierDyhe38tr2j,ia7fo1pdr4,ms1000254,motor,,70,img/motor_4.png,70,motor,4,422,1,0,0,,
null,,496757,HierDyhe38tr2j,ia7fo1pdr4,ms1000254,iti,,null,img/motor_4.png,70,motor,,,,,,,
430,,497198,HierDyhe38tr2j,ia7fo1pdr4,ms1000254,motor,,74,img/motor_5.png,72,motor,5,423,0,1,0,,
214,,497422,HierDyhe38tr2j,ia7fo1pdr4,ms1000254,motorRepeat,,72,img/motor_5.png,72,motor,5,423,1,0,0,,
null,,497534,HierDyhe38tr2j,ia7fo1pdr4,ms1000254,iti,,null,img/motor_5.png,72,motor,,,,,,,
455,,498001,HierDyhe38tr2j,ia7fo1pdr4,ms1000254,motor,,76,img/motor_8.png,76,motor,8,424,1,0,0,,
null,,498112,HierDyhe38tr2j,ia7fo1pdr4,ms1000254,iti,,null,img/motor_8.png,76,motor,,,,,,,
540,,498662,HierDyhe38tr2j,ia7fo1pdr4,ms1000254,motor,,83,img/motor_2.png,83,motor,2,425,1,0,0,,
null,,498775,HierDyhe38tr2j,ia7fo1pdr4,ms1000254,iti,,null,img/motor_2.png,83,motor,,,,,,,
384,,499169,HierDyhe38tr2j,ia7fo1pdr4,ms1000254,motor,,76,img/motor_8.png,76,motor,8,426,1,0,0,,
null,,499281,HierDyhe38tr2j,ia7fo1pdr4,ms1000254,iti,,null,img/motor_8.png,76,motor,,,,,,,
495,,499787,HierDyhe38tr2j,ia7fo1pdr4,ms1000254,motor,,68,img/motor_3.png,68,motor,3,427,1,0,0,,
null,,499900,HierDyhe38tr2j,ia7fo1pdr4,ms1000254,iti,,null,img/motor_3.png,68,motor,,,,,,,
479,,500389,HierDyhe38tr2j,ia7fo1pdr4,ms1000254,motor,,83,img/motor_2.png,83,motor,2,428,1,0,0,,
null,,500501,HierDyhe38tr2j,ia7fo1pdr4,ms1000254,iti,,null,img/motor_2.png,83,motor,,,,,,,
460,,500972,HierDyhe38tr2j,ia7fo1pdr4,ms1000254,motor,,70,img/motor_4.png,70,motor,4,429,1,0,0,,
null,,501085,HierDyhe38tr2j,ia7fo1pdr4,ms1000254,iti,,null,img/motor_4.png,70,motor,,,,,,,
581,,501676,HierDyhe38tr2j,ia7fo1pdr4,ms1000254,motor,,68,img/motor_3.png,68,motor,3,430,1,0,0,,
null,,501788,HierDyhe38tr2j,ia7fo1pdr4,ms1000254,iti,,null,img/motor_3.png,68,motor,,,,,,,
448,,502247,HierDyhe38tr2j,ia7fo1pdr4,ms1000254,motor,,74,img/motor_7.png,75,motor,7,431,0,1,0,,
91,,502349,HierDyhe38tr2j,ia7fo1pdr4,ms1000254,motorRepeat,,75,img/motor_7.png,75,motor,7,431,1,0,0,,
null,,502461,HierDyhe38tr2j,ia7fo1pdr4,ms1000254,iti,,null,img/motor_7.png,75,motor,,,,,,,
435,,502907,HierDyhe38tr2j,ia7fo1pdr4,ms1000254,motor,,70,img/motor_4.png,70,motor,4,432,1,0,0,,
null,,503018,HierDyhe38tr2j,ia7fo1pdr4,ms1000254,iti,,null,img/motor_4.png,70,motor,,,,,,,
374,,503401,HierDyhe38tr2j,ia7fo1pdr4,ms1000254,motor,,68,img/motor_3.png,68,motor,3,433,1,0,0,,
null,,503514,HierDyhe38tr2j,ia7fo1pdr4,ms1000254,iti,,null,img/motor_3.png,68,motor,,,,,,,
388,,503913,HierDyhe38tr2j,ia7fo1pdr4,ms1000254,motor,,65,img/motor_1.png,65,motor,1,434,1,0,0,,
null,,504024,HierDyhe38tr2j,ia7fo1pdr4,ms1000254,iti,,null,img/motor_1.png,65,motor,,,,,,,
333,,504368,HierDyhe38tr2j,ia7fo1pdr4,ms1000254,motor,,65,img/motor_1.png,65,motor,1,435,1,0,0,,
null,,504480,HierDyhe38tr2j,ia7fo1pdr4,ms1000254,iti,,null,img/motor_1.png,65,motor,,,,,,,
303,,504795,HierDyhe38tr2j,ia7fo1pdr4,ms1000254,motor,,83,img/motor_2.png,83,motor,2,436,1,0,0,,
null,,504907,HierDyhe38tr2j,ia7fo1pdr4,ms1000254,iti,,null,img/motor_2.png,83,motor,,,,,,,
374,,505292,HierDyhe38tr2j,ia7fo1pdr4,ms1000254,motor,,75,img/motor_7.png,75,motor,7,437,1,0,0,,
null,,505404,HierDyhe38tr2j,ia7fo1pdr4,ms1000254,iti,,null,img/motor_7.png,75,motor,,,,,,,
507,,505923,HierDyhe38tr2j,ia7fo1pdr4,ms1000254,motor,,70,img/motor_3.png,68,motor,3,438,0,1,0,,
257,,506191,HierDyhe38tr2j,ia7fo1pdr4,ms1000254,motorRepeat,,68,img/motor_3.png,68,motor,3,438,1,0,0,,
null,,506302,HierDyhe38tr2j,ia7fo1pdr4,ms1000254,iti,,null,img/motor_3.png,68,motor,,,,,,,
327,,506641,HierDyhe38tr2j,ia7fo1pdr4,ms1000254,motor,,68,img/motor_4.png,70,motor,4,439,0,1,0,,
86,,506737,HierDyhe38tr2j,ia7fo1pdr4,ms1000254,motorRepeat,,70,img/motor_4.png,70,motor,4,439,1,0,0,,
null,,506849,HierDyhe38tr2j,ia7fo1pdr4,ms1000254,iti,,null,img/motor_4.png,70,motor,,,,,,,
535,,507395,HierDyhe38tr2j,ia7fo1pdr4,ms1000254,motor,,74,img/motor_6.png,74,motor,6,440,1,0,0,,
null,,507506,HierDyhe38tr2j,ia7fo1pdr4,ms1000254,iti,,null,img/motor_6.png,74,motor,,,,,,,
482,,508000,HierDyhe38tr2j,ia7fo1pdr4,ms1000254,motor,,76,img/motor_8.png,76,motor,8,441,1,0,0,,
null,,508111,HierDyhe38tr2j,ia7fo1pdr4,ms1000254,iti,,null,img/motor_8.png,76,motor,,,,,,,
389,,508509,HierDyhe38tr2j,ia7fo1pdr4,ms1000254,motor,,65,img/motor_1.png,65,motor,1,442,1,0,0,,
null,,508621,HierDyhe38tr2j,ia7fo1pdr4,ms1000254,iti,,null,img/motor_1.png,65,motor,,,,,,,
489,,509121,HierDyhe38tr2j,ia7fo1pdr4,ms1000254,motor,,75,img/motor_7.png,75,motor,7,443,1,0,0,,
null,,509233,HierDyhe38tr2j,ia7fo1pdr4,ms1000254,iti,,null,img/motor_7.png,75,motor,,,,,,,
501,,509745,HierDyhe38tr2j,ia7fo1pdr4,ms1000254,motor,,65,img/motor_1.png,65,motor,1,444,1,0,0,,
null,,509856,HierDyhe38tr2j,ia7fo1pdr4,ms1000254,iti,,null,img/motor_1.png,65,motor,,,,,,,
565,,510432,HierDyhe38tr2j,ia7fo1pdr4,ms1000254,motor,,68,img/motor_3.png,68,motor,3,445,1,0,0,,
null,,510545,HierDyhe38tr2j,ia7fo1pdr4,ms1000254,iti,,null,img/motor_3.png,68,motor,,,,,,,
484,,511040,HierDyhe38tr2j,ia7fo1pdr4,ms1000254,motor,,74,img/motor_5.png,72,motor,5,446,0,1,0,,
165,,511217,HierDyhe38tr2j,ia7fo1pdr4,ms1000254,motorRepeat,,72,img/motor_5.png,72,motor,5,446,1,0,0,,
null,,511328,HierDyhe38tr2j,ia7fo1pdr4,ms1000254,iti,,null,img/motor_5.png,72,motor,,,,,,,
350,,511689,HierDyhe38tr2j,ia7fo1pdr4,ms1000254,motor,,74,img/motor_6.png,74,motor,6,447,1,0,0,,
null,,511801,HierDyhe38tr2j,ia7fo1pdr4,ms1000254,iti,,null,img/motor_6.png,74,motor,,,,,,,
316,,512129,HierDyhe38tr2j,ia7fo1pdr4,ms1000254,motor,,74,img/motor_6.png,74,motor,6,448,1,0,0,,
null,,512241,HierDyhe38tr2j,ia7fo1pdr4,ms1000254,iti,,null,img/motor_6.png,74,motor,,,,,,,
424,,512677,HierDyhe38tr2j,ia7fo1pdr4,ms1000254,motor,,68,img/motor_3.png,68,motor,3,449,1,0,0,,
null,,512788,HierDyhe38tr2j,ia7fo1pdr4,ms1000254,iti,,null,img/motor_3.png,68,motor,,,,,,,
382,,513180,HierDyhe38tr2j,ia7fo1pdr4,ms1000254,motor,,74,img/motor_7.png,75,motor,7,450,0,1,0,,
158,,513349,HierDyhe38tr2j,ia7fo1pdr4,ms1000254,motorRepeat,,75,img/motor_7.png,75,motor,7,450,1,0,0,,
null,,513460,HierDyhe38tr2j,ia7fo1pdr4,ms1000254,iti,,null,img/motor_7.png,75,motor,,,,,,,
346,,513817,HierDyhe38tr2j,ia7fo1pdr4,ms1000254,motor,,74,img/motor_6.png,74,motor,6,451,1,0,0,,
null,,513930,HierDyhe38tr2j,ia7fo1pdr4,ms1000254,iti,,null,img/motor_6.png,74,motor,,,,,,,
438,,514383,HierDyhe38tr2j,ia7fo1pdr4,ms1000254,motor,,65,img/motor_1.png,65,motor,1,452,1,0,0,,
null,,514497,HierDyhe38tr2j,ia7fo1pdr4,ms1000254,iti,,null,img/motor_1.png,65,motor,,,,,,,
372,,514881,HierDyhe38tr2j,ia7fo1pdr4,ms1000254,motor,,76,img/motor_8.png,76,motor,8,453,1,0,0,,
null,,514994,HierDyhe38tr2j,ia7fo1pdr4,ms1000254,iti,,null,img/motor_8.png,76,motor,,,,,,,
563,,515569,HierDyhe38tr2j,ia7fo1pdr4,ms1000254,motor,,70,img/motor_4.png,70,motor,4,454,1,0,0,,
null,,515681,HierDyhe38tr2j,ia7fo1pdr4,ms1000254,iti,,null,img/motor_4.png,70,motor,,,,,,,
468,,516161,HierDyhe38tr2j,ia7fo1pdr4,ms1000254,motor,,75,img/motor_7.png,75,motor,7,455,1,0,0,,
null,,516273,HierDyhe38tr2j,ia7fo1pdr4,ms1000254,iti,,null,img/motor_7.png,75,motor,,,,,,,
343,,516628,HierDyhe38tr2j,ia7fo1pdr4,ms1000254,motor,,75,img/motor_8.png,76,motor,8,456,0,1,0,,
225,,516865,HierDyhe38tr2j,ia7fo1pdr4,ms1000254,motorRepeat,,76,img/motor_8.png,76,motor,8,456,1,0,0,,
null,,516976,HierDyhe38tr2j,ia7fo1pdr4,ms1000254,iti,,null,img/motor_8.png,76,motor,,,,,,,
609,,517596,HierDyhe38tr2j,ia7fo1pdr4,ms1000254,motor,,74,img/motor_5.png,72,motor,5,457,0,1,0,,
627,,518239,HierDyhe38tr2j,ia7fo1pdr4,ms1000254,motorRepeat,,72,img/motor_5.png,72,motor,5,457,1,0,0,,
null,,518352,HierDyhe38tr2j,ia7fo1pdr4,ms1000254,iti,,null,img/motor_5.png,72,motor,,,,,,,
341,,518704,HierDyhe38tr2j,ia7fo1pdr4,ms1000254,motor,,75,img/motor_7.png,75,motor,7,458,1,0,0,,
null,,518816,HierDyhe38tr2j,ia7fo1pdr4,ms1000254,iti,,null,img/motor_7.png,75,motor,,,,,,,
458,,519285,HierDyhe38tr2j,ia7fo1pdr4,ms1000254,motor,,74,img/motor_5.png,72,motor,5,459,0,1,0,,
319,,519616,HierDyhe38tr2j,ia7fo1pdr4,ms1000254,motorRepeat,,72,img/motor_5.png,72,motor,5,459,1,0,0,,
null,,519728,HierDyhe38tr2j,ia7fo1pdr4,ms1000254,iti,,null,img/motor_5.png,72,motor,,,,,,,
289,,520027,HierDyhe38tr2j,ia7fo1pdr4,ms1000254,motor,,75,img/motor_6.png,74,motor,6,460,0,1,0,,
175,,520213,HierDyhe38tr2j,ia7fo1pdr4,ms1000254,motorRepeat,,74,img/motor_6.png,74,motor,6,460,1,0,0,,
null,,520325,HierDyhe38tr2j,ia7fo1pdr4,ms1000254,iti,,null,img/motor_6.png,74,motor,,,,,,,
428,,520765,HierDyhe38tr2j,ia7fo1pdr4,ms1000254,motor,,65,img/motor_1.png,65,motor,1,461,1,0,0,,
null,,520878,HierDyhe38tr2j,ia7fo1pdr4,ms1000254,iti,,null,img/motor_1.png,65,motor,,,,,,,
453,,521343,HierDyhe38tr2j,ia7fo1pdr4,ms1000254,motor,,72,img/motor_5.png,72,motor,5,462,1,0,0,,
null,,521455,HierDyhe38tr2j,ia7fo1pdr4,ms1000254,iti,,null,img/motor_5.png,72,motor,,,,,,,
313,,521779,HierDyhe38tr2j,ia7fo1pdr4,ms1000254,motor,,76,img/motor_8.png,76,motor,8,463,1,0,0,,
null,,521891,HierDyhe38tr2j,ia7fo1pdr4,ms1000254,iti,,null,img/motor_8.png,76,motor,,,,,,,
374,,522276,HierDyhe38tr2j,ia7fo1pdr4,ms1000254,motor,,75,img/motor_7.png,75,motor,7,464,1,0,0,,
null,,522388,HierDyhe38tr2j,ia7fo1pdr4,ms1000254,iti,,null,img/motor_7.png,75,motor,,,,,,,
350,,522749,HierDyhe38tr2j,ia7fo1pdr4,ms1000254,motor,,75,img/motor_7.png,75,motor,7,465,1,0,0,,
null,,522860,HierDyhe38tr2j,ia7fo1pdr4,ms1000254,iti,,null,img/motor_7.png,75,motor,,,,,,,
631,,523503,HierDyhe38tr2j,ia7fo1pdr4,ms1000254,motor,,70,img/motor_4.png,70,motor,4,466,1,0,0,,
null,,523614,HierDyhe38tr2j,ia7fo1pdr4,ms1000254,iti,,null,img/motor_4.png,70,motor,,,,,,,
