"rt","responses","time_elapsed","subject","prolificID","demoID","trialType","question_order","key_press","stim","corrresp","phase","stimNum","trialNum","corr","repeatTrial","motorSwitch","pracCounter","hierarchy"
"1146659","{""Q0"":""ms1000320""}","1146690","HierDylhn3xaob","7kcrujies1","ms1000320","","","","","","","","","","","","",""
"12831","","1159529","HierDylhn3xaob","7kcrujies1","ms1000320","","","","","","","","","","","","",""
"","","1162199","HierDylhn3xaob","7kcrujies1","ms1000320","fullscreen","","","","","","","","","","","",""
"13606","{""Vision"":""Yes"",""Handedness"":""Right"",""Gender"":""female""}","1175821","HierDylhn3xaob","7kcrujies1","ms1000320","","[0,1,2]","","","","","","","","","","",""
"2683","{""Q0"":""18""}","1178523","HierDylhn3xaob","7kcrujies1","ms1000320","","","","","","","","","","","","",""
"91028","","1269565","HierDylhn3xaob","7kcrujies1","ms1000320","","","","","","","","","","","","",""
"934","","1270510","HierDylhn3xaob","7kcrujies1","ms1000320","motor","","83","img/motor_2.png","83","motor","2","1","1","0","0","",""
"null","","1270625","HierDylhn3xaob","7kcrujies1","ms1000320","iti","","null","img/motor_2.png","83","motor","","","","","","",""
"660","","1271294","HierDylhn3xaob","7kcrujies1","ms1000320","motor","","72","img/motor_5.png","72","motor","5","2","1","0","0","",""
"null","","1271408","HierDylhn3xaob","7kcrujies1","ms1000320","iti","","null","img/motor_5.png","72","motor","","","","","","",""
"533","","1271950","HierDylhn3xaob","7kcrujies1","ms1000320","motor","","74","img/motor_6.png","74","motor","6","3","1","0","0","",""
"null","","1272058","HierDylhn3xaob","7kcrujies1","ms1000320","iti","","null","img/motor_6.png","74","motor","","","","","","",""
"452","","1272525","HierDylhn3xaob","7kcrujies1","ms1000320","motor","","83","img/motor_2.png","83","motor","2","4","1","0","0","",""
"null","","1272640","HierDylhn3xaob","7kcrujies1","ms1000320","iti","","null","img/motor_2.png","83","motor","","","","","","",""
"558","","1273206","HierDylhn3xaob","7kcrujies1","ms1000320","motor","","68","img/motor_3.png","68","motor","3","5","1","0","0","",""
"null","","1273320","HierDylhn3xaob","7kcrujies1","ms1000320","iti","","null","img/motor_3.png","68","motor","","","","","","",""
"484","","1273815","HierDylhn3xaob","7kcrujies1","ms1000320","motor","","74","img/motor_6.png","74","motor","6","6","1","0","0","",""
"null","","1273923","HierDylhn3xaob","7kcrujies1","ms1000320","iti","","null","img/motor_6.png","74","motor","","","","","","",""
"499","","1274430","HierDylhn3xaob","7kcrujies1","ms1000320","motor","","72","img/motor_5.png","72","motor","5","7","1","0","0","",""
"null","","1274538","HierDylhn3xaob","7kcrujies1","ms1000320","iti","","null","img/motor_5.png","72","motor","","","","","","",""
"468","","1275014","HierDylhn3xaob","7kcrujies1","ms1000320","motor","","83","img/motor_2.png","83","motor","2","8","1","0","0","",""
"null","","1275123","HierDylhn3xaob","7kcrujies1","ms1000320","iti","","null","img/motor_2.png","83","motor","","","","","","",""
"483","","1275615","HierDylhn3xaob","7kcrujies1","ms1000320","motor","","70","img/motor_4.png","70","motor","4","9","1","0","0","",""
"null","","1275724","HierDylhn3xaob","7kcrujies1","ms1000320","iti","","null","img/motor_4.png","70","motor","","","","","","",""
"580","","1276310","HierDylhn3xaob","7kcrujies1","ms1000320","motor","","75","img/motor_7.png","75","motor","7","10","1","0","0","",""
"null","","1276418","HierDylhn3xaob","7kcrujies1","ms1000320","iti","","null","img/motor_7.png","75","motor","","","","","","",""
"461","","1276893","HierDylhn3xaob","7kcrujies1","ms1000320","motor","","75","img/motor_7.png","75","motor","7","11","1","0","0","",""
"null","","1277008","HierDylhn3xaob","7kcrujies1","ms1000320","iti","","null","img/motor_7.png","75","motor","","","","","","",""
"398","","1277415","HierDylhn3xaob","7kcrujies1","ms1000320","motor","","83","img/motor_2.png","83","motor","2","12","1","0","0","",""
"null","","1277522","HierDylhn3xaob","7kcrujies1","ms1000320","iti","","null","img/motor_2.png","83","motor","","","","","","",""
"604","","1278134","HierDylhn3xaob","7kcrujies1","ms1000320","motor","","75","img/motor_7.png","75","motor","7","13","1","0","0","",""
"null","","1278242","HierDylhn3xaob","7kcrujies1","ms1000320","iti","","null","img/motor_7.png","75","motor","","","","","","",""
"405","","1278653","HierDylhn3xaob","7kcrujies1","ms1000320","motor","","72","img/motor_5.png","72","motor","5","14","1","0","0","",""
"null","","1278768","HierDylhn3xaob","7kcrujies1","ms1000320","iti","","null","img/motor_5.png","72","motor","","","","","","",""
"366","","1279142","HierDylhn3xaob","7kcrujies1","ms1000320","motor","","83","img/motor_1.png","65","motor","1","15","0","1","0","",""
"441","","1279591","HierDylhn3xaob","7kcrujies1","ms1000320","motorRepeat","","65","img/motor_1.png","65","motor","1","15","1","0","0","",""
"null","","1279699","HierDylhn3xaob","7kcrujies1","ms1000320","iti","","null","img/motor_1.png","65","motor","","","","","","",""
"451","","1280158","HierDylhn3xaob","7kcrujies1","ms1000320","motor","","65","img/motor_1.png","65","motor","1","16","1","0","0","",""
"null","","1280266","HierDylhn3xaob","7kcrujies1","ms1000320","iti","","null","img/motor_1.png","65","motor","","","","","","",""
"549","","1280822","HierDylhn3xaob","7kcrujies1","ms1000320","motor","","75","img/motor_6.png","74","motor","6","17","0","1","0","",""
"384","","1281214","HierDylhn3xaob","7kcrujies1","ms1000320","motorRepeat","","74","img/motor_6.png","74","motor","6","17","1","0","0","",""
"null","","1281329","HierDylhn3xaob","7kcrujies1","ms1000320","iti","","null","img/motor_6.png","74","motor","","","","","","",""
"454","","1281791","HierDylhn3xaob","7kcrujies1","ms1000320","motor","","74","img/motor_6.png","74","motor","6","18","1","0","0","",""
"null","","1281905","HierDylhn3xaob","7kcrujies1","ms1000320","iti","","null","img/motor_6.png","74","motor","","","","","","",""
"525","","1282439","HierDylhn3xaob","7kcrujies1","ms1000320","motor","","83","img/motor_2.png","83","motor","2","19","1","0","0","",""
"null","","1282553","HierDylhn3xaob","7kcrujies1","ms1000320","iti","","null","img/motor_2.png","83","motor","","","","","","",""
"525","","1283087","HierDylhn3xaob","7kcrujies1","ms1000320","motor","","74","img/motor_6.png","74","motor","6","20","1","0","0","",""
"null","","1283195","HierDylhn3xaob","7kcrujies1","ms1000320","iti","","null","img/motor_6.png","74","motor","","","","","","",""
"541","","1283748","HierDylhn3xaob","7kcrujies1","ms1000320","motor","","70","img/motor_4.png","70","motor","4","21","1","0","0","",""
"null","","1283863","HierDylhn3xaob","7kcrujies1","ms1000320","iti","","null","img/motor_4.png","70","motor","","","","","","",""
"583","","1284455","HierDylhn3xaob","7kcrujies1","ms1000320","motor","","76","img/motor_8.png","76","motor","8","22","1","0","0","",""
"null","","1284563","HierDylhn3xaob","7kcrujies1","ms1000320","iti","","null","img/motor_8.png","76","motor","","","","","","",""
"515","","1285086","HierDylhn3xaob","7kcrujies1","ms1000320","motor","","70","img/motor_4.png","70","motor","4","23","1","0","0","",""
"null","","1285201","HierDylhn3xaob","7kcrujies1","ms1000320","iti","","null","img/motor_4.png","70","motor","","","","","","",""
"541","","1285756","HierDylhn3xaob","7kcrujies1","ms1000320","motor","","72","img/motor_5.png","72","motor","5","24","1","0","0","",""
"null","","1285865","HierDylhn3xaob","7kcrujies1","ms1000320","iti","","null","img/motor_5.png","72","motor","","","","","","",""
"517","","1286391","HierDylhn3xaob","7kcrujies1","ms1000320","motor","","76","img/motor_8.png","76","motor","8","25","1","0","0","",""
"null","","1286505","HierDylhn3xaob","7kcrujies1","ms1000320","iti","","null","img/motor_8.png","76","motor","","","","","","",""
"564","","1287078","HierDylhn3xaob","7kcrujies1","ms1000320","motor","","74","img/motor_6.png","74","motor","6","26","1","0","0","",""
"null","","1287193","HierDylhn3xaob","7kcrujies1","ms1000320","iti","","null","img/motor_6.png","74","motor","","","","","","",""
"429","","1287631","HierDylhn3xaob","7kcrujies1","ms1000320","motor","","76","img/motor_8.png","76","motor","8","27","1","0","0","",""
"null","","1287738","HierDylhn3xaob","7kcrujies1","ms1000320","iti","","null","img/motor_8.png","76","motor","","","","","","",""
"572","","1288318","HierDylhn3xaob","7kcrujies1","ms1000320","motor","","83","img/motor_3.png","68","motor","3","28","0","1","0","",""
"417","","1288749","HierDylhn3xaob","7kcrujies1","ms1000320","motorRepeat","","68","img/motor_3.png","68","motor","3","28","1","0","0","",""
"null","","1288864","HierDylhn3xaob","7kcrujies1","ms1000320","iti","","null","img/motor_3.png","68","motor","","","","","","",""
"413","","1289293","HierDylhn3xaob","7kcrujies1","ms1000320","motor","","76","img/motor_8.png","76","motor","8","29","1","0","0","",""
"null","","1289408","HierDylhn3xaob","7kcrujies1","ms1000320","iti","","null","img/motor_8.png","76","motor","","","","","","",""
"461","","1289878","HierDylhn3xaob","7kcrujies1","ms1000320","motor","","74","img/motor_6.png","74","motor","6","30","1","0","0","",""
"null","","1289986","HierDylhn3xaob","7kcrujies1","ms1000320","iti","","null","img/motor_6.png","74","motor","","","","","","",""
"460","","1290454","HierDylhn3xaob","7kcrujies1","ms1000320","motor","","75","img/motor_7.png","75","motor","7","31","1","0","0","",""
"null","","1290562","HierDylhn3xaob","7kcrujies1","ms1000320","iti","","null","img/motor_7.png","75","motor","","","","","","",""
"779","","1291350","HierDylhn3xaob","7kcrujies1","ms1000320","motor","","83","img/motor_2.png","83","motor","2","32","1","0","0","",""
"null","","1291459","HierDylhn3xaob","7kcrujies1","ms1000320","iti","","null","img/motor_2.png","83","motor","","","","","","",""
"635","","1292103","HierDylhn3xaob","7kcrujies1","ms1000320","motor","","72","img/motor_5.png","72","motor","5","33","1","0","0","",""
"null","","1292216","HierDylhn3xaob","7kcrujies1","ms1000320","iti","","null","img/motor_5.png","72","motor","","","","","","",""
"559","","1292782","HierDylhn3xaob","7kcrujies1","ms1000320","motor","","70","img/motor_4.png","70","motor","4","34","1","0","0","",""
"null","","1292891","HierDylhn3xaob","7kcrujies1","ms1000320","iti","","null","img/motor_4.png","70","motor","","","","","","",""
"514","","1293414","HierDylhn3xaob","7kcrujies1","ms1000320","motor","","76","img/motor_8.png","76","motor","8","35","1","0","0","",""
"null","","1293524","HierDylhn3xaob","7kcrujies1","ms1000320","iti","","null","img/motor_8.png","76","motor","","","","","","",""
"499","","1294036","HierDylhn3xaob","7kcrujies1","ms1000320","motor","","72","img/motor_5.png","72","motor","5","36","1","0","0","",""
"null","","1294146","HierDylhn3xaob","7kcrujies1","ms1000320","iti","","null","img/motor_5.png","72","motor","","","","","","",""
"374","","1294525","HierDylhn3xaob","7kcrujies1","ms1000320","motor","","76","img/motor_8.png","76","motor","8","37","1","0","0","",""
"null","","1294633","HierDylhn3xaob","7kcrujies1","ms1000320","iti","","null","img/motor_8.png","76","motor","","","","","","",""
"494","","1295135","HierDylhn3xaob","7kcrujies1","ms1000320","motor","","74","img/motor_7.png","75","motor","7","38","0","1","0","",""
"465","","1295607","HierDylhn3xaob","7kcrujies1","ms1000320","motorRepeat","","75","img/motor_7.png","75","motor","7","38","1","0","0","",""
"null","","1295716","HierDylhn3xaob","7kcrujies1","ms1000320","iti","","null","img/motor_7.png","75","motor","","","","","","",""
"595","","1296325","HierDylhn3xaob","7kcrujies1","ms1000320","motor","","83","img/motor_3.png","68","motor","3","39","0","1","0","",""
"362","","1296701","HierDylhn3xaob","7kcrujies1","ms1000320","motorRepeat","","68","img/motor_3.png","68","motor","3","39","1","0","0","",""
"null","","1296816","HierDylhn3xaob","7kcrujies1","ms1000320","iti","","null","img/motor_3.png","68","motor","","","","","","",""
"631","","1297454","HierDylhn3xaob","7kcrujies1","ms1000320","motor","","83","img/motor_2.png","83","motor","2","40","1","0","0","",""
"null","","1297562","HierDylhn3xaob","7kcrujies1","ms1000320","iti","","null","img/motor_2.png","83","motor","","","","","","",""
"677","","1298252","HierDylhn3xaob","7kcrujies1","ms1000320","motor","","75","img/motor_6.png","74","motor","6","41","0","1","0","",""
"281","","1298543","HierDylhn3xaob","7kcrujies1","ms1000320","motorRepeat","","74","img/motor_6.png","74","motor","6","41","1","0","0","",""
"null","","1298650","HierDylhn3xaob","7kcrujies1","ms1000320","iti","","null","img/motor_6.png","74","motor","","","","","","",""
"964","","1299622","HierDylhn3xaob","7kcrujies1","ms1000320","motor","","65","img/motor_1.png","65","motor","1","42","1","0","0","",""
"73","","1299730","HierDylhn3xaob","7kcrujies1","ms1000320","iti","","83","img/motor_1.png","65","motor","","","","","","",""
"525","","1300263","HierDylhn3xaob","7kcrujies1","ms1000320","motor","","76","img/motor_8.png","76","motor","8","43","1","0","0","",""
"null","","1300372","HierDylhn3xaob","7kcrujies1","ms1000320","iti","","null","img/motor_8.png","76","motor","","","","","","",""
"651","","1301037","HierDylhn3xaob","7kcrujies1","ms1000320","motor","","70","img/motor_4.png","70","motor","4","44","1","0","0","",""
"null","","1301146","HierDylhn3xaob","7kcrujies1","ms1000320","iti","","null","img/motor_4.png","70","motor","","","","","","",""
"613","","1301767","HierDylhn3xaob","7kcrujies1","ms1000320","motor","","83","img/motor_2.png","83","motor","2","45","1","0","0","",""
"null","","1301875","HierDylhn3xaob","7kcrujies1","ms1000320","iti","","null","img/motor_2.png","83","motor","","","","","","",""
"947","","1302830","HierDylhn3xaob","7kcrujies1","ms1000320","motor","","74","img/motor_6.png","74","motor","6","46","1","0","0","",""
"null","","1302938","HierDylhn3xaob","7kcrujies1","ms1000320","iti","","null","img/motor_6.png","74","motor","","","","","","",""
"845","","1303789","HierDylhn3xaob","7kcrujies1","ms1000320","motor","","72","img/motor_5.png","72","motor","5","47","1","0","0","",""
"null","","1303904","HierDylhn3xaob","7kcrujies1","ms1000320","iti","","null","img/motor_5.png","72","motor","","","","","","",""
"487","","1304398","HierDylhn3xaob","7kcrujies1","ms1000320","motor","","70","img/motor_4.png","70","motor","4","48","1","0","0","",""
"null","","1304512","HierDylhn3xaob","7kcrujies1","ms1000320","iti","","null","img/motor_4.png","70","motor","","","","","","",""
"583","","1305102","HierDylhn3xaob","7kcrujies1","ms1000320","motor","","75","img/motor_7.png","75","motor","7","49","1","0","0","",""
"null","","1305210","HierDylhn3xaob","7kcrujies1","ms1000320","iti","","null","img/motor_7.png","75","motor","","","","","","",""
"565","","1305783","HierDylhn3xaob","7kcrujies1","ms1000320","motor","","76","img/motor_8.png","76","motor","8","50","1","0","0","",""
"null","","1305892","HierDylhn3xaob","7kcrujies1","ms1000320","iti","","null","img/motor_8.png","76","motor","","","","","","",""
"924","","1306822","HierDylhn3xaob","7kcrujies1","ms1000320","motor","","68","img/motor_3.png","68","motor","3","51","1","0","0","",""
"null","","1306930","HierDylhn3xaob","7kcrujies1","ms1000320","iti","","null","img/motor_3.png","68","motor","","","","","","",""
"645","","1307583","HierDylhn3xaob","7kcrujies1","ms1000320","motor","","74","img/motor_6.png","74","motor","6","52","1","0","0","",""
"null","","1307698","HierDylhn3xaob","7kcrujies1","ms1000320","iti","","null","img/motor_6.png","74","motor","","","","","","",""
"525","","1308237","HierDylhn3xaob","7kcrujies1","ms1000320","motor","","68","img/motor_3.png","68","motor","3","53","1","0","0","",""
"null","","1308352","HierDylhn3xaob","7kcrujies1","ms1000320","iti","","null","img/motor_3.png","68","motor","","","","","","",""
"597","","1308959","HierDylhn3xaob","7kcrujies1","ms1000320","motor","","74","img/motor_6.png","74","motor","6","54","1","0","0","",""
"null","","1309074","HierDylhn3xaob","7kcrujies1","ms1000320","iti","","null","img/motor_6.png","74","motor","","","","","","",""
"749","","1309831","HierDylhn3xaob","7kcrujies1","ms1000320","motor","","65","img/motor_1.png","65","motor","1","55","1","0","0","",""
"63","","1309945","HierDylhn3xaob","7kcrujies1","ms1000320","iti","","83","img/motor_1.png","65","motor","","","","","","",""
"645","","1310605","HierDylhn3xaob","7kcrujies1","ms1000320","motor","","70","img/motor_4.png","70","motor","4","56","1","0","0","",""
"null","","1310713","HierDylhn3xaob","7kcrujies1","ms1000320","iti","","null","img/motor_4.png","70","motor","","","","","","",""
"574","","1311301","HierDylhn3xaob","7kcrujies1","ms1000320","motor","","68","img/motor_3.png","68","motor","3","57","1","0","0","",""
"null","","1311415","HierDylhn3xaob","7kcrujies1","ms1000320","iti","","null","img/motor_3.png","68","motor","","","","","","",""
"415","","1311838","HierDylhn3xaob","7kcrujies1","ms1000320","motor","","68","img/motor_3.png","68","motor","3","58","1","0","0","",""
"null","","1311953","HierDylhn3xaob","7kcrujies1","ms1000320","iti","","null","img/motor_3.png","68","motor","","","","","","",""
"630","","1312590","HierDylhn3xaob","7kcrujies1","ms1000320","motor","","70","img/motor_4.png","70","motor","4","59","1","0","0","",""
"null","","1312705","HierDylhn3xaob","7kcrujies1","ms1000320","iti","","null","img/motor_4.png","70","motor","","","","","","",""
"694","","1313406","HierDylhn3xaob","7kcrujies1","ms1000320","motor","","72","img/motor_5.png","72","motor","5","60","1","0","0","",""
"null","","1313515","HierDylhn3xaob","7kcrujies1","ms1000320","iti","","null","img/motor_5.png","72","motor","","","","","","",""
"724","","1314247","HierDylhn3xaob","7kcrujies1","ms1000320","motor","","75","img/motor_7.png","75","motor","7","61","1","0","0","",""
"null","","1314361","HierDylhn3xaob","7kcrujies1","ms1000320","iti","","null","img/motor_7.png","75","motor","","","","","","",""
"446","","1314815","HierDylhn3xaob","7kcrujies1","ms1000320","motor","","75","img/motor_7.png","75","motor","7","62","1","0","0","",""
"null","","1314922","HierDylhn3xaob","7kcrujies1","ms1000320","iti","","null","img/motor_7.png","75","motor","","","","","","",""
"492","","1315422","HierDylhn3xaob","7kcrujies1","ms1000320","motor","","83","img/motor_3.png","68","motor","3","63","0","1","0","",""
"447","","1315878","HierDylhn3xaob","7kcrujies1","ms1000320","motorRepeat","","68","img/motor_3.png","68","motor","3","63","1","0","0","",""
"null","","1315992","HierDylhn3xaob","7kcrujies1","ms1000320","iti","","null","img/motor_3.png","68","motor","","","","","","",""
"501","","1316503","HierDylhn3xaob","7kcrujies1","ms1000320","motor","","72","img/motor_5.png","72","motor","5","64","1","0","0","",""
"null","","1316611","HierDylhn3xaob","7kcrujies1","ms1000320","iti","","null","img/motor_5.png","72","motor","","","","","","",""
"530","","1317150","HierDylhn3xaob","7kcrujies1","ms1000320","motor","","75","img/motor_7.png","75","motor","7","65","1","0","0","",""
"null","","1317259","HierDylhn3xaob","7kcrujies1","ms1000320","iti","","null","img/motor_7.png","75","motor","","","","","","",""
"715","","1317982","HierDylhn3xaob","7kcrujies1","ms1000320","motor","","74","img/motor_6.png","74","motor","6","66","1","0","0","",""
"null","","1318090","HierDylhn3xaob","7kcrujies1","ms1000320","iti","","null","img/motor_6.png","74","motor","","","","","","",""
"1243","","1319342","HierDylhn3xaob","7kcrujies1","ms1000320","motor","","68","img/motor_3.png","68","motor","3","67","1","0","0","",""
"null","","1319456","HierDylhn3xaob","7kcrujies1","ms1000320","iti","","null","img/motor_3.png","68","motor","","","","","","",""
"573","","1320039","HierDylhn3xaob","7kcrujies1","ms1000320","motor","","83","img/motor_2.png","83","motor","2","68","1","0","0","",""
"null","","1320153","HierDylhn3xaob","7kcrujies1","ms1000320","iti","","null","img/motor_2.png","83","motor","","","","","","",""
"613","","1320774","HierDylhn3xaob","7kcrujies1","ms1000320","motor","","70","img/motor_4.png","70","motor","4","69","1","0","0","",""
"null","","1320883","HierDylhn3xaob","7kcrujies1","ms1000320","iti","","null","img/motor_4.png","70","motor","","","","","","",""
"460","","1321350","HierDylhn3xaob","7kcrujies1","ms1000320","motor","","76","img/motor_8.png","76","motor","8","70","1","0","0","",""
"null","","1321458","HierDylhn3xaob","7kcrujies1","ms1000320","iti","","null","img/motor_8.png","76","motor","","","","","","",""
"476","","1321949","HierDylhn3xaob","7kcrujies1","ms1000320","motor","","70","img/motor_4.png","70","motor","4","71","1","0","0","",""
"null","","1322058","HierDylhn3xaob","7kcrujies1","ms1000320","iti","","null","img/motor_4.png","70","motor","","","","","","",""
"429","","1322495","HierDylhn3xaob","7kcrujies1","ms1000320","motor","","83","img/motor_2.png","83","motor","2","72","1","0","0","",""
"null","","1322602","HierDylhn3xaob","7kcrujies1","ms1000320","iti","","null","img/motor_2.png","83","motor","","","","","","",""
"451","","1323069","HierDylhn3xaob","7kcrujies1","ms1000320","motor","","68","img/motor_3.png","68","motor","3","73","1","0","0","",""
"null","","1323184","HierDylhn3xaob","7kcrujies1","ms1000320","iti","","null","img/motor_3.png","68","motor","","","","","","",""
"374","","1323566","HierDylhn3xaob","7kcrujies1","ms1000320","motor","","68","img/motor_3.png","68","motor","3","74","1","0","0","",""
"null","","1323674","HierDylhn3xaob","7kcrujies1","ms1000320","iti","","null","img/motor_3.png","68","motor","","","","","","",""
"492","","1324175","HierDylhn3xaob","7kcrujies1","ms1000320","motor","","72","img/motor_5.png","72","motor","5","75","1","0","0","",""
"null","","1324289","HierDylhn3xaob","7kcrujies1","ms1000320","iti","","null","img/motor_5.png","72","motor","","","","","","",""
"644","","1324949","HierDylhn3xaob","7kcrujies1","ms1000320","motor","","83","img/motor_2.png","83","motor","2","76","1","0","0","",""
"null","","1325058","HierDylhn3xaob","7kcrujies1","ms1000320","iti","","null","img/motor_2.png","83","motor","","","","","","",""
"581","","1325654","HierDylhn3xaob","7kcrujies1","ms1000320","motor","","70","img/motor_4.png","70","motor","4","77","1","0","0","",""
"null","","1325763","HierDylhn3xaob","7kcrujies1","ms1000320","iti","","null","img/motor_4.png","70","motor","","","","","","",""
"516","","1326292","HierDylhn3xaob","7kcrujies1","ms1000320","motor","","72","img/motor_5.png","72","motor","5","78","1","0","0","",""
"null","","1326408","HierDylhn3xaob","7kcrujies1","ms1000320","iti","","null","img/motor_5.png","72","motor","","","","","","",""
"518","","1326940","HierDylhn3xaob","7kcrujies1","ms1000320","motor","","83","img/motor_2.png","83","motor","2","79","1","0","0","",""
"null","","1327050","HierDylhn3xaob","7kcrujies1","ms1000320","iti","","null","img/motor_2.png","83","motor","","","","","","",""
"469","","1327527","HierDylhn3xaob","7kcrujies1","ms1000320","motor","","83","img/motor_1.png","65","motor","1","80","0","1","0","",""
"368","","1327909","HierDylhn3xaob","7kcrujies1","ms1000320","motorRepeat","","65","img/motor_1.png","65","motor","1","80","1","0","0","",""
"null","","1328018","HierDylhn3xaob","7kcrujies1","ms1000320","iti","","null","img/motor_1.png","65","motor","","","","","","",""
"437","","1328469","HierDylhn3xaob","7kcrujies1","ms1000320","motor","","76","img/motor_8.png","76","motor","8","81","1","0","0","",""
"null","","1328584","HierDylhn3xaob","7kcrujies1","ms1000320","iti","","null","img/motor_8.png","76","motor","","","","","","",""
"574","","1329167","HierDylhn3xaob","7kcrujies1","ms1000320","motor","","70","img/motor_4.png","70","motor","4","82","1","0","0","",""
"null","","1329274","HierDylhn3xaob","7kcrujies1","ms1000320","iti","","null","img/motor_4.png","70","motor","","","","","","",""
"388","","1329677","HierDylhn3xaob","7kcrujies1","ms1000320","motor","","70","img/motor_4.png","70","motor","4","83","1","0","0","",""
"null","","1329786","HierDylhn3xaob","7kcrujies1","ms1000320","iti","","null","img/motor_4.png","70","motor","","","","","","",""
"485","","1330279","HierDylhn3xaob","7kcrujies1","ms1000320","motor","","83","img/motor_2.png","83","motor","2","84","1","0","0","",""
"null","","1330387","HierDylhn3xaob","7kcrujies1","ms1000320","iti","","null","img/motor_2.png","83","motor","","","","","","",""
"484","","1330879","HierDylhn3xaob","7kcrujies1","ms1000320","motor","","75","img/motor_7.png","75","motor","7","85","1","0","0","",""
"null","","1330987","HierDylhn3xaob","7kcrujies1","ms1000320","iti","","null","img/motor_7.png","75","motor","","","","","","",""
"508","","1331509","HierDylhn3xaob","7kcrujies1","ms1000320","motor","","74","img/motor_6.png","74","motor","6","86","1","0","0","",""
"null","","1331617","HierDylhn3xaob","7kcrujies1","ms1000320","iti","","null","img/motor_6.png","74","motor","","","","","","",""
"422","","1332053","HierDylhn3xaob","7kcrujies1","ms1000320","motor","","83","img/motor_1.png","65","motor","1","87","0","1","0","",""
"360","","1332422","HierDylhn3xaob","7kcrujies1","ms1000320","motorRepeat","","65","img/motor_1.png","65","motor","1","87","1","0","0","",""
"null","","1332531","HierDylhn3xaob","7kcrujies1","ms1000320","iti","","null","img/motor_1.png","65","motor","","","","","","",""
"421","","1332959","HierDylhn3xaob","7kcrujies1","ms1000320","motor","","76","img/motor_8.png","76","motor","8","88","1","0","0","",""
"null","","1333067","HierDylhn3xaob","7kcrujies1","ms1000320","iti","","null","img/motor_8.png","76","motor","","","","","","",""
"308","","1333383","HierDylhn3xaob","7kcrujies1","ms1000320","motor","","76","img/motor_8.png","76","motor","8","89","1","0","0","",""
"null","","1333497","HierDylhn3xaob","7kcrujies1","ms1000320","iti","","null","img/motor_8.png","76","motor","","","","","","",""
"341","","1333847","HierDylhn3xaob","7kcrujies1","ms1000320","motor","","65","img/motor_2.png","83","motor","2","90","0","1","0","",""
"401","","1334255","HierDylhn3xaob","7kcrujies1","ms1000320","motorRepeat","","83","img/motor_2.png","83","motor","2","90","1","0","0","",""
"null","","1334363","HierDylhn3xaob","7kcrujies1","ms1000320","iti","","null","img/motor_2.png","83","motor","","","","","","",""
"564","","1334935","HierDylhn3xaob","7kcrujies1","ms1000320","motor","","76","img/motor_8.png","76","motor","8","91","1","0","0","",""
"null","","1335043","HierDylhn3xaob","7kcrujies1","ms1000320","iti","","null","img/motor_8.png","76","motor","","","","","","",""
"653","","1335709","HierDylhn3xaob","7kcrujies1","ms1000320","motor","","68","img/motor_3.png","68","motor","3","92","1","0","0","",""
"null","","1335818","HierDylhn3xaob","7kcrujies1","ms1000320","iti","","null","img/motor_3.png","68","motor","","","","","","",""
"653","","1336485","HierDylhn3xaob","7kcrujies1","ms1000320","motor","","83","img/motor_2.png","83","motor","2","93","1","0","0","",""
"null","","1336594","HierDylhn3xaob","7kcrujies1","ms1000320","iti","","null","img/motor_2.png","83","motor","","","","","","",""
"582","","1337183","HierDylhn3xaob","7kcrujies1","ms1000320","motor","","75","img/motor_7.png","75","motor","7","94","1","0","0","",""
"null","","1337291","HierDylhn3xaob","7kcrujies1","ms1000320","iti","","null","img/motor_7.png","75","motor","","","","","","",""
"643","","1337943","HierDylhn3xaob","7kcrujies1","ms1000320","motor","","83","img/motor_2.png","83","motor","2","95","1","0","0","",""
"null","","1338051","HierDylhn3xaob","7kcrujies1","ms1000320","iti","","null","img/motor_2.png","83","motor","","","","","","",""
"388","","1338446","HierDylhn3xaob","7kcrujies1","ms1000320","motor","","83","img/motor_2.png","83","motor","2","96","1","0","0","",""
"null","","1338554","HierDylhn3xaob","7kcrujies1","ms1000320","iti","","null","img/motor_2.png","83","motor","","","","","","",""
"541","","1339103","HierDylhn3xaob","7kcrujies1","ms1000320","motor","","75","img/motor_6.png","74","motor","6","97","0","1","0","",""
"328","","1339445","HierDylhn3xaob","7kcrujies1","ms1000320","motorRepeat","","74","img/motor_6.png","74","motor","6","97","1","0","0","",""
"null","","1339554","HierDylhn3xaob","7kcrujies1","ms1000320","iti","","null","img/motor_6.png","74","motor","","","","","","",""
"309","","1339871","HierDylhn3xaob","7kcrujies1","ms1000320","motor","","74","img/motor_5.png","72","motor","5","98","0","1","0","",""
"296","","1340175","HierDylhn3xaob","7kcrujies1","ms1000320","motorRepeat","","72","img/motor_5.png","72","motor","5","98","1","0","0","",""
"null","","1340282","HierDylhn3xaob","7kcrujies1","ms1000320","iti","","null","img/motor_5.png","72","motor","","","","","","",""
"469","","1340765","HierDylhn3xaob","7kcrujies1","ms1000320","motor","","76","img/motor_8.png","76","motor","8","99","1","0","0","",""
"null","","1340874","HierDylhn3xaob","7kcrujies1","ms1000320","iti","","null","img/motor_8.png","76","motor","","","","","","",""
"733","","1341621","HierDylhn3xaob","7kcrujies1","ms1000320","motor","","68","img/motor_3.png","68","motor","3","100","1","0","0","",""
"null","","1341738","HierDylhn3xaob","7kcrujies1","ms1000320","iti","","null","img/motor_3.png","68","motor","","","","","","",""
"613","","1342366","HierDylhn3xaob","7kcrujies1","ms1000320","motor","","74","img/motor_7.png","75","motor","7","101","0","1","0","",""
"353","","1342727","HierDylhn3xaob","7kcrujies1","ms1000320","motorRepeat","","75","img/motor_7.png","75","motor","7","101","1","0","0","",""
"null","","1342835","HierDylhn3xaob","7kcrujies1","ms1000320","iti","","null","img/motor_7.png","75","motor","","","","","","",""
"435","","1343279","HierDylhn3xaob","7kcrujies1","ms1000320","motor","","72","img/motor_5.png","72","motor","5","102","1","0","0","",""
"null","","1343387","HierDylhn3xaob","7kcrujies1","ms1000320","iti","","null","img/motor_5.png","72","motor","","","","","","",""
"540","","1343941","HierDylhn3xaob","7kcrujies1","ms1000320","motor","","74","img/motor_6.png","74","motor","6","103","1","0","0","",""
"null","","1344056","HierDylhn3xaob","7kcrujies1","ms1000320","iti","","null","img/motor_6.png","74","motor","","","","","","",""
"525","","1344597","HierDylhn3xaob","7kcrujies1","ms1000320","motor","","65","img/motor_1.png","65","motor","1","104","1","0","0","",""
"null","","1344706","HierDylhn3xaob","7kcrujies1","ms1000320","iti","","null","img/motor_1.png","65","motor","","","","","","",""
"565","","1345278","HierDylhn3xaob","7kcrujies1","ms1000320","motor","","83","img/motor_2.png","83","motor","2","105","1","0","0","",""
"33","","1345393","HierDylhn3xaob","7kcrujies1","ms1000320","iti","","68","img/motor_2.png","83","motor","","","","","","",""
"549","","1345951","HierDylhn3xaob","7kcrujies1","ms1000320","motor","","68","img/motor_3.png","68","motor","3","106","1","0","0","",""
"null","","1346065","HierDylhn3xaob","7kcrujies1","ms1000320","iti","","null","img/motor_3.png","68","motor","","","","","","",""
"517","","1346597","HierDylhn3xaob","7kcrujies1","ms1000320","motor","","65","img/motor_1.png","65","motor","1","107","1","0","0","",""
"null","","1346706","HierDylhn3xaob","7kcrujies1","ms1000320","iti","","null","img/motor_1.png","65","motor","","","","","","",""
"590","","1347303","HierDylhn3xaob","7kcrujies1","ms1000320","motor","","72","img/motor_5.png","72","motor","5","108","1","0","0","",""
"null","","1347418","HierDylhn3xaob","7kcrujies1","ms1000320","iti","","null","img/motor_5.png","72","motor","","","","","","",""
"620","","1348046","HierDylhn3xaob","7kcrujies1","ms1000320","motor","","68","img/motor_3.png","68","motor","3","109","1","0","0","",""
"null","","1348155","HierDylhn3xaob","7kcrujies1","ms1000320","iti","","null","img/motor_3.png","68","motor","","","","","","",""
"491","","1348655","HierDylhn3xaob","7kcrujies1","ms1000320","motor","","65","img/motor_1.png","65","motor","1","110","1","0","0","",""
"null","","1348763","HierDylhn3xaob","7kcrujies1","ms1000320","iti","","null","img/motor_1.png","65","motor","","","","","","",""
"548","","1349326","HierDylhn3xaob","7kcrujies1","ms1000320","motor","","72","img/motor_5.png","72","motor","5","111","1","0","0","",""
"null","","1349434","HierDylhn3xaob","7kcrujies1","ms1000320","iti","","null","img/motor_5.png","72","motor","","","","","","",""
"637","","1350085","HierDylhn3xaob","7kcrujies1","ms1000320","motor","","75","img/motor_7.png","75","motor","7","112","1","0","0","",""
"null","","1350193","HierDylhn3xaob","7kcrujies1","ms1000320","iti","","null","img/motor_7.png","75","motor","","","","","","",""
"581","","1350783","HierDylhn3xaob","7kcrujies1","ms1000320","motor","","70","img/motor_4.png","70","motor","4","113","1","0","0","",""
"null","","1350898","HierDylhn3xaob","7kcrujies1","ms1000320","iti","","null","img/motor_4.png","70","motor","","","","","","",""
"485","","1351391","HierDylhn3xaob","7kcrujies1","ms1000320","motor","","70","img/motor_4.png","70","motor","4","114","1","0","0","",""
"null","","1351506","HierDylhn3xaob","7kcrujies1","ms1000320","iti","","null","img/motor_4.png","70","motor","","","","","","",""
"508","","1352030","HierDylhn3xaob","7kcrujies1","ms1000320","motor","","75","img/motor_6.png","74","motor","6","115","0","1","0","",""
"329","","1352366","HierDylhn3xaob","7kcrujies1","ms1000320","motorRepeat","","74","img/motor_6.png","74","motor","6","115","1","0","0","",""
"null","","1352480","HierDylhn3xaob","7kcrujies1","ms1000320","iti","","null","img/motor_6.png","74","motor","","","","","","",""
"574","","1353070","HierDylhn3xaob","7kcrujies1","ms1000320","motor","","70","img/motor_4.png","70","motor","4","116","1","0","0","",""
"null","","1353178","HierDylhn3xaob","7kcrujies1","ms1000320","iti","","null","img/motor_4.png","70","motor","","","","","","",""
"606","","1353790","HierDylhn3xaob","7kcrujies1","ms1000320","motor","","68","img/motor_3.png","68","motor","3","117","1","0","0","",""
"null","","1353905","HierDylhn3xaob","7kcrujies1","ms1000320","iti","","null","img/motor_3.png","68","motor","","","","","","",""
"470","","1354383","HierDylhn3xaob","7kcrujies1","ms1000320","motor","","76","img/motor_8.png","76","motor","8","118","1","0","0","",""
"null","","1354491","HierDylhn3xaob","7kcrujies1","ms1000320","iti","","null","img/motor_8.png","76","motor","","","","","","",""
"483","","1354983","HierDylhn3xaob","7kcrujies1","ms1000320","motor","","74","img/motor_6.png","74","motor","6","119","1","0","0","",""
"null","","1355091","HierDylhn3xaob","7kcrujies1","ms1000320","iti","","null","img/motor_6.png","74","motor","","","","","","",""
"508","","1355607","HierDylhn3xaob","7kcrujies1","ms1000320","motor","","76","img/motor_6.png","74","motor","6","120","0","1","0","",""
"64","","1355678","HierDylhn3xaob","7kcrujies1","ms1000320","motorRepeat","","74","img/motor_6.png","74","motor","6","120","1","0","0","",""
"null","","1355787","HierDylhn3xaob","7kcrujies1","ms1000320","iti","","null","img/motor_6.png","74","motor","","","","","","",""
"516","","1356311","HierDylhn3xaob","7kcrujies1","ms1000320","motor","","83","img/motor_2.png","83","motor","2","121","1","0","0","",""
"null","","1356420","HierDylhn3xaob","7kcrujies1","ms1000320","iti","","null","img/motor_2.png","83","motor","","","","","","",""
"531","","1356966","HierDylhn3xaob","7kcrujies1","ms1000320","motor","","74","img/motor_5.png","72","motor","5","122","0","1","0","",""
"337","","1357317","HierDylhn3xaob","7kcrujies1","ms1000320","motorRepeat","","72","img/motor_5.png","72","motor","5","122","1","0","0","",""
"null","","1357426","HierDylhn3xaob","7kcrujies1","ms1000320","iti","","null","img/motor_5.png","72","motor","","","","","","",""
"622","","1358055","HierDylhn3xaob","7kcrujies1","ms1000320","motor","","75","img/motor_7.png","75","motor","7","123","1","0","0","",""
"null","","1358170","HierDylhn3xaob","7kcrujies1","ms1000320","iti","","null","img/motor_7.png","75","motor","","","","","","",""
"533","","1358718","HierDylhn3xaob","7kcrujies1","ms1000320","motor","","72","img/motor_6.png","74","motor","6","124","0","1","0","",""
"513","","1359238","HierDylhn3xaob","7kcrujies1","ms1000320","motorRepeat","","74","img/motor_6.png","74","motor","6","124","1","0","0","",""
"null","","1359347","HierDylhn3xaob","7kcrujies1","ms1000320","iti","","null","img/motor_6.png","74","motor","","","","","","",""
"436","","1359792","HierDylhn3xaob","7kcrujies1","ms1000320","motor","","76","img/motor_8.png","76","motor","8","125","1","0","0","",""
"null","","1359900","HierDylhn3xaob","7kcrujies1","ms1000320","iti","","null","img/motor_8.png","76","motor","","","","","","",""
"667","","1360575","HierDylhn3xaob","7kcrujies1","ms1000320","motor","","75","img/motor_7.png","75","motor","7","126","1","0","0","",""
"48","","1360683","HierDylhn3xaob","7kcrujies1","ms1000320","iti","","74","img/motor_7.png","75","motor","","","","","","",""
"516","","1361207","HierDylhn3xaob","7kcrujies1","ms1000320","motor","","76","img/motor_8.png","76","motor","8","127","1","0","0","",""
"null","","1361315","HierDylhn3xaob","7kcrujies1","ms1000320","iti","","null","img/motor_8.png","76","motor","","","","","","",""
"484","","1361807","HierDylhn3xaob","7kcrujies1","ms1000320","motor","","74","img/motor_7.png","75","motor","7","128","0","1","0","",""
"425","","1362239","HierDylhn3xaob","7kcrujies1","ms1000320","motorRepeat","","75","img/motor_7.png","75","motor","7","128","1","0","0","",""
"null","","1362348","HierDylhn3xaob","7kcrujies1","ms1000320","iti","","null","img/motor_7.png","75","motor","","","","","","",""
"684","","1363045","HierDylhn3xaob","7kcrujies1","ms1000320","motor","","76","img/motor_8.png","76","motor","8","129","1","0","0","",""
"null","","1363154","HierDylhn3xaob","7kcrujies1","ms1000320","iti","","null","img/motor_8.png","76","motor","","","","","","",""
"381","","1363550","HierDylhn3xaob","7kcrujies1","ms1000320","motor","","76","img/motor_8.png","76","motor","8","130","1","0","0","",""
"null","","1363664","HierDylhn3xaob","7kcrujies1","ms1000320","iti","","null","img/motor_8.png","76","motor","","","","","","",""
"525","","1364199","HierDylhn3xaob","7kcrujies1","ms1000320","motor","","65","img/motor_1.png","65","motor","1","131","1","0","0","",""
"null","","1364313","HierDylhn3xaob","7kcrujies1","ms1000320","iti","","null","img/motor_1.png","65","motor","","","","","","",""
"525","","1364847","HierDylhn3xaob","7kcrujies1","ms1000320","motor","","76","img/motor_8.png","76","motor","8","132","1","0","0","",""
"null","","1364960","HierDylhn3xaob","7kcrujies1","ms1000320","iti","","null","img/motor_8.png","76","motor","","","","","","",""
"494","","1365463","HierDylhn3xaob","7kcrujies1","ms1000320","motor","","70","img/motor_4.png","70","motor","4","133","1","0","0","",""
"null","","1365571","HierDylhn3xaob","7kcrujies1","ms1000320","iti","","null","img/motor_4.png","70","motor","","","","","","",""
"556","","1366141","HierDylhn3xaob","7kcrujies1","ms1000320","motor","","65","img/motor_1.png","65","motor","1","134","1","0","0","",""
"null","","1366257","HierDylhn3xaob","7kcrujies1","ms1000320","iti","","null","img/motor_1.png","65","motor","","","","","","",""
"606","","1366872","HierDylhn3xaob","7kcrujies1","ms1000320","motor","","68","img/motor_3.png","68","motor","3","135","1","0","0","",""
"null","","1366980","HierDylhn3xaob","7kcrujies1","ms1000320","iti","","null","img/motor_3.png","68","motor","","","","","","",""
"612","","1367599","HierDylhn3xaob","7kcrujies1","ms1000320","motor","","74","img/motor_6.png","74","motor","6","136","1","0","0","",""
"null","","1367707","HierDylhn3xaob","7kcrujies1","ms1000320","iti","","null","img/motor_6.png","74","motor","","","","","","",""
"643","","1368360","HierDylhn3xaob","7kcrujies1","ms1000320","motor","","83","img/motor_2.png","83","motor","2","137","1","0","0","",""
"null","","1368467","HierDylhn3xaob","7kcrujies1","ms1000320","iti","","null","img/motor_2.png","83","motor","","","","","","",""
"643","","1369126","HierDylhn3xaob","7kcrujies1","ms1000320","motor","","65","img/motor_1.png","65","motor","1","138","1","0","0","",""
"null","","1369235","HierDylhn3xaob","7kcrujies1","ms1000320","iti","","null","img/motor_1.png","65","motor","","","","","","",""
"676","","1369919","HierDylhn3xaob","7kcrujies1","ms1000320","motor","","68","img/motor_3.png","68","motor","3","139","1","0","0","",""
"24","","1370027","HierDylhn3xaob","7kcrujies1","ms1000320","iti","","70","img/motor_3.png","68","motor","","","","","","",""
"508","","1370543","HierDylhn3xaob","7kcrujies1","ms1000320","motor","","83","img/motor_2.png","83","motor","2","140","1","0","0","",""
"null","","1370658","HierDylhn3xaob","7kcrujies1","ms1000320","iti","","null","img/motor_2.png","83","motor","","","","","","",""
"636","","1371310","HierDylhn3xaob","7kcrujies1","ms1000320","motor","","72","img/motor_5.png","72","motor","5","141","1","0","0","",""
"null","","1371418","HierDylhn3xaob","7kcrujies1","ms1000320","iti","","null","img/motor_5.png","72","motor","","","","","","",""
"653","","1372079","HierDylhn3xaob","7kcrujies1","ms1000320","motor","","75","img/motor_7.png","75","motor","7","142","1","0","0","",""
"null","","1372186","HierDylhn3xaob","7kcrujies1","ms1000320","iti","","null","img/motor_7.png","75","motor","","","","","","",""
"469","","1372662","HierDylhn3xaob","7kcrujies1","ms1000320","motor","","76","img/motor_8.png","76","motor","8","143","1","0","0","",""
"null","","1372771","HierDylhn3xaob","7kcrujies1","ms1000320","iti","","null","img/motor_8.png","76","motor","","","","","","",""
"572","","1373350","HierDylhn3xaob","7kcrujies1","ms1000320","motor","","70","img/motor_4.png","70","motor","4","144","1","0","0","",""
"null","","1373460","HierDylhn3xaob","7kcrujies1","ms1000320","iti","","null","img/motor_4.png","70","motor","","","","","","",""
"612","","1374079","HierDylhn3xaob","7kcrujies1","ms1000320","motor","","65","img/motor_1.png","65","motor","1","145","1","0","0","",""
"null","","1374187","HierDylhn3xaob","7kcrujies1","ms1000320","iti","","null","img/motor_1.png","65","motor","","","","","","",""
"412","","1374607","HierDylhn3xaob","7kcrujies1","ms1000320","motor","","72","img/motor_5.png","72","motor","5","146","1","0","0","",""
"null","","1374721","HierDylhn3xaob","7kcrujies1","ms1000320","iti","","null","img/motor_5.png","72","motor","","","","","","",""
"733","","1375463","HierDylhn3xaob","7kcrujies1","ms1000320","motor","","68","img/motor_3.png","68","motor","3","147","1","0","0","",""
"null","","1375571","HierDylhn3xaob","7kcrujies1","ms1000320","iti","","null","img/motor_3.png","68","motor","","","","","","",""
"459","","1376046","HierDylhn3xaob","7kcrujies1","ms1000320","motor","","65","img/motor_1.png","65","motor","1","148","1","0","0","",""
"null","","1376155","HierDylhn3xaob","7kcrujies1","ms1000320","iti","","null","img/motor_1.png","65","motor","","","","","","",""
"684","","1376853","HierDylhn3xaob","7kcrujies1","ms1000320","motor","","83","img/motor_2.png","83","motor","2","149","1","0","0","",""
"null","","1376969","HierDylhn3xaob","7kcrujies1","ms1000320","iti","","null","img/motor_2.png","83","motor","","","","","","",""
"590","","1377567","HierDylhn3xaob","7kcrujies1","ms1000320","motor","","72","img/motor_4.png","70","motor","4","150","0","1","0","",""
"392","","1377967","HierDylhn3xaob","7kcrujies1","ms1000320","motorRepeat","","70","img/motor_4.png","70","motor","4","150","1","0","0","",""
"null","","1378082","HierDylhn3xaob","7kcrujies1","ms1000320","iti","","null","img/motor_4.png","70","motor","","","","","","",""
"692","","1378783","HierDylhn3xaob","7kcrujies1","ms1000320","motor","","74","img/motor_6.png","74","motor","6","151","1","0","0","",""
"null","","1378898","HierDylhn3xaob","7kcrujies1","ms1000320","iti","","null","img/motor_6.png","74","motor","","","","","","",""
"693","","1379606","HierDylhn3xaob","7kcrujies1","ms1000320","motor","","83","img/motor_2.png","83","motor","2","152","1","0","0","",""
"null","","1379714","HierDylhn3xaob","7kcrujies1","ms1000320","iti","","null","img/motor_2.png","83","motor","","","","","","",""
"578","","1380300","HierDylhn3xaob","7kcrujies1","ms1000320","motor","","74","img/motor_6.png","74","motor","6","153","1","0","0","",""
"null","","1380409","HierDylhn3xaob","7kcrujies1","ms1000320","iti","","null","img/motor_6.png","74","motor","","","","","","",""
"381","","1380799","HierDylhn3xaob","7kcrujies1","ms1000320","motor","","76","img/motor_7.png","75","motor","7","154","0","1","0","",""
"456","","1381265","HierDylhn3xaob","7kcrujies1","ms1000320","motorRepeat","","75","img/motor_7.png","75","motor","7","154","1","0","0","",""
"null","","1381380","HierDylhn3xaob","7kcrujies1","ms1000320","iti","","null","img/motor_7.png","75","motor","","","","","","",""
"451","","1381839","HierDylhn3xaob","7kcrujies1","ms1000320","motor","","65","img/motor_1.png","65","motor","1","155","1","0","0","",""
"null","","1381948","HierDylhn3xaob","7kcrujies1","ms1000320","iti","","null","img/motor_1.png","65","motor","","","","","","",""
"515","","1382478","HierDylhn3xaob","7kcrujies1","ms1000320","motor","","76","img/motor_8.png","76","motor","8","156","1","0","0","",""
"16","","1382587","HierDylhn3xaob","7kcrujies1","ms1000320","iti","","75","img/motor_8.png","76","motor","","","","","","",""
"668","","1383263","HierDylhn3xaob","7kcrujies1","ms1000320","motor","","68","img/motor_3.png","68","motor","3","157","1","0","0","",""
"null","","1383379","HierDylhn3xaob","7kcrujies1","ms1000320","iti","","null","img/motor_3.png","68","motor","","","","","","",""
"388","","1383776","HierDylhn3xaob","7kcrujies1","ms1000320","motor","","83","img/motor_2.png","83","motor","2","158","1","0","0","",""
"null","","1383891","HierDylhn3xaob","7kcrujies1","ms1000320","iti","","null","img/motor_2.png","83","motor","","","","","","",""
"412","","1384311","HierDylhn3xaob","7kcrujies1","ms1000320","motor","","65","img/motor_1.png","65","motor","1","159","1","0","0","",""
"null","","1384420","HierDylhn3xaob","7kcrujies1","ms1000320","iti","","null","img/motor_1.png","65","motor","","","","","","",""
"427","","1384855","HierDylhn3xaob","7kcrujies1","ms1000320","motor","","72","img/motor_5.png","72","motor","5","160","1","0","0","",""
"null","","1384964","HierDylhn3xaob","7kcrujies1","ms1000320","iti","","null","img/motor_5.png","72","motor","","","","","","",""
"539","","1385512","HierDylhn3xaob","7kcrujies1","ms1000320","motor","","83","img/motor_2.png","83","motor","2","161","1","0","0","",""
"null","","1385620","HierDylhn3xaob","7kcrujies1","ms1000320","iti","","null","img/motor_2.png","83","motor","","","","","","",""
"468","","1386095","HierDylhn3xaob","7kcrujies1","ms1000320","motor","","83","img/motor_2.png","83","motor","2","162","1","0","0","",""
"null","","1386210","HierDylhn3xaob","7kcrujies1","ms1000320","iti","","null","img/motor_2.png","83","motor","","","","","","",""
"413","","1386632","HierDylhn3xaob","7kcrujies1","ms1000320","motor","","76","img/motor_7.png","75","motor","7","163","0","1","0","",""
"375","","1387015","HierDylhn3xaob","7kcrujies1","ms1000320","motorRepeat","","75","img/motor_7.png","75","motor","7","163","1","0","0","",""
"null","","1387123","HierDylhn3xaob","7kcrujies1","ms1000320","iti","","null","img/motor_7.png","75","motor","","","","","","",""
"564","","1387695","HierDylhn3xaob","7kcrujies1","ms1000320","motor","","74","img/motor_6.png","74","motor","6","164","1","0","0","",""
"null","","1387803","HierDylhn3xaob","7kcrujies1","ms1000320","iti","","null","img/motor_6.png","74","motor","","","","","","",""
"611","","1388422","HierDylhn3xaob","7kcrujies1","ms1000320","motor","","70","img/motor_4.png","70","motor","4","165","1","0","0","",""
"null","","1388537","HierDylhn3xaob","7kcrujies1","ms1000320","iti","","null","img/motor_4.png","70","motor","","","","","","",""
"582","","1389128","HierDylhn3xaob","7kcrujies1","ms1000320","motor","","72","img/motor_5.png","72","motor","5","166","1","0","0","",""
"null","","1389242","HierDylhn3xaob","7kcrujies1","ms1000320","iti","","null","img/motor_5.png","72","motor","","","","","","",""
"372","","1389623","HierDylhn3xaob","7kcrujies1","ms1000320","motor","","76","img/motor_8.png","76","motor","8","167","1","0","0","",""
"null","","1389738","HierDylhn3xaob","7kcrujies1","ms1000320","iti","","null","img/motor_8.png","76","motor","","","","","","",""
"557","","1390302","HierDylhn3xaob","7kcrujies1","ms1000320","motor","","74","img/motor_7.png","75","motor","7","168","0","1","0","",""
"273","","1390583","HierDylhn3xaob","7kcrujies1","ms1000320","motorRepeat","","75","img/motor_7.png","75","motor","7","168","1","0","0","",""
"null","","1390697","HierDylhn3xaob","7kcrujies1","ms1000320","iti","","null","img/motor_7.png","75","motor","","","","","","",""
"558","","1391270","HierDylhn3xaob","7kcrujies1","ms1000320","motor","","70","img/motor_4.png","70","motor","4","169","1","0","0","",""
"null","","1391379","HierDylhn3xaob","7kcrujies1","ms1000320","iti","","null","img/motor_4.png","70","motor","","","","","","",""
"461","","1391848","HierDylhn3xaob","7kcrujies1","ms1000320","motor","","70","img/motor_4.png","70","motor","4","170","1","0","0","",""
"null","","1391955","HierDylhn3xaob","7kcrujies1","ms1000320","iti","","null","img/motor_4.png","70","motor","","","","","","",""
"579","","1392544","HierDylhn3xaob","7kcrujies1","ms1000320","motor","","83","img/motor_3.png","68","motor","3","171","0","1","0","",""
"416","","1392968","HierDylhn3xaob","7kcrujies1","ms1000320","motorRepeat","","68","img/motor_3.png","68","motor","3","171","1","0","0","",""
"null","","1393075","HierDylhn3xaob","7kcrujies1","ms1000320","iti","","null","img/motor_3.png","68","motor","","","","","","",""
"499","","1393582","HierDylhn3xaob","7kcrujies1","ms1000320","motor","","74","img/motor_6.png","74","motor","6","172","1","0","0","",""
"null","","1393691","HierDylhn3xaob","7kcrujies1","ms1000320","iti","","null","img/motor_6.png","74","motor","","","","","","",""
"405","","1394103","HierDylhn3xaob","7kcrujies1","ms1000320","motor","","72","img/motor_5.png","72","motor","5","173","1","0","0","",""
"null","","1394218","HierDylhn3xaob","7kcrujies1","ms1000320","iti","","null","img/motor_5.png","72","motor","","","","","","",""
"468","","1394701","HierDylhn3xaob","7kcrujies1","ms1000320","motor","","76","img/motor_8.png","76","motor","8","174","1","0","0","",""
"null","","1394817","HierDylhn3xaob","7kcrujies1","ms1000320","iti","","null","img/motor_8.png","76","motor","","","","","","",""
"574","","1395406","HierDylhn3xaob","7kcrujies1","ms1000320","motor","","75","img/motor_7.png","75","motor","7","175","1","0","0","",""
"null","","1395521","HierDylhn3xaob","7kcrujies1","ms1000320","iti","","null","img/motor_7.png","75","motor","","","","","","",""
"502","","1396032","HierDylhn3xaob","7kcrujies1","ms1000320","motor","","70","img/motor_4.png","70","motor","4","176","1","0","0","",""
"null","","1396140","HierDylhn3xaob","7kcrujies1","ms1000320","iti","","null","img/motor_4.png","70","motor","","","","","","",""
"451","","1396599","HierDylhn3xaob","7kcrujies1","ms1000320","motor","","83","img/motor_3.png","68","motor","3","177","0","1","0","",""
"408","","1397015","HierDylhn3xaob","7kcrujies1","ms1000320","motorRepeat","","68","img/motor_3.png","68","motor","3","177","1","0","0","",""
"null","","1397130","HierDylhn3xaob","7kcrujies1","ms1000320","iti","","null","img/motor_3.png","68","motor","","","","","","",""
"502","","1397639","HierDylhn3xaob","7kcrujies1","ms1000320","motor","","83","img/motor_2.png","83","motor","2","178","1","0","0","",""
"null","","1397754","HierDylhn3xaob","7kcrujies1","ms1000320","iti","","null","img/motor_2.png","83","motor","","","","","","",""
"429","","1398191","HierDylhn3xaob","7kcrujies1","ms1000320","motor","","76","img/motor_8.png","76","motor","8","179","1","0","0","",""
"null","","1398299","HierDylhn3xaob","7kcrujies1","ms1000320","iti","","null","img/motor_8.png","76","motor","","","","","","",""
"486","","1398791","HierDylhn3xaob","7kcrujies1","ms1000320","motor","","72","img/motor_6.png","74","motor","6","180","0","1","0","",""
"336","","1399135","HierDylhn3xaob","7kcrujies1","ms1000320","motorRepeat","","74","img/motor_6.png","74","motor","6","180","1","0","0","",""
"null","","1399250","HierDylhn3xaob","7kcrujies1","ms1000320","iti","","null","img/motor_6.png","74","motor","","","","","","",""
"514","","1399770","HierDylhn3xaob","7kcrujies1","ms1000320","motor","","72","img/motor_5.png","72","motor","5","181","1","0","0","",""
"null","","1399876","HierDylhn3xaob","7kcrujies1","ms1000320","iti","","null","img/motor_5.png","72","motor","","","","","","",""
"474","","1400356","HierDylhn3xaob","7kcrujies1","ms1000320","motor","","75","img/motor_7.png","75","motor","7","182","1","0","0","",""
"null","","1400464","HierDylhn3xaob","7kcrujies1","ms1000320","iti","","null","img/motor_7.png","75","motor","","","","","","",""
"439","","1400918","HierDylhn3xaob","7kcrujies1","ms1000320","motor","","72","img/motor_5.png","72","motor","5","183","1","0","0","",""
"null","","1401026","HierDylhn3xaob","7kcrujies1","ms1000320","iti","","null","img/motor_5.png","72","motor","","","","","","",""
"500","","1401536","HierDylhn3xaob","7kcrujies1","ms1000320","motor","","70","img/motor_4.png","70","motor","4","184","1","0","0","",""
"null","","1401651","HierDylhn3xaob","7kcrujies1","ms1000320","iti","","null","img/motor_4.png","70","motor","","","","","","",""
"587","","1402255","HierDylhn3xaob","7kcrujies1","ms1000320","motor","","72","img/motor_5.png","72","motor","5","185","1","0","0","",""
"null","","1402364","HierDylhn3xaob","7kcrujies1","ms1000320","iti","","null","img/motor_5.png","72","motor","","","","","","",""
"572","","1402943","HierDylhn3xaob","7kcrujies1","ms1000320","motor","","65","img/motor_1.png","65","motor","1","186","1","0","0","",""
"null","","1403052","HierDylhn3xaob","7kcrujies1","ms1000320","iti","","null","img/motor_1.png","65","motor","","","","","","",""
"531","","1403591","HierDylhn3xaob","7kcrujies1","ms1000320","motor","","68","img/motor_3.png","68","motor","3","187","1","0","0","",""
"null","","1403700","HierDylhn3xaob","7kcrujies1","ms1000320","iti","","null","img/motor_3.png","68","motor","","","","","","",""
"467","","1404176","HierDylhn3xaob","7kcrujies1","ms1000320","motor","","68","img/motor_3.png","68","motor","3","188","1","0","0","",""
"null","","1404284","HierDylhn3xaob","7kcrujies1","ms1000320","iti","","null","img/motor_3.png","68","motor","","","","","","",""
"444","","1404742","HierDylhn3xaob","7kcrujies1","ms1000320","motor","","76","img/motor_8.png","76","motor","8","189","1","0","0","",""
"null","","1404857","HierDylhn3xaob","7kcrujies1","ms1000320","iti","","null","img/motor_8.png","76","motor","","","","","","",""
"556","","1405424","HierDylhn3xaob","7kcrujies1","ms1000320","motor","","75","img/motor_7.png","75","motor","7","190","1","0","0","",""
"null","","1405532","HierDylhn3xaob","7kcrujies1","ms1000320","iti","","null","img/motor_7.png","75","motor","","","","","","",""
"524","","1406062","HierDylhn3xaob","7kcrujies1","ms1000320","motor","","65","img/motor_1.png","65","motor","1","191","1","0","0","",""
"null","","1406171","HierDylhn3xaob","7kcrujies1","ms1000320","iti","","null","img/motor_1.png","65","motor","","","","","","",""
"492","","1406671","HierDylhn3xaob","7kcrujies1","ms1000320","motor","","70","img/motor_4.png","70","motor","4","192","1","0","0","",""
"null","","1406787","HierDylhn3xaob","7kcrujies1","ms1000320","iti","","null","img/motor_4.png","70","motor","","","","","","",""
"445","","1407239","HierDylhn3xaob","7kcrujies1","ms1000320","motor","","75","img/motor_6.png","74","motor","6","193","0","1","0","",""
"328","","1407575","HierDylhn3xaob","7kcrujies1","ms1000320","motorRepeat","","74","img/motor_6.png","74","motor","6","193","1","0","0","",""
"null","","1407683","HierDylhn3xaob","7kcrujies1","ms1000320","iti","","null","img/motor_6.png","74","motor","","","","","","",""
"556","","1408253","HierDylhn3xaob","7kcrujies1","ms1000320","motor","","70","img/motor_4.png","70","motor","4","194","1","0","0","",""
"null","","1408362","HierDylhn3xaob","7kcrujies1","ms1000320","iti","","null","img/motor_4.png","70","motor","","","","","","",""
"397","","1408767","HierDylhn3xaob","7kcrujies1","ms1000320","motor","","65","img/motor_1.png","65","motor","1","195","1","0","0","",""
"null","","1408876","HierDylhn3xaob","7kcrujies1","ms1000320","iti","","null","img/motor_1.png","65","motor","","","","","","",""
"403","","1409294","HierDylhn3xaob","7kcrujies1","ms1000320","motor","","65","img/motor_1.png","65","motor","1","196","1","0","0","",""
"null","","1409409","HierDylhn3xaob","7kcrujies1","ms1000320","iti","","null","img/motor_1.png","65","motor","","","","","","",""
"597","","1410022","HierDylhn3xaob","7kcrujies1","ms1000320","motor","","75","img/motor_7.png","75","motor","7","197","1","0","0","",""
"null","","1410130","HierDylhn3xaob","7kcrujies1","ms1000320","iti","","null","img/motor_7.png","75","motor","","","","","","",""
"396","","1410534","HierDylhn3xaob","7kcrujies1","ms1000320","motor","","75","img/motor_7.png","75","motor","7","198","1","0","0","",""
"null","","1410643","HierDylhn3xaob","7kcrujies1","ms1000320","iti","","null","img/motor_7.png","75","motor","","","","","","",""
"469","","1411119","HierDylhn3xaob","7kcrujies1","ms1000320","motor","","83","img/motor_2.png","83","motor","2","199","1","0","0","",""
"null","","1411228","HierDylhn3xaob","7kcrujies1","ms1000320","iti","","null","img/motor_2.png","83","motor","","","","","","",""
"244","","1411480","HierDylhn3xaob","7kcrujies1","ms1000320","motor","","83","img/motor_4.png","70","motor","4","200","0","1","0","",""
"417","","1411910","HierDylhn3xaob","7kcrujies1","ms1000320","motorRepeat","","70","img/motor_4.png","70","motor","4","200","1","0","0","",""
"null","","1412020","HierDylhn3xaob","7kcrujies1","ms1000320","iti","","null","img/motor_4.png","70","motor","","","","","","",""
"388","","1412416","HierDylhn3xaob","7kcrujies1","ms1000320","motor","","75","img/motor_8.png","76","motor","8","201","0","1","0","",""
"32","","1412455","HierDylhn3xaob","7kcrujies1","ms1000320","motorRepeat","","76","img/motor_8.png","76","motor","8","201","1","0","0","",""
"null","","1412570","HierDylhn3xaob","7kcrujies1","ms1000320","iti","","null","img/motor_8.png","76","motor","","","","","","",""
"444","","1413024","HierDylhn3xaob","7kcrujies1","ms1000320","motor","","83","img/motor_2.png","83","motor","2","202","1","0","0","",""
"null","","1413138","HierDylhn3xaob","7kcrujies1","ms1000320","iti","","null","img/motor_2.png","83","motor","","","","","","",""
"548","","1413695","HierDylhn3xaob","7kcrujies1","ms1000320","motor","","65","img/motor_1.png","65","motor","1","203","1","0","0","",""
"null","","1413804","HierDylhn3xaob","7kcrujies1","ms1000320","iti","","null","img/motor_1.png","65","motor","","","","","","",""
"524","","1414342","HierDylhn3xaob","7kcrujies1","ms1000320","motor","","75","img/motor_6.png","74","motor","6","204","0","1","0","",""
"497","","1414847","HierDylhn3xaob","7kcrujies1","ms1000320","motorRepeat","","74","img/motor_6.png","74","motor","6","204","1","0","0","",""
"null","","1414962","HierDylhn3xaob","7kcrujies1","ms1000320","iti","","null","img/motor_6.png","74","motor","","","","","","",""
"692","","1415663","HierDylhn3xaob","7kcrujies1","ms1000320","motor","","70","img/motor_4.png","70","motor","4","205","1","0","0","",""
"null","","1415772","HierDylhn3xaob","7kcrujies1","ms1000320","iti","","null","img/motor_4.png","70","motor","","","","","","",""
"628","","1416408","HierDylhn3xaob","7kcrujies1","ms1000320","motor","","68","img/motor_3.png","68","motor","3","206","1","0","0","",""
"null","","1416522","HierDylhn3xaob","7kcrujies1","ms1000320","iti","","null","img/motor_3.png","68","motor","","","","","","",""
"556","","1417087","HierDylhn3xaob","7kcrujies1","ms1000320","motor","","75","img/motor_7.png","75","motor","7","207","1","0","0","",""
"null","","1417196","HierDylhn3xaob","7kcrujies1","ms1000320","iti","","null","img/motor_7.png","75","motor","","","","","","",""
"715","","1417925","HierDylhn3xaob","7kcrujies1","ms1000320","motor","","68","img/motor_3.png","68","motor","3","208","1","0","0","",""
"null","","1418035","HierDylhn3xaob","7kcrujies1","ms1000320","iti","","null","img/motor_3.png","68","motor","","","","","","",""
"516","","1418560","HierDylhn3xaob","7kcrujies1","ms1000320","motor","","75","img/motor_7.png","75","motor","7","209","1","0","0","",""
"null","","1418675","HierDylhn3xaob","7kcrujies1","ms1000320","iti","","null","img/motor_7.png","75","motor","","","","","","",""
"508","","1419191","HierDylhn3xaob","7kcrujies1","ms1000320","motor","","70","img/motor_4.png","70","motor","4","210","1","0","0","",""
"null","","1419300","HierDylhn3xaob","7kcrujies1","ms1000320","iti","","null","img/motor_4.png","70","motor","","","","","","",""
"515","","1419824","HierDylhn3xaob","7kcrujies1","ms1000320","motor","","72","img/motor_5.png","72","motor","5","211","1","0","0","",""
"null","","1419932","HierDylhn3xaob","7kcrujies1","ms1000320","iti","","null","img/motor_5.png","72","motor","","","","","","",""
"563","","1420503","HierDylhn3xaob","7kcrujies1","ms1000320","motor","","75","img/motor_7.png","75","motor","7","212","1","0","0","",""
"null","","1420611","HierDylhn3xaob","7kcrujies1","ms1000320","iti","","null","img/motor_7.png","75","motor","","","","","","",""
"444","","1421063","HierDylhn3xaob","7kcrujies1","ms1000320","motor","","70","img/motor_4.png","70","motor","4","213","1","0","0","",""
"null","","1421178","HierDylhn3xaob","7kcrujies1","ms1000320","iti","","null","img/motor_4.png","70","motor","","","","","","",""
"508","","1421696","HierDylhn3xaob","7kcrujies1","ms1000320","motor","","83","img/motor_3.png","68","motor","3","214","0","1","0","",""
"416","","1422119","HierDylhn3xaob","7kcrujies1","ms1000320","motorRepeat","","68","img/motor_3.png","68","motor","3","214","1","0","0","",""
"null","","1422228","HierDylhn3xaob","7kcrujies1","ms1000320","iti","","null","img/motor_3.png","68","motor","","","","","","",""
"596","","1422831","HierDylhn3xaob","7kcrujies1","ms1000320","motor","","72","img/motor_5.png","72","motor","5","215","1","0","0","",""
"null","","1422947","HierDylhn3xaob","7kcrujies1","ms1000320","iti","","null","img/motor_5.png","72","motor","","","","","","",""
"532","","1423488","HierDylhn3xaob","7kcrujies1","ms1000320","motor","","68","img/motor_4.png","70","motor","4","216","0","1","0","",""
"351","","1423847","HierDylhn3xaob","7kcrujies1","ms1000320","motorRepeat","","70","img/motor_4.png","70","motor","4","216","1","0","0","",""
"null","","1423955","HierDylhn3xaob","7kcrujies1","ms1000320","iti","","null","img/motor_4.png","70","motor","","","","","","",""
"564","","1424528","HierDylhn3xaob","7kcrujies1","ms1000320","motor","","75","img/motor_8.png","76","motor","8","217","0","1","0","",""
"367","","1424904","HierDylhn3xaob","7kcrujies1","ms1000320","motorRepeat","","76","img/motor_8.png","76","motor","8","217","1","0","0","",""
"null","","1425011","HierDylhn3xaob","7kcrujies1","ms1000320","iti","","null","img/motor_8.png","76","motor","","","","","","",""
"644","","1425664","HierDylhn3xaob","7kcrujies1","ms1000320","motor","","68","img/motor_3.png","68","motor","3","218","1","0","0","",""
"null","","1425779","HierDylhn3xaob","7kcrujies1","ms1000320","iti","","null","img/motor_3.png","68","motor","","","","","","",""
"541","","1426328","HierDylhn3xaob","7kcrujies1","ms1000320","motor","","75","img/motor_8.png","76","motor","8","219","0","1","0","",""
"0","","1426332","HierDylhn3xaob","7kcrujies1","ms1000320","motorRepeat","","76","img/motor_8.png","76","motor","8","219","1","0","0","",""
"null","","1426446","HierDylhn3xaob","7kcrujies1","ms1000320","iti","","null","img/motor_8.png","76","motor","","","","","","",""
"528","","1426984","HierDylhn3xaob","7kcrujies1","ms1000320","motor","","83","img/motor_2.png","83","motor","2","220","1","0","0","",""
"null","","1427099","HierDylhn3xaob","7kcrujies1","ms1000320","iti","","null","img/motor_2.png","83","motor","","","","","","",""
"365","","1427472","HierDylhn3xaob","7kcrujies1","ms1000320","motor","","76","img/motor_7.png","75","motor","7","221","0","1","0","",""
"359","","1427840","HierDylhn3xaob","7kcrujies1","ms1000320","motorRepeat","","75","img/motor_7.png","75","motor","7","221","1","0","0","",""
"null","","1427954","HierDylhn3xaob","7kcrujies1","ms1000320","iti","","null","img/motor_7.png","75","motor","","","","","","",""
"588","","1428552","HierDylhn3xaob","7kcrujies1","ms1000320","motor","","72","img/motor_5.png","72","motor","5","222","1","0","0","",""
"null","","1428666","HierDylhn3xaob","7kcrujies1","ms1000320","iti","","null","img/motor_5.png","72","motor","","","","","","",""
"516","","1429192","HierDylhn3xaob","7kcrujies1","ms1000320","motor","","70","img/motor_4.png","70","motor","4","223","1","0","0","",""
"null","","1429301","HierDylhn3xaob","7kcrujies1","ms1000320","iti","","null","img/motor_4.png","70","motor","","","","","","",""
"492","","1429806","HierDylhn3xaob","7kcrujies1","ms1000320","motor","","75","img/motor_6.png","74","motor","6","224","0","1","0","",""
"545","","1430360","HierDylhn3xaob","7kcrujies1","ms1000320","motorRepeat","","74","img/motor_6.png","74","motor","6","224","1","0","0","",""
"null","","1430468","HierDylhn3xaob","7kcrujies1","ms1000320","iti","","null","img/motor_6.png","74","motor","","","","","","",""
"443","","1430920","HierDylhn3xaob","7kcrujies1","ms1000320","motor","","76","img/motor_8.png","76","motor","8","225","1","0","0","",""
"null","","1431028","HierDylhn3xaob","7kcrujies1","ms1000320","iti","","null","img/motor_8.png","76","motor","","","","","","",""
"555","","1431591","HierDylhn3xaob","7kcrujies1","ms1000320","motor","","65","img/motor_1.png","65","motor","1","226","1","0","0","",""
"null","","1431705","HierDylhn3xaob","7kcrujies1","ms1000320","iti","","null","img/motor_1.png","65","motor","","","","","","",""
"724","","1432446","HierDylhn3xaob","7kcrujies1","ms1000320","motor","","70","img/motor_4.png","70","motor","4","227","1","0","0","",""
"null","","1432555","HierDylhn3xaob","7kcrujies1","ms1000320","iti","","null","img/motor_4.png","70","motor","","","","","","",""
"460","","1433024","HierDylhn3xaob","7kcrujies1","ms1000320","motor","","76","img/motor_8.png","76","motor","8","228","1","0","0","",""
"null","","1433139","HierDylhn3xaob","7kcrujies1","ms1000320","iti","","null","img/motor_8.png","76","motor","","","","","","",""
"540","","1433688","HierDylhn3xaob","7kcrujies1","ms1000320","motor","","72","img/motor_5.png","72","motor","5","229","1","0","0","",""
"null","","1433796","HierDylhn3xaob","7kcrujies1","ms1000320","iti","","null","img/motor_5.png","72","motor","","","","","","",""
"572","","1434376","HierDylhn3xaob","7kcrujies1","ms1000320","motor","","70","img/motor_4.png","70","motor","4","230","1","0","0","",""
"null","","1434490","HierDylhn3xaob","7kcrujies1","ms1000320","iti","","null","img/motor_4.png","70","motor","","","","","","",""
"628","","1435127","HierDylhn3xaob","7kcrujies1","ms1000320","motor","","83","img/motor_2.png","83","motor","2","231","1","0","0","",""
"null","","1435242","HierDylhn3xaob","7kcrujies1","ms1000320","iti","","null","img/motor_2.png","83","motor","","","","","","",""
"652","","1435910","HierDylhn3xaob","7kcrujies1","ms1000320","motor","","75","img/motor_7.png","75","motor","7","232","1","0","0","",""
"56","","1436026","HierDylhn3xaob","7kcrujies1","ms1000320","iti","","76","img/motor_7.png","75","motor","","","","","","",""
"725","","1436760","HierDylhn3xaob","7kcrujies1","ms1000320","motor","","74","img/motor_6.png","74","motor","6","233","1","0","0","",""
"null","","1436869","HierDylhn3xaob","7kcrujies1","ms1000320","iti","","null","img/motor_6.png","74","motor","","","","","","",""
"667","","1437544","HierDylhn3xaob","7kcrujies1","ms1000320","motor","","68","img/motor_3.png","68","motor","3","234","1","0","0","",""
"null","","1437652","HierDylhn3xaob","7kcrujies1","ms1000320","iti","","null","img/motor_3.png","68","motor","","","","","","",""
"347","","1438007","HierDylhn3xaob","7kcrujies1","ms1000320","motor","","83","img/motor_2.png","83","motor","2","235","1","0","0","",""
"null","","1438116","HierDylhn3xaob","7kcrujies1","ms1000320","iti","","null","img/motor_2.png","83","motor","","","","","","",""
"580","","1438703","HierDylhn3xaob","7kcrujies1","ms1000320","motor","","75","img/motor_7.png","75","motor","7","236","1","0","0","",""
"null","","1438818","HierDylhn3xaob","7kcrujies1","ms1000320","iti","","null","img/motor_7.png","75","motor","","","","","","",""
"588","","1439416","HierDylhn3xaob","7kcrujies1","ms1000320","motor","","68","img/motor_3.png","68","motor","3","237","1","0","0","",""
"null","","1439531","HierDylhn3xaob","7kcrujies1","ms1000320","iti","","null","img/motor_3.png","68","motor","","","","","","",""
"708","","1440248","HierDylhn3xaob","7kcrujies1","ms1000320","motor","","72","img/motor_4.png","70","motor","4","238","0","1","0","",""
"279","","1440536","HierDylhn3xaob","7kcrujies1","ms1000320","motorRepeat","","70","img/motor_4.png","70","motor","4","238","1","0","0","",""
"null","","1440643","HierDylhn3xaob","7kcrujies1","ms1000320","iti","","null","img/motor_4.png","70","motor","","","","","","",""
"676","","1441328","HierDylhn3xaob","7kcrujies1","ms1000320","motor","","83","img/motor_2.png","83","motor","2","239","1","0","0","",""
"0","","1441442","HierDylhn3xaob","7kcrujies1","ms1000320","iti","","75","img/motor_2.png","83","motor","","","","","","",""
"589","","1442040","HierDylhn3xaob","7kcrujies1","ms1000320","motor","","70","img/motor_4.png","70","motor","4","240","1","0","0","",""
"null","","1442148","HierDylhn3xaob","7kcrujies1","ms1000320","iti","","null","img/motor_4.png","70","motor","","","","","","",""
"555","","1442718","HierDylhn3xaob","7kcrujies1","ms1000320","motor","","76","img/motor_8.png","76","motor","8","241","1","0","0","",""
"null","","1442827","HierDylhn3xaob","7kcrujies1","ms1000320","iti","","null","img/motor_8.png","76","motor","","","","","","",""
"484","","1443327","HierDylhn3xaob","7kcrujies1","ms1000320","motor","","65","img/motor_5.png","72","motor","5","242","0","1","0","",""
"905","","1444239","HierDylhn3xaob","7kcrujies1","ms1000320","motorRepeat","","74","img/motor_5.png","72","motor","5","242","0","1","0","",""
"200","","1444447","HierDylhn3xaob","7kcrujies1","ms1000320","motorRepeat","","70","img/motor_5.png","72","motor","5","242","0","1","0","",""
"0","","1444452","HierDylhn3xaob","7kcrujies1","ms1000320","motorRepeat","","72","img/motor_5.png","72","motor","5","242","1","0","0","",""
"null","","1444567","HierDylhn3xaob","7kcrujies1","ms1000320","iti","","null","img/motor_5.png","72","motor","","","","","","",""
"825","","1445400","HierDylhn3xaob","7kcrujies1","ms1000320","motor","","74","img/motor_5.png","72","motor","5","243","0","1","0","",""
"1","","1445404","HierDylhn3xaob","7kcrujies1","ms1000320","motorRepeat","","72","img/motor_5.png","72","motor","5","243","1","0","0","",""
"null","","1445512","HierDylhn3xaob","7kcrujies1","ms1000320","iti","","null","img/motor_5.png","72","motor","","","","","","",""
"96","","1445614","HierDylhn3xaob","7kcrujies1","ms1000320","motor","","70","img/motor_6.png","74","motor","6","244","0","1","0","",""
"0","","1445619","HierDylhn3xaob","7kcrujies1","ms1000320","motorRepeat","","76","img/motor_6.png","74","motor","6","244","0","1","0","",""
"1036","","1446670","HierDylhn3xaob","7kcrujies1","ms1000320","motorRepeat","","74","img/motor_6.png","74","motor","6","244","1","0","0","",""
"null","","1446779","HierDylhn3xaob","7kcrujies1","ms1000320","iti","","null","img/motor_6.png","74","motor","","","","","","",""
"684","","1447471","HierDylhn3xaob","7kcrujies1","ms1000320","motor","","68","img/motor_3.png","68","motor","3","245","1","0","0","",""
"null","","1447587","HierDylhn3xaob","7kcrujies1","ms1000320","iti","","null","img/motor_3.png","68","motor","","","","","","",""
"908","","1448505","HierDylhn3xaob","7kcrujies1","ms1000320","motor","","65","img/motor_1.png","65","motor","1","246","1","0","0","",""
"null","","1448612","HierDylhn3xaob","7kcrujies1","ms1000320","iti","","null","img/motor_1.png","65","motor","","","","","","",""
"1259","","1449886","HierDylhn3xaob","7kcrujies1","ms1000320","motor","","75","img/motor_7.png","75","motor","7","247","1","0","0","",""
"null","","1450002","HierDylhn3xaob","7kcrujies1","ms1000320","iti","","null","img/motor_7.png","75","motor","","","","","","",""
"580","","1450592","HierDylhn3xaob","7kcrujies1","ms1000320","motor","","83","img/motor_2.png","83","motor","2","248","1","0","0","",""
"null","","1450700","HierDylhn3xaob","7kcrujies1","ms1000320","iti","","null","img/motor_2.png","83","motor","","","","","","",""
"476","","1451184","HierDylhn3xaob","7kcrujies1","ms1000320","motor","","68","img/motor_3.png","68","motor","3","249","1","0","0","",""
"null","","1451298","HierDylhn3xaob","7kcrujies1","ms1000320","iti","","null","img/motor_3.png","68","motor","","","","","","",""
"797","","1452104","HierDylhn3xaob","7kcrujies1","ms1000320","motor","","74","img/motor_6.png","74","motor","6","250","1","0","0","",""
"null","","1452212","HierDylhn3xaob","7kcrujies1","ms1000320","iti","","null","img/motor_6.png","74","motor","","","","","","",""
"595","","1452822","HierDylhn3xaob","7kcrujies1","ms1000320","motor","","83","img/motor_1.png","65","motor","1","251","0","1","0","",""
"240","","1453071","HierDylhn3xaob","7kcrujies1","ms1000320","motorRepeat","","65","img/motor_1.png","65","motor","1","251","1","0","0","",""
"16","","1453180","HierDylhn3xaob","7kcrujies1","ms1000320","iti","","83","img/motor_1.png","65","motor","","","","","","",""
"412","","1453600","HierDylhn3xaob","7kcrujies1","ms1000320","motor","","65","img/motor_1.png","65","motor","1","252","1","0","0","",""
"null","","1453715","HierDylhn3xaob","7kcrujies1","ms1000320","iti","","null","img/motor_1.png","65","motor","","","","","","",""
"564","","1454288","HierDylhn3xaob","7kcrujies1","ms1000320","motor","","70","img/motor_3.png","68","motor","3","253","0","1","0","",""
"111","","1454408","HierDylhn3xaob","7kcrujies1","ms1000320","motorRepeat","","68","img/motor_3.png","68","motor","3","253","1","0","0","",""
"null","","1454516","HierDylhn3xaob","7kcrujies1","ms1000320","iti","","null","img/motor_3.png","68","motor","","","","","","",""
"394","","1454919","HierDylhn3xaob","7kcrujies1","ms1000320","motor","","68","img/motor_3.png","68","motor","3","254","1","0","0","",""
"null","","1455028","HierDylhn3xaob","7kcrujies1","ms1000320","iti","","null","img/motor_3.png","68","motor","","","","","","",""
"572","","1455608","HierDylhn3xaob","7kcrujies1","ms1000320","motor","","70","img/motor_4.png","70","motor","4","255","1","0","0","",""
"null","","1455717","HierDylhn3xaob","7kcrujies1","ms1000320","iti","","null","img/motor_4.png","70","motor","","","","","","",""
"394","","1456120","HierDylhn3xaob","7kcrujies1","ms1000320","motor","","70","img/motor_4.png","70","motor","4","256","1","0","0","",""
"null","","1456228","HierDylhn3xaob","7kcrujies1","ms1000320","iti","","null","img/motor_4.png","70","motor","","","","","","",""
"603","","1456840","HierDylhn3xaob","7kcrujies1","ms1000320","motor","","68","img/motor_3.png","68","motor","3","257","1","0","0","",""
"null","","1456948","HierDylhn3xaob","7kcrujies1","ms1000320","iti","","null","img/motor_3.png","68","motor","","","","","","",""
"660","","1457615","HierDylhn3xaob","7kcrujies1","ms1000320","motor","","74","img/motor_6.png","74","motor","6","258","1","0","0","",""
"null","","1457724","HierDylhn3xaob","7kcrujies1","ms1000320","iti","","null","img/motor_6.png","74","motor","","","","","","",""
"604","","1458336","HierDylhn3xaob","7kcrujies1","ms1000320","motor","","68","img/motor_3.png","68","motor","3","259","1","0","0","",""
"null","","1458444","HierDylhn3xaob","7kcrujies1","ms1000320","iti","","null","img/motor_3.png","68","motor","","","","","","",""
"332","","1458783","HierDylhn3xaob","7kcrujies1","ms1000320","motor","","68","img/motor_3.png","68","motor","3","260","1","0","0","",""
"null","","1458892","HierDylhn3xaob","7kcrujies1","ms1000320","iti","","null","img/motor_3.png","68","motor","","","","","","",""
"620","","1459527","HierDylhn3xaob","7kcrujies1","ms1000320","motor","","65","img/motor_1.png","65","motor","1","261","1","0","0","",""
"26","","1459635","HierDylhn3xaob","7kcrujies1","ms1000320","iti","","83","img/motor_1.png","65","motor","","","","","","",""
"669","","1460312","HierDylhn3xaob","7kcrujies1","ms1000320","motor","","68","img/motor_3.png","68","motor","3","262","1","0","0","",""
"null","","1460421","HierDylhn3xaob","7kcrujies1","ms1000320","iti","","null","img/motor_3.png","68","motor","","","","","","",""
"715","","1461150","HierDylhn3xaob","7kcrujies1","ms1000320","motor","","72","img/motor_5.png","72","motor","5","263","1","0","0","",""
"null","","1461266","HierDylhn3xaob","7kcrujies1","ms1000320","iti","","null","img/motor_5.png","72","motor","","","","","","",""
"462","","1461744","HierDylhn3xaob","7kcrujies1","ms1000320","motor","","76","img/motor_8.png","76","motor","8","264","1","0","0","",""
"null","","1461853","HierDylhn3xaob","7kcrujies1","ms1000320","iti","","null","img/motor_8.png","76","motor","","","","","","",""
"484","","1462344","HierDylhn3xaob","7kcrujies1","ms1000320","motor","","65","img/motor_1.png","65","motor","1","265","1","0","0","",""
"null","","1462459","HierDylhn3xaob","7kcrujies1","ms1000320","iti","","null","img/motor_1.png","65","motor","","","","","","",""
"651","","1463120","HierDylhn3xaob","7kcrujies1","ms1000320","motor","","75","img/motor_7.png","75","motor","7","266","1","0","0","",""
"null","","1463228","HierDylhn3xaob","7kcrujies1","ms1000320","iti","","null","img/motor_7.png","75","motor","","","","","","",""
"483","","1463721","HierDylhn3xaob","7kcrujies1","ms1000320","motor","","83","img/motor_2.png","83","motor","2","267","1","0","0","",""
"null","","1463829","HierDylhn3xaob","7kcrujies1","ms1000320","iti","","null","img/motor_2.png","83","motor","","","","","","",""
"690","","1464528","HierDylhn3xaob","7kcrujies1","ms1000320","motor","","65","img/motor_1.png","65","motor","1","268","1","0","0","",""
"31","","1464636","HierDylhn3xaob","7kcrujies1","ms1000320","iti","","83","img/motor_1.png","65","motor","","","","","","",""
"675","","1465320","HierDylhn3xaob","7kcrujies1","ms1000320","motor","","70","img/motor_4.png","70","motor","4","269","1","0","0","",""
"null","","1465435","HierDylhn3xaob","7kcrujies1","ms1000320","iti","","null","img/motor_4.png","70","motor","","","","","","",""
"668","","1466113","HierDylhn3xaob","7kcrujies1","ms1000320","motor","","68","img/motor_3.png","68","motor","3","270","1","0","0","",""
"null","","1466228","HierDylhn3xaob","7kcrujies1","ms1000320","iti","","null","img/motor_3.png","68","motor","","","","","","",""
"587","","1466824","HierDylhn3xaob","7kcrujies1","ms1000320","motor","","65","img/motor_1.png","65","motor","1","271","1","0","0","",""
"null","","1466938","HierDylhn3xaob","7kcrujies1","ms1000320","iti","","null","img/motor_1.png","65","motor","","","","","","",""
"837","","1467791","HierDylhn3xaob","7kcrujies1","ms1000320","motor","","75","img/motor_6.png","74","motor","6","272","0","1","0","",""
"432","","1468232","HierDylhn3xaob","7kcrujies1","ms1000320","motorRepeat","","74","img/motor_6.png","74","motor","6","272","1","0","0","",""
"null","","1468347","HierDylhn3xaob","7kcrujies1","ms1000320","iti","","null","img/motor_6.png","74","motor","","","","","","",""
"597","","1468959","HierDylhn3xaob","7kcrujies1","ms1000320","motor","","65","img/motor_1.png","65","motor","1","273","1","0","0","",""
"null","","1469067","HierDylhn3xaob","7kcrujies1","ms1000320","iti","","null","img/motor_1.png","65","motor","","","","","","",""
"484","","1469560","HierDylhn3xaob","7kcrujies1","ms1000320","motor","","65","img/motor_1.png","65","motor","1","274","1","0","0","",""
"null","","1469669","HierDylhn3xaob","7kcrujies1","ms1000320","iti","","null","img/motor_1.png","65","motor","","","","","","",""
"867","","1470551","HierDylhn3xaob","7kcrujies1","ms1000320","motor","","83","img/motor_2.png","83","motor","2","275","1","0","0","",""
"null","","1470660","HierDylhn3xaob","7kcrujies1","ms1000320","iti","","null","img/motor_2.png","83","motor","","","","","","",""
"507","","1471176","HierDylhn3xaob","7kcrujies1","ms1000320","motor","","76","img/motor_8.png","76","motor","8","276","1","0","0","",""
"null","","1471285","HierDylhn3xaob","7kcrujies1","ms1000320","iti","","null","img/motor_8.png","76","motor","","","","","","",""
"563","","1471856","HierDylhn3xaob","7kcrujies1","ms1000320","motor","","65","img/motor_1.png","65","motor","1","277","1","0","0","",""
"null","","1471964","HierDylhn3xaob","7kcrujies1","ms1000320","iti","","null","img/motor_1.png","65","motor","","","","","","",""
"483","","1472456","HierDylhn3xaob","7kcrujies1","ms1000320","motor","","76","img/motor_7.png","75","motor","7","278","0","1","0","",""
"536","","1473000","HierDylhn3xaob","7kcrujies1","ms1000320","motorRepeat","","75","img/motor_7.png","75","motor","7","278","1","0","0","",""
"null","","1473109","HierDylhn3xaob","7kcrujies1","ms1000320","iti","","null","img/motor_7.png","75","motor","","","","","","",""
"748","","1473871","HierDylhn3xaob","7kcrujies1","ms1000320","motor","","83","img/motor_3.png","68","motor","3","279","0","1","0","",""
"464","","1474344","HierDylhn3xaob","7kcrujies1","ms1000320","motorRepeat","","68","img/motor_3.png","68","motor","3","279","1","0","0","",""
"null","","1474453","HierDylhn3xaob","7kcrujies1","ms1000320","iti","","null","img/motor_3.png","68","motor","","","","","","",""
"635","","1475096","HierDylhn3xaob","7kcrujies1","ms1000320","motor","","75","img/motor_7.png","75","motor","7","280","1","0","0","",""
"null","","1475205","HierDylhn3xaob","7kcrujies1","ms1000320","iti","","null","img/motor_7.png","75","motor","","","","","","",""
"355","","1475574","HierDylhn3xaob","7kcrujies1","ms1000320","motor","","75","img/motor_6.png","74","motor","6","281","0","1","0","",""
"313","","1475902","HierDylhn3xaob","7kcrujies1","ms1000320","motorRepeat","","74","img/motor_6.png","74","motor","6","281","1","0","0","",""
"null","","1476012","HierDylhn3xaob","7kcrujies1","ms1000320","iti","","null","img/motor_6.png","74","motor","","","","","","",""
"644","","1476671","HierDylhn3xaob","7kcrujies1","ms1000320","motor","","76","img/motor_7.png","75","motor","7","282","0","1","0","",""
"408","","1477087","HierDylhn3xaob","7kcrujies1","ms1000320","motorRepeat","","75","img/motor_7.png","75","motor","7","282","1","0","0","",""
"null","","1477196","HierDylhn3xaob","7kcrujies1","ms1000320","iti","","null","img/motor_7.png","75","motor","","","","","","",""
"556","","1477767","HierDylhn3xaob","7kcrujies1","ms1000320","motor","","75","img/motor_6.png","74","motor","6","283","0","1","0","",""
"657","","1478439","HierDylhn3xaob","7kcrujies1","ms1000320","motorRepeat","","72","img/motor_6.png","74","motor","6","283","0","1","0","",""
"295","","1478744","HierDylhn3xaob","7kcrujies1","ms1000320","motorRepeat","","74","img/motor_6.png","74","motor","6","283","1","0","0","",""
"null","","1478860","HierDylhn3xaob","7kcrujies1","ms1000320","iti","","null","img/motor_6.png","74","motor","","","","","","",""
"596","","1479471","HierDylhn3xaob","7kcrujies1","ms1000320","motor","","72","img/motor_5.png","72","motor","5","284","1","0","0","",""
"null","","1479587","HierDylhn3xaob","7kcrujies1","ms1000320","iti","","null","img/motor_5.png","72","motor","","","","","","",""
"549","","1480144","HierDylhn3xaob","7kcrujies1","ms1000320","motor","","74","img/motor_6.png","74","motor","6","285","1","0","0","",""
"null","","1480252","HierDylhn3xaob","7kcrujies1","ms1000320","iti","","null","img/motor_6.png","74","motor","","","","","","",""
"514","","1480776","HierDylhn3xaob","7kcrujies1","ms1000320","motor","","72","img/motor_5.png","72","motor","5","286","1","0","0","",""
"null","","1480891","HierDylhn3xaob","7kcrujies1","ms1000320","iti","","null","img/motor_5.png","72","motor","","","","","","",""
"653","","1481552","HierDylhn3xaob","7kcrujies1","ms1000320","motor","","83","img/motor_2.png","83","motor","2","287","1","0","0","",""
"null","","1481667","HierDylhn3xaob","7kcrujies1","ms1000320","iti","","null","img/motor_2.png","83","motor","","","","","","",""
"748","","1482424","HierDylhn3xaob","7kcrujies1","ms1000320","motor","","70","img/motor_4.png","70","motor","4","288","1","0","0","",""
"null","","1482532","HierDylhn3xaob","7kcrujies1","ms1000320","iti","","null","img/motor_4.png","70","motor","","","","","","",""
"643","","1483184","HierDylhn3xaob","7kcrujies1","ms1000320","motor","","65","img/motor_1.png","65","motor","1","289","1","0","0","",""
"null","","1483299","HierDylhn3xaob","7kcrujies1","ms1000320","iti","","null","img/motor_1.png","65","motor","","","","","","",""
"828","","1484143","HierDylhn3xaob","7kcrujies1","ms1000320","motor","","65","img/motor_4.png","70","motor","4","290","0","1","0","",""
"304","","1484456","HierDylhn3xaob","7kcrujies1","ms1000320","motorRepeat","","70","img/motor_4.png","70","motor","4","290","1","0","0","",""
"null","","1484571","HierDylhn3xaob","7kcrujies1","ms1000320","iti","","null","img/motor_4.png","70","motor","","","","","","",""
"508","","1485088","HierDylhn3xaob","7kcrujies1","ms1000320","motor","","72","img/motor_5.png","72","motor","5","291","1","0","0","",""
"null","","1485203","HierDylhn3xaob","7kcrujies1","ms1000320","iti","","null","img/motor_5.png","72","motor","","","","","","",""
"452","","1485664","HierDylhn3xaob","7kcrujies1","ms1000320","motor","","72","img/motor_5.png","72","motor","5","292","1","0","0","",""
"null","","1485778","HierDylhn3xaob","7kcrujies1","ms1000320","iti","","null","img/motor_5.png","72","motor","","","","","","",""
"509","","1486296","HierDylhn3xaob","7kcrujies1","ms1000320","motor","","70","img/motor_4.png","70","motor","4","293","1","0","0","",""
"null","","1486411","HierDylhn3xaob","7kcrujies1","ms1000320","iti","","null","img/motor_4.png","70","motor","","","","","","",""
"403","","1486824","HierDylhn3xaob","7kcrujies1","ms1000320","motor","","70","img/motor_4.png","70","motor","4","294","1","0","0","",""
"null","","1486933","HierDylhn3xaob","7kcrujies1","ms1000320","iti","","null","img/motor_4.png","70","motor","","","","","","",""
"547","","1487488","HierDylhn3xaob","7kcrujies1","ms1000320","motor","","75","img/motor_7.png","75","motor","7","295","1","0","0","",""
"null","","1487603","HierDylhn3xaob","7kcrujies1","ms1000320","iti","","null","img/motor_7.png","75","motor","","","","","","",""
"501","","1488112","HierDylhn3xaob","7kcrujies1","ms1000320","motor","","72","img/motor_5.png","72","motor","5","296","1","0","0","",""
"null","","1488221","HierDylhn3xaob","7kcrujies1","ms1000320","iti","","null","img/motor_5.png","72","motor","","","","","","",""
"611","","1488840","HierDylhn3xaob","7kcrujies1","ms1000320","motor","","83","img/motor_3.png","68","motor","3","297","0","1","0","",""
"352","","1489201","HierDylhn3xaob","7kcrujies1","ms1000320","motorRepeat","","68","img/motor_3.png","68","motor","3","297","1","0","0","",""
"null","","1489309","HierDylhn3xaob","7kcrujies1","ms1000320","iti","","null","img/motor_3.png","68","motor","","","","","","",""
"402","","1489720","HierDylhn3xaob","7kcrujies1","ms1000320","motor","","72","img/motor_5.png","72","motor","5","298","1","0","0","",""
"null","","1489828","HierDylhn3xaob","7kcrujies1","ms1000320","iti","","null","img/motor_5.png","72","motor","","","","","","",""
"451","","1490295","HierDylhn3xaob","7kcrujies1","ms1000320","motor","","75","img/motor_7.png","75","motor","7","299","1","0","0","",""
"null","","1490404","HierDylhn3xaob","7kcrujies1","ms1000320","iti","","null","img/motor_7.png","75","motor","","","","","","",""
"380","","1490792","HierDylhn3xaob","7kcrujies1","ms1000320","motor","","75","img/motor_7.png","75","motor","7","300","1","0","0","",""
"null","","1490900","HierDylhn3xaob","7kcrujies1","ms1000320","iti","","null","img/motor_7.png","75","motor","","","","","","",""
"492","","1491407","HierDylhn3xaob","7kcrujies1","ms1000320","motor","","70","img/motor_4.png","70","motor","4","301","1","0","0","",""
"null","","1491517","HierDylhn3xaob","7kcrujies1","ms1000320","iti","","null","img/motor_4.png","70","motor","","","","","","",""
"548","","1492079","HierDylhn3xaob","7kcrujies1","ms1000320","motor","","83","img/motor_2.png","83","motor","2","302","1","0","0","",""
"null","","1492188","HierDylhn3xaob","7kcrujies1","ms1000320","iti","","null","img/motor_2.png","83","motor","","","","","","",""
"716","","1492912","HierDylhn3xaob","7kcrujies1","ms1000320","motor","","74","img/motor_6.png","74","motor","6","303","1","0","0","",""
"null","","1493027","HierDylhn3xaob","7kcrujies1","ms1000320","iti","","null","img/motor_6.png","74","motor","","","","","","",""
"444","","1493487","HierDylhn3xaob","7kcrujies1","ms1000320","motor","","75","img/motor_7.png","75","motor","7","304","1","0","0","",""
"null","","1493602","HierDylhn3xaob","7kcrujies1","ms1000320","iti","","null","img/motor_7.png","75","motor","","","","","","",""
"541","","1494159","HierDylhn3xaob","7kcrujies1","ms1000320","motor","","72","img/motor_5.png","72","motor","5","305","1","0","0","",""
"null","","1494268","HierDylhn3xaob","7kcrujies1","ms1000320","iti","","null","img/motor_5.png","72","motor","","","","","","",""
"532","","1494808","HierDylhn3xaob","7kcrujies1","ms1000320","motor","","65","img/motor_1.png","65","motor","1","306","1","0","0","",""
"null","","1494923","HierDylhn3xaob","7kcrujies1","ms1000320","iti","","null","img/motor_1.png","65","motor","","","","","","",""
"531","","1495464","HierDylhn3xaob","7kcrujies1","ms1000320","motor","","70","img/motor_4.png","70","motor","4","307","1","0","0","",""
"null","","1495573","HierDylhn3xaob","7kcrujies1","ms1000320","iti","","null","img/motor_4.png","70","motor","","","","","","",""
"451","","1496032","HierDylhn3xaob","7kcrujies1","ms1000320","motor","","65","img/motor_1.png","65","motor","1","308","1","0","0","",""
"null","","1496141","HierDylhn3xaob","7kcrujies1","ms1000320","iti","","null","img/motor_1.png","65","motor","","","","","","",""
"723","","1496873","HierDylhn3xaob","7kcrujies1","ms1000320","motor","","68","img/motor_3.png","68","motor","3","309","1","0","0","",""
"null","","1496987","HierDylhn3xaob","7kcrujies1","ms1000320","iti","","null","img/motor_3.png","68","motor","","","","","","",""
"572","","1497575","HierDylhn3xaob","7kcrujies1","ms1000320","motor","","70","img/motor_4.png","70","motor","4","310","1","0","0","",""
"null","","1497683","HierDylhn3xaob","7kcrujies1","ms1000320","iti","","null","img/motor_4.png","70","motor","","","","","","",""
"588","","1498287","HierDylhn3xaob","7kcrujies1","ms1000320","motor","","74","img/motor_6.png","74","motor","6","311","1","0","0","",""
"null","","1498396","HierDylhn3xaob","7kcrujies1","ms1000320","iti","","null","img/motor_6.png","74","motor","","","","","","",""
"612","","1499016","HierDylhn3xaob","7kcrujies1","ms1000320","motor","","70","img/motor_4.png","70","motor","4","312","1","0","0","",""
"null","","1499125","HierDylhn3xaob","7kcrujies1","ms1000320","iti","","null","img/motor_4.png","70","motor","","","","","","",""
"531","","1499664","HierDylhn3xaob","7kcrujies1","ms1000320","motor","","75","img/motor_7.png","75","motor","7","313","1","0","0","",""
"null","","1499778","HierDylhn3xaob","7kcrujies1","ms1000320","iti","","null","img/motor_7.png","75","motor","","","","","","",""
"452","","1500240","HierDylhn3xaob","7kcrujies1","ms1000320","motor","","76","img/motor_8.png","76","motor","8","314","1","0","0","",""
"null","","1500354","HierDylhn3xaob","7kcrujies1","ms1000320","iti","","null","img/motor_8.png","76","motor","","","","","","",""
"517","","1500881","HierDylhn3xaob","7kcrujies1","ms1000320","motor","","65","img/motor_1.png","65","motor","1","315","1","0","0","",""
"null","","1500989","HierDylhn3xaob","7kcrujies1","ms1000320","iti","","null","img/motor_1.png","65","motor","","","","","","",""
"506","","1501504","HierDylhn3xaob","7kcrujies1","ms1000320","motor","","76","img/motor_8.png","76","motor","8","316","1","0","0","",""
"null","","1501612","HierDylhn3xaob","7kcrujies1","ms1000320","iti","","null","img/motor_8.png","76","motor","","","","","","",""
"499","","1502127","HierDylhn3xaob","7kcrujies1","ms1000320","motor","","74","img/motor_6.png","74","motor","6","317","1","0","0","",""
"null","","1502236","HierDylhn3xaob","7kcrujies1","ms1000320","iti","","null","img/motor_6.png","74","motor","","","","","","",""
"612","","1502855","HierDylhn3xaob","7kcrujies1","ms1000320","motor","","75","img/motor_7.png","75","motor","7","318","1","0","0","",""
"null","","1502963","HierDylhn3xaob","7kcrujies1","ms1000320","iti","","null","img/motor_7.png","75","motor","","","","","","",""
"549","","1503520","HierDylhn3xaob","7kcrujies1","ms1000320","motor","","65","img/motor_1.png","65","motor","1","319","1","0","0","",""
"null","","1503628","HierDylhn3xaob","7kcrujies1","ms1000320","iti","","null","img/motor_1.png","65","motor","","","","","","",""
"701","","1504343","HierDylhn3xaob","7kcrujies1","ms1000320","motor","","72","img/motor_5.png","72","motor","5","320","1","0","0","",""
"null","","1504453","HierDylhn3xaob","7kcrujies1","ms1000320","iti","","null","img/motor_5.png","72","motor","","","","","","",""
"395","","1504863","HierDylhn3xaob","7kcrujies1","ms1000320","motor","","70","img/motor_3.png","68","motor","3","321","0","1","0","",""
"377","","1505247","HierDylhn3xaob","7kcrujies1","ms1000320","motorRepeat","","68","img/motor_3.png","68","motor","3","321","1","0","0","",""
"null","","1505362","HierDylhn3xaob","7kcrujies1","ms1000320","iti","","null","img/motor_3.png","68","motor","","","","","","",""
"477","","1505847","HierDylhn3xaob","7kcrujies1","ms1000320","motor","","75","img/motor_7.png","75","motor","7","322","1","0","0","",""
"null","","1505963","HierDylhn3xaob","7kcrujies1","ms1000320","iti","","null","img/motor_7.png","75","motor","","","","","","",""
"525","","1506497","HierDylhn3xaob","7kcrujies1","ms1000320","motor","","76","img/motor_8.png","76","motor","8","323","1","0","0","",""
"null","","1506611","HierDylhn3xaob","7kcrujies1","ms1000320","iti","","null","img/motor_8.png","76","motor","","","","","","",""
"467","","1507089","HierDylhn3xaob","7kcrujies1","ms1000320","motor","","83","img/motor_2.png","83","motor","2","324","1","0","0","",""
"null","","1507197","HierDylhn3xaob","7kcrujies1","ms1000320","iti","","null","img/motor_2.png","83","motor","","","","","","",""
"635","","1507841","HierDylhn3xaob","7kcrujies1","ms1000320","motor","","68","img/motor_3.png","68","motor","3","325","1","0","0","",""
"null","","1507950","HierDylhn3xaob","7kcrujies1","ms1000320","iti","","null","img/motor_3.png","68","motor","","","","","","",""
"507","","1508464","HierDylhn3xaob","7kcrujies1","ms1000320","motor","","72","img/motor_5.png","72","motor","5","326","1","0","0","",""
"null","","1508580","HierDylhn3xaob","7kcrujies1","ms1000320","iti","","null","img/motor_5.png","72","motor","","","","","","",""
"340","","1508935","HierDylhn3xaob","7kcrujies1","ms1000320","motor","","76","img/motor_8.png","76","motor","8","327","1","0","0","",""
"16","","1509051","HierDylhn3xaob","7kcrujies1","ms1000320","iti","","75","img/motor_8.png","76","motor","","","","","","",""
"613","","1509673","HierDylhn3xaob","7kcrujies1","ms1000320","motor","","72","img/motor_5.png","72","motor","5","328","1","0","0","",""
"null","","1509781","HierDylhn3xaob","7kcrujies1","ms1000320","iti","","null","img/motor_5.png","72","motor","","","","","","",""
"402","","1510199","HierDylhn3xaob","7kcrujies1","ms1000320","motor","","65","img/motor_2.png","83","motor","2","329","0","1","0","",""
"400","","1510607","HierDylhn3xaob","7kcrujies1","ms1000320","motorRepeat","","83","img/motor_2.png","83","motor","2","329","1","0","0","",""
"null","","1510716","HierDylhn3xaob","7kcrujies1","ms1000320","iti","","null","img/motor_2.png","83","motor","","","","","","",""
"501","","1511225","HierDylhn3xaob","7kcrujies1","ms1000320","motor","","68","img/motor_3.png","68","motor","3","330","1","0","0","",""
"null","","1511333","HierDylhn3xaob","7kcrujies1","ms1000320","iti","","null","img/motor_3.png","68","motor","","","","","","",""
"619","","1511961","HierDylhn3xaob","7kcrujies1","ms1000320","motor","","70","img/motor_4.png","70","motor","4","331","1","0","0","",""
"null","","1512069","HierDylhn3xaob","7kcrujies1","ms1000320","iti","","null","img/motor_4.png","70","motor","","","","","","",""
"587","","1512664","HierDylhn3xaob","7kcrujies1","ms1000320","motor","","83","img/motor_2.png","83","motor","2","332","1","0","0","",""
"null","","1512779","HierDylhn3xaob","7kcrujies1","ms1000320","iti","","null","img/motor_2.png","83","motor","","","","","","",""
"468","","1513256","HierDylhn3xaob","7kcrujies1","ms1000320","motor","","76","img/motor_8.png","76","motor","8","333","1","0","0","",""
"null","","1513365","HierDylhn3xaob","7kcrujies1","ms1000320","iti","","null","img/motor_8.png","76","motor","","","","","","",""
"643","","1514016","HierDylhn3xaob","7kcrujies1","ms1000320","motor","","65","img/motor_1.png","65","motor","1","334","1","0","0","",""
"null","","1514131","HierDylhn3xaob","7kcrujies1","ms1000320","iti","","null","img/motor_1.png","65","motor","","","","","","",""
"501","","1514640","HierDylhn3xaob","7kcrujies1","ms1000320","motor","","75","img/motor_7.png","75","motor","7","335","1","0","0","",""
"null","","1514756","HierDylhn3xaob","7kcrujies1","ms1000320","iti","","null","img/motor_7.png","75","motor","","","","","","",""
"876","","1515647","HierDylhn3xaob","7kcrujies1","ms1000320","motor","","68","img/motor_3.png","68","motor","3","336","1","0","0","",""
"null","","1515763","HierDylhn3xaob","7kcrujies1","ms1000320","iti","","null","img/motor_3.png","68","motor","","","","","","",""
"372","","1516144","HierDylhn3xaob","7kcrujies1","ms1000320","motor","","83","img/motor_1.png","65","motor","1","337","0","1","0","",""
"505","","1516656","HierDylhn3xaob","7kcrujies1","ms1000320","motorRepeat","","65","img/motor_1.png","65","motor","1","337","1","0","0","",""
"null","","1516764","HierDylhn3xaob","7kcrujies1","ms1000320","iti","","null","img/motor_1.png","65","motor","","","","","","",""
"444","","1517216","HierDylhn3xaob","7kcrujies1","ms1000320","motor","","75","img/motor_8.png","76","motor","8","338","0","1","0","",""
"47","","1517272","HierDylhn3xaob","7kcrujies1","ms1000320","motorRepeat","","76","img/motor_8.png","76","motor","8","338","1","0","0","",""
"null","","1517380","HierDylhn3xaob","7kcrujies1","ms1000320","iti","","null","img/motor_8.png","76","motor","","","","","","",""
"773","","1518160","HierDylhn3xaob","7kcrujies1","ms1000320","motor","","68","img/motor_4.png","70","motor","4","339","0","1","0","",""
"504","","1518673","HierDylhn3xaob","7kcrujies1","ms1000320","motorRepeat","","70","img/motor_4.png","70","motor","4","339","1","0","0","",""
"null","","1518781","HierDylhn3xaob","7kcrujies1","ms1000320","iti","","null","img/motor_4.png","70","motor","","","","","","",""
