rt,responses,time_elapsed,subject,prolificID,demoID,trialType,question_order,key_press,stim,corrresp,phase,stimNum,trialNum,corr,repeatTrial,motorSwitch,pracCounter,hierarchy
9233,"{""Q0"":""ms1000253""}",9267,HierDyrqluye2n,1fkoi4zwl4,ms1000253,,,,,,,,,,,,,
4515,,13794,HierDyrqluye2n,1fkoi4zwl4,ms1000253,,,,,,,,,,,,,
,,16282,HierDyrqluye2n,1fkoi4zwl4,ms1000253,fullscreen,,,,,,,,,,,,
7964,"{""Vision"":""Yes"",""Handedness"":""Right"",""Gender"":""male""}",24256,HierDyrqluye2n,1fkoi4zwl4,ms1000253,,"[0,1,2]",,,,,,,,,,,
1970,"{""Q0"":""19""}",26239,HierDyrqluye2n,1fkoi4zwl4,ms1000253,,,,,,,,,,,,,
117751,,144002,HierDyrqluye2n,1fkoi4zwl4,ms1000253,,,,,,,,,,,,,
604,,144619,HierDyrqluye2n,1fkoi4zwl4,ms1000253,motor,,83,img/motor_2.png,83,motor,2,1,1,0,0,,
null,,144731,HierDyrqluye2n,1fkoi4zwl4,ms1000253,iti,,null,img/motor_2.png,83,motor,,,,,,,
601,,145342,HierDyrqluye2n,1fkoi4zwl4,ms1000253,motor,,74,img/motor_6.png,74,motor,6,2,1,0,0,,
null,,145454,HierDyrqluye2n,1fkoi4zwl4,ms1000253,iti,,null,img/motor_6.png,74,motor,,,,,,,
511,,145975,HierDyrqluye2n,1fkoi4zwl4,ms1000253,motor,,70,img/motor_4.png,70,motor,4,3,1,0,0,,
null,,146086,HierDyrqluye2n,1fkoi4zwl4,ms1000253,iti,,null,img/motor_4.png,70,motor,,,,,,,
405,,146501,HierDyrqluye2n,1fkoi4zwl4,ms1000253,motor,,70,img/motor_4.png,70,motor,4,4,1,0,0,,
null,,146612,HierDyrqluye2n,1fkoi4zwl4,ms1000253,iti,,null,img/motor_4.png,70,motor,,,,,,,
589,,147212,HierDyrqluye2n,1fkoi4zwl4,ms1000253,motor,,72,img/motor_5.png,72,motor,5,5,1,0,0,,
null,,147323,HierDyrqluye2n,1fkoi4zwl4,ms1000253,iti,,null,img/motor_5.png,72,motor,,,,,,,
458,,147791,HierDyrqluye2n,1fkoi4zwl4,ms1000253,motor,,83,img/motor_2.png,83,motor,2,6,1,0,0,,
null,,147902,HierDyrqluye2n,1fkoi4zwl4,ms1000253,iti,,null,img/motor_2.png,83,motor,,,,,,,
409,,148324,HierDyrqluye2n,1fkoi4zwl4,ms1000253,motor,,65,img/motor_1.png,65,motor,1,7,1,0,0,,
null,,148434,HierDyrqluye2n,1fkoi4zwl4,ms1000253,iti,,null,img/motor_1.png,65,motor,,,,,,,
627,,149071,HierDyrqluye2n,1fkoi4zwl4,ms1000253,motor,,68,img/motor_3.png,68,motor,3,8,1,0,0,,
null,,149183,HierDyrqluye2n,1fkoi4zwl4,ms1000253,iti,,null,img/motor_3.png,68,motor,,,,,,,
435,,149627,HierDyrqluye2n,1fkoi4zwl4,ms1000253,motor,,70,img/motor_4.png,70,motor,4,9,1,0,0,,
null,,149738,HierDyrqluye2n,1fkoi4zwl4,ms1000253,iti,,null,img/motor_4.png,70,motor,,,,,,,
361,,150110,HierDyrqluye2n,1fkoi4zwl4,ms1000253,motor,,65,img/motor_1.png,65,motor,1,10,1,0,0,,
null,,150220,HierDyrqluye2n,1fkoi4zwl4,ms1000253,iti,,null,img/motor_1.png,65,motor,,,,,,,
369,,150599,HierDyrqluye2n,1fkoi4zwl4,ms1000253,motor,,68,img/motor_3.png,68,motor,3,11,1,0,0,,
null,,150711,HierDyrqluye2n,1fkoi4zwl4,ms1000253,iti,,null,img/motor_3.png,68,motor,,,,,,,
641,,151363,HierDyrqluye2n,1fkoi4zwl4,ms1000253,motor,,74,img/motor_6.png,74,motor,6,12,1,0,0,,
null,,151474,HierDyrqluye2n,1fkoi4zwl4,ms1000253,iti,,null,img/motor_6.png,74,motor,,,,,,,
495,,151980,HierDyrqluye2n,1fkoi4zwl4,ms1000253,motor,,68,img/motor_3.png,68,motor,3,13,1,0,0,,
null,,152091,HierDyrqluye2n,1fkoi4zwl4,ms1000253,iti,,null,img/motor_3.png,68,motor,,,,,,,
458,,152558,HierDyrqluye2n,1fkoi4zwl4,ms1000253,motor,,76,img/motor_8.png,76,motor,8,14,1,0,0,,
null,,152669,HierDyrqluye2n,1fkoi4zwl4,ms1000253,iti,,null,img/motor_8.png,76,motor,,,,,,,
405,,153084,HierDyrqluye2n,1fkoi4zwl4,ms1000253,motor,,83,img/motor_2.png,83,motor,2,15,1,0,0,,
null,,153195,HierDyrqluye2n,1fkoi4zwl4,ms1000253,iti,,null,img/motor_2.png,83,motor,,,,,,,
487,,153693,HierDyrqluye2n,1fkoi4zwl4,ms1000253,motor,,76,img/motor_8.png,76,motor,8,16,1,0,0,,
null,,153803,HierDyrqluye2n,1fkoi4zwl4,ms1000253,iti,,null,img/motor_8.png,76,motor,,,,,,,
863,,154676,HierDyrqluye2n,1fkoi4zwl4,ms1000253,motor,,72,img/motor_5.png,72,motor,5,17,1,0,0,,
null,,154788,HierDyrqluye2n,1fkoi4zwl4,ms1000253,iti,,null,img/motor_5.png,72,motor,,,,,,,
440,,155239,HierDyrqluye2n,1fkoi4zwl4,ms1000253,motor,,76,img/motor_8.png,76,motor,8,18,1,0,0,,
null,,155350,HierDyrqluye2n,1fkoi4zwl4,ms1000253,iti,,null,img/motor_8.png,76,motor,,,,,,,
388,,155750,HierDyrqluye2n,1fkoi4zwl4,ms1000253,motor,,83,img/motor_2.png,83,motor,2,19,1,0,0,,
null,,155861,HierDyrqluye2n,1fkoi4zwl4,ms1000253,iti,,null,img/motor_2.png,83,motor,,,,,,,
397,,156269,HierDyrqluye2n,1fkoi4zwl4,ms1000253,motor,,72,img/motor_5.png,72,motor,5,20,1,0,0,,
null,,156379,HierDyrqluye2n,1fkoi4zwl4,ms1000253,iti,,null,img/motor_5.png,72,motor,,,,,,,
369,,156757,HierDyrqluye2n,1fkoi4zwl4,ms1000253,motor,,76,img/motor_8.png,76,motor,8,21,1,0,0,,
null,,156868,HierDyrqluye2n,1fkoi4zwl4,ms1000253,iti,,null,img/motor_8.png,76,motor,,,,,,,
388,,157266,HierDyrqluye2n,1fkoi4zwl4,ms1000253,motor,,72,img/motor_5.png,72,motor,5,22,1,0,0,,
null,,157378,HierDyrqluye2n,1fkoi4zwl4,ms1000253,iti,,null,img/motor_5.png,72,motor,,,,,,,
434,,157822,HierDyrqluye2n,1fkoi4zwl4,ms1000253,motor,,83,img/motor_2.png,83,motor,2,23,1,0,0,,
null,,157934,HierDyrqluye2n,1fkoi4zwl4,ms1000253,iti,,null,img/motor_2.png,83,motor,,,,,,,
341,,158285,HierDyrqluye2n,1fkoi4zwl4,ms1000253,motor,,76,img/motor_8.png,76,motor,8,24,1,0,0,,
null,,158396,HierDyrqluye2n,1fkoi4zwl4,ms1000253,iti,,null,img/motor_8.png,76,motor,,,,,,,
431,,158836,HierDyrqluye2n,1fkoi4zwl4,ms1000253,motor,,70,img/motor_4.png,70,motor,4,25,1,0,0,,
null,,158946,HierDyrqluye2n,1fkoi4zwl4,ms1000253,iti,,null,img/motor_4.png,70,motor,,,,,,,
464,,159422,HierDyrqluye2n,1fkoi4zwl4,ms1000253,motor,,74,img/motor_7.png,75,motor,7,26,0,1,0,,
192,,159624,HierDyrqluye2n,1fkoi4zwl4,ms1000253,motorRepeat,,75,img/motor_7.png,75,motor,7,26,1,0,0,,
null,,159735,HierDyrqluye2n,1fkoi4zwl4,ms1000253,iti,,null,img/motor_7.png,75,motor,,,,,,,
524,,160269,HierDyrqluye2n,1fkoi4zwl4,ms1000253,motor,,83,img/motor_2.png,83,motor,2,27,1,0,0,,
null,,160380,HierDyrqluye2n,1fkoi4zwl4,ms1000253,iti,,null,img/motor_2.png,83,motor,,,,,,,
454,,160843,HierDyrqluye2n,1fkoi4zwl4,ms1000253,motor,,74,img/motor_6.png,74,motor,6,28,1,0,0,,
null,,160955,HierDyrqluye2n,1fkoi4zwl4,ms1000253,iti,,null,img/motor_6.png,74,motor,,,,,,,
516,,161481,HierDyrqluye2n,1fkoi4zwl4,ms1000253,motor,,83,img/motor_2.png,83,motor,2,29,1,0,0,,
null,,161592,HierDyrqluye2n,1fkoi4zwl4,ms1000253,iti,,null,img/motor_2.png,83,motor,,,,,,,
355,,161958,HierDyrqluye2n,1fkoi4zwl4,ms1000253,motor,,76,img/motor_8.png,76,motor,8,30,1,0,0,,
null,,162069,HierDyrqluye2n,1fkoi4zwl4,ms1000253,iti,,null,img/motor_8.png,76,motor,,,,,,,
393,,162471,HierDyrqluye2n,1fkoi4zwl4,ms1000253,motor,,76,img/motor_8.png,76,motor,8,31,1,0,0,,
null,,162583,HierDyrqluye2n,1fkoi4zwl4,ms1000253,iti,,null,img/motor_8.png,76,motor,,,,,,,
340,,162932,HierDyrqluye2n,1fkoi4zwl4,ms1000253,motor,,65,img/motor_1.png,65,motor,1,32,1,0,0,,
null,,163042,HierDyrqluye2n,1fkoi4zwl4,ms1000253,iti,,null,img/motor_1.png,65,motor,,,,,,,
438,,163489,HierDyrqluye2n,1fkoi4zwl4,ms1000253,motor,,72,img/motor_5.png,72,motor,5,33,1,0,0,,
null,,163600,HierDyrqluye2n,1fkoi4zwl4,ms1000253,iti,,null,img/motor_5.png,72,motor,,,,,,,
427,,164038,HierDyrqluye2n,1fkoi4zwl4,ms1000253,motor,,70,img/motor_4.png,70,motor,4,34,1,0,0,,
null,,164149,HierDyrqluye2n,1fkoi4zwl4,ms1000253,iti,,null,img/motor_4.png,70,motor,,,,,,,
477,,164635,HierDyrqluye2n,1fkoi4zwl4,ms1000253,motor,,74,img/motor_6.png,74,motor,6,35,1,0,0,,
null,,164747,HierDyrqluye2n,1fkoi4zwl4,ms1000253,iti,,null,img/motor_6.png,74,motor,,,,,,,
328,,165085,HierDyrqluye2n,1fkoi4zwl4,ms1000253,motor,,83,img/motor_3.png,68,motor,3,36,0,1,0,,
206,,165301,HierDyrqluye2n,1fkoi4zwl4,ms1000253,motorRepeat,,68,img/motor_3.png,68,motor,3,36,1,0,0,,
null,,165412,HierDyrqluye2n,1fkoi4zwl4,ms1000253,iti,,null,img/motor_3.png,68,motor,,,,,,,
381,,165803,HierDyrqluye2n,1fkoi4zwl4,ms1000253,motor,,65,img/motor_1.png,65,motor,1,37,1,0,0,,
null,,165914,HierDyrqluye2n,1fkoi4zwl4,ms1000253,iti,,null,img/motor_1.png,65,motor,,,,,,,
408,,166333,HierDyrqluye2n,1fkoi4zwl4,ms1000253,motor,,72,img/motor_5.png,72,motor,5,38,1,0,0,,
null,,166445,HierDyrqluye2n,1fkoi4zwl4,ms1000253,iti,,null,img/motor_5.png,72,motor,,,,,,,
422,,166877,HierDyrqluye2n,1fkoi4zwl4,ms1000253,motor,,70,img/motor_4.png,70,motor,4,39,1,0,0,,
null,,166987,HierDyrqluye2n,1fkoi4zwl4,ms1000253,iti,,null,img/motor_4.png,70,motor,,,,,,,
493,,167491,HierDyrqluye2n,1fkoi4zwl4,ms1000253,motor,,75,img/motor_7.png,75,motor,7,40,1,0,0,,
null,,167602,HierDyrqluye2n,1fkoi4zwl4,ms1000253,iti,,null,img/motor_7.png,75,motor,,,,,,,
465,,168077,HierDyrqluye2n,1fkoi4zwl4,ms1000253,motor,,72,img/motor_5.png,72,motor,5,41,1,0,0,,
null,,168188,HierDyrqluye2n,1fkoi4zwl4,ms1000253,iti,,null,img/motor_5.png,72,motor,,,,,,,
442,,168638,HierDyrqluye2n,1fkoi4zwl4,ms1000253,motor,,65,img/motor_1.png,65,motor,1,42,1,0,0,,
null,,168749,HierDyrqluye2n,1fkoi4zwl4,ms1000253,iti,,null,img/motor_1.png,65,motor,,,,,,,
432,,169192,HierDyrqluye2n,1fkoi4zwl4,ms1000253,motor,,68,img/motor_3.png,68,motor,3,43,1,0,0,,
null,,169302,HierDyrqluye2n,1fkoi4zwl4,ms1000253,iti,,null,img/motor_3.png,68,motor,,,,,,,
327,,169640,HierDyrqluye2n,1fkoi4zwl4,ms1000253,motor,,83,img/motor_2.png,83,motor,2,44,1,0,0,,
null,,169750,HierDyrqluye2n,1fkoi4zwl4,ms1000253,iti,,null,img/motor_2.png,83,motor,,,,,,,
349,,170109,HierDyrqluye2n,1fkoi4zwl4,ms1000253,motor,,68,img/motor_3.png,68,motor,3,45,1,0,0,,
null,,170220,HierDyrqluye2n,1fkoi4zwl4,ms1000253,iti,,null,img/motor_3.png,68,motor,,,,,,,
488,,170719,HierDyrqluye2n,1fkoi4zwl4,ms1000253,motor,,72,img/motor_6.png,74,motor,6,46,0,1,0,,
205,,170934,HierDyrqluye2n,1fkoi4zwl4,ms1000253,motorRepeat,,74,img/motor_6.png,74,motor,6,46,1,0,0,,
null,,171045,HierDyrqluye2n,1fkoi4zwl4,ms1000253,iti,,null,img/motor_6.png,74,motor,,,,,,,
438,,171495,HierDyrqluye2n,1fkoi4zwl4,ms1000253,motor,,72,img/motor_5.png,72,motor,5,47,1,0,0,,
null,,171607,HierDyrqluye2n,1fkoi4zwl4,ms1000253,iti,,null,img/motor_5.png,72,motor,,,,,,,
447,,172062,HierDyrqluye2n,1fkoi4zwl4,ms1000253,motor,,76,img/motor_8.png,76,motor,8,48,1,0,0,,
null,,172173,HierDyrqluye2n,1fkoi4zwl4,ms1000253,iti,,null,img/motor_8.png,76,motor,,,,,,,
478,,172662,HierDyrqluye2n,1fkoi4zwl4,ms1000253,motor,,72,img/motor_5.png,72,motor,5,49,1,0,0,,
null,,172772,HierDyrqluye2n,1fkoi4zwl4,ms1000253,iti,,null,img/motor_5.png,72,motor,,,,,,,
355,,173136,HierDyrqluye2n,1fkoi4zwl4,ms1000253,motor,,76,img/motor_8.png,76,motor,8,50,1,0,0,,
null,,173248,HierDyrqluye2n,1fkoi4zwl4,ms1000253,iti,,null,img/motor_8.png,76,motor,,,,,,,
340,,173599,HierDyrqluye2n,1fkoi4zwl4,ms1000253,motor,,65,img/motor_1.png,65,motor,1,51,1,0,0,,
null,,173710,HierDyrqluye2n,1fkoi4zwl4,ms1000253,iti,,null,img/motor_1.png,65,motor,,,,,,,
382,,174101,HierDyrqluye2n,1fkoi4zwl4,ms1000253,motor,,76,img/motor_8.png,76,motor,8,52,1,0,0,,
null,,174213,HierDyrqluye2n,1fkoi4zwl4,ms1000253,iti,,null,img/motor_8.png,76,motor,,,,,,,
564,,174787,HierDyrqluye2n,1fkoi4zwl4,ms1000253,motor,,74,img/motor_6.png,74,motor,6,53,1,0,0,,
null,,174898,HierDyrqluye2n,1fkoi4zwl4,ms1000253,iti,,null,img/motor_6.png,74,motor,,,,,,,
388,,175297,HierDyrqluye2n,1fkoi4zwl4,ms1000253,motor,,72,img/motor_4.png,70,motor,4,54,0,1,0,,
199,,175507,HierDyrqluye2n,1fkoi4zwl4,ms1000253,motorRepeat,,70,img/motor_4.png,70,motor,4,54,1,0,0,,
null,,175617,HierDyrqluye2n,1fkoi4zwl4,ms1000253,iti,,null,img/motor_4.png,70,motor,,,,,,,
467,,176094,HierDyrqluye2n,1fkoi4zwl4,ms1000253,motor,,72,img/motor_5.png,72,motor,5,55,1,0,0,,
null,,176207,HierDyrqluye2n,1fkoi4zwl4,ms1000253,iti,,null,img/motor_5.png,72,motor,,,,,,,
358,,176573,HierDyrqluye2n,1fkoi4zwl4,ms1000253,motor,,76,img/motor_8.png,76,motor,8,56,1,0,0,,
null,,176684,HierDyrqluye2n,1fkoi4zwl4,ms1000253,iti,,null,img/motor_8.png,76,motor,,,,,,,
437,,177132,HierDyrqluye2n,1fkoi4zwl4,ms1000253,motor,,72,img/motor_5.png,72,motor,5,57,1,0,0,,
null,,177243,HierDyrqluye2n,1fkoi4zwl4,ms1000253,iti,,null,img/motor_5.png,72,motor,,,,,,,
481,,177733,HierDyrqluye2n,1fkoi4zwl4,ms1000253,motor,,68,img/motor_3.png,68,motor,3,58,1,0,0,,
null,,177844,HierDyrqluye2n,1fkoi4zwl4,ms1000253,iti,,null,img/motor_3.png,68,motor,,,,,,,
507,,178363,HierDyrqluye2n,1fkoi4zwl4,ms1000253,motor,,70,img/motor_4.png,70,motor,4,59,1,0,0,,
null,,178473,HierDyrqluye2n,1fkoi4zwl4,ms1000253,iti,,null,img/motor_4.png,70,motor,,,,,,,
445,,178929,HierDyrqluye2n,1fkoi4zwl4,ms1000253,motor,,83,img/motor_2.png,83,motor,2,60,1,0,0,,
null,,179040,HierDyrqluye2n,1fkoi4zwl4,ms1000253,iti,,null,img/motor_2.png,83,motor,,,,,,,
432,,179482,HierDyrqluye2n,1fkoi4zwl4,ms1000253,motor,,76,img/motor_8.png,76,motor,8,61,1,0,0,,
null,,179593,HierDyrqluye2n,1fkoi4zwl4,ms1000253,iti,,null,img/motor_8.png,76,motor,,,,,,,
472,,180075,HierDyrqluye2n,1fkoi4zwl4,ms1000253,motor,,83,img/motor_2.png,83,motor,2,62,1,0,0,,
null,,180186,HierDyrqluye2n,1fkoi4zwl4,ms1000253,iti,,null,img/motor_2.png,83,motor,,,,,,,
470,,180664,HierDyrqluye2n,1fkoi4zwl4,ms1000253,motor,,74,img/motor_6.png,74,motor,6,63,1,0,0,,
null,,180775,HierDyrqluye2n,1fkoi4zwl4,ms1000253,iti,,null,img/motor_6.png,74,motor,,,,,,,
412,,181197,HierDyrqluye2n,1fkoi4zwl4,ms1000253,motor,,65,img/motor_1.png,65,motor,1,64,1,0,0,,
null,,181309,HierDyrqluye2n,1fkoi4zwl4,ms1000253,iti,,null,img/motor_1.png,65,motor,,,,,,,
566,,181885,HierDyrqluye2n,1fkoi4zwl4,ms1000253,motor,,72,img/motor_5.png,72,motor,5,65,1,0,0,,
null,,181996,HierDyrqluye2n,1fkoi4zwl4,ms1000253,iti,,null,img/motor_5.png,72,motor,,,,,,,
401,,182408,HierDyrqluye2n,1fkoi4zwl4,ms1000253,motor,,83,img/motor_2.png,83,motor,2,66,1,0,0,,
null,,182519,HierDyrqluye2n,1fkoi4zwl4,ms1000253,iti,,null,img/motor_2.png,83,motor,,,,,,,
350,,182879,HierDyrqluye2n,1fkoi4zwl4,ms1000253,motor,,68,img/motor_3.png,68,motor,3,67,1,0,0,,
null,,182991,HierDyrqluye2n,1fkoi4zwl4,ms1000253,iti,,null,img/motor_3.png,68,motor,,,,,,,
406,,183407,HierDyrqluye2n,1fkoi4zwl4,ms1000253,motor,,72,img/motor_5.png,72,motor,5,68,1,0,0,,
null,,183518,HierDyrqluye2n,1fkoi4zwl4,ms1000253,iti,,null,img/motor_5.png,72,motor,,,,,,,
411,,183939,HierDyrqluye2n,1fkoi4zwl4,ms1000253,motor,,75,img/motor_7.png,75,motor,7,69,1,0,0,,
null,,184051,HierDyrqluye2n,1fkoi4zwl4,ms1000253,iti,,null,img/motor_7.png,75,motor,,,,,,,
496,,184556,HierDyrqluye2n,1fkoi4zwl4,ms1000253,motor,,68,img/motor_3.png,68,motor,3,70,1,0,0,,
null,,184668,HierDyrqluye2n,1fkoi4zwl4,ms1000253,iti,,null,img/motor_3.png,68,motor,,,,,,,
404,,185082,HierDyrqluye2n,1fkoi4zwl4,ms1000253,motor,,76,img/motor_8.png,76,motor,8,71,1,0,0,,
null,,185193,HierDyrqluye2n,1fkoi4zwl4,ms1000253,iti,,null,img/motor_8.png,76,motor,,,,,,,
592,,185795,HierDyrqluye2n,1fkoi4zwl4,ms1000253,motor,,75,img/motor_7.png,75,motor,7,72,1,0,0,,
null,,185907,HierDyrqluye2n,1fkoi4zwl4,ms1000253,iti,,null,img/motor_7.png,75,motor,,,,,,,
452,,186367,HierDyrqluye2n,1fkoi4zwl4,ms1000253,motor,,68,img/motor_3.png,68,motor,3,73,1,0,0,,
null,,186478,HierDyrqluye2n,1fkoi4zwl4,ms1000253,iti,,null,img/motor_3.png,68,motor,,,,,,,
408,,186896,HierDyrqluye2n,1fkoi4zwl4,ms1000253,motor,,72,img/motor_5.png,72,motor,5,74,1,0,0,,
null,,187008,HierDyrqluye2n,1fkoi4zwl4,ms1000253,iti,,null,img/motor_5.png,72,motor,,,,,,,
560,,187576,HierDyrqluye2n,1fkoi4zwl4,ms1000253,motor,,68,img/motor_3.png,68,motor,3,75,1,0,0,,
null,,187688,HierDyrqluye2n,1fkoi4zwl4,ms1000253,iti,,null,img/motor_3.png,68,motor,,,,,,,
352,,188049,HierDyrqluye2n,1fkoi4zwl4,ms1000253,motor,,72,img/motor_5.png,72,motor,5,76,1,0,0,,
null,,188160,HierDyrqluye2n,1fkoi4zwl4,ms1000253,iti,,null,img/motor_5.png,72,motor,,,,,,,
388,,188558,HierDyrqluye2n,1fkoi4zwl4,ms1000253,motor,,68,img/motor_3.png,68,motor,3,77,1,0,0,,
null,,188669,HierDyrqluye2n,1fkoi4zwl4,ms1000253,iti,,null,img/motor_3.png,68,motor,,,,,,,
370,,189048,HierDyrqluye2n,1fkoi4zwl4,ms1000253,motor,,68,img/motor_3.png,68,motor,3,78,1,0,0,,
null,,189159,HierDyrqluye2n,1fkoi4zwl4,ms1000253,iti,,null,img/motor_3.png,68,motor,,,,,,,
346,,189515,HierDyrqluye2n,1fkoi4zwl4,ms1000253,motor,,70,img/motor_4.png,70,motor,4,79,1,0,0,,
null,,189625,HierDyrqluye2n,1fkoi4zwl4,ms1000253,iti,,null,img/motor_4.png,70,motor,,,,,,,
418,,190054,HierDyrqluye2n,1fkoi4zwl4,ms1000253,motor,,74,img/motor_6.png,74,motor,6,80,1,0,0,,
null,,190165,HierDyrqluye2n,1fkoi4zwl4,ms1000253,iti,,null,img/motor_6.png,74,motor,,,,,,,
480,,190654,HierDyrqluye2n,1fkoi4zwl4,ms1000253,motor,,70,img/motor_4.png,70,motor,4,81,1,0,0,,
null,,190766,HierDyrqluye2n,1fkoi4zwl4,ms1000253,iti,,null,img/motor_4.png,70,motor,,,,,,,
350,,191127,HierDyrqluye2n,1fkoi4zwl4,ms1000253,motor,,83,img/motor_1.png,65,motor,1,82,0,1,0,,
146,,191283,HierDyrqluye2n,1fkoi4zwl4,ms1000253,motorRepeat,,65,img/motor_1.png,65,motor,1,82,1,0,0,,
null,,191393,HierDyrqluye2n,1fkoi4zwl4,ms1000253,iti,,null,img/motor_1.png,65,motor,,,,,,,
502,,191905,HierDyrqluye2n,1fkoi4zwl4,ms1000253,motor,,74,img/motor_7.png,75,motor,7,83,0,1,0,,
136,,192051,HierDyrqluye2n,1fkoi4zwl4,ms1000253,motorRepeat,,75,img/motor_7.png,75,motor,7,83,1,0,0,,
null,,192162,HierDyrqluye2n,1fkoi4zwl4,ms1000253,iti,,null,img/motor_7.png,75,motor,,,,,,,
460,,192635,HierDyrqluye2n,1fkoi4zwl4,ms1000253,motor,,65,img/motor_1.png,65,motor,1,84,1,0,0,,
null,,192747,HierDyrqluye2n,1fkoi4zwl4,ms1000253,iti,,null,img/motor_1.png,65,motor,,,,,,,
317,,193075,HierDyrqluye2n,1fkoi4zwl4,ms1000253,motor,,65,img/motor_1.png,65,motor,1,85,1,0,0,,
null,,193186,HierDyrqluye2n,1fkoi4zwl4,ms1000253,iti,,null,img/motor_1.png,65,motor,,,,,,,
445,,193642,HierDyrqluye2n,1fkoi4zwl4,ms1000253,motor,,68,img/motor_3.png,68,motor,3,86,1,0,0,,
null,,193754,HierDyrqluye2n,1fkoi4zwl4,ms1000253,iti,,null,img/motor_3.png,68,motor,,,,,,,
530,,194293,HierDyrqluye2n,1fkoi4zwl4,ms1000253,motor,,75,img/motor_7.png,75,motor,7,87,1,0,0,,
null,,194403,HierDyrqluye2n,1fkoi4zwl4,ms1000253,iti,,null,img/motor_7.png,75,motor,,,,,,,
505,,194918,HierDyrqluye2n,1fkoi4zwl4,ms1000253,motor,,70,img/motor_4.png,70,motor,4,88,1,0,0,,
null,,195028,HierDyrqluye2n,1fkoi4zwl4,ms1000253,iti,,null,img/motor_4.png,70,motor,,,,,,,
499,,195540,HierDyrqluye2n,1fkoi4zwl4,ms1000253,motor,,72,img/motor_5.png,72,motor,5,89,1,0,0,,
null,,195651,HierDyrqluye2n,1fkoi4zwl4,ms1000253,iti,,null,img/motor_5.png,72,motor,,,,,,,
505,,196167,HierDyrqluye2n,1fkoi4zwl4,ms1000253,motor,,65,img/motor_1.png,65,motor,1,90,1,0,0,,
null,,196277,HierDyrqluye2n,1fkoi4zwl4,ms1000253,iti,,null,img/motor_1.png,65,motor,,,,,,,
377,,196668,HierDyrqluye2n,1fkoi4zwl4,ms1000253,motor,,76,img/motor_8.png,76,motor,8,91,1,0,0,,
null,,196780,HierDyrqluye2n,1fkoi4zwl4,ms1000253,iti,,null,img/motor_8.png,76,motor,,,,,,,
452,,197243,HierDyrqluye2n,1fkoi4zwl4,ms1000253,motor,,68,img/motor_3.png,68,motor,3,92,1,0,0,,
null,,197355,HierDyrqluye2n,1fkoi4zwl4,ms1000253,iti,,null,img/motor_3.png,68,motor,,,,,,,
443,,197808,HierDyrqluye2n,1fkoi4zwl4,ms1000253,motor,,75,img/motor_7.png,75,motor,7,93,1,0,0,,
null,,197920,HierDyrqluye2n,1fkoi4zwl4,ms1000253,iti,,null,img/motor_7.png,75,motor,,,,,,,
575,,198506,HierDyrqluye2n,1fkoi4zwl4,ms1000253,motor,,70,img/motor_4.png,70,motor,4,94,1,0,0,,
null,,198617,HierDyrqluye2n,1fkoi4zwl4,ms1000253,iti,,null,img/motor_4.png,70,motor,,,,,,,
442,,199070,HierDyrqluye2n,1fkoi4zwl4,ms1000253,motor,,83,img/motor_2.png,83,motor,2,95,1,0,0,,
null,,199183,HierDyrqluye2n,1fkoi4zwl4,ms1000253,iti,,null,img/motor_2.png,83,motor,,,,,,,
489,,199681,HierDyrqluye2n,1fkoi4zwl4,ms1000253,motor,,68,img/motor_3.png,68,motor,3,96,1,0,0,,
null,,199793,HierDyrqluye2n,1fkoi4zwl4,ms1000253,iti,,null,img/motor_3.png,68,motor,,,,,,,
479,,200283,HierDyrqluye2n,1fkoi4zwl4,ms1000253,motor,,75,img/motor_7.png,75,motor,7,97,1,0,0,,
null,,200393,HierDyrqluye2n,1fkoi4zwl4,ms1000253,iti,,null,img/motor_7.png,75,motor,,,,,,,
497,,200900,HierDyrqluye2n,1fkoi4zwl4,ms1000253,motor,,76,img/motor_8.png,76,motor,8,98,1,0,0,,
null,,201012,HierDyrqluye2n,1fkoi4zwl4,ms1000253,iti,,null,img/motor_8.png,76,motor,,,,,,,
401,,201424,HierDyrqluye2n,1fkoi4zwl4,ms1000253,motor,,76,img/motor_8.png,76,motor,8,99,1,0,0,,
null,,201534,HierDyrqluye2n,1fkoi4zwl4,ms1000253,iti,,null,img/motor_8.png,76,motor,,,,,,,
663,,202207,HierDyrqluye2n,1fkoi4zwl4,ms1000253,motor,,75,img/motor_7.png,75,motor,7,100,1,0,0,,
null,,202319,HierDyrqluye2n,1fkoi4zwl4,ms1000253,iti,,null,img/motor_7.png,75,motor,,,,,,,
426,,202756,HierDyrqluye2n,1fkoi4zwl4,ms1000253,motor,,70,img/motor_4.png,70,motor,4,101,1,0,0,,
null,,202867,HierDyrqluye2n,1fkoi4zwl4,ms1000253,iti,,null,img/motor_4.png,70,motor,,,,,,,
389,,203265,HierDyrqluye2n,1fkoi4zwl4,ms1000253,motor,,76,img/motor_8.png,76,motor,8,102,1,0,0,,
null,,203377,HierDyrqluye2n,1fkoi4zwl4,ms1000253,iti,,null,img/motor_8.png,76,motor,,,,,,,
564,,203952,HierDyrqluye2n,1fkoi4zwl4,ms1000253,motor,,74,img/motor_5.png,72,motor,5,103,0,1,0,,
111,,204073,HierDyrqluye2n,1fkoi4zwl4,ms1000253,motorRepeat,,72,img/motor_5.png,72,motor,5,103,1,0,0,,
null,,204184,HierDyrqluye2n,1fkoi4zwl4,ms1000253,iti,,null,img/motor_5.png,72,motor,,,,,,,
450,,204646,HierDyrqluye2n,1fkoi4zwl4,ms1000253,motor,,70,img/motor_4.png,70,motor,4,104,1,0,0,,
null,,204756,HierDyrqluye2n,1fkoi4zwl4,ms1000253,iti,,null,img/motor_4.png,70,motor,,,,,,,
352,,205117,HierDyrqluye2n,1fkoi4zwl4,ms1000253,motor,,70,img/motor_4.png,70,motor,4,105,1,0,0,,
null,,205229,HierDyrqluye2n,1fkoi4zwl4,ms1000253,iti,,null,img/motor_4.png,70,motor,,,,,,,
476,,205715,HierDyrqluye2n,1fkoi4zwl4,ms1000253,motor,,74,img/motor_6.png,74,motor,6,106,1,0,0,,
null,,205825,HierDyrqluye2n,1fkoi4zwl4,ms1000253,iti,,null,img/motor_6.png,74,motor,,,,,,,
314,,206150,HierDyrqluye2n,1fkoi4zwl4,ms1000253,motor,,65,img/motor_1.png,65,motor,1,107,1,0,0,,
null,,206261,HierDyrqluye2n,1fkoi4zwl4,ms1000253,iti,,null,img/motor_1.png,65,motor,,,,,,,
467,,206737,HierDyrqluye2n,1fkoi4zwl4,ms1000253,motor,,70,img/motor_3.png,68,motor,3,108,0,1,0,,
166,,206914,HierDyrqluye2n,1fkoi4zwl4,ms1000253,motorRepeat,,68,img/motor_3.png,68,motor,3,108,1,0,0,,
null,,207025,HierDyrqluye2n,1fkoi4zwl4,ms1000253,iti,,null,img/motor_3.png,68,motor,,,,,,,
415,,207454,HierDyrqluye2n,1fkoi4zwl4,ms1000253,motor,,65,img/motor_1.png,65,motor,1,109,1,0,0,,
null,,207565,HierDyrqluye2n,1fkoi4zwl4,ms1000253,iti,,null,img/motor_1.png,65,motor,,,,,,,
432,,208008,HierDyrqluye2n,1fkoi4zwl4,ms1000253,motor,,76,img/motor_8.png,76,motor,8,110,1,0,0,,
null,,208121,HierDyrqluye2n,1fkoi4zwl4,ms1000253,iti,,null,img/motor_8.png,76,motor,,,,,,,
589,,208721,HierDyrqluye2n,1fkoi4zwl4,ms1000253,motor,,75,img/motor_7.png,75,motor,7,111,1,0,0,,
null,,208831,HierDyrqluye2n,1fkoi4zwl4,ms1000253,iti,,null,img/motor_7.png,75,motor,,,,,,,
412,,209253,HierDyrqluye2n,1fkoi4zwl4,ms1000253,motor,,68,img/motor_3.png,68,motor,3,112,1,0,0,,
null,,209364,HierDyrqluye2n,1fkoi4zwl4,ms1000253,iti,,null,img/motor_3.png,68,motor,,,,,,,
350,,209725,HierDyrqluye2n,1fkoi4zwl4,ms1000253,motor,,70,img/motor_4.png,70,motor,4,113,1,0,0,,
null,,209836,HierDyrqluye2n,1fkoi4zwl4,ms1000253,iti,,null,img/motor_4.png,70,motor,,,,,,,
367,,210214,HierDyrqluye2n,1fkoi4zwl4,ms1000253,motor,,83,img/motor_2.png,83,motor,2,114,1,0,0,,
null,,210325,HierDyrqluye2n,1fkoi4zwl4,ms1000253,iti,,null,img/motor_2.png,83,motor,,,,,,,
560,,210897,HierDyrqluye2n,1fkoi4zwl4,ms1000253,motor,,75,img/motor_7.png,75,motor,7,115,1,0,0,,
null,,211007,HierDyrqluye2n,1fkoi4zwl4,ms1000253,iti,,null,img/motor_7.png,75,motor,,,,,,,
505,,211521,HierDyrqluye2n,1fkoi4zwl4,ms1000253,motor,,74,img/motor_7.png,75,motor,7,116,0,1,0,,
161,,211693,HierDyrqluye2n,1fkoi4zwl4,ms1000253,motorRepeat,,75,img/motor_7.png,75,motor,7,116,1,0,0,,
null,,211803,HierDyrqluye2n,1fkoi4zwl4,ms1000253,iti,,null,img/motor_7.png,75,motor,,,,,,,
363,,212177,HierDyrqluye2n,1fkoi4zwl4,ms1000253,motor,,83,img/motor_2.png,83,motor,2,117,1,0,0,,
null,,212288,HierDyrqluye2n,1fkoi4zwl4,ms1000253,iti,,null,img/motor_2.png,83,motor,,,,,,,
444,,212744,HierDyrqluye2n,1fkoi4zwl4,ms1000253,motor,,70,img/motor_5.png,72,motor,5,118,0,1,0,,
430,,213183,HierDyrqluye2n,1fkoi4zwl4,ms1000253,motorRepeat,,72,img/motor_5.png,72,motor,5,118,1,0,0,,
null,,213295,HierDyrqluye2n,1fkoi4zwl4,ms1000253,iti,,null,img/motor_5.png,72,motor,,,,,,,
540,,213846,HierDyrqluye2n,1fkoi4zwl4,ms1000253,motor,,83,img/motor_2.png,83,motor,2,119,1,0,0,,
null,,213957,HierDyrqluye2n,1fkoi4zwl4,ms1000253,iti,,null,img/motor_2.png,83,motor,,,,,,,
406,,214374,HierDyrqluye2n,1fkoi4zwl4,ms1000253,motor,,70,img/motor_4.png,70,motor,4,120,1,0,0,,
null,,214485,HierDyrqluye2n,1fkoi4zwl4,ms1000253,iti,,null,img/motor_4.png,70,motor,,,,,,,
425,,214921,HierDyrqluye2n,1fkoi4zwl4,ms1000253,motor,,74,img/motor_6.png,74,motor,6,121,1,0,0,,
null,,215032,HierDyrqluye2n,1fkoi4zwl4,ms1000253,iti,,null,img/motor_6.png,74,motor,,,,,,,
461,,215503,HierDyrqluye2n,1fkoi4zwl4,ms1000253,motor,,83,img/motor_2.png,83,motor,2,122,1,0,0,,
null,,215615,HierDyrqluye2n,1fkoi4zwl4,ms1000253,iti,,null,img/motor_2.png,83,motor,,,,,,,
369,,215995,HierDyrqluye2n,1fkoi4zwl4,ms1000253,motor,,75,img/motor_7.png,75,motor,7,123,1,0,0,,
null,,216107,HierDyrqluye2n,1fkoi4zwl4,ms1000253,iti,,null,img/motor_7.png,75,motor,,,,,,,
479,,216597,HierDyrqluye2n,1fkoi4zwl4,ms1000253,motor,,70,img/motor_4.png,70,motor,4,124,1,0,0,,
null,,216708,HierDyrqluye2n,1fkoi4zwl4,ms1000253,iti,,null,img/motor_4.png,70,motor,,,,,,,
423,,217142,HierDyrqluye2n,1fkoi4zwl4,ms1000253,motor,,83,img/motor_2.png,83,motor,2,125,1,0,0,,
null,,217254,HierDyrqluye2n,1fkoi4zwl4,ms1000253,iti,,null,img/motor_2.png,83,motor,,,,,,,
422,,217686,HierDyrqluye2n,1fkoi4zwl4,ms1000253,motor,,72,img/motor_5.png,72,motor,5,126,1,0,0,,
null,,217798,HierDyrqluye2n,1fkoi4zwl4,ms1000253,iti,,null,img/motor_5.png,72,motor,,,,,,,
486,,218294,HierDyrqluye2n,1fkoi4zwl4,ms1000253,motor,,75,img/motor_7.png,75,motor,7,127,1,0,0,,
null,,218405,HierDyrqluye2n,1fkoi4zwl4,ms1000253,iti,,null,img/motor_7.png,75,motor,,,,,,,
447,,218861,HierDyrqluye2n,1fkoi4zwl4,ms1000253,motor,,76,img/motor_8.png,76,motor,8,128,1,0,0,,
null,,218972,HierDyrqluye2n,1fkoi4zwl4,ms1000253,iti,,null,img/motor_8.png,76,motor,,,,,,,
510,,219494,HierDyrqluye2n,1fkoi4zwl4,ms1000253,motor,,74,img/motor_6.png,74,motor,6,129,1,0,0,,
null,,219604,HierDyrqluye2n,1fkoi4zwl4,ms1000253,iti,,null,img/motor_6.png,74,motor,,,,,,,
386,,220001,HierDyrqluye2n,1fkoi4zwl4,ms1000253,motor,,74,img/motor_6.png,74,motor,6,130,1,0,0,,
null,,220112,HierDyrqluye2n,1fkoi4zwl4,ms1000253,iti,,null,img/motor_6.png,74,motor,,,,,,,
399,,220522,HierDyrqluye2n,1fkoi4zwl4,ms1000253,motor,,75,img/motor_7.png,75,motor,7,131,1,0,0,,
null,,220634,HierDyrqluye2n,1fkoi4zwl4,ms1000253,iti,,null,img/motor_7.png,75,motor,,,,,,,
684,,221328,HierDyrqluye2n,1fkoi4zwl4,ms1000253,motor,,83,img/motor_2.png,83,motor,2,132,1,0,0,,
null,,221438,HierDyrqluye2n,1fkoi4zwl4,ms1000253,iti,,null,img/motor_2.png,83,motor,,,,,,,
526,,221973,HierDyrqluye2n,1fkoi4zwl4,ms1000253,motor,,83,img/motor_2.png,83,motor,2,133,1,0,0,,
null,,222084,HierDyrqluye2n,1fkoi4zwl4,ms1000253,iti,,null,img/motor_2.png,83,motor,,,,,,,
454,,222548,HierDyrqluye2n,1fkoi4zwl4,ms1000253,motor,,70,img/motor_4.png,70,motor,4,134,1,0,0,,
null,,222660,HierDyrqluye2n,1fkoi4zwl4,ms1000253,iti,,null,img/motor_4.png,70,motor,,,,,,,
387,,223059,HierDyrqluye2n,1fkoi4zwl4,ms1000253,motor,,76,img/motor_8.png,76,motor,8,135,1,0,0,,
null,,223169,HierDyrqluye2n,1fkoi4zwl4,ms1000253,iti,,null,img/motor_8.png,76,motor,,,,,,,
427,,223605,HierDyrqluye2n,1fkoi4zwl4,ms1000253,motor,,83,img/motor_2.png,83,motor,2,136,1,0,0,,
null,,223717,HierDyrqluye2n,1fkoi4zwl4,ms1000253,iti,,null,img/motor_2.png,83,motor,,,,,,,
325,,224052,HierDyrqluye2n,1fkoi4zwl4,ms1000253,motor,,70,img/motor_4.png,70,motor,4,137,1,0,0,,
null,,224164,HierDyrqluye2n,1fkoi4zwl4,ms1000253,iti,,null,img/motor_4.png,70,motor,,,,,,,
450,,224624,HierDyrqluye2n,1fkoi4zwl4,ms1000253,motor,,75,img/motor_7.png,75,motor,7,138,1,0,0,,
null,,224735,HierDyrqluye2n,1fkoi4zwl4,ms1000253,iti,,null,img/motor_7.png,75,motor,,,,,,,
456,,225202,HierDyrqluye2n,1fkoi4zwl4,ms1000253,motor,,72,img/motor_6.png,74,motor,6,139,0,1,0,,
190,,225402,HierDyrqluye2n,1fkoi4zwl4,ms1000253,motorRepeat,,74,img/motor_6.png,74,motor,6,139,1,0,0,,
null,,225513,HierDyrqluye2n,1fkoi4zwl4,ms1000253,iti,,null,img/motor_6.png,74,motor,,,,,,,
396,,225919,HierDyrqluye2n,1fkoi4zwl4,ms1000253,motor,,83,img/motor_2.png,83,motor,2,140,1,0,0,,
null,,226030,HierDyrqluye2n,1fkoi4zwl4,ms1000253,iti,,null,img/motor_2.png,83,motor,,,,,,,
340,,226381,HierDyrqluye2n,1fkoi4zwl4,ms1000253,motor,,65,img/motor_1.png,65,motor,1,141,1,0,0,,
null,,226493,HierDyrqluye2n,1fkoi4zwl4,ms1000253,iti,,null,img/motor_1.png,65,motor,,,,,,,
410,,226913,HierDyrqluye2n,1fkoi4zwl4,ms1000253,motor,,83,img/motor_2.png,83,motor,2,142,1,0,0,,
null,,227024,HierDyrqluye2n,1fkoi4zwl4,ms1000253,iti,,null,img/motor_2.png,83,motor,,,,,,,
366,,227401,HierDyrqluye2n,1fkoi4zwl4,ms1000253,motor,,70,img/motor_4.png,70,motor,4,143,1,0,0,,
null,,227513,HierDyrqluye2n,1fkoi4zwl4,ms1000253,iti,,null,img/motor_4.png,70,motor,,,,,,,
353,,227877,HierDyrqluye2n,1fkoi4zwl4,ms1000253,motor,,65,img/motor_1.png,65,motor,1,144,1,0,0,,
null,,227988,HierDyrqluye2n,1fkoi4zwl4,ms1000253,iti,,null,img/motor_1.png,65,motor,,,,,,,
506,,228504,HierDyrqluye2n,1fkoi4zwl4,ms1000253,motor,,74,img/motor_6.png,74,motor,6,145,1,0,0,,
null,,228615,HierDyrqluye2n,1fkoi4zwl4,ms1000253,iti,,null,img/motor_6.png,74,motor,,,,,,,
296,,228921,HierDyrqluye2n,1fkoi4zwl4,ms1000253,motor,,74,img/motor_6.png,74,motor,6,146,1,0,0,,
null,,229033,HierDyrqluye2n,1fkoi4zwl4,ms1000253,iti,,null,img/motor_6.png,74,motor,,,,,,,
324,,229367,HierDyrqluye2n,1fkoi4zwl4,ms1000253,motor,,65,img/motor_1.png,65,motor,1,147,1,0,0,,
null,,229478,HierDyrqluye2n,1fkoi4zwl4,ms1000253,iti,,null,img/motor_1.png,65,motor,,,,,,,
375,,229864,HierDyrqluye2n,1fkoi4zwl4,ms1000253,motor,,70,img/motor_4.png,70,motor,4,148,1,0,0,,
null,,229975,HierDyrqluye2n,1fkoi4zwl4,ms1000253,iti,,null,img/motor_4.png,70,motor,,,,,,,
434,,230419,HierDyrqluye2n,1fkoi4zwl4,ms1000253,motor,,76,img/motor_8.png,76,motor,8,149,1,0,0,,
null,,230530,HierDyrqluye2n,1fkoi4zwl4,ms1000253,iti,,null,img/motor_8.png,76,motor,,,,,,,
615,,231155,HierDyrqluye2n,1fkoi4zwl4,ms1000253,motor,,70,img/motor_4.png,70,motor,4,150,1,0,0,,
null,,231266,HierDyrqluye2n,1fkoi4zwl4,ms1000253,iti,,null,img/motor_4.png,70,motor,,,,,,,
591,,231867,HierDyrqluye2n,1fkoi4zwl4,ms1000253,motor,,68,img/motor_3.png,68,motor,3,151,1,0,0,,
null,,231979,HierDyrqluye2n,1fkoi4zwl4,ms1000253,iti,,null,img/motor_3.png,68,motor,,,,,,,
371,,232361,HierDyrqluye2n,1fkoi4zwl4,ms1000253,motor,,65,img/motor_1.png,65,motor,1,152,1,0,0,,
null,,232472,HierDyrqluye2n,1fkoi4zwl4,ms1000253,iti,,null,img/motor_1.png,65,motor,,,,,,,
469,,232952,HierDyrqluye2n,1fkoi4zwl4,ms1000253,motor,,74,img/motor_6.png,74,motor,6,153,1,0,0,,
null,,233063,HierDyrqluye2n,1fkoi4zwl4,ms1000253,iti,,null,img/motor_6.png,74,motor,,,,,,,
478,,233551,HierDyrqluye2n,1fkoi4zwl4,ms1000253,motor,,68,img/motor_3.png,68,motor,3,154,1,0,0,,
null,,233662,HierDyrqluye2n,1fkoi4zwl4,ms1000253,iti,,null,img/motor_3.png,68,motor,,,,,,,
314,,233987,HierDyrqluye2n,1fkoi4zwl4,ms1000253,motor,,65,img/motor_1.png,65,motor,1,155,1,0,0,,
null,,234098,HierDyrqluye2n,1fkoi4zwl4,ms1000253,iti,,null,img/motor_1.png,65,motor,,,,,,,
389,,234498,HierDyrqluye2n,1fkoi4zwl4,ms1000253,motor,,74,img/motor_6.png,74,motor,6,156,1,0,0,,
null,,234610,HierDyrqluye2n,1fkoi4zwl4,ms1000253,iti,,null,img/motor_6.png,74,motor,,,,,,,
471,,235091,HierDyrqluye2n,1fkoi4zwl4,ms1000253,motor,,68,img/motor_3.png,68,motor,3,157,1,0,0,,
null,,235202,HierDyrqluye2n,1fkoi4zwl4,ms1000253,iti,,null,img/motor_3.png,68,motor,,,,,,,
463,,235676,HierDyrqluye2n,1fkoi4zwl4,ms1000253,motor,,76,img/motor_8.png,76,motor,8,158,1,0,0,,
null,,235786,HierDyrqluye2n,1fkoi4zwl4,ms1000253,iti,,null,img/motor_8.png,76,motor,,,,,,,
384,,236181,HierDyrqluye2n,1fkoi4zwl4,ms1000253,motor,,74,img/motor_5.png,72,motor,5,159,0,1,0,,
150,,236342,HierDyrqluye2n,1fkoi4zwl4,ms1000253,motorRepeat,,72,img/motor_5.png,72,motor,5,159,1,0,0,,
null,,236454,HierDyrqluye2n,1fkoi4zwl4,ms1000253,iti,,null,img/motor_5.png,72,motor,,,,,,,
550,,237015,HierDyrqluye2n,1fkoi4zwl4,ms1000253,motor,,68,img/motor_3.png,68,motor,3,160,1,0,0,,
null,,237125,HierDyrqluye2n,1fkoi4zwl4,ms1000253,iti,,null,img/motor_3.png,68,motor,,,,,,,
495,,237630,HierDyrqluye2n,1fkoi4zwl4,ms1000253,motor,,72,img/motor_5.png,72,motor,5,161,1,0,0,,
null,,237741,HierDyrqluye2n,1fkoi4zwl4,ms1000253,iti,,null,img/motor_5.png,72,motor,,,,,,,
341,,238093,HierDyrqluye2n,1fkoi4zwl4,ms1000253,motor,,72,img/motor_5.png,72,motor,5,162,1,0,0,,
null,,238204,HierDyrqluye2n,1fkoi4zwl4,ms1000253,iti,,null,img/motor_5.png,72,motor,,,,,,,
406,,238621,HierDyrqluye2n,1fkoi4zwl4,ms1000253,motor,,74,img/motor_6.png,74,motor,6,163,1,0,0,,
null,,238733,HierDyrqluye2n,1fkoi4zwl4,ms1000253,iti,,null,img/motor_6.png,74,motor,,,,,,,
358,,239101,HierDyrqluye2n,1fkoi4zwl4,ms1000253,motor,,65,img/motor_1.png,65,motor,1,164,1,0,0,,
null,,239211,HierDyrqluye2n,1fkoi4zwl4,ms1000253,iti,,null,img/motor_1.png,65,motor,,,,,,,
401,,239622,HierDyrqluye2n,1fkoi4zwl4,ms1000253,motor,,83,img/motor_2.png,83,motor,2,165,1,0,0,,
null,,239734,HierDyrqluye2n,1fkoi4zwl4,ms1000253,iti,,null,img/motor_2.png,83,motor,,,,,,,
481,,240226,HierDyrqluye2n,1fkoi4zwl4,ms1000253,motor,,72,img/motor_5.png,72,motor,5,166,1,0,0,,
null,,240336,HierDyrqluye2n,1fkoi4zwl4,ms1000253,iti,,null,img/motor_5.png,72,motor,,,,,,,
397,,240745,HierDyrqluye2n,1fkoi4zwl4,ms1000253,motor,,65,img/motor_1.png,65,motor,1,167,1,0,0,,
null,,240856,HierDyrqluye2n,1fkoi4zwl4,ms1000253,iti,,null,img/motor_1.png,65,motor,,,,,,,
318,,241185,HierDyrqluye2n,1fkoi4zwl4,ms1000253,motor,,65,img/motor_1.png,65,motor,1,168,1,0,0,,
null,,241296,HierDyrqluye2n,1fkoi4zwl4,ms1000253,iti,,null,img/motor_1.png,65,motor,,,,,,,
376,,241682,HierDyrqluye2n,1fkoi4zwl4,ms1000253,motor,,70,img/motor_4.png,70,motor,4,169,1,0,0,,
null,,241794,HierDyrqluye2n,1fkoi4zwl4,ms1000253,iti,,null,img/motor_4.png,70,motor,,,,,,,
384,,242189,HierDyrqluye2n,1fkoi4zwl4,ms1000253,motor,,74,img/motor_7.png,75,motor,7,170,0,1,0,,
179,,242380,HierDyrqluye2n,1fkoi4zwl4,ms1000253,motorRepeat,,75,img/motor_7.png,75,motor,7,170,1,0,0,,
null,,242490,HierDyrqluye2n,1fkoi4zwl4,ms1000253,iti,,null,img/motor_7.png,75,motor,,,,,,,
574,,243075,HierDyrqluye2n,1fkoi4zwl4,ms1000253,motor,,74,img/motor_6.png,74,motor,6,171,1,0,0,,
null,,243187,HierDyrqluye2n,1fkoi4zwl4,ms1000253,iti,,null,img/motor_6.png,74,motor,,,,,,,
402,,243599,HierDyrqluye2n,1fkoi4zwl4,ms1000253,motor,,72,img/motor_5.png,72,motor,5,172,1,0,0,,
null,,243710,HierDyrqluye2n,1fkoi4zwl4,ms1000253,iti,,null,img/motor_5.png,72,motor,,,,,,,
503,,244224,HierDyrqluye2n,1fkoi4zwl4,ms1000253,motor,,83,img/motor_2.png,83,motor,2,173,1,0,0,,
null,,244338,HierDyrqluye2n,1fkoi4zwl4,ms1000253,iti,,null,img/motor_2.png,83,motor,,,,,,,
465,,244815,HierDyrqluye2n,1fkoi4zwl4,ms1000253,motor,,72,img/motor_6.png,74,motor,6,174,0,1,0,,
125,,244951,HierDyrqluye2n,1fkoi4zwl4,ms1000253,motorRepeat,,74,img/motor_6.png,74,motor,6,174,1,0,0,,
null,,245062,HierDyrqluye2n,1fkoi4zwl4,ms1000253,iti,,null,img/motor_6.png,74,motor,,,,,,,
438,,245511,HierDyrqluye2n,1fkoi4zwl4,ms1000253,motor,,75,img/motor_7.png,75,motor,7,175,1,0,0,,
null,,245622,HierDyrqluye2n,1fkoi4zwl4,ms1000253,iti,,null,img/motor_7.png,75,motor,,,,,,,
612,,246245,HierDyrqluye2n,1fkoi4zwl4,ms1000253,motor,,76,img/motor_8.png,76,motor,8,176,1,0,0,,
null,,246356,HierDyrqluye2n,1fkoi4zwl4,ms1000253,iti,,null,img/motor_8.png,76,motor,,,,,,,
654,,247022,HierDyrqluye2n,1fkoi4zwl4,ms1000253,motor,,75,img/motor_7.png,75,motor,7,177,1,0,0,,
null,,247134,HierDyrqluye2n,1fkoi4zwl4,ms1000253,iti,,null,img/motor_7.png,75,motor,,,,,,,
686,,247830,HierDyrqluye2n,1fkoi4zwl4,ms1000253,motor,,70,img/motor_4.png,70,motor,4,178,1,0,0,,
null,,247943,HierDyrqluye2n,1fkoi4zwl4,ms1000253,iti,,null,img/motor_4.png,70,motor,,,,,,,
560,,248513,HierDyrqluye2n,1fkoi4zwl4,ms1000253,motor,,72,img/motor_5.png,72,motor,5,179,1,0,0,,
null,,248627,HierDyrqluye2n,1fkoi4zwl4,ms1000253,iti,,null,img/motor_5.png,72,motor,,,,,,,
334,,248972,HierDyrqluye2n,1fkoi4zwl4,ms1000253,motor,,65,img/motor_1.png,65,motor,1,180,1,0,0,,
null,,249083,HierDyrqluye2n,1fkoi4zwl4,ms1000253,iti,,null,img/motor_1.png,65,motor,,,,,,,
309,,249402,HierDyrqluye2n,1fkoi4zwl4,ms1000253,motor,,75,img/motor_7.png,75,motor,7,181,1,0,0,,
null,,249513,HierDyrqluye2n,1fkoi4zwl4,ms1000253,iti,,null,img/motor_7.png,75,motor,,,,,,,
453,,249976,HierDyrqluye2n,1fkoi4zwl4,ms1000253,motor,,74,img/motor_6.png,74,motor,6,182,1,0,0,,
null,,250087,HierDyrqluye2n,1fkoi4zwl4,ms1000253,iti,,null,img/motor_6.png,74,motor,,,,,,,
16,,250114,HierDyrqluye2n,1fkoi4zwl4,ms1000253,motor,,74,img/motor_7.png,75,motor,7,183,0,1,0,,
282,,250407,HierDyrqluye2n,1fkoi4zwl4,ms1000253,motorRepeat,,75,img/motor_7.png,75,motor,7,183,1,0,0,,
null,,250518,HierDyrqluye2n,1fkoi4zwl4,ms1000253,iti,,null,img/motor_7.png,75,motor,,,,,,,
466,,250995,HierDyrqluye2n,1fkoi4zwl4,ms1000253,motor,,72,img/motor_5.png,72,motor,5,184,1,0,0,,
null,,251105,HierDyrqluye2n,1fkoi4zwl4,ms1000253,iti,,null,img/motor_5.png,72,motor,,,,,,,
410,,251526,HierDyrqluye2n,1fkoi4zwl4,ms1000253,motor,,76,img/motor_8.png,76,motor,8,185,1,0,0,,
null,,251637,HierDyrqluye2n,1fkoi4zwl4,ms1000253,iti,,null,img/motor_8.png,76,motor,,,,,,,
315,,251962,HierDyrqluye2n,1fkoi4zwl4,ms1000253,motor,,76,img/motor_8.png,76,motor,8,186,1,0,0,,
null,,252072,HierDyrqluye2n,1fkoi4zwl4,ms1000253,iti,,null,img/motor_8.png,76,motor,,,,,,,
323,,252404,HierDyrqluye2n,1fkoi4zwl4,ms1000253,motor,,83,img/motor_2.png,83,motor,2,187,1,0,0,,
null,,252514,HierDyrqluye2n,1fkoi4zwl4,ms1000253,iti,,null,img/motor_2.png,83,motor,,,,,,,
276,,252801,HierDyrqluye2n,1fkoi4zwl4,ms1000253,motor,,76,img/motor_7.png,75,motor,7,188,0,1,0,,
223,,253033,HierDyrqluye2n,1fkoi4zwl4,ms1000253,motorRepeat,,75,img/motor_7.png,75,motor,7,188,1,0,0,,
null,,253143,HierDyrqluye2n,1fkoi4zwl4,ms1000253,iti,,null,img/motor_7.png,75,motor,,,,,,,
545,,253698,HierDyrqluye2n,1fkoi4zwl4,ms1000253,motor,,83,img/motor_2.png,83,motor,2,189,1,0,0,,
null,,253808,HierDyrqluye2n,1fkoi4zwl4,ms1000253,iti,,null,img/motor_2.png,83,motor,,,,,,,
489,,254309,HierDyrqluye2n,1fkoi4zwl4,ms1000253,motor,,70,img/motor_4.png,70,motor,4,190,1,0,0,,
null,,254419,HierDyrqluye2n,1fkoi4zwl4,ms1000253,iti,,null,img/motor_4.png,70,motor,,,,,,,
336,,254765,HierDyrqluye2n,1fkoi4zwl4,ms1000253,motor,,65,img/motor_1.png,65,motor,1,191,1,0,0,,
null,,254876,HierDyrqluye2n,1fkoi4zwl4,ms1000253,iti,,null,img/motor_1.png,65,motor,,,,,,,
489,,255376,HierDyrqluye2n,1fkoi4zwl4,ms1000253,motor,,74,img/motor_6.png,74,motor,6,192,1,0,0,,
null,,255486,HierDyrqluye2n,1fkoi4zwl4,ms1000253,iti,,null,img/motor_6.png,74,motor,,,,,,,
357,,255854,HierDyrqluye2n,1fkoi4zwl4,ms1000253,motor,,76,img/motor_8.png,76,motor,8,193,1,0,0,,
null,,255964,HierDyrqluye2n,1fkoi4zwl4,ms1000253,iti,,null,img/motor_8.png,76,motor,,,,,,,
535,,256509,HierDyrqluye2n,1fkoi4zwl4,ms1000253,motor,,68,img/motor_3.png,68,motor,3,194,1,0,0,,
null,,256619,HierDyrqluye2n,1fkoi4zwl4,ms1000253,iti,,null,img/motor_3.png,68,motor,,,,,,,
444,,257077,HierDyrqluye2n,1fkoi4zwl4,ms1000253,motor,,74,img/motor_6.png,74,motor,6,195,1,0,0,,
null,,257189,HierDyrqluye2n,1fkoi4zwl4,ms1000253,iti,,null,img/motor_6.png,74,motor,,,,,,,
502,,257702,HierDyrqluye2n,1fkoi4zwl4,ms1000253,motor,,72,img/motor_5.png,72,motor,5,196,1,0,0,,
null,,257814,HierDyrqluye2n,1fkoi4zwl4,ms1000253,iti,,null,img/motor_5.png,72,motor,,,,,,,
422,,258248,HierDyrqluye2n,1fkoi4zwl4,ms1000253,motor,,74,img/motor_6.png,74,motor,6,197,1,0,0,,
null,,258360,HierDyrqluye2n,1fkoi4zwl4,ms1000253,iti,,null,img/motor_6.png,74,motor,,,,,,,
439,,258811,HierDyrqluye2n,1fkoi4zwl4,ms1000253,motor,,76,img/motor_8.png,76,motor,8,198,1,0,0,,
null,,258921,HierDyrqluye2n,1fkoi4zwl4,ms1000253,iti,,null,img/motor_8.png,76,motor,,,,,,,
347,,259279,HierDyrqluye2n,1fkoi4zwl4,ms1000253,motor,,65,img/motor_1.png,65,motor,1,199,1,0,0,,
null,,259391,HierDyrqluye2n,1fkoi4zwl4,ms1000253,iti,,null,img/motor_1.png,65,motor,,,,,,,
421,,259824,HierDyrqluye2n,1fkoi4zwl4,ms1000253,motor,,75,img/motor_7.png,75,motor,7,200,1,0,0,,
null,,259936,HierDyrqluye2n,1fkoi4zwl4,ms1000253,iti,,null,img/motor_7.png,75,motor,,,,,,,
415,,260362,HierDyrqluye2n,1fkoi4zwl4,ms1000253,motor,,76,img/motor_8.png,76,motor,8,201,1,0,0,,
null,,260473,HierDyrqluye2n,1fkoi4zwl4,ms1000253,iti,,null,img/motor_8.png,76,motor,,,,,,,
565,,261055,HierDyrqluye2n,1fkoi4zwl4,ms1000253,motor,,75,img/motor_7.png,75,motor,7,202,1,0,0,,
null,,261166,HierDyrqluye2n,1fkoi4zwl4,ms1000253,iti,,null,img/motor_7.png,75,motor,,,,,,,
454,,261632,HierDyrqluye2n,1fkoi4zwl4,ms1000253,motor,,75,img/motor_7.png,75,motor,7,203,1,0,0,,
null,,261744,HierDyrqluye2n,1fkoi4zwl4,ms1000253,iti,,null,img/motor_7.png,75,motor,,,,,,,
399,,262156,HierDyrqluye2n,1fkoi4zwl4,ms1000253,motor,,65,img/motor_1.png,65,motor,1,204,1,0,0,,
null,,262269,HierDyrqluye2n,1fkoi4zwl4,ms1000253,iti,,null,img/motor_1.png,65,motor,,,,,,,
332,,262610,HierDyrqluye2n,1fkoi4zwl4,ms1000253,motor,,65,img/motor_1.png,65,motor,1,205,1,0,0,,
null,,262721,HierDyrqluye2n,1fkoi4zwl4,ms1000253,iti,,null,img/motor_1.png,65,motor,,,,,,,
532,,263264,HierDyrqluye2n,1fkoi4zwl4,ms1000253,motor,,74,img/motor_6.png,74,motor,6,206,1,0,0,,
null,,263376,HierDyrqluye2n,1fkoi4zwl4,ms1000253,iti,,null,img/motor_6.png,74,motor,,,,,,,
397,,263782,HierDyrqluye2n,1fkoi4zwl4,ms1000253,motor,,76,img/motor_8.png,76,motor,8,207,1,0,0,,
null,,263893,HierDyrqluye2n,1fkoi4zwl4,ms1000253,iti,,null,img/motor_8.png,76,motor,,,,,,,
398,,264303,HierDyrqluye2n,1fkoi4zwl4,ms1000253,motor,,74,img/motor_6.png,74,motor,6,208,1,0,0,,
null,,264414,HierDyrqluye2n,1fkoi4zwl4,ms1000253,iti,,null,img/motor_6.png,74,motor,,,,,,,
374,,264799,HierDyrqluye2n,1fkoi4zwl4,ms1000253,motor,,75,img/motor_7.png,75,motor,7,209,1,0,0,,
null,,264910,HierDyrqluye2n,1fkoi4zwl4,ms1000253,iti,,null,img/motor_7.png,75,motor,,,,,,,
346,,265267,HierDyrqluye2n,1fkoi4zwl4,ms1000253,motor,,65,img/motor_1.png,65,motor,1,210,1,0,0,,
null,,265378,HierDyrqluye2n,1fkoi4zwl4,ms1000253,iti,,null,img/motor_1.png,65,motor,,,,,,,
367,,265756,HierDyrqluye2n,1fkoi4zwl4,ms1000253,motor,,75,img/motor_6.png,74,motor,6,211,0,1,0,,
133,,265898,HierDyrqluye2n,1fkoi4zwl4,ms1000253,motorRepeat,,74,img/motor_6.png,74,motor,6,211,1,0,0,,
null,,266010,HierDyrqluye2n,1fkoi4zwl4,ms1000253,iti,,null,img/motor_6.png,74,motor,,,,,,,
461,,266481,HierDyrqluye2n,1fkoi4zwl4,ms1000253,motor,,70,img/motor_4.png,70,motor,4,212,1,0,0,,
null,,266592,HierDyrqluye2n,1fkoi4zwl4,ms1000253,iti,,null,img/motor_4.png,70,motor,,,,,,,
503,,267104,HierDyrqluye2n,1fkoi4zwl4,ms1000253,motor,,72,img/motor_5.png,72,motor,5,213,1,0,0,,
null,,267216,HierDyrqluye2n,1fkoi4zwl4,ms1000253,iti,,null,img/motor_5.png,72,motor,,,,,,,
344,,267572,HierDyrqluye2n,1fkoi4zwl4,ms1000253,motor,,72,img/motor_5.png,72,motor,5,214,1,0,0,,
null,,267683,HierDyrqluye2n,1fkoi4zwl4,ms1000253,iti,,null,img/motor_5.png,72,motor,,,,,,,
457,,268150,HierDyrqluye2n,1fkoi4zwl4,ms1000253,motor,,70,img/motor_4.png,70,motor,4,215,1,0,0,,
null,,268262,HierDyrqluye2n,1fkoi4zwl4,ms1000253,iti,,null,img/motor_4.png,70,motor,,,,,,,
302,,268575,HierDyrqluye2n,1fkoi4zwl4,ms1000253,motor,,70,img/motor_4.png,70,motor,4,216,1,0,0,,
null,,268687,HierDyrqluye2n,1fkoi4zwl4,ms1000253,iti,,null,img/motor_4.png,70,motor,,,,,,,
475,,269172,HierDyrqluye2n,1fkoi4zwl4,ms1000253,motor,,75,img/motor_7.png,75,motor,7,217,1,0,0,,
null,,269284,HierDyrqluye2n,1fkoi4zwl4,ms1000253,iti,,null,img/motor_7.png,75,motor,,,,,,,
401,,269694,HierDyrqluye2n,1fkoi4zwl4,ms1000253,motor,,70,img/motor_4.png,70,motor,4,218,1,0,0,,
null,,269805,HierDyrqluye2n,1fkoi4zwl4,ms1000253,iti,,null,img/motor_4.png,70,motor,,,,,,,
417,,270232,HierDyrqluye2n,1fkoi4zwl4,ms1000253,motor,,75,img/motor_7.png,75,motor,7,219,1,0,0,,
null,,270343,HierDyrqluye2n,1fkoi4zwl4,ms1000253,iti,,null,img/motor_7.png,75,motor,,,,,,,
350,,270704,HierDyrqluye2n,1fkoi4zwl4,ms1000253,motor,,75,img/motor_7.png,75,motor,7,220,1,0,0,,
null,,270815,HierDyrqluye2n,1fkoi4zwl4,ms1000253,iti,,null,img/motor_7.png,75,motor,,,,,,,
425,,271252,HierDyrqluye2n,1fkoi4zwl4,ms1000253,motor,,83,img/motor_2.png,83,motor,2,221,1,0,0,,
null,,271363,HierDyrqluye2n,1fkoi4zwl4,ms1000253,iti,,null,img/motor_2.png,83,motor,,,,,,,
368,,271742,HierDyrqluye2n,1fkoi4zwl4,ms1000253,motor,,70,img/motor_4.png,70,motor,4,222,1,0,0,,
null,,271853,HierDyrqluye2n,1fkoi4zwl4,ms1000253,iti,,null,img/motor_4.png,70,motor,,,,,,,
381,,272244,HierDyrqluye2n,1fkoi4zwl4,ms1000253,motor,,68,img/motor_3.png,68,motor,3,223,1,0,0,,
null,,272355,HierDyrqluye2n,1fkoi4zwl4,ms1000253,iti,,null,img/motor_3.png,68,motor,,,,,,,
547,,272913,HierDyrqluye2n,1fkoi4zwl4,ms1000253,motor,,75,img/motor_7.png,75,motor,7,224,1,0,0,,
null,,273024,HierDyrqluye2n,1fkoi4zwl4,ms1000253,iti,,null,img/motor_7.png,75,motor,,,,,,,
372,,273406,HierDyrqluye2n,1fkoi4zwl4,ms1000253,motor,,75,img/motor_8.png,76,motor,8,225,0,1,0,,
133,,273551,HierDyrqluye2n,1fkoi4zwl4,ms1000253,motorRepeat,,76,img/motor_8.png,76,motor,8,225,1,0,0,,
null,,273662,HierDyrqluye2n,1fkoi4zwl4,ms1000253,iti,,null,img/motor_8.png,76,motor,,,,,,,
450,,274123,HierDyrqluye2n,1fkoi4zwl4,ms1000253,motor,,75,img/motor_7.png,75,motor,7,226,1,0,0,,
null,,274234,HierDyrqluye2n,1fkoi4zwl4,ms1000253,iti,,null,img/motor_7.png,75,motor,,,,,,,
302,,274545,HierDyrqluye2n,1fkoi4zwl4,ms1000253,motor,,75,img/motor_7.png,75,motor,7,227,1,0,0,,
null,,274657,HierDyrqluye2n,1fkoi4zwl4,ms1000253,iti,,null,img/motor_7.png,75,motor,,,,,,,
477,,275143,HierDyrqluye2n,1fkoi4zwl4,ms1000253,motor,,74,img/motor_6.png,74,motor,6,228,1,0,0,,
null,,275255,HierDyrqluye2n,1fkoi4zwl4,ms1000253,iti,,null,img/motor_6.png,74,motor,,,,,,,
353,,275619,HierDyrqluye2n,1fkoi4zwl4,ms1000253,motor,,74,img/motor_6.png,74,motor,6,229,1,0,0,,
null,,275731,HierDyrqluye2n,1fkoi4zwl4,ms1000253,iti,,null,img/motor_6.png,74,motor,,,,,,,
341,,276081,HierDyrqluye2n,1fkoi4zwl4,ms1000253,motor,,65,img/motor_1.png,65,motor,1,230,1,0,0,,
null,,276192,HierDyrqluye2n,1fkoi4zwl4,ms1000253,iti,,null,img/motor_1.png,65,motor,,,,,,,
431,,276635,HierDyrqluye2n,1fkoi4zwl4,ms1000253,motor,,74,img/motor_6.png,74,motor,6,231,1,0,0,,
null,,276747,HierDyrqluye2n,1fkoi4zwl4,ms1000253,iti,,null,img/motor_6.png,74,motor,,,,,,,
458,,277214,HierDyrqluye2n,1fkoi4zwl4,ms1000253,motor,,68,img/motor_3.png,68,motor,3,232,1,0,0,,
null,,277326,HierDyrqluye2n,1fkoi4zwl4,ms1000253,iti,,null,img/motor_3.png,68,motor,,,,,,,
412,,277749,HierDyrqluye2n,1fkoi4zwl4,ms1000253,motor,,72,img/motor_5.png,72,motor,5,233,1,0,0,,
null,,277860,HierDyrqluye2n,1fkoi4zwl4,ms1000253,iti,,null,img/motor_5.png,72,motor,,,,,,,
426,,278297,HierDyrqluye2n,1fkoi4zwl4,ms1000253,motor,,70,img/motor_4.png,70,motor,4,234,1,0,0,,
null,,278409,HierDyrqluye2n,1fkoi4zwl4,ms1000253,iti,,null,img/motor_4.png,70,motor,,,,,,,
373,,278792,HierDyrqluye2n,1fkoi4zwl4,ms1000253,motor,,76,img/motor_8.png,76,motor,8,235,1,0,0,,
null,,278904,HierDyrqluye2n,1fkoi4zwl4,ms1000253,iti,,null,img/motor_8.png,76,motor,,,,,,,
502,,279417,HierDyrqluye2n,1fkoi4zwl4,ms1000253,motor,,68,img/motor_3.png,68,motor,3,236,1,0,0,,
null,,279528,HierDyrqluye2n,1fkoi4zwl4,ms1000253,iti,,null,img/motor_3.png,68,motor,,,,,,,
396,,279933,HierDyrqluye2n,1fkoi4zwl4,ms1000253,motor,,72,img/motor_5.png,72,motor,5,237,1,0,0,,
null,,280045,HierDyrqluye2n,1fkoi4zwl4,ms1000253,iti,,null,img/motor_5.png,72,motor,,,,,,,
476,,280531,HierDyrqluye2n,1fkoi4zwl4,ms1000253,motor,,74,img/motor_6.png,74,motor,6,238,1,0,0,,
null,,280642,HierDyrqluye2n,1fkoi4zwl4,ms1000253,iti,,null,img/motor_6.png,74,motor,,,,,,,
533,,281187,HierDyrqluye2n,1fkoi4zwl4,ms1000253,motor,,68,img/motor_3.png,68,motor,3,239,1,0,0,,
null,,281300,HierDyrqluye2n,1fkoi4zwl4,ms1000253,iti,,null,img/motor_3.png,68,motor,,,,,,,
463,,281775,HierDyrqluye2n,1fkoi4zwl4,ms1000253,motor,,74,img/motor_6.png,74,motor,6,240,1,0,0,,
null,,281886,HierDyrqluye2n,1fkoi4zwl4,ms1000253,iti,,null,img/motor_6.png,74,motor,,,,,,,
411,,282306,HierDyrqluye2n,1fkoi4zwl4,ms1000253,motor,,65,img/motor_2.png,83,motor,2,241,0,1,0,,
216,,282534,HierDyrqluye2n,1fkoi4zwl4,ms1000253,motorRepeat,,83,img/motor_2.png,83,motor,2,241,1,0,0,,
null,,282645,HierDyrqluye2n,1fkoi4zwl4,ms1000253,iti,,null,img/motor_2.png,83,motor,,,,,,,
376,,283031,HierDyrqluye2n,1fkoi4zwl4,ms1000253,motor,,70,img/motor_4.png,70,motor,4,242,1,0,0,,
null,,283142,HierDyrqluye2n,1fkoi4zwl4,ms1000253,iti,,null,img/motor_4.png,70,motor,,,,,,,
344,,283497,HierDyrqluye2n,1fkoi4zwl4,ms1000253,motor,,70,img/motor_4.png,70,motor,4,243,1,0,0,,
null,,283609,HierDyrqluye2n,1fkoi4zwl4,ms1000253,iti,,null,img/motor_4.png,70,motor,,,,,,,
1061,,284681,HierDyrqluye2n,1fkoi4zwl4,ms1000253,motor,,68,img/motor_3.png,68,motor,3,244,1,0,0,,
null,,284791,HierDyrqluye2n,1fkoi4zwl4,ms1000253,iti,,null,img/motor_3.png,68,motor,,,,,,,
396,,285199,HierDyrqluye2n,1fkoi4zwl4,ms1000253,motor,,70,img/motor_4.png,70,motor,4,245,1,0,0,,
null,,285311,HierDyrqluye2n,1fkoi4zwl4,ms1000253,iti,,null,img/motor_4.png,70,motor,,,,,,,
355,,285677,HierDyrqluye2n,1fkoi4zwl4,ms1000253,motor,,75,img/motor_6.png,74,motor,6,246,0,1,0,,
150,,285836,HierDyrqluye2n,1fkoi4zwl4,ms1000253,motorRepeat,,74,img/motor_6.png,74,motor,6,246,1,0,0,,
null,,285947,HierDyrqluye2n,1fkoi4zwl4,ms1000253,iti,,null,img/motor_6.png,74,motor,,,,,,,
506,,286464,HierDyrqluye2n,1fkoi4zwl4,ms1000253,motor,,65,img/motor_1.png,65,motor,1,247,1,0,0,,
null,,286574,HierDyrqluye2n,1fkoi4zwl4,ms1000253,iti,,null,img/motor_1.png,65,motor,,,,,,,
382,,286967,HierDyrqluye2n,1fkoi4zwl4,ms1000253,motor,,76,img/motor_8.png,76,motor,8,248,1,0,0,,
null,,287078,HierDyrqluye2n,1fkoi4zwl4,ms1000253,iti,,null,img/motor_8.png,76,motor,,,,,,,
466,,287554,HierDyrqluye2n,1fkoi4zwl4,ms1000253,motor,,68,img/motor_3.png,68,motor,3,249,1,0,0,,
null,,287667,HierDyrqluye2n,1fkoi4zwl4,ms1000253,iti,,null,img/motor_3.png,68,motor,,,,,,,
379,,288056,HierDyrqluye2n,1fkoi4zwl4,ms1000253,motor,,75,img/motor_7.png,75,motor,7,250,1,0,0,,
null,,288168,HierDyrqluye2n,1fkoi4zwl4,ms1000253,iti,,null,img/motor_7.png,75,motor,,,,,,,
390,,288567,HierDyrqluye2n,1fkoi4zwl4,ms1000253,motor,,68,img/motor_3.png,68,motor,3,251,1,0,0,,
null,,288677,HierDyrqluye2n,1fkoi4zwl4,ms1000253,iti,,null,img/motor_3.png,68,motor,,,,,,,
346,,289035,HierDyrqluye2n,1fkoi4zwl4,ms1000253,motor,,83,img/motor_2.png,83,motor,2,252,1,0,0,,
null,,289145,HierDyrqluye2n,1fkoi4zwl4,ms1000253,iti,,null,img/motor_2.png,83,motor,,,,,,,
551,,289707,HierDyrqluye2n,1fkoi4zwl4,ms1000253,motor,,75,img/motor_7.png,75,motor,7,253,1,0,0,,
null,,289819,HierDyrqluye2n,1fkoi4zwl4,ms1000253,iti,,null,img/motor_7.png,75,motor,,,,,,,
430,,290259,HierDyrqluye2n,1fkoi4zwl4,ms1000253,motor,,83,img/motor_2.png,83,motor,2,254,1,0,0,,
null,,290372,HierDyrqluye2n,1fkoi4zwl4,ms1000253,iti,,null,img/motor_2.png,83,motor,,,,,,,
528,,290909,HierDyrqluye2n,1fkoi4zwl4,ms1000253,motor,,75,img/motor_7.png,75,motor,7,255,1,0,0,,
null,,291020,HierDyrqluye2n,1fkoi4zwl4,ms1000253,iti,,null,img/motor_7.png,75,motor,,,,,,,
393,,291425,HierDyrqluye2n,1fkoi4zwl4,ms1000253,motor,,76,img/motor_8.png,76,motor,8,256,1,0,0,,
null,,291535,HierDyrqluye2n,1fkoi4zwl4,ms1000253,iti,,null,img/motor_8.png,76,motor,,,,,,,
356,,291901,HierDyrqluye2n,1fkoi4zwl4,ms1000253,motor,,65,img/motor_1.png,65,motor,1,257,1,0,0,,
null,,292013,HierDyrqluye2n,1fkoi4zwl4,ms1000253,iti,,null,img/motor_1.png,65,motor,,,,,,,
347,,292371,HierDyrqluye2n,1fkoi4zwl4,ms1000253,motor,,76,img/motor_8.png,76,motor,8,258,1,0,0,,
null,,292481,HierDyrqluye2n,1fkoi4zwl4,ms1000253,iti,,null,img/motor_8.png,76,motor,,,,,,,
514,,293006,HierDyrqluye2n,1fkoi4zwl4,ms1000253,motor,,70,img/motor_4.png,70,motor,4,259,1,0,0,,
null,,293118,HierDyrqluye2n,1fkoi4zwl4,ms1000253,iti,,null,img/motor_4.png,70,motor,,,,,,,
334,,293464,HierDyrqluye2n,1fkoi4zwl4,ms1000253,motor,,83,img/motor_2.png,83,motor,2,260,1,0,0,,
null,,293575,HierDyrqluye2n,1fkoi4zwl4,ms1000253,iti,,null,img/motor_2.png,83,motor,,,,,,,
490,,294076,HierDyrqluye2n,1fkoi4zwl4,ms1000253,motor,,74,img/motor_6.png,74,motor,6,261,1,0,0,,
null,,294187,HierDyrqluye2n,1fkoi4zwl4,ms1000253,iti,,null,img/motor_6.png,74,motor,,,,,,,
368,,294565,HierDyrqluye2n,1fkoi4zwl4,ms1000253,motor,,65,img/motor_1.png,65,motor,1,262,1,0,0,,
null,,294676,HierDyrqluye2n,1fkoi4zwl4,ms1000253,iti,,null,img/motor_1.png,65,motor,,,,,,,
356,,295041,HierDyrqluye2n,1fkoi4zwl4,ms1000253,motor,,75,img/motor_7.png,75,motor,7,263,1,0,0,,
null,,295152,HierDyrqluye2n,1fkoi4zwl4,ms1000253,iti,,null,img/motor_7.png,75,motor,,,,,,,
445,,295609,HierDyrqluye2n,1fkoi4zwl4,ms1000253,motor,,76,img/motor_8.png,76,motor,8,264,1,0,0,,
null,,295720,HierDyrqluye2n,1fkoi4zwl4,ms1000253,iti,,null,img/motor_8.png,76,motor,,,,,,,
398,,296129,HierDyrqluye2n,1fkoi4zwl4,ms1000253,motor,,76,img/motor_8.png,76,motor,8,265,1,0,0,,
null,,296240,HierDyrqluye2n,1fkoi4zwl4,ms1000253,iti,,null,img/motor_8.png,76,motor,,,,,,,
508,,296757,HierDyrqluye2n,1fkoi4zwl4,ms1000253,motor,,70,img/motor_4.png,70,motor,4,266,1,0,0,,
null,,296869,HierDyrqluye2n,1fkoi4zwl4,ms1000253,iti,,null,img/motor_4.png,70,motor,,,,,,,
422,,297301,HierDyrqluye2n,1fkoi4zwl4,ms1000253,motor,,75,img/motor_7.png,75,motor,7,267,1,0,0,,
null,,297412,HierDyrqluye2n,1fkoi4zwl4,ms1000253,iti,,null,img/motor_7.png,75,motor,,,,,,,
291,,297713,HierDyrqluye2n,1fkoi4zwl4,ms1000253,motor,,83,img/motor_1.png,65,motor,1,268,0,1,0,,
209,,297933,HierDyrqluye2n,1fkoi4zwl4,ms1000253,motorRepeat,,65,img/motor_1.png,65,motor,1,268,1,0,0,,
null,,298044,HierDyrqluye2n,1fkoi4zwl4,ms1000253,iti,,null,img/motor_1.png,65,motor,,,,,,,
369,,298424,HierDyrqluye2n,1fkoi4zwl4,ms1000253,motor,,72,img/motor_5.png,72,motor,5,269,1,0,0,,
null,,298537,HierDyrqluye2n,1fkoi4zwl4,ms1000253,iti,,null,img/motor_5.png,72,motor,,,,,,,
395,,298941,HierDyrqluye2n,1fkoi4zwl4,ms1000253,motor,,75,img/motor_7.png,75,motor,7,270,1,0,0,,
null,,299052,HierDyrqluye2n,1fkoi4zwl4,ms1000253,iti,,null,img/motor_7.png,75,motor,,,,,,,
399,,299460,HierDyrqluye2n,1fkoi4zwl4,ms1000253,motor,,65,img/motor_5.png,72,motor,5,271,0,1,0,,
217,,299689,HierDyrqluye2n,1fkoi4zwl4,ms1000253,motorRepeat,,72,img/motor_5.png,72,motor,5,271,1,0,0,,
null,,299801,HierDyrqluye2n,1fkoi4zwl4,ms1000253,iti,,null,img/motor_5.png,72,motor,,,,,,,
663,,300475,HierDyrqluye2n,1fkoi4zwl4,ms1000253,motor,,68,img/motor_3.png,68,motor,3,272,1,0,0,,
null,,300586,HierDyrqluye2n,1fkoi4zwl4,ms1000253,iti,,null,img/motor_3.png,68,motor,,,,,,,
364,,300961,HierDyrqluye2n,1fkoi4zwl4,ms1000253,motor,,68,img/motor_3.png,68,motor,3,273,1,0,0,,
null,,301072,HierDyrqluye2n,1fkoi4zwl4,ms1000253,iti,,null,img/motor_3.png,68,motor,,,,,,,
420,,301502,HierDyrqluye2n,1fkoi4zwl4,ms1000253,motor,,76,img/motor_8.png,76,motor,8,274,1,0,0,,
null,,301613,HierDyrqluye2n,1fkoi4zwl4,ms1000253,iti,,null,img/motor_8.png,76,motor,,,,,,,
597,,302220,HierDyrqluye2n,1fkoi4zwl4,ms1000253,motor,,74,img/motor_6.png,74,motor,6,275,1,0,0,,
null,,302331,HierDyrqluye2n,1fkoi4zwl4,ms1000253,iti,,null,img/motor_6.png,74,motor,,,,,,,
371,,302712,HierDyrqluye2n,1fkoi4zwl4,ms1000253,motor,,75,img/motor_7.png,75,motor,7,276,1,0,0,,
null,,302825,HierDyrqluye2n,1fkoi4zwl4,ms1000253,iti,,null,img/motor_7.png,75,motor,,,,,,,
365,,303199,HierDyrqluye2n,1fkoi4zwl4,ms1000253,motor,,65,img/motor_1.png,65,motor,1,277,1,0,0,,
null,,303311,HierDyrqluye2n,1fkoi4zwl4,ms1000253,iti,,null,img/motor_1.png,65,motor,,,,,,,
379,,303701,HierDyrqluye2n,1fkoi4zwl4,ms1000253,motor,,70,img/motor_4.png,70,motor,4,278,1,0,0,,
null,,303813,HierDyrqluye2n,1fkoi4zwl4,ms1000253,iti,,null,img/motor_4.png,70,motor,,,,,,,
422,,304245,HierDyrqluye2n,1fkoi4zwl4,ms1000253,motor,,68,img/motor_3.png,68,motor,3,279,1,0,0,,
null,,304357,HierDyrqluye2n,1fkoi4zwl4,ms1000253,iti,,null,img/motor_3.png,68,motor,,,,,,,
448,,304815,HierDyrqluye2n,1fkoi4zwl4,ms1000253,motor,,70,img/motor_4.png,70,motor,4,280,1,0,0,,
null,,304927,HierDyrqluye2n,1fkoi4zwl4,ms1000253,iti,,null,img/motor_4.png,70,motor,,,,,,,
335,,305273,HierDyrqluye2n,1fkoi4zwl4,ms1000253,motor,,65,img/motor_1.png,65,motor,1,281,1,0,0,,
null,,305385,HierDyrqluye2n,1fkoi4zwl4,ms1000253,iti,,null,img/motor_1.png,65,motor,,,,,,,
432,,305827,HierDyrqluye2n,1fkoi4zwl4,ms1000253,motor,,68,img/motor_3.png,68,motor,3,282,1,0,0,,
null,,305939,HierDyrqluye2n,1fkoi4zwl4,ms1000253,iti,,null,img/motor_3.png,68,motor,,,,,,,
350,,306299,HierDyrqluye2n,1fkoi4zwl4,ms1000253,motor,,75,img/motor_6.png,74,motor,6,283,0,1,0,,
250,,306558,HierDyrqluye2n,1fkoi4zwl4,ms1000253,motorRepeat,,72,img/motor_6.png,74,motor,6,283,0,1,0,,
210,,306779,HierDyrqluye2n,1fkoi4zwl4,ms1000253,motorRepeat,,74,img/motor_6.png,74,motor,6,283,1,0,0,,
null,,306890,HierDyrqluye2n,1fkoi4zwl4,ms1000253,iti,,null,img/motor_6.png,74,motor,,,,,,,
537,,307438,HierDyrqluye2n,1fkoi4zwl4,ms1000253,motor,,75,img/motor_7.png,75,motor,7,284,1,0,0,,
null,,307549,HierDyrqluye2n,1fkoi4zwl4,ms1000253,iti,,null,img/motor_7.png,75,motor,,,,,,,
465,,308025,HierDyrqluye2n,1fkoi4zwl4,ms1000253,motor,,68,img/motor_4.png,70,motor,4,285,0,1,0,,
151,,308187,HierDyrqluye2n,1fkoi4zwl4,ms1000253,motorRepeat,,70,img/motor_4.png,70,motor,4,285,1,0,0,,
null,,308298,HierDyrqluye2n,1fkoi4zwl4,ms1000253,iti,,null,img/motor_4.png,70,motor,,,,,,,
523,,308833,HierDyrqluye2n,1fkoi4zwl4,ms1000253,motor,,75,img/motor_7.png,75,motor,7,286,1,0,0,,
null,,308944,HierDyrqluye2n,1fkoi4zwl4,ms1000253,iti,,null,img/motor_7.png,75,motor,,,,,,,
457,,309411,HierDyrqluye2n,1fkoi4zwl4,ms1000253,motor,,65,img/motor_1.png,65,motor,1,287,1,0,0,,
null,,309523,HierDyrqluye2n,1fkoi4zwl4,ms1000253,iti,,null,img/motor_1.png,65,motor,,,,,,,
306,,309839,HierDyrqluye2n,1fkoi4zwl4,ms1000253,motor,,65,img/motor_2.png,83,motor,2,288,0,1,0,,
213,,310063,HierDyrqluye2n,1fkoi4zwl4,ms1000253,motorRepeat,,83,img/motor_2.png,83,motor,2,288,1,0,0,,
null,,310175,HierDyrqluye2n,1fkoi4zwl4,ms1000253,iti,,null,img/motor_2.png,83,motor,,,,,,,
370,,310555,HierDyrqluye2n,1fkoi4zwl4,ms1000253,motor,,83,img/motor_2.png,83,motor,2,289,1,0,0,,
null,,310666,HierDyrqluye2n,1fkoi4zwl4,ms1000253,iti,,null,img/motor_2.png,83,motor,,,,,,,
481,,311158,HierDyrqluye2n,1fkoi4zwl4,ms1000253,motor,,72,img/motor_5.png,72,motor,5,290,1,0,0,,
null,,311269,HierDyrqluye2n,1fkoi4zwl4,ms1000253,iti,,null,img/motor_5.png,72,motor,,,,,,,
442,,311722,HierDyrqluye2n,1fkoi4zwl4,ms1000253,motor,,83,img/motor_2.png,83,motor,2,291,1,0,0,,
null,,311832,HierDyrqluye2n,1fkoi4zwl4,ms1000253,iti,,null,img/motor_2.png,83,motor,,,,,,,
380,,312224,HierDyrqluye2n,1fkoi4zwl4,ms1000253,motor,,65,img/motor_1.png,65,motor,1,292,1,0,0,,
null,,312336,HierDyrqluye2n,1fkoi4zwl4,ms1000253,iti,,null,img/motor_1.png,65,motor,,,,,,,
393,,312739,HierDyrqluye2n,1fkoi4zwl4,ms1000253,motor,,68,img/motor_3.png,68,motor,3,293,1,0,0,,
null,,312850,HierDyrqluye2n,1fkoi4zwl4,ms1000253,iti,,null,img/motor_3.png,68,motor,,,,,,,
351,,313212,HierDyrqluye2n,1fkoi4zwl4,ms1000253,motor,,76,img/motor_8.png,76,motor,8,294,1,0,0,,
null,,313324,HierDyrqluye2n,1fkoi4zwl4,ms1000253,iti,,null,img/motor_8.png,76,motor,,,,,,,
379,,313714,HierDyrqluye2n,1fkoi4zwl4,ms1000253,motor,,65,img/motor_1.png,65,motor,1,295,1,0,0,,
null,,313825,HierDyrqluye2n,1fkoi4zwl4,ms1000253,iti,,null,img/motor_1.png,65,motor,,,,,,,
406,,314242,HierDyrqluye2n,1fkoi4zwl4,ms1000253,motor,,83,img/motor_2.png,83,motor,2,296,1,0,0,,
null,,314353,HierDyrqluye2n,1fkoi4zwl4,ms1000253,iti,,null,img/motor_2.png,83,motor,,,,,,,
425,,314789,HierDyrqluye2n,1fkoi4zwl4,ms1000253,motor,,65,img/motor_1.png,65,motor,1,297,1,0,0,,
null,,314900,HierDyrqluye2n,1fkoi4zwl4,ms1000253,iti,,null,img/motor_1.png,65,motor,,,,,,,
406,,315318,HierDyrqluye2n,1fkoi4zwl4,ms1000253,motor,,72,img/motor_5.png,72,motor,5,298,1,0,0,,
null,,315429,HierDyrqluye2n,1fkoi4zwl4,ms1000253,iti,,null,img/motor_5.png,72,motor,,,,,,,
394,,315834,HierDyrqluye2n,1fkoi4zwl4,ms1000253,motor,,65,img/motor_1.png,65,motor,1,299,1,0,0,,
null,,315945,HierDyrqluye2n,1fkoi4zwl4,ms1000253,iti,,null,img/motor_1.png,65,motor,,,,,,,
320,,316275,HierDyrqluye2n,1fkoi4zwl4,ms1000253,motor,,76,img/motor_8.png,76,motor,8,300,1,0,0,,
null,,316387,HierDyrqluye2n,1fkoi4zwl4,ms1000253,iti,,null,img/motor_8.png,76,motor,,,,,,,
359,,316758,HierDyrqluye2n,1fkoi4zwl4,ms1000253,motor,,65,img/motor_1.png,65,motor,1,301,1,0,0,,
null,,316870,HierDyrqluye2n,1fkoi4zwl4,ms1000253,iti,,null,img/motor_1.png,65,motor,,,,,,,
360,,317240,HierDyrqluye2n,1fkoi4zwl4,ms1000253,motor,,83,img/motor_2.png,83,motor,2,302,1,0,0,,
null,,317352,HierDyrqluye2n,1fkoi4zwl4,ms1000253,iti,,null,img/motor_2.png,83,motor,,,,,,,
458,,317820,HierDyrqluye2n,1fkoi4zwl4,ms1000253,motor,,70,img/motor_4.png,70,motor,4,303,1,0,0,,
null,,317933,HierDyrqluye2n,1fkoi4zwl4,ms1000253,iti,,null,img/motor_4.png,70,motor,,,,,,,
335,,318278,HierDyrqluye2n,1fkoi4zwl4,ms1000253,motor,,83,img/motor_3.png,68,motor,3,304,0,1,0,,
193,,318480,HierDyrqluye2n,1fkoi4zwl4,ms1000253,motorRepeat,,68,img/motor_3.png,68,motor,3,304,1,0,0,,
null,,318592,HierDyrqluye2n,1fkoi4zwl4,ms1000253,iti,,null,img/motor_3.png,68,motor,,,,,,,
303,,318907,HierDyrqluye2n,1fkoi4zwl4,ms1000253,motor,,68,img/motor_3.png,68,motor,3,305,1,0,0,,
null,,319018,HierDyrqluye2n,1fkoi4zwl4,ms1000253,iti,,null,img/motor_3.png,68,motor,,,,,,,
443,,319472,HierDyrqluye2n,1fkoi4zwl4,ms1000253,motor,,83,img/motor_2.png,83,motor,2,306,1,0,0,,
null,,319584,HierDyrqluye2n,1fkoi4zwl4,ms1000253,iti,,null,img/motor_2.png,83,motor,,,,,,,
461,,320056,HierDyrqluye2n,1fkoi4zwl4,ms1000253,motor,,74,img/motor_7.png,75,motor,7,307,0,1,0,,
76,,320142,HierDyrqluye2n,1fkoi4zwl4,ms1000253,motorRepeat,,75,img/motor_7.png,75,motor,7,307,1,0,0,,
null,,320254,HierDyrqluye2n,1fkoi4zwl4,ms1000253,iti,,null,img/motor_7.png,75,motor,,,,,,,
413,,320677,HierDyrqluye2n,1fkoi4zwl4,ms1000253,motor,,76,img/motor_8.png,76,motor,8,308,1,0,0,,
null,,320789,HierDyrqluye2n,1fkoi4zwl4,ms1000253,iti,,null,img/motor_8.png,76,motor,,,,,,,
553,,321355,HierDyrqluye2n,1fkoi4zwl4,ms1000253,motor,,70,img/motor_4.png,70,motor,4,309,1,0,0,,
null,,321467,HierDyrqluye2n,1fkoi4zwl4,ms1000253,iti,,null,img/motor_4.png,70,motor,,,,,,,
449,,321929,HierDyrqluye2n,1fkoi4zwl4,ms1000253,motor,,68,img/motor_3.png,68,motor,3,310,1,0,0,,
null,,322041,HierDyrqluye2n,1fkoi4zwl4,ms1000253,iti,,null,img/motor_3.png,68,motor,,,,,,,
574,,322626,HierDyrqluye2n,1fkoi4zwl4,ms1000253,motor,,74,img/motor_6.png,74,motor,6,311,1,0,0,,
null,,322739,HierDyrqluye2n,1fkoi4zwl4,ms1000253,iti,,null,img/motor_6.png,74,motor,,,,,,,
346,,323097,HierDyrqluye2n,1fkoi4zwl4,ms1000253,motor,,76,img/motor_8.png,76,motor,8,312,1,0,0,,
null,,323209,HierDyrqluye2n,1fkoi4zwl4,ms1000253,iti,,null,img/motor_8.png,76,motor,,,,,,,
395,,323616,HierDyrqluye2n,1fkoi4zwl4,ms1000253,motor,,83,img/motor_2.png,83,motor,2,313,1,0,0,,
null,,323726,HierDyrqluye2n,1fkoi4zwl4,ms1000253,iti,,null,img/motor_2.png,83,motor,,,,,,,
412,,324149,HierDyrqluye2n,1fkoi4zwl4,ms1000253,motor,,65,img/motor_1.png,65,motor,1,314,1,0,0,,
null,,324262,HierDyrqluye2n,1fkoi4zwl4,ms1000253,iti,,null,img/motor_1.png,65,motor,,,,,,,
355,,324628,HierDyrqluye2n,1fkoi4zwl4,ms1000253,motor,,68,img/motor_3.png,68,motor,3,315,1,0,0,,
null,,324741,HierDyrqluye2n,1fkoi4zwl4,ms1000253,iti,,null,img/motor_3.png,68,motor,,,,,,,
330,,325081,HierDyrqluye2n,1fkoi4zwl4,ms1000253,motor,,76,img/motor_8.png,76,motor,8,316,1,0,0,,
null,,325192,HierDyrqluye2n,1fkoi4zwl4,ms1000253,iti,,null,img/motor_8.png,76,motor,,,,,,,
383,,325589,HierDyrqluye2n,1fkoi4zwl4,ms1000253,motor,,70,img/motor_4.png,70,motor,4,317,1,0,0,,
null,,325702,HierDyrqluye2n,1fkoi4zwl4,ms1000253,iti,,null,img/motor_4.png,70,motor,,,,,,,
488,,326201,HierDyrqluye2n,1fkoi4zwl4,ms1000253,motor,,74,img/motor_6.png,74,motor,6,318,1,0,0,,
null,,326312,HierDyrqluye2n,1fkoi4zwl4,ms1000253,iti,,null,img/motor_6.png,74,motor,,,,,,,
440,,326764,HierDyrqluye2n,1fkoi4zwl4,ms1000253,motor,,76,img/motor_8.png,76,motor,8,319,1,0,0,,
null,,326877,HierDyrqluye2n,1fkoi4zwl4,ms1000253,iti,,null,img/motor_8.png,76,motor,,,,,,,
577,,327466,HierDyrqluye2n,1fkoi4zwl4,ms1000253,motor,,75,img/motor_7.png,75,motor,7,320,1,0,0,,
null,,327578,HierDyrqluye2n,1fkoi4zwl4,ms1000253,iti,,null,img/motor_7.png,75,motor,,,,,,,
350,,327939,HierDyrqluye2n,1fkoi4zwl4,ms1000253,motor,,72,img/motor_5.png,72,motor,5,321,1,0,0,,
null,,328051,HierDyrqluye2n,1fkoi4zwl4,ms1000253,iti,,null,img/motor_5.png,72,motor,,,,,,,
386,,328447,HierDyrqluye2n,1fkoi4zwl4,ms1000253,motor,,75,img/motor_7.png,75,motor,7,322,1,0,0,,
null,,328559,HierDyrqluye2n,1fkoi4zwl4,ms1000253,iti,,null,img/motor_7.png,75,motor,,,,,,,
398,,328968,HierDyrqluye2n,1fkoi4zwl4,ms1000253,motor,,65,img/motor_1.png,65,motor,1,323,1,0,0,,
null,,329079,HierDyrqluye2n,1fkoi4zwl4,ms1000253,iti,,null,img/motor_1.png,65,motor,,,,,,,
495,,329585,HierDyrqluye2n,1fkoi4zwl4,ms1000253,motor,,70,img/motor_4.png,70,motor,4,324,1,0,0,,
null,,329697,HierDyrqluye2n,1fkoi4zwl4,ms1000253,iti,,null,img/motor_4.png,70,motor,,,,,,,
725,,330432,HierDyrqluye2n,1fkoi4zwl4,ms1000253,motor,,65,img/motor_1.png,65,motor,1,325,1,0,0,,
null,,330543,HierDyrqluye2n,1fkoi4zwl4,ms1000253,iti,,null,img/motor_1.png,65,motor,,,,,,,
415,,330970,HierDyrqluye2n,1fkoi4zwl4,ms1000253,motor,,70,img/motor_4.png,70,motor,4,326,1,0,0,,
null,,331082,HierDyrqluye2n,1fkoi4zwl4,ms1000253,iti,,null,img/motor_4.png,70,motor,,,,,,,
332,,331424,HierDyrqluye2n,1fkoi4zwl4,ms1000253,motor,,76,img/motor_8.png,76,motor,8,327,1,0,0,,
null,,331535,HierDyrqluye2n,1fkoi4zwl4,ms1000253,iti,,null,img/motor_8.png,76,motor,,,,,,,
420,,331966,HierDyrqluye2n,1fkoi4zwl4,ms1000253,motor,,65,img/motor_1.png,65,motor,1,328,1,0,0,,
null,,332078,HierDyrqluye2n,1fkoi4zwl4,ms1000253,iti,,null,img/motor_1.png,65,motor,,,,,,,
419,,332508,HierDyrqluye2n,1fkoi4zwl4,ms1000253,motor,,83,img/motor_2.png,83,motor,2,329,1,0,0,,
null,,332619,HierDyrqluye2n,1fkoi4zwl4,ms1000253,iti,,null,img/motor_2.png,83,motor,,,,,,,
384,,333015,HierDyrqluye2n,1fkoi4zwl4,ms1000253,motor,,76,img/motor_8.png,76,motor,8,330,1,0,0,,
null,,333126,HierDyrqluye2n,1fkoi4zwl4,ms1000253,iti,,null,img/motor_8.png,76,motor,,,,,,,
400,,333537,HierDyrqluye2n,1fkoi4zwl4,ms1000253,motor,,76,img/motor_8.png,76,motor,8,331,1,0,0,,
null,,333648,HierDyrqluye2n,1fkoi4zwl4,ms1000253,iti,,null,img/motor_8.png,76,motor,,,,,,,
560,,334221,HierDyrqluye2n,1fkoi4zwl4,ms1000253,motor,,74,img/motor_6.png,74,motor,6,332,1,0,0,,
null,,334332,HierDyrqluye2n,1fkoi4zwl4,ms1000253,iti,,null,img/motor_6.png,74,motor,,,,,,,
300,,334642,HierDyrqluye2n,1fkoi4zwl4,ms1000253,motor,,75,img/motor_7.png,75,motor,7,333,1,0,0,,
null,,334755,HierDyrqluye2n,1fkoi4zwl4,ms1000253,iti,,null,img/motor_7.png,75,motor,,,,,,,
323,,335089,HierDyrqluye2n,1fkoi4zwl4,ms1000253,motor,,72,img/motor_5.png,72,motor,5,334,1,0,0,,
null,,335200,HierDyrqluye2n,1fkoi4zwl4,ms1000253,iti,,null,img/motor_5.png,72,motor,,,,,,,
375,,335585,HierDyrqluye2n,1fkoi4zwl4,ms1000253,motor,,74,img/motor_6.png,74,motor,6,335,1,0,0,,
null,,335696,HierDyrqluye2n,1fkoi4zwl4,ms1000253,iti,,null,img/motor_6.png,74,motor,,,,,,,
420,,336128,HierDyrqluye2n,1fkoi4zwl4,ms1000253,motor,,70,img/motor_4.png,70,motor,4,336,1,0,0,,
null,,336240,HierDyrqluye2n,1fkoi4zwl4,ms1000253,iti,,null,img/motor_4.png,70,motor,,,,,,,
417,,336668,HierDyrqluye2n,1fkoi4zwl4,ms1000253,motor,,76,img/motor_8.png,76,motor,8,337,1,0,0,,
null,,336779,HierDyrqluye2n,1fkoi4zwl4,ms1000253,iti,,null,img/motor_8.png,76,motor,,,,,,,
479,,337269,HierDyrqluye2n,1fkoi4zwl4,ms1000253,motor,,68,img/motor_3.png,68,motor,3,338,1,0,0,,
null,,337380,HierDyrqluye2n,1fkoi4zwl4,ms1000253,iti,,null,img/motor_3.png,68,motor,,,,,,,
482,,337872,HierDyrqluye2n,1fkoi4zwl4,ms1000253,motor,,83,img/motor_2.png,83,motor,2,339,1,0,0,,
null,,337984,HierDyrqluye2n,1fkoi4zwl4,ms1000253,iti,,null,img/motor_2.png,83,motor,,,,,,,
508,,338502,HierDyrqluye2n,1fkoi4zwl4,ms1000253,motor,,74,img/motor_6.png,74,motor,6,340,1,0,0,,
null,,338614,HierDyrqluye2n,1fkoi4zwl4,ms1000253,iti,,null,img/motor_6.png,74,motor,,,,,,,
384,,339010,HierDyrqluye2n,1fkoi4zwl4,ms1000253,motor,,75,img/motor_7.png,75,motor,7,341,1,0,0,,
null,,339122,HierDyrqluye2n,1fkoi4zwl4,ms1000253,iti,,null,img/motor_7.png,75,motor,,,,,,,
556,,339688,HierDyrqluye2n,1fkoi4zwl4,ms1000253,motor,,83,img/motor_2.png,83,motor,2,342,1,0,0,,
null,,339799,HierDyrqluye2n,1fkoi4zwl4,ms1000253,iti,,null,img/motor_2.png,83,motor,,,,,,,
515,,340326,HierDyrqluye2n,1fkoi4zwl4,ms1000253,motor,,75,img/motor_7.png,75,motor,7,343,1,0,0,,
null,,340439,HierDyrqluye2n,1fkoi4zwl4,ms1000253,iti,,null,img/motor_7.png,75,motor,,,,,,,
334,,340783,HierDyrqluye2n,1fkoi4zwl4,ms1000253,motor,,75,img/motor_7.png,75,motor,7,344,1,0,0,,
null,,340896,HierDyrqluye2n,1fkoi4zwl4,ms1000253,iti,,null,img/motor_7.png,75,motor,,,,,,,
538,,341446,HierDyrqluye2n,1fkoi4zwl4,ms1000253,motor,,72,img/motor_5.png,72,motor,5,345,1,0,0,,
null,,341559,HierDyrqluye2n,1fkoi4zwl4,ms1000253,iti,,null,img/motor_5.png,72,motor,,,,,,,
380,,341950,HierDyrqluye2n,1fkoi4zwl4,ms1000253,motor,,75,img/motor_7.png,75,motor,7,346,1,0,0,,
null,,342062,HierDyrqluye2n,1fkoi4zwl4,ms1000253,iti,,null,img/motor_7.png,75,motor,,,,,,,
383,,342455,HierDyrqluye2n,1fkoi4zwl4,ms1000253,motor,,72,img/motor_5.png,72,motor,5,347,1,0,0,,
null,,342567,HierDyrqluye2n,1fkoi4zwl4,ms1000253,iti,,null,img/motor_5.png,72,motor,,,,,,,
344,,342922,HierDyrqluye2n,1fkoi4zwl4,ms1000253,motor,,72,img/motor_5.png,72,motor,5,348,1,0,0,,
null,,343033,HierDyrqluye2n,1fkoi4zwl4,ms1000253,iti,,null,img/motor_5.png,72,motor,,,,,,,
380,,343424,HierDyrqluye2n,1fkoi4zwl4,ms1000253,motor,,76,img/motor_8.png,76,motor,8,349,1,0,0,,
null,,343536,HierDyrqluye2n,1fkoi4zwl4,ms1000253,iti,,null,img/motor_8.png,76,motor,,,,,,,
364,,343910,HierDyrqluye2n,1fkoi4zwl4,ms1000253,motor,,75,img/motor_6.png,74,motor,6,350,0,1,0,,
204,,344125,HierDyrqluye2n,1fkoi4zwl4,ms1000253,motorRepeat,,74,img/motor_6.png,74,motor,6,350,1,0,0,,
null,,344237,HierDyrqluye2n,1fkoi4zwl4,ms1000253,iti,,null,img/motor_6.png,74,motor,,,,,,,
598,,344845,HierDyrqluye2n,1fkoi4zwl4,ms1000253,motor,,83,img/motor_2.png,83,motor,2,351,1,0,0,,
null,,344957,HierDyrqluye2n,1fkoi4zwl4,ms1000253,iti,,null,img/motor_2.png,83,motor,,,,,,,
816,,345784,HierDyrqluye2n,1fkoi4zwl4,ms1000253,motor,,72,img/motor_5.png,72,motor,5,352,1,0,0,,
null,,345896,HierDyrqluye2n,1fkoi4zwl4,ms1000253,iti,,null,img/motor_5.png,72,motor,,,,,,,
397,,346304,HierDyrqluye2n,1fkoi4zwl4,ms1000253,motor,,68,img/motor_4.png,70,motor,4,353,0,1,0,,
183,,346498,HierDyrqluye2n,1fkoi4zwl4,ms1000253,motorRepeat,,70,img/motor_4.png,70,motor,4,353,1,0,0,,
null,,346610,HierDyrqluye2n,1fkoi4zwl4,ms1000253,iti,,null,img/motor_4.png,70,motor,,,,,,,
402,,347022,HierDyrqluye2n,1fkoi4zwl4,ms1000253,motor,,72,img/motor_5.png,72,motor,5,354,1,0,0,,
null,,347134,HierDyrqluye2n,1fkoi4zwl4,ms1000253,iti,,null,img/motor_5.png,72,motor,,,,,,,
392,,347537,HierDyrqluye2n,1fkoi4zwl4,ms1000253,motor,,74,img/motor_6.png,74,motor,6,355,1,0,0,,
null,,347649,HierDyrqluye2n,1fkoi4zwl4,ms1000253,iti,,null,img/motor_6.png,74,motor,,,,,,,
366,,348025,HierDyrqluye2n,1fkoi4zwl4,ms1000253,motor,,76,img/motor_8.png,76,motor,8,356,1,0,0,,
null,,348137,HierDyrqluye2n,1fkoi4zwl4,ms1000253,iti,,null,img/motor_8.png,76,motor,,,,,,,
314,,348460,HierDyrqluye2n,1fkoi4zwl4,ms1000253,motor,,75,img/motor_7.png,75,motor,7,357,1,0,0,,
null,,348572,HierDyrqluye2n,1fkoi4zwl4,ms1000253,iti,,null,img/motor_7.png,75,motor,,,,,,,
331,,348914,HierDyrqluye2n,1fkoi4zwl4,ms1000253,motor,,74,img/motor_6.png,74,motor,6,358,1,0,0,,
null,,349026,HierDyrqluye2n,1fkoi4zwl4,ms1000253,iti,,null,img/motor_6.png,74,motor,,,,,,,
352,,349390,HierDyrqluye2n,1fkoi4zwl4,ms1000253,motor,,83,img/motor_2.png,83,motor,2,359,1,0,0,,
null,,349501,HierDyrqluye2n,1fkoi4zwl4,ms1000253,iti,,null,img/motor_2.png,83,motor,,,,,,,
457,,349969,HierDyrqluye2n,1fkoi4zwl4,ms1000253,motor,,75,img/motor_7.png,75,motor,7,360,1,0,0,,
null,,350081,HierDyrqluye2n,1fkoi4zwl4,ms1000253,iti,,null,img/motor_7.png,75,motor,,,,,,,
584,,350676,HierDyrqluye2n,1fkoi4zwl4,ms1000253,motor,,68,img/motor_3.png,68,motor,3,361,1,0,0,,
null,,350787,HierDyrqluye2n,1fkoi4zwl4,ms1000253,iti,,null,img/motor_3.png,68,motor,,,,,,,
456,,351254,HierDyrqluye2n,1fkoi4zwl4,ms1000253,motor,,74,img/motor_6.png,74,motor,6,362,1,0,0,,
null,,351364,HierDyrqluye2n,1fkoi4zwl4,ms1000253,iti,,null,img/motor_6.png,74,motor,,,,,,,
453,,351829,HierDyrqluye2n,1fkoi4zwl4,ms1000253,motor,,72,img/motor_5.png,72,motor,5,363,1,0,0,,
null,,351941,HierDyrqluye2n,1fkoi4zwl4,ms1000253,iti,,null,img/motor_5.png,72,motor,,,,,,,
489,,352441,HierDyrqluye2n,1fkoi4zwl4,ms1000253,motor,,68,img/motor_3.png,68,motor,3,364,1,0,0,,
null,,352552,HierDyrqluye2n,1fkoi4zwl4,ms1000253,iti,,null,img/motor_3.png,68,motor,,,,,,,
413,,352976,HierDyrqluye2n,1fkoi4zwl4,ms1000253,motor,,76,img/motor_8.png,76,motor,8,365,1,0,0,,
null,,353088,HierDyrqluye2n,1fkoi4zwl4,ms1000253,iti,,null,img/motor_8.png,76,motor,,,,,,,
534,,353634,HierDyrqluye2n,1fkoi4zwl4,ms1000253,motor,,68,img/motor_3.png,68,motor,3,366,1,0,0,,
null,,353747,HierDyrqluye2n,1fkoi4zwl4,ms1000253,iti,,null,img/motor_3.png,68,motor,,,,,,,
368,,354126,HierDyrqluye2n,1fkoi4zwl4,ms1000253,motor,,74,img/motor_5.png,72,motor,5,367,0,1,0,,
78,,354216,HierDyrqluye2n,1fkoi4zwl4,ms1000253,motorRepeat,,72,img/motor_5.png,72,motor,5,367,1,0,0,,
null,,354328,HierDyrqluye2n,1fkoi4zwl4,ms1000253,iti,,null,img/motor_5.png,72,motor,,,,,,,
495,,354833,HierDyrqluye2n,1fkoi4zwl4,ms1000253,motor,,72,img/motor_6.png,74,motor,6,368,0,1,0,,
49,,354893,HierDyrqluye2n,1fkoi4zwl4,ms1000253,motorRepeat,,74,img/motor_6.png,74,motor,6,368,1,0,0,,
null,,355005,HierDyrqluye2n,1fkoi4zwl4,ms1000253,iti,,null,img/motor_6.png,74,motor,,,,,,,
807,,355822,HierDyrqluye2n,1fkoi4zwl4,ms1000253,motor,,70,img/motor_4.png,70,motor,4,369,1,0,0,,
null,,355934,HierDyrqluye2n,1fkoi4zwl4,ms1000253,iti,,null,img/motor_4.png,70,motor,,,,,,,
833,,356777,HierDyrqluye2n,1fkoi4zwl4,ms1000253,motor,,74,img/motor_6.png,74,motor,6,370,1,0,0,,
null,,356889,HierDyrqluye2n,1fkoi4zwl4,ms1000253,iti,,null,img/motor_6.png,74,motor,,,,,,,
444,,357344,HierDyrqluye2n,1fkoi4zwl4,ms1000253,motor,,72,img/motor_5.png,72,motor,5,371,1,0,0,,
null,,357456,HierDyrqluye2n,1fkoi4zwl4,ms1000253,iti,,null,img/motor_5.png,72,motor,,,,,,,
439,,357907,HierDyrqluye2n,1fkoi4zwl4,ms1000253,motor,,83,img/motor_2.png,83,motor,2,372,1,0,0,,
null,,358019,HierDyrqluye2n,1fkoi4zwl4,ms1000253,iti,,null,img/motor_2.png,83,motor,,,,,,,
326,,358356,HierDyrqluye2n,1fkoi4zwl4,ms1000253,motor,,83,img/motor_2.png,83,motor,2,373,1,0,0,,
null,,358468,HierDyrqluye2n,1fkoi4zwl4,ms1000253,iti,,null,img/motor_2.png,83,motor,,,,,,,
411,,358889,HierDyrqluye2n,1fkoi4zwl4,ms1000253,motor,,68,img/motor_3.png,68,motor,3,374,1,0,0,,
null,,358999,HierDyrqluye2n,1fkoi4zwl4,ms1000253,iti,,null,img/motor_3.png,68,motor,,,,,,,
401,,359413,HierDyrqluye2n,1fkoi4zwl4,ms1000253,motor,,83,img/motor_1.png,65,motor,1,375,0,1,0,,
150,,359574,HierDyrqluye2n,1fkoi4zwl4,ms1000253,motorRepeat,,65,img/motor_1.png,65,motor,1,375,1,0,0,,
null,,359685,HierDyrqluye2n,1fkoi4zwl4,ms1000253,iti,,null,img/motor_1.png,65,motor,,,,,,,
547,,360244,HierDyrqluye2n,1fkoi4zwl4,ms1000253,motor,,75,img/motor_7.png,75,motor,7,376,1,0,0,,
null,,360355,HierDyrqluye2n,1fkoi4zwl4,ms1000253,iti,,null,img/motor_7.png,75,motor,,,,,,,
321,,360688,HierDyrqluye2n,1fkoi4zwl4,ms1000253,motor,,72,img/motor_5.png,72,motor,5,377,1,0,0,,
null,,360801,HierDyrqluye2n,1fkoi4zwl4,ms1000253,iti,,null,img/motor_5.png,72,motor,,,,,,,
391,,361203,HierDyrqluye2n,1fkoi4zwl4,ms1000253,motor,,68,img/motor_3.png,68,motor,3,378,1,0,0,,
null,,361316,HierDyrqluye2n,1fkoi4zwl4,ms1000253,iti,,null,img/motor_3.png,68,motor,,,,,,,
367,,361693,HierDyrqluye2n,1fkoi4zwl4,ms1000253,motor,,83,img/motor_2.png,83,motor,2,379,1,0,0,,
null,,361804,HierDyrqluye2n,1fkoi4zwl4,ms1000253,iti,,null,img/motor_2.png,83,motor,,,,,,,
339,,362155,HierDyrqluye2n,1fkoi4zwl4,ms1000253,motor,,83,img/motor_2.png,83,motor,2,380,1,0,0,,
null,,362267,HierDyrqluye2n,1fkoi4zwl4,ms1000253,iti,,null,img/motor_2.png,83,motor,,,,,,,
388,,362666,HierDyrqluye2n,1fkoi4zwl4,ms1000253,motor,,65,img/motor_1.png,65,motor,1,381,1,0,0,,
null,,362778,HierDyrqluye2n,1fkoi4zwl4,ms1000253,iti,,null,img/motor_1.png,65,motor,,,,,,,
401,,363190,HierDyrqluye2n,1fkoi4zwl4,ms1000253,motor,,75,img/motor_7.png,75,motor,7,382,1,0,0,,
null,,363301,HierDyrqluye2n,1fkoi4zwl4,ms1000253,iti,,null,img/motor_7.png,75,motor,,,,,,,
530,,363842,HierDyrqluye2n,1fkoi4zwl4,ms1000253,motor,,68,img/motor_3.png,68,motor,3,383,1,0,0,,
null,,363954,HierDyrqluye2n,1fkoi4zwl4,ms1000253,iti,,null,img/motor_3.png,68,motor,,,,,,,
526,,364491,HierDyrqluye2n,1fkoi4zwl4,ms1000253,motor,,70,img/motor_4.png,70,motor,4,384,1,0,0,,
null,,364602,HierDyrqluye2n,1fkoi4zwl4,ms1000253,iti,,null,img/motor_4.png,70,motor,,,,,,,
375,,364987,HierDyrqluye2n,1fkoi4zwl4,ms1000253,motor,,76,img/motor_8.png,76,motor,8,385,1,0,0,,
null,,365098,HierDyrqluye2n,1fkoi4zwl4,ms1000253,iti,,null,img/motor_8.png,76,motor,,,,,,,
415,,365525,HierDyrqluye2n,1fkoi4zwl4,ms1000253,motor,,74,img/motor_6.png,74,motor,6,386,1,0,0,,
null,,365637,HierDyrqluye2n,1fkoi4zwl4,ms1000253,iti,,null,img/motor_6.png,74,motor,,,,,,,
434,,366083,HierDyrqluye2n,1fkoi4zwl4,ms1000253,motor,,74,img/motor_6.png,74,motor,6,387,1,0,0,,
null,,366194,HierDyrqluye2n,1fkoi4zwl4,ms1000253,iti,,null,img/motor_6.png,74,motor,,,,,,,
433,,366639,HierDyrqluye2n,1fkoi4zwl4,ms1000253,motor,,72,img/motor_5.png,72,motor,5,388,1,0,0,,
null,,366751,HierDyrqluye2n,1fkoi4zwl4,ms1000253,iti,,null,img/motor_5.png,72,motor,,,,,,,
341,,367103,HierDyrqluye2n,1fkoi4zwl4,ms1000253,motor,,72,img/motor_5.png,72,motor,5,389,1,0,0,,
null,,367216,HierDyrqluye2n,1fkoi4zwl4,ms1000253,iti,,null,img/motor_5.png,72,motor,,,,,,,
413,,367639,HierDyrqluye2n,1fkoi4zwl4,ms1000253,motor,,70,img/motor_4.png,70,motor,4,390,1,0,0,,
null,,367752,HierDyrqluye2n,1fkoi4zwl4,ms1000253,iti,,null,img/motor_4.png,70,motor,,,,,,,
429,,368192,HierDyrqluye2n,1fkoi4zwl4,ms1000253,motor,,65,img/motor_1.png,65,motor,1,391,1,0,0,,
null,,368304,HierDyrqluye2n,1fkoi4zwl4,ms1000253,iti,,null,img/motor_1.png,65,motor,,,,,,,
384,,368699,HierDyrqluye2n,1fkoi4zwl4,ms1000253,motor,,74,img/motor_5.png,72,motor,5,392,0,1,0,,
146,,368856,HierDyrqluye2n,1fkoi4zwl4,ms1000253,motorRepeat,,72,img/motor_5.png,72,motor,5,392,1,0,0,,
null,,368967,HierDyrqluye2n,1fkoi4zwl4,ms1000253,iti,,null,img/motor_5.png,72,motor,,,,,,,
369,,369347,HierDyrqluye2n,1fkoi4zwl4,ms1000253,motor,,76,img/motor_8.png,76,motor,8,393,1,0,0,,
null,,369458,HierDyrqluye2n,1fkoi4zwl4,ms1000253,iti,,null,img/motor_8.png,76,motor,,,,,,,
420,,369889,HierDyrqluye2n,1fkoi4zwl4,ms1000253,motor,,72,img/motor_5.png,72,motor,5,394,1,0,0,,
null,,369999,HierDyrqluye2n,1fkoi4zwl4,ms1000253,iti,,null,img/motor_5.png,72,motor,,,,,,,
382,,370393,HierDyrqluye2n,1fkoi4zwl4,ms1000253,motor,,75,img/motor_7.png,75,motor,7,395,1,0,0,,
null,,370504,HierDyrqluye2n,1fkoi4zwl4,ms1000253,iti,,null,img/motor_7.png,75,motor,,,,,,,
376,,370889,HierDyrqluye2n,1fkoi4zwl4,ms1000253,motor,,74,img/motor_6.png,74,motor,6,396,1,0,0,,
null,,371001,HierDyrqluye2n,1fkoi4zwl4,ms1000253,iti,,null,img/motor_6.png,74,motor,,,,,,,
394,,371404,HierDyrqluye2n,1fkoi4zwl4,ms1000253,motor,,70,img/motor_4.png,70,motor,4,397,1,0,0,,
null,,371517,HierDyrqluye2n,1fkoi4zwl4,ms1000253,iti,,null,img/motor_4.png,70,motor,,,,,,,
364,,371893,HierDyrqluye2n,1fkoi4zwl4,ms1000253,motor,,83,img/motor_2.png,83,motor,2,398,1,0,0,,
null,,372004,HierDyrqluye2n,1fkoi4zwl4,ms1000253,iti,,null,img/motor_2.png,83,motor,,,,,,,
330,,372344,HierDyrqluye2n,1fkoi4zwl4,ms1000253,motor,,83,img/motor_2.png,83,motor,2,399,1,0,0,,
null,,372457,HierDyrqluye2n,1fkoi4zwl4,ms1000253,iti,,null,img/motor_2.png,83,motor,,,,,,,
454,,372922,HierDyrqluye2n,1fkoi4zwl4,ms1000253,motor,,72,img/motor_6.png,74,motor,6,400,0,1,0,,
136,,373070,HierDyrqluye2n,1fkoi4zwl4,ms1000253,motorRepeat,,74,img/motor_6.png,74,motor,6,400,1,0,0,,
null,,373180,HierDyrqluye2n,1fkoi4zwl4,ms1000253,iti,,null,img/motor_6.png,74,motor,,,,,,,
442,,373631,HierDyrqluye2n,1fkoi4zwl4,ms1000253,motor,,72,img/motor_5.png,72,motor,5,401,1,0,0,,
null,,373743,HierDyrqluye2n,1fkoi4zwl4,ms1000253,iti,,null,img/motor_5.png,72,motor,,,,,,,
344,,374097,HierDyrqluye2n,1fkoi4zwl4,ms1000253,motor,,65,img/motor_1.png,65,motor,1,402,1,0,0,,
null,,374209,HierDyrqluye2n,1fkoi4zwl4,ms1000253,iti,,null,img/motor_1.png,65,motor,,,,,,,
337,,374557,HierDyrqluye2n,1fkoi4zwl4,ms1000253,motor,,70,img/motor_4.png,70,motor,4,403,1,0,0,,
null,,374669,HierDyrqluye2n,1fkoi4zwl4,ms1000253,iti,,null,img/motor_4.png,70,motor,,,,,,,
365,,375046,HierDyrqluye2n,1fkoi4zwl4,ms1000253,motor,,72,img/motor_5.png,72,motor,5,404,1,0,0,,
null,,375157,HierDyrqluye2n,1fkoi4zwl4,ms1000253,iti,,null,img/motor_5.png,72,motor,,,,,,,
477,,375645,HierDyrqluye2n,1fkoi4zwl4,ms1000253,motor,,70,img/motor_4.png,70,motor,4,405,1,0,0,,
null,,375757,HierDyrqluye2n,1fkoi4zwl4,ms1000253,iti,,null,img/motor_4.png,70,motor,,,,,,,
354,,376121,HierDyrqluye2n,1fkoi4zwl4,ms1000253,motor,,83,img/motor_2.png,83,motor,2,406,1,0,0,,
null,,376234,HierDyrqluye2n,1fkoi4zwl4,ms1000253,iti,,null,img/motor_2.png,83,motor,,,,,,,
444,,376688,HierDyrqluye2n,1fkoi4zwl4,ms1000253,motor,,68,img/motor_3.png,68,motor,3,407,1,0,0,,
null,,376799,HierDyrqluye2n,1fkoi4zwl4,ms1000253,iti,,null,img/motor_3.png,68,motor,,,,,,,
165,,376975,HierDyrqluye2n,1fkoi4zwl4,ms1000253,motor,,65,img/motor_3.png,68,motor,3,408,0,1,0,,
304,,377290,HierDyrqluye2n,1fkoi4zwl4,ms1000253,motorRepeat,,68,img/motor_3.png,68,motor,3,408,1,0,0,,
null,,377402,HierDyrqluye2n,1fkoi4zwl4,ms1000253,iti,,null,img/motor_3.png,68,motor,,,,,,,
526,,377939,HierDyrqluye2n,1fkoi4zwl4,ms1000253,motor,,74,img/motor_6.png,74,motor,6,409,1,0,0,,
null,,378051,HierDyrqluye2n,1fkoi4zwl4,ms1000253,iti,,null,img/motor_6.png,74,motor,,,,,,,
324,,378385,HierDyrqluye2n,1fkoi4zwl4,ms1000253,motor,,76,img/motor_8.png,76,motor,8,410,1,0,0,,
null,,378497,HierDyrqluye2n,1fkoi4zwl4,ms1000253,iti,,null,img/motor_8.png,76,motor,,,,,,,
427,,378935,HierDyrqluye2n,1fkoi4zwl4,ms1000253,motor,,83,img/motor_2.png,83,motor,2,411,1,0,0,,
null,,379047,HierDyrqluye2n,1fkoi4zwl4,ms1000253,iti,,null,img/motor_2.png,83,motor,,,,,,,
323,,379381,HierDyrqluye2n,1fkoi4zwl4,ms1000253,motor,,68,img/motor_3.png,68,motor,3,412,1,0,0,,
null,,379493,HierDyrqluye2n,1fkoi4zwl4,ms1000253,iti,,null,img/motor_3.png,68,motor,,,,,,,
348,,379853,HierDyrqluye2n,1fkoi4zwl4,ms1000253,motor,,65,img/motor_1.png,65,motor,1,413,1,0,0,,
null,,379964,HierDyrqluye2n,1fkoi4zwl4,ms1000253,iti,,null,img/motor_1.png,65,motor,,,,,,,
469,,380444,HierDyrqluye2n,1fkoi4zwl4,ms1000253,motor,,72,img/motor_5.png,72,motor,5,414,1,0,0,,
null,,380555,HierDyrqluye2n,1fkoi4zwl4,ms1000253,iti,,null,img/motor_5.png,72,motor,,,,,,,
380,,380947,HierDyrqluye2n,1fkoi4zwl4,ms1000253,motor,,74,img/motor_6.png,74,motor,6,415,1,0,0,,
null,,381057,HierDyrqluye2n,1fkoi4zwl4,ms1000253,iti,,null,img/motor_6.png,74,motor,,,,,,,
545,,381614,HierDyrqluye2n,1fkoi4zwl4,ms1000253,motor,,68,img/motor_3.png,68,motor,3,416,1,0,0,,
null,,381726,HierDyrqluye2n,1fkoi4zwl4,ms1000253,iti,,null,img/motor_3.png,68,motor,,,,,,,
341,,382079,HierDyrqluye2n,1fkoi4zwl4,ms1000253,motor,,72,img/motor_5.png,72,motor,5,417,1,0,0,,
null,,382190,HierDyrqluye2n,1fkoi4zwl4,ms1000253,iti,,null,img/motor_5.png,72,motor,,,,,,,
406,,382606,HierDyrqluye2n,1fkoi4zwl4,ms1000253,motor,,74,img/motor_6.png,74,motor,6,418,1,0,0,,
null,,382718,HierDyrqluye2n,1fkoi4zwl4,ms1000253,iti,,null,img/motor_6.png,74,motor,,,,,,,
467,,383196,HierDyrqluye2n,1fkoi4zwl4,ms1000253,motor,,70,img/motor_4.png,70,motor,4,419,1,0,0,,
null,,383308,HierDyrqluye2n,1fkoi4zwl4,ms1000253,iti,,null,img/motor_4.png,70,motor,,,,,,,
380,,383699,HierDyrqluye2n,1fkoi4zwl4,ms1000253,motor,,76,img/motor_8.png,76,motor,8,420,1,0,0,,
null,,383811,HierDyrqluye2n,1fkoi4zwl4,ms1000253,iti,,null,img/motor_8.png,76,motor,,,,,,,
530,,384352,HierDyrqluye2n,1fkoi4zwl4,ms1000253,motor,,74,img/motor_6.png,74,motor,6,421,1,0,0,,
null,,384463,HierDyrqluye2n,1fkoi4zwl4,ms1000253,iti,,null,img/motor_6.png,74,motor,,,,,,,
396,,384870,HierDyrqluye2n,1fkoi4zwl4,ms1000253,motor,,76,img/motor_8.png,76,motor,8,422,1,0,0,,
null,,384981,HierDyrqluye2n,1fkoi4zwl4,ms1000253,iti,,null,img/motor_8.png,76,motor,,,,,,,
661,,385655,HierDyrqluye2n,1fkoi4zwl4,ms1000253,motor,,68,img/motor_3.png,68,motor,3,423,1,0,0,,
null,,385768,HierDyrqluye2n,1fkoi4zwl4,ms1000253,iti,,null,img/motor_3.png,68,motor,,,,,,,
348,,386130,HierDyrqluye2n,1fkoi4zwl4,ms1000253,motor,,65,img/motor_1.png,65,motor,1,424,1,0,0,,
null,,386241,HierDyrqluye2n,1fkoi4zwl4,ms1000253,iti,,null,img/motor_1.png,65,motor,,,,,,,
356,,386608,HierDyrqluye2n,1fkoi4zwl4,ms1000253,motor,,72,img/motor_5.png,72,motor,5,425,1,0,0,,
null,,386721,HierDyrqluye2n,1fkoi4zwl4,ms1000253,iti,,null,img/motor_5.png,72,motor,,,,,,,
329,,387061,HierDyrqluye2n,1fkoi4zwl4,ms1000253,motor,,65,img/motor_1.png,65,motor,1,426,1,0,0,,
null,,387173,HierDyrqluye2n,1fkoi4zwl4,ms1000253,iti,,null,img/motor_1.png,65,motor,,,,,,,
562,,387746,HierDyrqluye2n,1fkoi4zwl4,ms1000253,motor,,75,img/motor_7.png,75,motor,7,427,1,0,0,,
null,,387858,HierDyrqluye2n,1fkoi4zwl4,ms1000253,iti,,null,img/motor_7.png,75,motor,,,,,,,
399,,388268,HierDyrqluye2n,1fkoi4zwl4,ms1000253,motor,,70,img/motor_4.png,70,motor,4,428,1,0,0,,
null,,388380,HierDyrqluye2n,1fkoi4zwl4,ms1000253,iti,,null,img/motor_4.png,70,motor,,,,,,,
415,,388806,HierDyrqluye2n,1fkoi4zwl4,ms1000253,motor,,83,img/motor_2.png,83,motor,2,429,1,0,0,,
null,,388917,HierDyrqluye2n,1fkoi4zwl4,ms1000253,iti,,null,img/motor_2.png,83,motor,,,,,,,
346,,389274,HierDyrqluye2n,1fkoi4zwl4,ms1000253,motor,,75,img/motor_8.png,76,motor,8,430,0,1,0,,
85,,389369,HierDyrqluye2n,1fkoi4zwl4,ms1000253,motorRepeat,,76,img/motor_8.png,76,motor,8,430,1,0,0,,
null,,389483,HierDyrqluye2n,1fkoi4zwl4,ms1000253,iti,,null,img/motor_8.png,76,motor,,,,,,,
448,,389944,HierDyrqluye2n,1fkoi4zwl4,ms1000253,motor,,68,img/motor_3.png,68,motor,3,431,1,0,0,,
null,,390057,HierDyrqluye2n,1fkoi4zwl4,ms1000253,iti,,null,img/motor_3.png,68,motor,,,,,,,
468,,390537,HierDyrqluye2n,1fkoi4zwl4,ms1000253,motor,,70,img/motor_4.png,70,motor,4,432,1,0,0,,
null,,390648,HierDyrqluye2n,1fkoi4zwl4,ms1000253,iti,,null,img/motor_4.png,70,motor,,,,,,,
284,,390943,HierDyrqluye2n,1fkoi4zwl4,ms1000253,motor,,65,img/motor_1.png,65,motor,1,433,1,0,0,,
null,,391056,HierDyrqluye2n,1fkoi4zwl4,ms1000253,iti,,null,img/motor_1.png,65,motor,,,,,,,
351,,391417,HierDyrqluye2n,1fkoi4zwl4,ms1000253,motor,,70,img/motor_4.png,70,motor,4,434,1,0,0,,
null,,391530,HierDyrqluye2n,1fkoi4zwl4,ms1000253,iti,,null,img/motor_4.png,70,motor,,,,,,,
395,,391936,HierDyrqluye2n,1fkoi4zwl4,ms1000253,motor,,68,img/motor_3.png,68,motor,3,435,1,0,0,,
null,,392047,HierDyrqluye2n,1fkoi4zwl4,ms1000253,iti,,null,img/motor_3.png,68,motor,,,,,,,
359,,392418,HierDyrqluye2n,1fkoi4zwl4,ms1000253,motor,,68,img/motor_3.png,68,motor,3,436,1,0,0,,
null,,392529,HierDyrqluye2n,1fkoi4zwl4,ms1000253,iti,,null,img/motor_3.png,68,motor,,,,,,,
554,,393096,HierDyrqluye2n,1fkoi4zwl4,ms1000253,motor,,75,img/motor_7.png,75,motor,7,437,1,0,0,,
null,,393207,HierDyrqluye2n,1fkoi4zwl4,ms1000253,iti,,null,img/motor_7.png,75,motor,,,,,,,
404,,393622,HierDyrqluye2n,1fkoi4zwl4,ms1000253,motor,,74,img/motor_6.png,74,motor,6,438,1,0,0,,
null,,393734,HierDyrqluye2n,1fkoi4zwl4,ms1000253,iti,,null,img/motor_6.png,74,motor,,,,,,,
510,,394255,HierDyrqluye2n,1fkoi4zwl4,ms1000253,motor,,83,img/motor_2.png,83,motor,2,439,1,0,0,,
null,,394367,HierDyrqluye2n,1fkoi4zwl4,ms1000253,iti,,null,img/motor_2.png,83,motor,,,,,,,
435,,394813,HierDyrqluye2n,1fkoi4zwl4,ms1000253,motor,,72,img/motor_5.png,72,motor,5,440,1,0,0,,
null,,394925,HierDyrqluye2n,1fkoi4zwl4,ms1000253,iti,,null,img/motor_5.png,72,motor,,,,,,,
385,,395322,HierDyrqluye2n,1fkoi4zwl4,ms1000253,motor,,83,img/motor_2.png,83,motor,2,441,1,0,0,,
null,,395434,HierDyrqluye2n,1fkoi4zwl4,ms1000253,iti,,null,img/motor_2.png,83,motor,,,,,,,
332,,395778,HierDyrqluye2n,1fkoi4zwl4,ms1000253,motor,,72,img/motor_5.png,72,motor,5,442,1,0,0,,
null,,395889,HierDyrqluye2n,1fkoi4zwl4,ms1000253,iti,,null,img/motor_5.png,72,motor,,,,,,,
385,,396286,HierDyrqluye2n,1fkoi4zwl4,ms1000253,motor,,72,img/motor_5.png,72,motor,5,443,1,0,0,,
null,,396397,HierDyrqluye2n,1fkoi4zwl4,ms1000253,iti,,null,img/motor_5.png,72,motor,,,,,,,
453,,396861,HierDyrqluye2n,1fkoi4zwl4,ms1000253,motor,,68,img/motor_3.png,68,motor,3,444,1,0,0,,
null,,396973,HierDyrqluye2n,1fkoi4zwl4,ms1000253,iti,,null,img/motor_3.png,68,motor,,,,,,,
377,,397361,HierDyrqluye2n,1fkoi4zwl4,ms1000253,motor,,83,img/motor_2.png,83,motor,2,445,1,0,0,,
null,,397474,HierDyrqluye2n,1fkoi4zwl4,ms1000253,iti,,null,img/motor_2.png,83,motor,,,,,,,
425,,397911,HierDyrqluye2n,1fkoi4zwl4,ms1000253,motor,,76,img/motor_8.png,76,motor,8,446,1,0,0,,
null,,398023,HierDyrqluye2n,1fkoi4zwl4,ms1000253,iti,,null,img/motor_8.png,76,motor,,,,,,,
480,,398513,HierDyrqluye2n,1fkoi4zwl4,ms1000253,motor,,70,img/motor_4.png,70,motor,4,447,1,0,0,,
null,,398625,HierDyrqluye2n,1fkoi4zwl4,ms1000253,iti,,null,img/motor_4.png,70,motor,,,,,,,
422,,399058,HierDyrqluye2n,1fkoi4zwl4,ms1000253,motor,,74,img/motor_6.png,74,motor,6,448,1,0,0,,
null,,399170,HierDyrqluye2n,1fkoi4zwl4,ms1000253,iti,,null,img/motor_6.png,74,motor,,,,,,,
313,,399494,HierDyrqluye2n,1fkoi4zwl4,ms1000253,motor,,65,img/motor_3.png,68,motor,3,449,0,1,0,,
209,,399713,HierDyrqluye2n,1fkoi4zwl4,ms1000253,motorRepeat,,68,img/motor_3.png,68,motor,3,449,1,0,0,,
null,,399825,HierDyrqluye2n,1fkoi4zwl4,ms1000253,iti,,null,img/motor_3.png,68,motor,,,,,,,
445,,400282,HierDyrqluye2n,1fkoi4zwl4,ms1000253,motor,,65,img/motor_1.png,65,motor,1,450,1,0,0,,
null,,400394,HierDyrqluye2n,1fkoi4zwl4,ms1000253,iti,,null,img/motor_1.png,65,motor,,,,,,,
389,,400795,HierDyrqluye2n,1fkoi4zwl4,ms1000253,motor,,83,img/motor_2.png,83,motor,2,451,1,0,0,,
null,,400908,HierDyrqluye2n,1fkoi4zwl4,ms1000253,iti,,null,img/motor_2.png,83,motor,,,,,,,
463,,401381,HierDyrqluye2n,1fkoi4zwl4,ms1000253,motor,,65,img/motor_1.png,65,motor,1,452,1,0,0,,
null,,401493,HierDyrqluye2n,1fkoi4zwl4,ms1000253,iti,,null,img/motor_1.png,65,motor,,,,,,,
464,,401969,HierDyrqluye2n,1fkoi4zwl4,ms1000253,motor,,83,img/motor_2.png,83,motor,2,453,1,0,0,,
null,,402080,HierDyrqluye2n,1fkoi4zwl4,ms1000253,iti,,null,img/motor_2.png,83,motor,,,,,,,
441,,402533,HierDyrqluye2n,1fkoi4zwl4,ms1000253,motor,,68,img/motor_3.png,68,motor,3,454,1,0,0,,
null,,402645,HierDyrqluye2n,1fkoi4zwl4,ms1000253,iti,,null,img/motor_3.png,68,motor,,,,,,,
373,,403028,HierDyrqluye2n,1fkoi4zwl4,ms1000253,motor,,75,img/motor_7.png,75,motor,7,455,1,0,0,,
null,,403140,HierDyrqluye2n,1fkoi4zwl4,ms1000253,iti,,null,img/motor_7.png,75,motor,,,,,,,
419,,403572,HierDyrqluye2n,1fkoi4zwl4,ms1000253,motor,,65,img/motor_1.png,65,motor,1,456,1,0,0,,
null,,403684,HierDyrqluye2n,1fkoi4zwl4,ms1000253,iti,,null,img/motor_1.png,65,motor,,,,,,,
363,,404057,HierDyrqluye2n,1fkoi4zwl4,ms1000253,motor,,70,img/motor_4.png,70,motor,4,457,1,0,0,,
null,,404170,HierDyrqluye2n,1fkoi4zwl4,ms1000253,iti,,null,img/motor_4.png,70,motor,,,,,,,
430,,404609,HierDyrqluye2n,1fkoi4zwl4,ms1000253,motor,,72,img/motor_5.png,72,motor,5,458,1,0,0,,
null,,404721,HierDyrqluye2n,1fkoi4zwl4,ms1000253,iti,,null,img/motor_5.png,72,motor,,,,,,,
344,,405078,HierDyrqluye2n,1fkoi4zwl4,ms1000253,motor,,65,img/motor_1.png,65,motor,1,459,1,0,0,,
null,,405191,HierDyrqluye2n,1fkoi4zwl4,ms1000253,iti,,null,img/motor_1.png,65,motor,,,,,,,
404,,405604,HierDyrqluye2n,1fkoi4zwl4,ms1000253,motor,,65,img/motor_1.png,65,motor,1,460,1,0,0,,
null,,405717,HierDyrqluye2n,1fkoi4zwl4,ms1000253,iti,,null,img/motor_1.png,65,motor,,,,,,,
425,,406151,HierDyrqluye2n,1fkoi4zwl4,ms1000253,motor,,75,img/motor_6.png,74,motor,6,461,0,1,0,,
202,,406366,HierDyrqluye2n,1fkoi4zwl4,ms1000253,motorRepeat,,74,img/motor_6.png,74,motor,6,461,1,0,0,,
null,,406478,HierDyrqluye2n,1fkoi4zwl4,ms1000253,iti,,null,img/motor_6.png,74,motor,,,,,,,
547,,407035,HierDyrqluye2n,1fkoi4zwl4,ms1000253,motor,,83,img/motor_2.png,83,motor,2,462,1,0,0,,
null,,407148,HierDyrqluye2n,1fkoi4zwl4,ms1000253,iti,,null,img/motor_2.png,83,motor,,,,,,,
410,,407569,HierDyrqluye2n,1fkoi4zwl4,ms1000253,motor,,76,img/motor_8.png,76,motor,8,463,1,0,0,,
null,,407680,HierDyrqluye2n,1fkoi4zwl4,ms1000253,iti,,null,img/motor_8.png,76,motor,,,,,,,
359,,408049,HierDyrqluye2n,1fkoi4zwl4,ms1000253,motor,,65,img/motor_1.png,65,motor,1,464,1,0,0,,
null,,408161,HierDyrqluye2n,1fkoi4zwl4,ms1000253,iti,,null,img/motor_1.png,65,motor,,,,,,,
333,,408505,HierDyrqluye2n,1fkoi4zwl4,ms1000253,motor,,65,img/motor_1.png,65,motor,1,465,1,0,0,,
null,,408617,HierDyrqluye2n,1fkoi4zwl4,ms1000253,iti,,null,img/motor_1.png,65,motor,,,,,,,
466,,409094,HierDyrqluye2n,1fkoi4zwl4,ms1000253,motor,,75,img/motor_7.png,75,motor,7,466,1,0,0,,
null,,409207,HierDyrqluye2n,1fkoi4zwl4,ms1000253,iti,,null,img/motor_7.png,75,motor,,,,,,,
461,,409680,HierDyrqluye2n,1fkoi4zwl4,ms1000253,motor,,68,img/motor_3.png,68,motor,3,467,1,0,0,,
null,,409792,HierDyrqluye2n,1fkoi4zwl4,ms1000253,iti,,null,img/motor_3.png,68,motor,,,,,,,
452,,410255,HierDyrqluye2n,1fkoi4zwl4,ms1000253,motor,,75,img/motor_7.png,75,motor,7,468,1,0,0,,
null,,410368,HierDyrqluye2n,1fkoi4zwl4,ms1000253,iti,,null,img/motor_7.png,75,motor,,,,,,,
289,,410668,HierDyrqluye2n,1fkoi4zwl4,ms1000253,motor,,65,img/motor_2.png,83,motor,2,469,0,1,0,,
185,,410863,HierDyrqluye2n,1fkoi4zwl4,ms1000253,motorRepeat,,83,img/motor_2.png,83,motor,2,469,1,0,0,,
null,,410976,HierDyrqluye2n,1fkoi4zwl4,ms1000253,iti,,null,img/motor_2.png,83,motor,,,,,,,
596,,411582,HierDyrqluye2n,1fkoi4zwl4,ms1000253,motor,,74,img/motor_6.png,74,motor,6,470,1,0,0,,
null,,411695,HierDyrqluye2n,1fkoi4zwl4,ms1000253,iti,,null,img/motor_6.png,74,motor,,,,,,,
318,,412024,HierDyrqluye2n,1fkoi4zwl4,ms1000253,motor,,74,img/motor_5.png,72,motor,5,471,0,1,0,,
189,,412224,HierDyrqluye2n,1fkoi4zwl4,ms1000253,motorRepeat,,72,img/motor_5.png,72,motor,5,471,1,0,0,,
null,,412336,HierDyrqluye2n,1fkoi4zwl4,ms1000253,iti,,null,img/motor_5.png,72,motor,,,,,,,
416,,412762,HierDyrqluye2n,1fkoi4zwl4,ms1000253,motor,,75,img/motor_7.png,75,motor,7,472,1,0,0,,
null,,412875,HierDyrqluye2n,1fkoi4zwl4,ms1000253,iti,,null,img/motor_7.png,75,motor,,,,,,,
612,,413497,HierDyrqluye2n,1fkoi4zwl4,ms1000253,motor,,68,img/motor_3.png,68,motor,3,473,1,0,0,,
null,,413610,HierDyrqluye2n,1fkoi4zwl4,ms1000253,iti,,null,img/motor_3.png,68,motor,,,,,,,
395,,414017,HierDyrqluye2n,1fkoi4zwl4,ms1000253,motor,,76,img/motor_8.png,76,motor,8,474,1,0,0,,
null,,414129,HierDyrqluye2n,1fkoi4zwl4,ms1000253,iti,,null,img/motor_8.png,76,motor,,,,,,,
402,,414544,HierDyrqluye2n,1fkoi4zwl4,ms1000253,motor,,83,img/motor_2.png,83,motor,2,475,1,0,0,,
null,,414656,HierDyrqluye2n,1fkoi4zwl4,ms1000253,iti,,null,img/motor_2.png,83,motor,,,,,,,
355,,415023,HierDyrqluye2n,1fkoi4zwl4,ms1000253,motor,,68,img/motor_3.png,68,motor,3,476,1,0,0,,
null,,415135,HierDyrqluye2n,1fkoi4zwl4,ms1000253,iti,,null,img/motor_3.png,68,motor,,,,,,,
377,,415524,HierDyrqluye2n,1fkoi4zwl4,ms1000253,motor,,83,img/motor_2.png,83,motor,2,477,1,0,0,,
null,,415636,HierDyrqluye2n,1fkoi4zwl4,ms1000253,iti,,null,img/motor_2.png,83,motor,,,,,,,
344,,415991,HierDyrqluye2n,1fkoi4zwl4,ms1000253,motor,,65,img/motor_1.png,65,motor,1,478,1,0,0,,
null,,416104,HierDyrqluye2n,1fkoi4zwl4,ms1000253,iti,,null,img/motor_1.png,65,motor,,,,,,,
347,,416462,HierDyrqluye2n,1fkoi4zwl4,ms1000253,motor,,76,img/motor_8.png,76,motor,8,479,1,0,0,,
null,,416575,HierDyrqluye2n,1fkoi4zwl4,ms1000253,iti,,null,img/motor_8.png,76,motor,,,,,,,
459,,417045,HierDyrqluye2n,1fkoi4zwl4,ms1000253,motor,,70,img/motor_4.png,70,motor,4,480,1,0,0,,
null,,417157,HierDyrqluye2n,1fkoi4zwl4,ms1000253,iti,,null,img/motor_4.png,70,motor,,,,,,,
348,,417516,HierDyrqluye2n,1fkoi4zwl4,ms1000253,motor,,70,img/motor_4.png,70,motor,4,481,1,0,0,,
null,,417629,HierDyrqluye2n,1fkoi4zwl4,ms1000253,iti,,null,img/motor_4.png,70,motor,,,,,,,
419,,418059,HierDyrqluye2n,1fkoi4zwl4,ms1000253,motor,,68,img/motor_3.png,68,motor,3,482,1,0,0,,
null,,418171,HierDyrqluye2n,1fkoi4zwl4,ms1000253,iti,,null,img/motor_3.png,68,motor,,,,,,,
201,,418382,HierDyrqluye2n,1fkoi4zwl4,ms1000253,motor,,68,img/motor_4.png,70,motor,4,483,0,1,0,,
230,,418625,HierDyrqluye2n,1fkoi4zwl4,ms1000253,motorRepeat,,70,img/motor_4.png,70,motor,4,483,1,0,0,,
null,,418736,HierDyrqluye2n,1fkoi4zwl4,ms1000253,iti,,null,img/motor_4.png,70,motor,,,,,,,
493,,419241,HierDyrqluye2n,1fkoi4zwl4,ms1000253,motor,,72,img/motor_6.png,74,motor,6,484,0,1,0,,
87,,419341,HierDyrqluye2n,1fkoi4zwl4,ms1000253,motorRepeat,,74,img/motor_6.png,74,motor,6,484,1,0,0,,
null,,419452,HierDyrqluye2n,1fkoi4zwl4,ms1000253,iti,,null,img/motor_6.png,74,motor,,,,,,,
330,,419794,HierDyrqluye2n,1fkoi4zwl4,ms1000253,motor,,74,img/motor_6.png,74,motor,6,485,1,0,0,,
null,,419905,HierDyrqluye2n,1fkoi4zwl4,ms1000253,iti,,null,img/motor_6.png,74,motor,,,,,,,
479,,420396,HierDyrqluye2n,1fkoi4zwl4,ms1000253,motor,,65,img/motor_1.png,65,motor,1,486,1,0,0,,
null,,420508,HierDyrqluye2n,1fkoi4zwl4,ms1000253,iti,,null,img/motor_1.png,65,motor,,,,,,,
427,,420947,HierDyrqluye2n,1fkoi4zwl4,ms1000253,motor,,76,img/motor_8.png,76,motor,8,487,1,0,0,,
null,,421059,HierDyrqluye2n,1fkoi4zwl4,ms1000253,iti,,null,img/motor_8.png,76,motor,,,,,,,
63525,,484596,HierDyrqluye2n,1fkoi4zwl4,ms1000253,,,,,,,,,,,,,
481,,485089,HierDyrqluye2n,1fkoi4zwl4,ms1000253,prac,,75,img/image3.bmp,74,prac,,,0,,,1,
null,,485852,HierDyrqluye2n,1fkoi4zwl4,ms1000253,feedback,,null,,na,prac,,,,,,,
556,,486419,HierDyrqluye2n,1fkoi4zwl4,ms1000253,prac,,75,img/image4.bmp,72,prac,,,0,,,2,
null,,487181,HierDyrqluye2n,1fkoi4zwl4,ms1000253,feedback,,null,,na,prac,,,,,,,
499,,487692,HierDyrqluye2n,1fkoi4zwl4,ms1000253,prac,,74,img/image5.bmp,75,prac,,,0,,,3,
null,,488456,HierDyrqluye2n,1fkoi4zwl4,ms1000253,feedback,,null,,na,prac,,,,,,,
725,,489193,HierDyrqluye2n,1fkoi4zwl4,ms1000253,prac,,75,img/image4.bmp,72,prac,,,0,,,4,
null,,489955,HierDyrqluye2n,1fkoi4zwl4,ms1000253,feedback,,null,,na,prac,,,,,,,
null,,492468,HierDyrqluye2n,1fkoi4zwl4,ms1000253,prac,,null,img/image4.bmp,72,prac,,,0,,,5,
null,,493230,HierDyrqluye2n,1fkoi4zwl4,ms1000253,feedback,,null,,na,prac,,,,,,,
null,,495744,HierDyrqluye2n,1fkoi4zwl4,ms1000253,prac,,null,img/image3.bmp,74,prac,,,0,,,6,
null,,496506,HierDyrqluye2n,1fkoi4zwl4,ms1000253,feedback,,null,,na,prac,,,,,,,
571,,497087,HierDyrqluye2n,1fkoi4zwl4,ms1000253,prac,,74,img/image5.bmp,75,prac,,,0,,,7,
null,,497849,HierDyrqluye2n,1fkoi4zwl4,ms1000253,feedback,,null,,na,prac,,,,,,,
683,,498545,HierDyrqluye2n,1fkoi4zwl4,ms1000253,prac,,75,img/image4.bmp,72,prac,,,0,,,8,
null,,499308,HierDyrqluye2n,1fkoi4zwl4,ms1000253,feedback,,null,,na,prac,,,,,,,
16102,,515423,HierDyrqluye2n,1fkoi4zwl4,ms1000253,,,,,,prac,,,,,,,
6282,,521721,HierDyrqluye2n,1fkoi4zwl4,ms1000253,,,32,,,,,,,,,,
2778,,524510,HierDyrqluye2n,1fkoi4zwl4,ms1000253,,,,,,prac,,,,,,,
611,,525134,HierDyrqluye2n,1fkoi4zwl4,ms1000253,rl,,65,img/o_s_stripes.png,83,test,2,1,0,,,,color;shape;pattern
null,,526147,HierDyrqluye2n,1fkoi4zwl4,ms1000253,feedback,,null,,na,test,,,,,,,
682,,526840,HierDyrqluye2n,1fkoi4zwl4,ms1000253,rl,,83,img/o_c_stripes.png,70,test,4,NaN,0,,,,color;shape;pattern
null,,527851,HierDyrqluye2n,1fkoi4zwl4,ms1000253,feedback,,null,,na,test,,,,,,,
850,,528713,HierDyrqluye2n,1fkoi4zwl4,ms1000253,rl,,70,img/r_c_stripes.png,76,test,8,NaN,0,,,,color;shape;pattern
null,,529725,HierDyrqluye2n,1fkoi4zwl4,ms1000253,feedback,,null,,na,test,,,,,,,
841,,530577,HierDyrqluye2n,1fkoi4zwl4,ms1000253,rl,,65,img/r_c_dots.png,75,test,7,NaN,0,,,,color;shape;pattern
null,,531590,HierDyrqluye2n,1fkoi4zwl4,ms1000253,feedback,,null,,na,test,,,,,,,
