rt,responses,time_elapsed,subject,prolificID,demoID,trialType,question_order,key_press,stim,corrresp,phase,stimNum,trialNum,corr,repeatTrial,motorSwitch,pracCounter,hierarchy
12494,"{""Q0"":""ms1000201""}",12531,HierDy7wfwke53,s15ulp761x,ms1000201,,,,,,,,,,,,,
2117,,14662,HierDy7wfwke53,s15ulp761x,ms1000201,,,,,,,,,,,,,
,,16985,HierDy7wfwke53,s15ulp761x,ms1000201,fullscreen,,,,,,,,,,,,
13714,"{""Vision"":""Yes"",""Handedness"":""Left"",""Gender"":""female""}",30708,HierDy7wfwke53,s15ulp761x,ms1000201,,"[0,1,2]",,,,,,,,,,,
3881,"{""Q0"":""19""}",34595,HierDy7wfwke53,s15ulp761x,ms1000201,,,,,,,,,,,,,
97640,,132254,HierDy7wfwke53,s15ulp761x,ms1000201,,,,,,,,,,,,,
882,,133150,HierDy7wfwke53,s15ulp761x,ms1000201,motor,,76,img/motor_8.png,76,motor,8,1,1,0,0,,
27,,133266,HierDy7wfwke53,s15ulp761x,ms1000201,iti,,75,img/motor_8.png,76,motor,,,,,,,
614,,133890,HierDy7wfwke53,s15ulp761x,ms1000201,motor,,72,img/motor_5.png,72,motor,5,2,1,0,0,,
null,,133998,HierDy7wfwke53,s15ulp761x,ms1000201,iti,,null,img/motor_5.png,72,motor,,,,,,,
563,,134569,HierDy7wfwke53,s15ulp761x,ms1000201,motor,,70,img/motor_4.png,70,motor,4,3,1,0,0,,
null,,134677,HierDy7wfwke53,s15ulp761x,ms1000201,iti,,null,img/motor_4.png,70,motor,,,,,,,
565,,135251,HierDy7wfwke53,s15ulp761x,ms1000201,motor,,65,img/motor_1.png,65,motor,1,4,1,0,0,,
55,,135359,HierDy7wfwke53,s15ulp761x,ms1000201,iti,,83,img/motor_1.png,65,motor,,,,,,,
11,,135379,HierDy7wfwke53,s15ulp761x,ms1000201,motor,,68,img/motor_1.png,65,motor,1,5,0,1,0,,
519,,135906,HierDy7wfwke53,s15ulp761x,ms1000201,motorRepeat,,65,img/motor_1.png,65,motor,1,5,1,0,0,,
null,,136020,HierDy7wfwke53,s15ulp761x,ms1000201,iti,,null,img/motor_1.png,65,motor,,,,,,,
478,,136512,HierDy7wfwke53,s15ulp761x,ms1000201,motor,,76,img/motor_8.png,76,motor,8,6,1,0,0,,
null,,136627,HierDy7wfwke53,s15ulp761x,ms1000201,iti,,null,img/motor_8.png,76,motor,,,,,,,
534,,137177,HierDy7wfwke53,s15ulp761x,ms1000201,motor,,68,img/motor_3.png,68,motor,3,7,1,0,0,,
null,,137292,HierDy7wfwke53,s15ulp761x,ms1000201,iti,,null,img/motor_3.png,68,motor,,,,,,,
638,,137938,HierDy7wfwke53,s15ulp761x,ms1000201,motor,,72,img/motor_5.png,72,motor,5,8,1,0,0,,
null,,138047,HierDy7wfwke53,s15ulp761x,ms1000201,iti,,null,img/motor_5.png,72,motor,,,,,,,
484,,138539,HierDy7wfwke53,s15ulp761x,ms1000201,motor,,74,img/motor_6.png,74,motor,6,9,1,0,0,,
null,,138647,HierDy7wfwke53,s15ulp761x,ms1000201,iti,,null,img/motor_6.png,74,motor,,,,,,,
533,,139193,HierDy7wfwke53,s15ulp761x,ms1000201,motor,,83,img/motor_2.png,83,motor,2,10,1,0,0,,
null,,139302,HierDy7wfwke53,s15ulp761x,ms1000201,iti,,null,img/motor_2.png,83,motor,,,,,,,
451,,139763,HierDy7wfwke53,s15ulp761x,ms1000201,motor,,76,img/motor_8.png,76,motor,8,11,1,0,0,,
null,,139870,HierDy7wfwke53,s15ulp761x,ms1000201,iti,,null,img/motor_8.png,76,motor,,,,,,,
499,,140379,HierDy7wfwke53,s15ulp761x,ms1000201,motor,,65,img/motor_1.png,65,motor,1,12,1,0,0,,
null,,140487,HierDy7wfwke53,s15ulp761x,ms1000201,iti,,null,img/motor_1.png,65,motor,,,,,,,
484,,140977,HierDy7wfwke53,s15ulp761x,ms1000201,motor,,83,img/motor_2.png,83,motor,2,13,1,0,0,,
null,,141091,HierDy7wfwke53,s15ulp761x,ms1000201,iti,,null,img/motor_2.png,83,motor,,,,,,,
406,,141505,HierDy7wfwke53,s15ulp761x,ms1000201,motor,,83,img/motor_2.png,83,motor,2,14,1,0,0,,
null,,141619,HierDy7wfwke53,s15ulp761x,ms1000201,iti,,null,img/motor_2.png,83,motor,,,,,,,
470,,142098,HierDy7wfwke53,s15ulp761x,ms1000201,motor,,68,img/motor_3.png,68,motor,3,15,1,0,0,,
null,,142207,HierDy7wfwke53,s15ulp761x,ms1000201,iti,,null,img/motor_3.png,68,motor,,,,,,,
468,,142683,HierDy7wfwke53,s15ulp761x,ms1000201,motor,,76,img/motor_8.png,76,motor,8,16,1,0,0,,
null,,142797,HierDy7wfwke53,s15ulp761x,ms1000201,iti,,null,img/motor_8.png,76,motor,,,,,,,
443,,143257,HierDy7wfwke53,s15ulp761x,ms1000201,motor,,72,img/motor_5.png,72,motor,5,17,1,0,0,,
null,,143366,HierDy7wfwke53,s15ulp761x,ms1000201,iti,,null,img/motor_5.png,72,motor,,,,,,,
500,,143881,HierDy7wfwke53,s15ulp761x,ms1000201,motor,,70,img/motor_4.png,70,motor,4,18,1,0,0,,
null,,143989,HierDy7wfwke53,s15ulp761x,ms1000201,iti,,null,img/motor_4.png,70,motor,,,,,,,
405,,144402,HierDy7wfwke53,s15ulp761x,ms1000201,motor,,72,img/motor_5.png,72,motor,5,19,1,0,0,,
null,,144510,HierDy7wfwke53,s15ulp761x,ms1000201,iti,,null,img/motor_5.png,72,motor,,,,,,,
572,,145090,HierDy7wfwke53,s15ulp761x,ms1000201,motor,,75,img/motor_7.png,75,motor,7,20,1,0,0,,
null,,145198,HierDy7wfwke53,s15ulp761x,ms1000201,iti,,null,img/motor_7.png,75,motor,,,,,,,
549,,145754,HierDy7wfwke53,s15ulp761x,ms1000201,motor,,83,img/motor_3.png,68,motor,3,21,0,1,0,,
15,,145781,HierDy7wfwke53,s15ulp761x,ms1000201,motorRepeat,,68,img/motor_3.png,68,motor,3,21,1,0,0,,
null,,145890,HierDy7wfwke53,s15ulp761x,ms1000201,iti,,null,img/motor_3.png,68,motor,,,,,,,
560,,146458,HierDy7wfwke53,s15ulp761x,ms1000201,motor,,65,img/motor_1.png,65,motor,1,22,1,0,0,,
null,,146572,HierDy7wfwke53,s15ulp761x,ms1000201,iti,,null,img/motor_1.png,65,motor,,,,,,,
485,,147067,HierDy7wfwke53,s15ulp761x,ms1000201,motor,,68,img/motor_3.png,68,motor,3,23,1,0,0,,
null,,147175,HierDy7wfwke53,s15ulp761x,ms1000201,iti,,null,img/motor_3.png,68,motor,,,,,,,
396,,147578,HierDy7wfwke53,s15ulp761x,ms1000201,motor,,76,img/motor_8.png,76,motor,8,24,1,0,0,,
null,,147686,HierDy7wfwke53,s15ulp761x,ms1000201,iti,,null,img/motor_8.png,76,motor,,,,,,,
427,,148121,HierDy7wfwke53,s15ulp761x,ms1000201,motor,,75,img/motor_7.png,75,motor,7,25,1,0,0,,
null,,148229,HierDy7wfwke53,s15ulp761x,ms1000201,iti,,null,img/motor_7.png,75,motor,,,,,,,
516,,148755,HierDy7wfwke53,s15ulp761x,ms1000201,motor,,70,img/motor_4.png,70,motor,4,26,1,0,0,,
null,,148863,HierDy7wfwke53,s15ulp761x,ms1000201,iti,,null,img/motor_4.png,70,motor,,,,,,,
501,,149370,HierDy7wfwke53,s15ulp761x,ms1000201,motor,,68,img/motor_2.png,83,motor,2,27,0,1,0,,
360,,149738,HierDy7wfwke53,s15ulp761x,ms1000201,motorRepeat,,83,img/motor_2.png,83,motor,2,27,1,0,0,,
null,,149853,HierDy7wfwke53,s15ulp761x,ms1000201,iti,,null,img/motor_2.png,83,motor,,,,,,,
508,,150370,HierDy7wfwke53,s15ulp761x,ms1000201,motor,,74,img/motor_6.png,74,motor,6,28,1,0,0,,
48,,150484,HierDy7wfwke53,s15ulp761x,ms1000201,iti,,75,img/motor_6.png,74,motor,,,,,,,
591,,151082,HierDy7wfwke53,s15ulp761x,ms1000201,motor,,65,img/motor_1.png,65,motor,1,29,1,0,0,,
null,,151196,HierDy7wfwke53,s15ulp761x,ms1000201,iti,,null,img/motor_1.png,65,motor,,,,,,,
526,,151730,HierDy7wfwke53,s15ulp761x,ms1000201,motor,,68,img/motor_2.png,83,motor,2,30,0,1,0,,
351,,152090,HierDy7wfwke53,s15ulp761x,ms1000201,motorRepeat,,83,img/motor_2.png,83,motor,2,30,1,0,0,,
null,,152199,HierDy7wfwke53,s15ulp761x,ms1000201,iti,,null,img/motor_2.png,83,motor,,,,,,,
468,,152674,HierDy7wfwke53,s15ulp761x,ms1000201,motor,,65,img/motor_1.png,65,motor,1,31,1,0,0,,
null,,152783,HierDy7wfwke53,s15ulp761x,ms1000201,iti,,null,img/motor_1.png,65,motor,,,,,,,
524,,153314,HierDy7wfwke53,s15ulp761x,ms1000201,motor,,75,img/motor_6.png,74,motor,6,32,0,1,0,,
344,,153667,HierDy7wfwke53,s15ulp761x,ms1000201,motorRepeat,,74,img/motor_6.png,74,motor,6,32,1,0,0,,
null,,153774,HierDy7wfwke53,s15ulp761x,ms1000201,iti,,null,img/motor_6.png,74,motor,,,,,,,
555,,154337,HierDy7wfwke53,s15ulp761x,ms1000201,motor,,74,img/motor_6.png,74,motor,6,33,1,0,0,,
null,,154446,HierDy7wfwke53,s15ulp761x,ms1000201,iti,,null,img/motor_6.png,74,motor,,,,,,,
484,,154938,HierDy7wfwke53,s15ulp761x,ms1000201,motor,,75,img/motor_7.png,75,motor,7,34,1,0,0,,
null,,155053,HierDy7wfwke53,s15ulp761x,ms1000201,iti,,null,img/motor_7.png,75,motor,,,,,,,
686,,155747,HierDy7wfwke53,s15ulp761x,ms1000201,motor,,68,img/motor_3.png,68,motor,3,35,1,0,0,,
null,,155854,HierDy7wfwke53,s15ulp761x,ms1000201,iti,,null,img/motor_3.png,68,motor,,,,,,,
404,,156267,HierDy7wfwke53,s15ulp761x,ms1000201,motor,,70,img/motor_4.png,70,motor,4,36,1,0,0,,
null,,156381,HierDy7wfwke53,s15ulp761x,ms1000201,iti,,null,img/motor_4.png,70,motor,,,,,,,
461,,156851,HierDy7wfwke53,s15ulp761x,ms1000201,motor,,76,img/motor_8.png,76,motor,8,37,1,0,0,,
null,,156959,HierDy7wfwke53,s15ulp761x,ms1000201,iti,,null,img/motor_8.png,76,motor,,,,,,,
500,,157465,HierDy7wfwke53,s15ulp761x,ms1000201,motor,,70,img/motor_4.png,70,motor,4,38,1,0,0,,
null,,157579,HierDy7wfwke53,s15ulp761x,ms1000201,iti,,null,img/motor_4.png,70,motor,,,,,,,
549,,158138,HierDy7wfwke53,s15ulp761x,ms1000201,motor,,72,img/motor_5.png,72,motor,5,39,1,0,0,,
null,,158246,HierDy7wfwke53,s15ulp761x,ms1000201,iti,,null,img/motor_5.png,72,motor,,,,,,,
556,,158810,HierDy7wfwke53,s15ulp761x,ms1000201,motor,,75,img/motor_7.png,75,motor,7,40,1,0,0,,
null,,158919,HierDy7wfwke53,s15ulp761x,ms1000201,iti,,null,img/motor_7.png,75,motor,,,,,,,
468,,159395,HierDy7wfwke53,s15ulp761x,ms1000201,motor,,72,img/motor_5.png,72,motor,5,41,1,0,0,,
null,,159504,HierDy7wfwke53,s15ulp761x,ms1000201,iti,,null,img/motor_5.png,72,motor,,,,,,,
411,,159922,HierDy7wfwke53,s15ulp761x,ms1000201,motor,,75,img/motor_7.png,75,motor,7,42,1,0,0,,
null,,160030,HierDy7wfwke53,s15ulp761x,ms1000201,iti,,null,img/motor_7.png,75,motor,,,,,,,
667,,160705,HierDy7wfwke53,s15ulp761x,ms1000201,motor,,83,img/motor_2.png,83,motor,2,43,1,0,0,,
null,,160814,HierDy7wfwke53,s15ulp761x,ms1000201,iti,,null,img/motor_2.png,83,motor,,,,,,,
428,,161250,HierDy7wfwke53,s15ulp761x,ms1000201,motor,,75,img/motor_8.png,76,motor,8,44,0,1,0,,
328,,161586,HierDy7wfwke53,s15ulp761x,ms1000201,motorRepeat,,76,img/motor_8.png,76,motor,8,44,1,0,0,,
null,,161695,HierDy7wfwke53,s15ulp761x,ms1000201,iti,,null,img/motor_8.png,76,motor,,,,,,,
548,,162257,HierDy7wfwke53,s15ulp761x,ms1000201,motor,,72,img/motor_4.png,70,motor,4,45,0,1,0,,
58,,162328,HierDy7wfwke53,s15ulp761x,ms1000201,motorRepeat,,70,img/motor_4.png,70,motor,4,45,1,0,0,,
null,,162438,HierDy7wfwke53,s15ulp761x,ms1000201,iti,,null,img/motor_4.png,70,motor,,,,,,,
516,,162962,HierDy7wfwke53,s15ulp761x,ms1000201,motor,,68,img/motor_3.png,68,motor,3,46,1,0,0,,
null,,163071,HierDy7wfwke53,s15ulp761x,ms1000201,iti,,null,img/motor_3.png,68,motor,,,,,,,
612,,163690,HierDy7wfwke53,s15ulp761x,ms1000201,motor,,75,img/motor_6.png,74,motor,6,47,0,1,0,,
264,,163962,HierDy7wfwke53,s15ulp761x,ms1000201,motorRepeat,,74,img/motor_6.png,74,motor,6,47,1,0,0,,
null,,164070,HierDy7wfwke53,s15ulp761x,ms1000201,iti,,null,img/motor_6.png,74,motor,,,,,,,
461,,164539,HierDy7wfwke53,s15ulp761x,ms1000201,motor,,72,img/motor_5.png,72,motor,5,48,1,0,0,,
null,,164653,HierDy7wfwke53,s15ulp761x,ms1000201,iti,,null,img/motor_5.png,72,motor,,,,,,,
548,,165210,HierDy7wfwke53,s15ulp761x,ms1000201,motor,,68,img/motor_3.png,68,motor,3,49,1,0,0,,
null,,165319,HierDy7wfwke53,s15ulp761x,ms1000201,iti,,null,img/motor_3.png,68,motor,,,,,,,
604,,165931,HierDy7wfwke53,s15ulp761x,ms1000201,motor,,76,img/motor_8.png,76,motor,8,50,1,0,0,,
null,,166038,HierDy7wfwke53,s15ulp761x,ms1000201,iti,,null,img/motor_8.png,76,motor,,,,,,,
571,,166618,HierDy7wfwke53,s15ulp761x,ms1000201,motor,,83,img/motor_2.png,83,motor,2,51,1,0,0,,
null,,166726,HierDy7wfwke53,s15ulp761x,ms1000201,iti,,null,img/motor_2.png,83,motor,,,,,,,
548,,167283,HierDy7wfwke53,s15ulp761x,ms1000201,motor,,75,img/motor_7.png,75,motor,7,52,1,0,0,,
null,,167397,HierDy7wfwke53,s15ulp761x,ms1000201,iti,,null,img/motor_7.png,75,motor,,,,,,,
572,,167979,HierDy7wfwke53,s15ulp761x,ms1000201,motor,,68,img/motor_3.png,68,motor,3,53,1,0,0,,
null,,168093,HierDy7wfwke53,s15ulp761x,ms1000201,iti,,null,img/motor_3.png,68,motor,,,,,,,
508,,168610,HierDy7wfwke53,s15ulp761x,ms1000201,motor,,68,img/motor_3.png,68,motor,3,54,1,0,0,,
null,,168724,HierDy7wfwke53,s15ulp761x,ms1000201,iti,,null,img/motor_3.png,68,motor,,,,,,,
516,,169250,HierDy7wfwke53,s15ulp761x,ms1000201,motor,,83,img/motor_2.png,83,motor,2,55,1,0,0,,
null,,169365,HierDy7wfwke53,s15ulp761x,ms1000201,iti,,null,img/motor_2.png,83,motor,,,,,,,
525,,169899,HierDy7wfwke53,s15ulp761x,ms1000201,motor,,76,img/motor_8.png,76,motor,8,56,1,0,0,,
null,,170008,HierDy7wfwke53,s15ulp761x,ms1000201,iti,,null,img/motor_8.png,76,motor,,,,,,,
562,,170585,HierDy7wfwke53,s15ulp761x,ms1000201,motor,,83,img/motor_2.png,83,motor,2,57,1,0,0,,
null,,170693,HierDy7wfwke53,s15ulp761x,ms1000201,iti,,null,img/motor_2.png,83,motor,,,,,,,
494,,171201,HierDy7wfwke53,s15ulp761x,ms1000201,motor,,68,img/motor_3.png,68,motor,3,58,1,0,0,,
null,,171316,HierDy7wfwke53,s15ulp761x,ms1000201,iti,,null,img/motor_3.png,68,motor,,,,,,,
511,,171835,HierDy7wfwke53,s15ulp761x,ms1000201,motor,,65,img/motor_1.png,65,motor,1,59,1,0,0,,
null,,171942,HierDy7wfwke53,s15ulp761x,ms1000201,iti,,null,img/motor_1.png,65,motor,,,,,,,
451,,172402,HierDy7wfwke53,s15ulp761x,ms1000201,motor,,70,img/motor_4.png,70,motor,4,60,1,0,0,,
null,,172510,HierDy7wfwke53,s15ulp761x,ms1000201,iti,,null,img/motor_4.png,70,motor,,,,,,,
500,,173018,HierDy7wfwke53,s15ulp761x,ms1000201,motor,,83,img/motor_2.png,83,motor,2,61,1,0,0,,
null,,173126,HierDy7wfwke53,s15ulp761x,ms1000201,iti,,null,img/motor_2.png,83,motor,,,,,,,
516,,173651,HierDy7wfwke53,s15ulp761x,ms1000201,motor,,75,img/motor_7.png,75,motor,7,62,1,0,0,,
null,,173759,HierDy7wfwke53,s15ulp761x,ms1000201,iti,,null,img/motor_7.png,75,motor,,,,,,,
460,,174233,HierDy7wfwke53,s15ulp761x,ms1000201,motor,,70,img/motor_4.png,70,motor,4,63,1,0,0,,
null,,174348,HierDy7wfwke53,s15ulp761x,ms1000201,iti,,null,img/motor_4.png,70,motor,,,,,,,
478,,174835,HierDy7wfwke53,s15ulp761x,ms1000201,motor,,68,img/motor_3.png,68,motor,3,64,1,0,0,,
null,,174949,HierDy7wfwke53,s15ulp761x,ms1000201,iti,,null,img/motor_3.png,68,motor,,,,,,,
517,,175473,HierDy7wfwke53,s15ulp761x,ms1000201,motor,,75,img/motor_7.png,75,motor,7,65,1,0,0,,
null,,175582,HierDy7wfwke53,s15ulp761x,ms1000201,iti,,null,img/motor_7.png,75,motor,,,,,,,
501,,176091,HierDy7wfwke53,s15ulp761x,ms1000201,motor,,68,img/motor_3.png,68,motor,3,66,1,0,0,,
null,,176199,HierDy7wfwke53,s15ulp761x,ms1000201,iti,,null,img/motor_3.png,68,motor,,,,,,,
540,,176747,HierDy7wfwke53,s15ulp761x,ms1000201,motor,,72,img/motor_5.png,72,motor,5,67,1,0,0,,
null,,176854,HierDy7wfwke53,s15ulp761x,ms1000201,iti,,null,img/motor_5.png,72,motor,,,,,,,
477,,177338,HierDy7wfwke53,s15ulp761x,ms1000201,motor,,68,img/motor_3.png,68,motor,3,68,1,0,0,,
null,,177446,HierDy7wfwke53,s15ulp761x,ms1000201,iti,,null,img/motor_3.png,68,motor,,,,,,,
476,,177931,HierDy7wfwke53,s15ulp761x,ms1000201,motor,,68,img/motor_3.png,68,motor,3,69,1,0,0,,
null,,178039,HierDy7wfwke53,s15ulp761x,ms1000201,iti,,null,img/motor_3.png,68,motor,,,,,,,
556,,178602,HierDy7wfwke53,s15ulp761x,ms1000201,motor,,83,img/motor_2.png,83,motor,2,70,1,0,0,,
null,,178716,HierDy7wfwke53,s15ulp761x,ms1000201,iti,,null,img/motor_2.png,83,motor,,,,,,,
438,,179162,HierDy7wfwke53,s15ulp761x,ms1000201,motor,,72,img/motor_5.png,72,motor,5,71,1,0,0,,
null,,179270,HierDy7wfwke53,s15ulp761x,ms1000201,iti,,null,img/motor_5.png,72,motor,,,,,,,
531,,179816,HierDy7wfwke53,s15ulp761x,ms1000201,motor,,65,img/motor_1.png,65,motor,1,72,1,0,0,,
null,,179925,HierDy7wfwke53,s15ulp761x,ms1000201,iti,,null,img/motor_1.png,65,motor,,,,,,,
381,,180321,HierDy7wfwke53,s15ulp761x,ms1000201,motor,,76,img/motor_8.png,76,motor,8,73,1,0,0,,
null,,180428,HierDy7wfwke53,s15ulp761x,ms1000201,iti,,null,img/motor_8.png,76,motor,,,,,,,
517,,180954,HierDy7wfwke53,s15ulp761x,ms1000201,motor,,65,img/motor_1.png,65,motor,1,74,1,0,0,,
null,,181068,HierDy7wfwke53,s15ulp761x,ms1000201,iti,,null,img/motor_1.png,65,motor,,,,,,,
373,,181450,HierDy7wfwke53,s15ulp761x,ms1000201,motor,,76,img/motor_8.png,76,motor,8,75,1,0,0,,
null,,181564,HierDy7wfwke53,s15ulp761x,ms1000201,iti,,null,img/motor_8.png,76,motor,,,,,,,
524,,182099,HierDy7wfwke53,s15ulp761x,ms1000201,motor,,83,img/motor_2.png,83,motor,2,76,1,0,0,,
null,,182213,HierDy7wfwke53,s15ulp761x,ms1000201,iti,,null,img/motor_2.png,83,motor,,,,,,,
452,,182675,HierDy7wfwke53,s15ulp761x,ms1000201,motor,,65,img/motor_1.png,65,motor,1,77,1,0,0,,
null,,182783,HierDy7wfwke53,s15ulp761x,ms1000201,iti,,null,img/motor_1.png,65,motor,,,,,,,
508,,183298,HierDy7wfwke53,s15ulp761x,ms1000201,motor,,83,img/motor_2.png,83,motor,2,78,1,0,0,,
null,,183407,HierDy7wfwke53,s15ulp761x,ms1000201,iti,,null,img/motor_2.png,83,motor,,,,,,,
436,,183850,HierDy7wfwke53,s15ulp761x,ms1000201,motor,,65,img/motor_1.png,65,motor,1,79,1,0,0,,
null,,183958,HierDy7wfwke53,s15ulp761x,ms1000201,iti,,null,img/motor_1.png,65,motor,,,,,,,
469,,184435,HierDy7wfwke53,s15ulp761x,ms1000201,motor,,75,img/motor_7.png,75,motor,7,80,1,0,0,,
null,,184549,HierDy7wfwke53,s15ulp761x,ms1000201,iti,,null,img/motor_7.png,75,motor,,,,,,,
413,,184971,HierDy7wfwke53,s15ulp761x,ms1000201,motor,,75,img/motor_6.png,74,motor,6,81,0,1,0,,
112,,185090,HierDy7wfwke53,s15ulp761x,ms1000201,motorRepeat,,74,img/motor_6.png,74,motor,6,81,1,0,0,,
23,,185204,HierDy7wfwke53,s15ulp761x,ms1000201,iti,,72,img/motor_6.png,74,motor,,,,,,,
573,,185786,HierDy7wfwke53,s15ulp761x,ms1000201,motor,,68,img/motor_2.png,83,motor,2,82,0,1,0,,
55,,185856,HierDy7wfwke53,s15ulp761x,ms1000201,motorRepeat,,83,img/motor_2.png,83,motor,2,82,1,0,0,,
null,,185965,HierDy7wfwke53,s15ulp761x,ms1000201,iti,,null,img/motor_2.png,83,motor,,,,,,,
526,,186498,HierDy7wfwke53,s15ulp761x,ms1000201,motor,,72,img/motor_4.png,70,motor,4,83,0,1,0,,
335,,186843,HierDy7wfwke53,s15ulp761x,ms1000201,motorRepeat,,70,img/motor_4.png,70,motor,4,83,1,0,0,,
null,,186951,HierDy7wfwke53,s15ulp761x,ms1000201,iti,,null,img/motor_4.png,70,motor,,,,,,,
485,,187443,HierDy7wfwke53,s15ulp761x,ms1000201,motor,,75,img/motor_8.png,76,motor,8,84,0,1,0,,
799,,188251,HierDy7wfwke53,s15ulp761x,ms1000201,motorRepeat,,76,img/motor_8.png,76,motor,8,84,1,0,0,,
null,,188359,HierDy7wfwke53,s15ulp761x,ms1000201,iti,,null,img/motor_8.png,76,motor,,,,,,,
524,,188890,HierDy7wfwke53,s15ulp761x,ms1000201,motor,,83,img/motor_2.png,83,motor,2,85,1,0,0,,
null,,189005,HierDy7wfwke53,s15ulp761x,ms1000201,iti,,null,img/motor_2.png,83,motor,,,,,,,
467,,189482,HierDy7wfwke53,s15ulp761x,ms1000201,motor,,70,img/motor_4.png,70,motor,4,86,1,0,0,,
null,,189596,HierDy7wfwke53,s15ulp761x,ms1000201,iti,,null,img/motor_4.png,70,motor,,,,,,,
436,,190049,HierDy7wfwke53,s15ulp761x,ms1000201,motor,,75,img/motor_7.png,75,motor,7,87,1,0,0,,
null,,190158,HierDy7wfwke53,s15ulp761x,ms1000201,iti,,null,img/motor_7.png,75,motor,,,,,,,
406,,190571,HierDy7wfwke53,s15ulp761x,ms1000201,motor,,76,img/motor_8.png,76,motor,8,88,1,0,0,,
null,,190680,HierDy7wfwke53,s15ulp761x,ms1000201,iti,,null,img/motor_8.png,76,motor,,,,,,,
483,,191177,HierDy7wfwke53,s15ulp761x,ms1000201,motor,,72,img/motor_5.png,72,motor,5,89,1,0,0,,
null,,191292,HierDy7wfwke53,s15ulp761x,ms1000201,iti,,null,img/motor_5.png,72,motor,,,,,,,
631,,191931,HierDy7wfwke53,s15ulp761x,ms1000201,motor,,68,img/motor_2.png,83,motor,2,90,0,1,0,,
384,,192322,HierDy7wfwke53,s15ulp761x,ms1000201,motorRepeat,,83,img/motor_2.png,83,motor,2,90,1,0,0,,
null,,192431,HierDy7wfwke53,s15ulp761x,ms1000201,iti,,null,img/motor_2.png,83,motor,,,,,,,
476,,192914,HierDy7wfwke53,s15ulp761x,ms1000201,motor,,72,img/motor_5.png,72,motor,5,91,1,0,0,,
null,,193029,HierDy7wfwke53,s15ulp761x,ms1000201,iti,,null,img/motor_5.png,72,motor,,,,,,,
445,,193483,HierDy7wfwke53,s15ulp761x,ms1000201,motor,,83,img/motor_1.png,65,motor,1,92,0,1,0,,
56,,193547,HierDy7wfwke53,s15ulp761x,ms1000201,motorRepeat,,65,img/motor_1.png,65,motor,1,92,1,0,0,,
null,,193655,HierDy7wfwke53,s15ulp761x,ms1000201,iti,,null,img/motor_1.png,65,motor,,,,,,,
492,,194161,HierDy7wfwke53,s15ulp761x,ms1000201,motor,,83,img/motor_2.png,83,motor,2,93,1,0,0,,
null,,194276,HierDy7wfwke53,s15ulp761x,ms1000201,iti,,null,img/motor_2.png,83,motor,,,,,,,
542,,194826,HierDy7wfwke53,s15ulp761x,ms1000201,motor,,74,img/motor_6.png,74,motor,6,94,1,0,0,,
null,,194935,HierDy7wfwke53,s15ulp761x,ms1000201,iti,,null,img/motor_6.png,74,motor,,,,,,,
436,,195379,HierDy7wfwke53,s15ulp761x,ms1000201,motor,,75,img/motor_7.png,75,motor,7,95,1,0,0,,
null,,195487,HierDy7wfwke53,s15ulp761x,ms1000201,iti,,null,img/motor_7.png,75,motor,,,,,,,
508,,196002,HierDy7wfwke53,s15ulp761x,ms1000201,motor,,74,img/motor_6.png,74,motor,6,96,1,0,0,,
null,,196117,HierDy7wfwke53,s15ulp761x,ms1000201,iti,,null,img/motor_6.png,74,motor,,,,,,,
533,,196659,HierDy7wfwke53,s15ulp761x,ms1000201,motor,,76,img/motor_8.png,76,motor,8,97,1,0,0,,
null,,196767,HierDy7wfwke53,s15ulp761x,ms1000201,iti,,null,img/motor_8.png,76,motor,,,,,,,
499,,197286,HierDy7wfwke53,s15ulp761x,ms1000201,motor,,75,img/motor_7.png,75,motor,7,98,1,0,0,,
null,,197402,HierDy7wfwke53,s15ulp761x,ms1000201,iti,,null,img/motor_7.png,75,motor,,,,,,,
558,,197978,HierDy7wfwke53,s15ulp761x,ms1000201,motor,,83,img/motor_2.png,83,motor,2,99,1,0,0,,
null,,198094,HierDy7wfwke53,s15ulp761x,ms1000201,iti,,null,img/motor_2.png,83,motor,,,,,,,
579,,198683,HierDy7wfwke53,s15ulp761x,ms1000201,motor,,70,img/motor_4.png,70,motor,4,100,1,0,0,,
null,,198792,HierDy7wfwke53,s15ulp761x,ms1000201,iti,,null,img/motor_4.png,70,motor,,,,,,,
555,,199355,HierDy7wfwke53,s15ulp761x,ms1000201,motor,,75,img/motor_7.png,75,motor,7,101,1,0,0,,
null,,199463,HierDy7wfwke53,s15ulp761x,ms1000201,iti,,null,img/motor_7.png,75,motor,,,,,,,
580,,200051,HierDy7wfwke53,s15ulp761x,ms1000201,motor,,83,img/motor_2.png,83,motor,2,102,1,0,0,,
null,,200159,HierDy7wfwke53,s15ulp761x,ms1000201,iti,,null,img/motor_2.png,83,motor,,,,,,,
506,,200675,HierDy7wfwke53,s15ulp761x,ms1000201,motor,,72,img/motor_5.png,72,motor,5,103,1,0,0,,
null,,200784,HierDy7wfwke53,s15ulp761x,ms1000201,iti,,null,img/motor_5.png,72,motor,,,,,,,
451,,201243,HierDy7wfwke53,s15ulp761x,ms1000201,motor,,72,img/motor_5.png,72,motor,5,104,1,0,0,,
null,,201356,HierDy7wfwke53,s15ulp761x,ms1000201,iti,,null,img/motor_5.png,72,motor,,,,,,,
533,,201898,HierDy7wfwke53,s15ulp761x,ms1000201,motor,,74,img/motor_6.png,74,motor,6,105,1,0,0,,
null,,202007,HierDy7wfwke53,s15ulp761x,ms1000201,iti,,null,img/motor_6.png,74,motor,,,,,,,
443,,202458,HierDy7wfwke53,s15ulp761x,ms1000201,motor,,70,img/motor_4.png,70,motor,4,106,1,0,0,,
null,,202567,HierDy7wfwke53,s15ulp761x,ms1000201,iti,,null,img/motor_4.png,70,motor,,,,,,,
404,,202979,HierDy7wfwke53,s15ulp761x,ms1000201,motor,,72,img/motor_5.png,72,motor,5,107,1,0,0,,
null,,203094,HierDy7wfwke53,s15ulp761x,ms1000201,iti,,null,img/motor_5.png,72,motor,,,,,,,
548,,203651,HierDy7wfwke53,s15ulp761x,ms1000201,motor,,83,img/motor_2.png,83,motor,2,108,1,0,0,,
null,,203759,HierDy7wfwke53,s15ulp761x,ms1000201,iti,,null,img/motor_2.png,83,motor,,,,,,,
476,,204242,HierDy7wfwke53,s15ulp761x,ms1000201,motor,,65,img/motor_1.png,65,motor,1,109,1,0,0,,
null,,204357,HierDy7wfwke53,s15ulp761x,ms1000201,iti,,null,img/motor_1.png,65,motor,,,,,,,
469,,204835,HierDy7wfwke53,s15ulp761x,ms1000201,motor,,75,img/motor_6.png,74,motor,6,110,0,1,0,,
352,,205195,HierDy7wfwke53,s15ulp761x,ms1000201,motorRepeat,,74,img/motor_6.png,74,motor,6,110,1,0,0,,
null,,205309,HierDy7wfwke53,s15ulp761x,ms1000201,iti,,null,img/motor_6.png,74,motor,,,,,,,
429,,205746,HierDy7wfwke53,s15ulp761x,ms1000201,motor,,75,img/motor_7.png,75,motor,7,111,1,0,0,,
null,,205855,HierDy7wfwke53,s15ulp761x,ms1000201,iti,,null,img/motor_7.png,75,motor,,,,,,,
444,,206306,HierDy7wfwke53,s15ulp761x,ms1000201,motor,,65,img/motor_1.png,65,motor,1,112,1,0,0,,
null,,206415,HierDy7wfwke53,s15ulp761x,ms1000201,iti,,null,img/motor_1.png,65,motor,,,,,,,
492,,206915,HierDy7wfwke53,s15ulp761x,ms1000201,motor,,76,img/motor_8.png,76,motor,8,113,1,0,0,,
null,,207029,HierDy7wfwke53,s15ulp761x,ms1000201,iti,,null,img/motor_8.png,76,motor,,,,,,,
581,,207619,HierDy7wfwke53,s15ulp761x,ms1000201,motor,,68,img/motor_3.png,68,motor,3,114,1,0,0,,
null,,207728,HierDy7wfwke53,s15ulp761x,ms1000201,iti,,null,img/motor_3.png,68,motor,,,,,,,
515,,208250,HierDy7wfwke53,s15ulp761x,ms1000201,motor,,75,img/motor_7.png,75,motor,7,115,1,0,0,,
null,,208359,HierDy7wfwke53,s15ulp761x,ms1000201,iti,,null,img/motor_7.png,75,motor,,,,,,,
492,,208859,HierDy7wfwke53,s15ulp761x,ms1000201,motor,,74,img/motor_6.png,74,motor,6,116,1,0,0,,
null,,208967,HierDy7wfwke53,s15ulp761x,ms1000201,iti,,null,img/motor_6.png,74,motor,,,,,,,
420,,209401,HierDy7wfwke53,s15ulp761x,ms1000201,motor,,72,img/motor_5.png,72,motor,5,117,1,0,0,,
null,,209510,HierDy7wfwke53,s15ulp761x,ms1000201,iti,,null,img/motor_5.png,72,motor,,,,,,,
445,,209962,HierDy7wfwke53,s15ulp761x,ms1000201,motor,,76,img/motor_8.png,76,motor,8,118,1,0,0,,
null,,210070,HierDy7wfwke53,s15ulp761x,ms1000201,iti,,null,img/motor_8.png,76,motor,,,,,,,
436,,210515,HierDy7wfwke53,s15ulp761x,ms1000201,motor,,70,img/motor_4.png,70,motor,4,119,1,0,0,,
null,,210623,HierDy7wfwke53,s15ulp761x,ms1000201,iti,,null,img/motor_4.png,70,motor,,,,,,,
516,,211146,HierDy7wfwke53,s15ulp761x,ms1000201,motor,,74,img/motor_6.png,74,motor,6,120,1,0,0,,
null,,211254,HierDy7wfwke53,s15ulp761x,ms1000201,iti,,null,img/motor_6.png,74,motor,,,,,,,
469,,211731,HierDy7wfwke53,s15ulp761x,ms1000201,motor,,72,img/motor_5.png,72,motor,5,121,1,0,0,,
null,,211846,HierDy7wfwke53,s15ulp761x,ms1000201,iti,,null,img/motor_5.png,72,motor,,,,,,,
653,,212507,HierDy7wfwke53,s15ulp761x,ms1000201,motor,,83,img/motor_3.png,68,motor,3,122,0,1,0,,
145,,212665,HierDy7wfwke53,s15ulp761x,ms1000201,motorRepeat,,68,img/motor_3.png,68,motor,3,122,1,0,0,,
null,,212774,HierDy7wfwke53,s15ulp761x,ms1000201,iti,,null,img/motor_3.png,68,motor,,,,,,,
517,,213299,HierDy7wfwke53,s15ulp761x,ms1000201,motor,,74,img/motor_6.png,74,motor,6,123,1,0,0,,
null,,213407,HierDy7wfwke53,s15ulp761x,ms1000201,iti,,null,img/motor_6.png,74,motor,,,,,,,
460,,213875,HierDy7wfwke53,s15ulp761x,ms1000201,motor,,65,img/motor_1.png,65,motor,1,124,1,0,0,,
null,,213989,HierDy7wfwke53,s15ulp761x,ms1000201,iti,,null,img/motor_1.png,65,motor,,,,,,,
389,,214393,HierDy7wfwke53,s15ulp761x,ms1000201,motor,,72,img/motor_5.png,72,motor,5,125,1,0,0,,
null,,214502,HierDy7wfwke53,s15ulp761x,ms1000201,iti,,null,img/motor_5.png,72,motor,,,,,,,
477,,214986,HierDy7wfwke53,s15ulp761x,ms1000201,motor,,74,img/motor_6.png,74,motor,6,126,1,0,0,,
null,,215101,HierDy7wfwke53,s15ulp761x,ms1000201,iti,,null,img/motor_6.png,74,motor,,,,,,,
461,,215571,HierDy7wfwke53,s15ulp761x,ms1000201,motor,,68,img/motor_2.png,83,motor,2,127,0,1,0,,
104,,215689,HierDy7wfwke53,s15ulp761x,ms1000201,motorRepeat,,83,img/motor_2.png,83,motor,2,127,1,0,0,,
null,,215798,HierDy7wfwke53,s15ulp761x,ms1000201,iti,,null,img/motor_2.png,83,motor,,,,,,,
493,,216299,HierDy7wfwke53,s15ulp761x,ms1000201,motor,,70,img/motor_4.png,70,motor,4,128,1,0,0,,
null,,216407,HierDy7wfwke53,s15ulp761x,ms1000201,iti,,null,img/motor_4.png,70,motor,,,,,,,
556,,216971,HierDy7wfwke53,s15ulp761x,ms1000201,motor,,83,img/motor_2.png,83,motor,2,129,1,0,0,,
null,,217086,HierDy7wfwke53,s15ulp761x,ms1000201,iti,,null,img/motor_2.png,83,motor,,,,,,,
517,,217610,HierDy7wfwke53,s15ulp761x,ms1000201,motor,,65,img/motor_1.png,65,motor,1,130,1,0,0,,
null,,217725,HierDy7wfwke53,s15ulp761x,ms1000201,iti,,null,img/motor_1.png,65,motor,,,,,,,
597,,218331,HierDy7wfwke53,s15ulp761x,ms1000201,motor,,74,img/motor_6.png,74,motor,6,131,1,0,0,,
null,,218445,HierDy7wfwke53,s15ulp761x,ms1000201,iti,,null,img/motor_6.png,74,motor,,,,,,,
445,,218899,HierDy7wfwke53,s15ulp761x,ms1000201,motor,,74,img/motor_7.png,75,motor,7,132,0,1,0,,
209,,219122,HierDy7wfwke53,s15ulp761x,ms1000201,motorRepeat,,75,img/motor_7.png,75,motor,7,132,1,0,0,,
null,,219237,HierDy7wfwke53,s15ulp761x,ms1000201,iti,,null,img/motor_7.png,75,motor,,,,,,,
437,,219690,HierDy7wfwke53,s15ulp761x,ms1000201,motor,,75,img/motor_7.png,75,motor,7,133,1,0,0,,
null,,219804,HierDy7wfwke53,s15ulp761x,ms1000201,iti,,null,img/motor_7.png,75,motor,,,,,,,
510,,220324,HierDy7wfwke53,s15ulp761x,ms1000201,motor,,70,img/motor_4.png,70,motor,4,134,1,0,0,,
null,,220432,HierDy7wfwke53,s15ulp761x,ms1000201,iti,,null,img/motor_4.png,70,motor,,,,,,,
507,,220947,HierDy7wfwke53,s15ulp761x,ms1000201,motor,,68,img/motor_3.png,68,motor,3,135,1,0,0,,
null,,221055,HierDy7wfwke53,s15ulp761x,ms1000201,iti,,null,img/motor_3.png,68,motor,,,,,,,
452,,221515,HierDy7wfwke53,s15ulp761x,ms1000201,motor,,72,img/motor_5.png,72,motor,5,136,1,0,0,,
null,,221624,HierDy7wfwke53,s15ulp761x,ms1000201,iti,,null,img/motor_5.png,72,motor,,,,,,,
443,,222075,HierDy7wfwke53,s15ulp761x,ms1000201,motor,,76,img/motor_8.png,76,motor,8,137,1,0,0,,
null,,222190,HierDy7wfwke53,s15ulp761x,ms1000201,iti,,null,img/motor_8.png,76,motor,,,,,,,
461,,222665,HierDy7wfwke53,s15ulp761x,ms1000201,motor,,65,img/motor_1.png,65,motor,1,138,1,0,0,,
null,,222780,HierDy7wfwke53,s15ulp761x,ms1000201,iti,,null,img/motor_1.png,65,motor,,,,,,,
422,,223211,HierDy7wfwke53,s15ulp761x,ms1000201,motor,,68,img/motor_3.png,68,motor,3,139,1,0,0,,
null,,223326,HierDy7wfwke53,s15ulp761x,ms1000201,iti,,null,img/motor_3.png,68,motor,,,,,,,
405,,223739,HierDy7wfwke53,s15ulp761x,ms1000201,motor,,68,img/motor_3.png,68,motor,3,140,1,0,0,,
null,,223854,HierDy7wfwke53,s15ulp761x,ms1000201,iti,,null,img/motor_3.png,68,motor,,,,,,,
460,,224323,HierDy7wfwke53,s15ulp761x,ms1000201,motor,,74,img/motor_7.png,75,motor,7,141,0,1,0,,
128,,224459,HierDy7wfwke53,s15ulp761x,ms1000201,motorRepeat,,75,img/motor_7.png,75,motor,7,141,1,0,0,,
null,,224568,HierDy7wfwke53,s15ulp761x,ms1000201,iti,,null,img/motor_7.png,75,motor,,,,,,,
435,,225011,HierDy7wfwke53,s15ulp761x,ms1000201,motor,,75,img/motor_7.png,75,motor,7,142,1,0,0,,
null,,225119,HierDy7wfwke53,s15ulp761x,ms1000201,iti,,null,img/motor_7.png,75,motor,,,,,,,
580,,225707,HierDy7wfwke53,s15ulp761x,ms1000201,motor,,83,img/motor_2.png,83,motor,2,143,1,0,0,,
null,,225816,HierDy7wfwke53,s15ulp761x,ms1000201,iti,,null,img/motor_2.png,83,motor,,,,,,,
411,,226234,HierDy7wfwke53,s15ulp761x,ms1000201,motor,,75,img/motor_8.png,76,motor,8,144,0,1,0,,
184,,226427,HierDy7wfwke53,s15ulp761x,ms1000201,motorRepeat,,76,img/motor_8.png,76,motor,8,144,1,0,0,,
null,,226542,HierDy7wfwke53,s15ulp761x,ms1000201,iti,,null,img/motor_8.png,76,motor,,,,,,,
467,,227019,HierDy7wfwke53,s15ulp761x,ms1000201,motor,,65,img/motor_1.png,65,motor,1,145,1,0,0,,
null,,227133,HierDy7wfwke53,s15ulp761x,ms1000201,iti,,null,img/motor_1.png,65,motor,,,,,,,
509,,227651,HierDy7wfwke53,s15ulp761x,ms1000201,motor,,68,img/motor_3.png,68,motor,3,146,1,0,0,,
null,,227759,HierDy7wfwke53,s15ulp761x,ms1000201,iti,,null,img/motor_3.png,68,motor,,,,,,,
428,,228195,HierDy7wfwke53,s15ulp761x,ms1000201,motor,,76,img/motor_8.png,76,motor,8,147,1,0,0,,
null,,228310,HierDy7wfwke53,s15ulp761x,ms1000201,iti,,null,img/motor_8.png,76,motor,,,,,,,
541,,228860,HierDy7wfwke53,s15ulp761x,ms1000201,motor,,68,img/motor_3.png,68,motor,3,148,1,0,0,,
null,,228974,HierDy7wfwke53,s15ulp761x,ms1000201,iti,,null,img/motor_3.png,68,motor,,,,,,,
389,,229370,HierDy7wfwke53,s15ulp761x,ms1000201,motor,,76,img/motor_8.png,76,motor,8,149,1,0,0,,
null,,229479,HierDy7wfwke53,s15ulp761x,ms1000201,iti,,null,img/motor_8.png,76,motor,,,,,,,
508,,229996,HierDy7wfwke53,s15ulp761x,ms1000201,motor,,65,img/motor_1.png,65,motor,1,150,1,0,0,,
null,,230104,HierDy7wfwke53,s15ulp761x,ms1000201,iti,,null,img/motor_1.png,65,motor,,,,,,,
500,,230611,HierDy7wfwke53,s15ulp761x,ms1000201,motor,,74,img/motor_7.png,75,motor,7,151,0,1,0,,
104,,230723,HierDy7wfwke53,s15ulp761x,ms1000201,motorRepeat,,75,img/motor_7.png,75,motor,7,151,1,0,0,,
null,,230831,HierDy7wfwke53,s15ulp761x,ms1000201,iti,,null,img/motor_7.png,75,motor,,,,,,,
572,,231417,HierDy7wfwke53,s15ulp761x,ms1000201,motor,,83,img/motor_2.png,83,motor,2,152,1,0,0,,
null,,231527,HierDy7wfwke53,s15ulp761x,ms1000201,iti,,null,img/motor_2.png,83,motor,,,,,,,
412,,231946,HierDy7wfwke53,s15ulp761x,ms1000201,motor,,75,img/motor_8.png,76,motor,8,153,0,1,0,,
193,,232146,HierDy7wfwke53,s15ulp761x,ms1000201,motorRepeat,,76,img/motor_8.png,76,motor,8,153,1,0,0,,
null,,232261,HierDy7wfwke53,s15ulp761x,ms1000201,iti,,null,img/motor_8.png,76,motor,,,,,,,
533,,232803,HierDy7wfwke53,s15ulp761x,ms1000201,motor,,75,img/motor_7.png,75,motor,7,154,1,0,0,,
null,,232917,HierDy7wfwke53,s15ulp761x,ms1000201,iti,,null,img/motor_7.png,75,motor,,,,,,,
413,,233338,HierDy7wfwke53,s15ulp761x,ms1000201,motor,,76,img/motor_8.png,76,motor,8,155,1,0,0,,
null,,233452,HierDy7wfwke53,s15ulp761x,ms1000201,iti,,null,img/motor_8.png,76,motor,,,,,,,
535,,233994,HierDy7wfwke53,s15ulp761x,ms1000201,motor,,74,img/motor_6.png,74,motor,6,156,1,0,0,,
null,,234102,HierDy7wfwke53,s15ulp761x,ms1000201,iti,,null,img/motor_6.png,74,motor,,,,,,,
389,,234499,HierDy7wfwke53,s15ulp761x,ms1000201,motor,,72,img/motor_5.png,72,motor,5,157,1,0,0,,
null,,234607,HierDy7wfwke53,s15ulp761x,ms1000201,iti,,null,img/motor_5.png,72,motor,,,,,,,
467,,235082,HierDy7wfwke53,s15ulp761x,ms1000201,motor,,76,img/motor_8.png,76,motor,8,158,1,0,0,,
null,,235190,HierDy7wfwke53,s15ulp761x,ms1000201,iti,,null,img/motor_8.png,76,motor,,,,,,,
717,,235915,HierDy7wfwke53,s15ulp761x,ms1000201,motor,,74,img/motor_6.png,74,motor,6,159,1,0,0,,
null,,236022,HierDy7wfwke53,s15ulp761x,ms1000201,iti,,null,img/motor_6.png,74,motor,,,,,,,
475,,236503,HierDy7wfwke53,s15ulp761x,ms1000201,motor,,76,img/motor_8.png,76,motor,8,160,1,0,0,,
null,,236612,HierDy7wfwke53,s15ulp761x,ms1000201,iti,,null,img/motor_8.png,76,motor,,,,,,,
550,,237168,HierDy7wfwke53,s15ulp761x,ms1000201,motor,,68,img/motor_3.png,68,motor,3,161,1,0,0,,
null,,237273,HierDy7wfwke53,s15ulp761x,ms1000201,iti,,null,img/motor_3.png,68,motor,,,,,,,
594,,237875,HierDy7wfwke53,s15ulp761x,ms1000201,motor,,83,img/motor_2.png,83,motor,2,162,1,0,0,,
null,,237983,HierDy7wfwke53,s15ulp761x,ms1000201,iti,,null,img/motor_2.png,83,motor,,,,,,,
676,,238673,HierDy7wfwke53,s15ulp761x,ms1000201,motor,,74,img/motor_6.png,74,motor,6,163,1,0,0,,
null,,238782,HierDy7wfwke53,s15ulp761x,ms1000201,iti,,null,img/motor_6.png,74,motor,,,,,,,
461,,239258,HierDy7wfwke53,s15ulp761x,ms1000201,motor,,74,img/motor_6.png,74,motor,6,164,1,0,0,,
null,,239367,HierDy7wfwke53,s15ulp761x,ms1000201,iti,,null,img/motor_6.png,74,motor,,,,,,,
493,,239873,HierDy7wfwke53,s15ulp761x,ms1000201,motor,,75,img/motor_7.png,75,motor,7,165,1,0,0,,
null,,239989,HierDy7wfwke53,s15ulp761x,ms1000201,iti,,null,img/motor_7.png,75,motor,,,,,,,
429,,240428,HierDy7wfwke53,s15ulp761x,ms1000201,motor,,68,img/motor_3.png,68,motor,3,166,1,0,0,,
null,,240536,HierDy7wfwke53,s15ulp761x,ms1000201,iti,,null,img/motor_3.png,68,motor,,,,,,,
474,,241025,HierDy7wfwke53,s15ulp761x,ms1000201,motor,,75,img/motor_6.png,74,motor,6,167,0,1,0,,
257,,241297,HierDy7wfwke53,s15ulp761x,ms1000201,motorRepeat,,74,img/motor_6.png,74,motor,6,167,1,0,0,,
null,,241407,HierDy7wfwke53,s15ulp761x,ms1000201,iti,,null,img/motor_6.png,74,motor,,,,,,,
444,,241865,HierDy7wfwke53,s15ulp761x,ms1000201,motor,,68,img/motor_3.png,68,motor,3,168,1,0,0,,
null,,241974,HierDy7wfwke53,s15ulp761x,ms1000201,iti,,null,img/motor_3.png,68,motor,,,,,,,
580,,242562,HierDy7wfwke53,s15ulp761x,ms1000201,motor,,83,img/motor_2.png,83,motor,2,169,1,0,0,,
null,,242671,HierDy7wfwke53,s15ulp761x,ms1000201,iti,,null,img/motor_2.png,83,motor,,,,,,,
492,,243171,HierDy7wfwke53,s15ulp761x,ms1000201,motor,,74,img/motor_6.png,74,motor,6,170,1,0,0,,
null,,243279,HierDy7wfwke53,s15ulp761x,ms1000201,iti,,null,img/motor_6.png,74,motor,,,,,,,
476,,243763,HierDy7wfwke53,s15ulp761x,ms1000201,motor,,68,img/motor_3.png,68,motor,3,171,1,0,0,,
null,,243871,HierDy7wfwke53,s15ulp761x,ms1000201,iti,,null,img/motor_3.png,68,motor,,,,,,,
483,,244363,HierDy7wfwke53,s15ulp761x,ms1000201,motor,,70,img/motor_4.png,70,motor,4,172,1,0,0,,
null,,244471,HierDy7wfwke53,s15ulp761x,ms1000201,iti,,null,img/motor_4.png,70,motor,,,,,,,
564,,245043,HierDy7wfwke53,s15ulp761x,ms1000201,motor,,72,img/motor_5.png,72,motor,5,173,1,0,0,,
null,,245152,HierDy7wfwke53,s15ulp761x,ms1000201,iti,,null,img/motor_5.png,72,motor,,,,,,,
516,,245682,HierDy7wfwke53,s15ulp761x,ms1000201,motor,,70,img/motor_4.png,70,motor,4,174,1,0,0,,
null,,245791,HierDy7wfwke53,s15ulp761x,ms1000201,iti,,null,img/motor_4.png,70,motor,,,,,,,
500,,246306,HierDy7wfwke53,s15ulp761x,ms1000201,motor,,65,img/motor_1.png,65,motor,1,175,1,0,0,,
null,,246422,HierDy7wfwke53,s15ulp761x,ms1000201,iti,,null,img/motor_1.png,65,motor,,,,,,,
461,,246890,HierDy7wfwke53,s15ulp761x,ms1000201,motor,,72,img/motor_5.png,72,motor,5,176,1,0,0,,
null,,246998,HierDy7wfwke53,s15ulp761x,ms1000201,iti,,null,img/motor_5.png,72,motor,,,,,,,
428,,247435,HierDy7wfwke53,s15ulp761x,ms1000201,motor,,72,img/motor_5.png,72,motor,5,177,1,0,0,,
null,,247550,HierDy7wfwke53,s15ulp761x,ms1000201,iti,,null,img/motor_5.png,72,motor,,,,,,,
477,,248035,HierDy7wfwke53,s15ulp761x,ms1000201,motor,,68,img/motor_3.png,68,motor,3,178,1,0,0,,
null,,248151,HierDy7wfwke53,s15ulp761x,ms1000201,iti,,null,img/motor_3.png,68,motor,,,,,,,
492,,248657,HierDy7wfwke53,s15ulp761x,ms1000201,motor,,72,img/motor_5.png,72,motor,5,179,1,0,0,,
null,,248767,HierDy7wfwke53,s15ulp761x,ms1000201,iti,,null,img/motor_5.png,72,motor,,,,,,,
429,,249203,HierDy7wfwke53,s15ulp761x,ms1000201,motor,,68,img/motor_4.png,70,motor,4,180,0,1,0,,
287,,249499,HierDy7wfwke53,s15ulp761x,ms1000201,motorRepeat,,70,img/motor_4.png,70,motor,4,180,1,0,0,,
null,,249614,HierDy7wfwke53,s15ulp761x,ms1000201,iti,,null,img/motor_4.png,70,motor,,,,,,,
492,,250116,HierDy7wfwke53,s15ulp761x,ms1000201,motor,,72,img/motor_5.png,72,motor,5,181,1,0,0,,
null,,250224,HierDy7wfwke53,s15ulp761x,ms1000201,iti,,null,img/motor_5.png,72,motor,,,,,,,
443,,250675,HierDy7wfwke53,s15ulp761x,ms1000201,motor,,70,img/motor_3.png,68,motor,3,182,0,1,0,,
520,,251202,HierDy7wfwke53,s15ulp761x,ms1000201,motorRepeat,,68,img/motor_3.png,68,motor,3,182,1,0,0,,
null,,251311,HierDy7wfwke53,s15ulp761x,ms1000201,iti,,null,img/motor_3.png,68,motor,,,,,,,
588,,251907,HierDy7wfwke53,s15ulp761x,ms1000201,motor,,65,img/motor_1.png,65,motor,1,183,1,0,0,,
null,,252022,HierDy7wfwke53,s15ulp761x,ms1000201,iti,,null,img/motor_1.png,65,motor,,,,,,,
500,,252530,HierDy7wfwke53,s15ulp761x,ms1000201,motor,,74,img/motor_7.png,75,motor,7,184,0,1,0,,
97,,252635,HierDy7wfwke53,s15ulp761x,ms1000201,motorRepeat,,75,img/motor_7.png,75,motor,7,184,1,0,0,,
null,,252743,HierDy7wfwke53,s15ulp761x,ms1000201,iti,,null,img/motor_7.png,75,motor,,,,,,,
492,,253244,HierDy7wfwke53,s15ulp761x,ms1000201,motor,,72,img/motor_5.png,72,motor,5,185,1,0,0,,
null,,253351,HierDy7wfwke53,s15ulp761x,ms1000201,iti,,null,img/motor_5.png,72,motor,,,,,,,
363,,253723,HierDy7wfwke53,s15ulp761x,ms1000201,motor,,72,img/motor_5.png,72,motor,5,186,1,0,0,,
null,,253832,HierDy7wfwke53,s15ulp761x,ms1000201,iti,,null,img/motor_5.png,72,motor,,,,,,,
531,,254377,HierDy7wfwke53,s15ulp761x,ms1000201,motor,,68,img/motor_2.png,83,motor,2,187,0,1,0,,
377,,254770,HierDy7wfwke53,s15ulp761x,ms1000201,motorRepeat,,83,img/motor_2.png,83,motor,2,187,1,0,0,,
null,,254878,HierDy7wfwke53,s15ulp761x,ms1000201,iti,,null,img/motor_2.png,83,motor,,,,,,,
508,,255395,HierDy7wfwke53,s15ulp761x,ms1000201,motor,,72,img/motor_5.png,72,motor,5,188,1,0,0,,
null,,255504,HierDy7wfwke53,s15ulp761x,ms1000201,iti,,null,img/motor_5.png,72,motor,,,,,,,
516,,256033,HierDy7wfwke53,s15ulp761x,ms1000201,motor,,75,img/motor_7.png,75,motor,7,189,1,0,0,,
null,,256142,HierDy7wfwke53,s15ulp761x,ms1000201,iti,,null,img/motor_7.png,75,motor,,,,,,,
390,,256545,HierDy7wfwke53,s15ulp761x,ms1000201,motor,,72,img/motor_5.png,72,motor,5,190,1,0,0,,
null,,256661,HierDy7wfwke53,s15ulp761x,ms1000201,iti,,null,img/motor_5.png,72,motor,,,,,,,
605,,257275,HierDy7wfwke53,s15ulp761x,ms1000201,motor,,70,img/motor_4.png,70,motor,4,191,1,0,0,,
null,,257384,HierDy7wfwke53,s15ulp761x,ms1000201,iti,,null,img/motor_4.png,70,motor,,,,,,,
379,,257771,HierDy7wfwke53,s15ulp761x,ms1000201,motor,,70,img/motor_4.png,70,motor,4,192,1,0,0,,
null,,257880,HierDy7wfwke53,s15ulp761x,ms1000201,iti,,null,img/motor_4.png,70,motor,,,,,,,
547,,258442,HierDy7wfwke53,s15ulp761x,ms1000201,motor,,74,img/motor_6.png,74,motor,6,193,1,0,0,,
null,,258551,HierDy7wfwke53,s15ulp761x,ms1000201,iti,,null,img/motor_6.png,74,motor,,,,,,,
485,,259043,HierDy7wfwke53,s15ulp761x,ms1000201,motor,,65,img/motor_1.png,65,motor,1,194,1,0,0,,
null,,259152,HierDy7wfwke53,s15ulp761x,ms1000201,iti,,null,img/motor_1.png,65,motor,,,,,,,
579,,259739,HierDy7wfwke53,s15ulp761x,ms1000201,motor,,70,img/motor_4.png,70,motor,4,195,1,0,0,,
null,,259847,HierDy7wfwke53,s15ulp761x,ms1000201,iti,,null,img/motor_4.png,70,motor,,,,,,,
556,,260412,HierDy7wfwke53,s15ulp761x,ms1000201,motor,,68,img/motor_2.png,83,motor,2,196,0,1,0,,
360,,260780,HierDy7wfwke53,s15ulp761x,ms1000201,motorRepeat,,83,img/motor_2.png,83,motor,2,196,1,0,0,,
null,,260888,HierDy7wfwke53,s15ulp761x,ms1000201,iti,,null,img/motor_2.png,83,motor,,,,,,,
595,,261492,HierDy7wfwke53,s15ulp761x,ms1000201,motor,,68,img/motor_3.png,68,motor,3,197,1,0,0,,
null,,261606,HierDy7wfwke53,s15ulp761x,ms1000201,iti,,null,img/motor_3.png,68,motor,,,,,,,
542,,262157,HierDy7wfwke53,s15ulp761x,ms1000201,motor,,75,img/motor_7.png,75,motor,7,198,1,0,0,,
null,,262266,HierDy7wfwke53,s15ulp761x,ms1000201,iti,,null,img/motor_7.png,75,motor,,,,,,,
617,,262892,HierDy7wfwke53,s15ulp761x,ms1000201,motor,,76,img/motor_8.png,76,motor,8,199,1,0,0,,
null,,263007,HierDy7wfwke53,s15ulp761x,ms1000201,iti,,null,img/motor_8.png,76,motor,,,,,,,
403,,263420,HierDy7wfwke53,s15ulp761x,ms1000201,motor,,75,img/motor_7.png,75,motor,7,200,1,0,0,,
null,,263529,HierDy7wfwke53,s15ulp761x,ms1000201,iti,,null,img/motor_7.png,75,motor,,,,,,,
507,,264049,HierDy7wfwke53,s15ulp761x,ms1000201,motor,,65,img/motor_1.png,65,motor,1,201,1,0,0,,
null,,264159,HierDy7wfwke53,s15ulp761x,ms1000201,iti,,null,img/motor_1.png,65,motor,,,,,,,
411,,264586,HierDy7wfwke53,s15ulp761x,ms1000201,motor,,72,img/motor_5.png,72,motor,5,202,1,0,0,,
null,,264702,HierDy7wfwke53,s15ulp761x,ms1000201,iti,,null,img/motor_5.png,72,motor,,,,,,,
469,,265179,HierDy7wfwke53,s15ulp761x,ms1000201,motor,,65,img/motor_1.png,65,motor,1,203,1,0,0,,
null,,265289,HierDy7wfwke53,s15ulp761x,ms1000201,iti,,null,img/motor_1.png,65,motor,,,,,,,
426,,265724,HierDy7wfwke53,s15ulp761x,ms1000201,motor,,76,img/motor_8.png,76,motor,8,204,1,0,0,,
null,,265832,HierDy7wfwke53,s15ulp761x,ms1000201,iti,,null,img/motor_8.png,76,motor,,,,,,,
436,,266275,HierDy7wfwke53,s15ulp761x,ms1000201,motor,,75,img/motor_7.png,75,motor,7,205,1,0,0,,
null,,266384,HierDy7wfwke53,s15ulp761x,ms1000201,iti,,null,img/motor_7.png,75,motor,,,,,,,
413,,266803,HierDy7wfwke53,s15ulp761x,ms1000201,motor,,74,img/motor_6.png,74,motor,6,206,1,0,0,,
null,,266912,HierDy7wfwke53,s15ulp761x,ms1000201,iti,,null,img/motor_6.png,74,motor,,,,,,,
451,,267371,HierDy7wfwke53,s15ulp761x,ms1000201,motor,,65,img/motor_1.png,65,motor,1,207,1,0,0,,
null,,267480,HierDy7wfwke53,s15ulp761x,ms1000201,iti,,null,img/motor_1.png,65,motor,,,,,,,
516,,268003,HierDy7wfwke53,s15ulp761x,ms1000201,motor,,68,img/motor_2.png,83,motor,2,208,0,1,0,,
272,,268284,HierDy7wfwke53,s15ulp761x,ms1000201,motorRepeat,,83,img/motor_2.png,83,motor,2,208,1,0,0,,
null,,268391,HierDy7wfwke53,s15ulp761x,ms1000201,iti,,null,img/motor_2.png,83,motor,,,,,,,
508,,268907,HierDy7wfwke53,s15ulp761x,ms1000201,motor,,76,img/motor_8.png,76,motor,8,209,1,0,0,,
null,,269016,HierDy7wfwke53,s15ulp761x,ms1000201,iti,,null,img/motor_8.png,76,motor,,,,,,,
659,,269690,HierDy7wfwke53,s15ulp761x,ms1000201,motor,,76,img/motor_8.png,76,motor,8,210,1,0,0,,
null,,269805,HierDy7wfwke53,s15ulp761x,ms1000201,iti,,null,img/motor_8.png,76,motor,,,,,,,
429,,270244,HierDy7wfwke53,s15ulp761x,ms1000201,motor,,65,img/motor_1.png,65,motor,1,211,1,0,0,,
null,,270358,HierDy7wfwke53,s15ulp761x,ms1000201,iti,,null,img/motor_1.png,65,motor,,,,,,,
492,,270858,HierDy7wfwke53,s15ulp761x,ms1000201,motor,,68,img/motor_3.png,68,motor,3,212,1,0,0,,
null,,270967,HierDy7wfwke53,s15ulp761x,ms1000201,iti,,null,img/motor_3.png,68,motor,,,,,,,
437,,271411,HierDy7wfwke53,s15ulp761x,ms1000201,motor,,70,img/motor_4.png,70,motor,4,213,1,0,0,,
null,,271520,HierDy7wfwke53,s15ulp761x,ms1000201,iti,,null,img/motor_4.png,70,motor,,,,,,,
355,,271890,HierDy7wfwke53,s15ulp761x,ms1000201,motor,,72,img/motor_5.png,72,motor,5,214,1,0,0,,
null,,271999,HierDy7wfwke53,s15ulp761x,ms1000201,iti,,null,img/motor_5.png,72,motor,,,,,,,
420,,272434,HierDy7wfwke53,s15ulp761x,ms1000201,motor,,68,img/motor_3.png,68,motor,3,215,1,0,0,,
null,,272543,HierDy7wfwke53,s15ulp761x,ms1000201,iti,,null,img/motor_3.png,68,motor,,,,,,,
301,,272850,HierDy7wfwke53,s15ulp761x,ms1000201,motor,,72,img/motor_5.png,72,motor,5,216,1,0,0,,
null,,272959,HierDy7wfwke53,s15ulp761x,ms1000201,iti,,null,img/motor_5.png,72,motor,,,,,,,
444,,273412,HierDy7wfwke53,s15ulp761x,ms1000201,motor,,72,img/motor_6.png,74,motor,6,217,0,1,0,,
335,,273755,HierDy7wfwke53,s15ulp761x,ms1000201,motorRepeat,,74,img/motor_6.png,74,motor,6,217,1,0,0,,
null,,273864,HierDy7wfwke53,s15ulp761x,ms1000201,iti,,null,img/motor_6.png,74,motor,,,,,,,
563,,274434,HierDy7wfwke53,s15ulp761x,ms1000201,motor,,70,img/motor_4.png,70,motor,4,218,1,0,0,,
null,,274550,HierDy7wfwke53,s15ulp761x,ms1000201,iti,,null,img/motor_4.png,70,motor,,,,,,,
565,,275123,HierDy7wfwke53,s15ulp761x,ms1000201,motor,,83,img/motor_2.png,83,motor,2,219,1,0,0,,
null,,275232,HierDy7wfwke53,s15ulp761x,ms1000201,iti,,null,img/motor_2.png,83,motor,,,,,,,
667,,275906,HierDy7wfwke53,s15ulp761x,ms1000201,motor,,75,img/motor_7.png,75,motor,7,220,1,0,0,,
null,,276021,HierDy7wfwke53,s15ulp761x,ms1000201,iti,,null,img/motor_7.png,75,motor,,,,,,,
558,,276587,HierDy7wfwke53,s15ulp761x,ms1000201,motor,,74,img/motor_6.png,74,motor,6,221,1,0,0,,
null,,276695,HierDy7wfwke53,s15ulp761x,ms1000201,iti,,null,img/motor_6.png,74,motor,,,,,,,
531,,277236,HierDy7wfwke53,s15ulp761x,ms1000201,motor,,75,img/motor_7.png,75,motor,7,222,1,0,0,,
null,,277344,HierDy7wfwke53,s15ulp761x,ms1000201,iti,,null,img/motor_7.png,75,motor,,,,,,,
563,,277915,HierDy7wfwke53,s15ulp761x,ms1000201,motor,,68,img/motor_3.png,68,motor,3,223,1,0,0,,
null,,278025,HierDy7wfwke53,s15ulp761x,ms1000201,iti,,null,img/motor_3.png,68,motor,,,,,,,
459,,278492,HierDy7wfwke53,s15ulp761x,ms1000201,motor,,70,img/motor_4.png,70,motor,4,224,1,0,0,,
null,,278606,HierDy7wfwke53,s15ulp761x,ms1000201,iti,,null,img/motor_4.png,70,motor,,,,,,,
532,,279146,HierDy7wfwke53,s15ulp761x,ms1000201,motor,,75,img/motor_7.png,75,motor,7,225,1,0,0,,
null,,279256,HierDy7wfwke53,s15ulp761x,ms1000201,iti,,null,img/motor_7.png,75,motor,,,,,,,
461,,279729,HierDy7wfwke53,s15ulp761x,ms1000201,motor,,68,img/motor_3.png,68,motor,3,226,1,0,0,,
88,,279845,HierDy7wfwke53,s15ulp761x,ms1000201,iti,,83,img/motor_3.png,68,motor,,,,,,,
606,,280459,HierDy7wfwke53,s15ulp761x,ms1000201,motor,,83,img/motor_2.png,83,motor,2,227,1,0,0,,
null,,280574,HierDy7wfwke53,s15ulp761x,ms1000201,iti,,null,img/motor_2.png,83,motor,,,,,,,
462,,281044,HierDy7wfwke53,s15ulp761x,ms1000201,motor,,70,img/motor_3.png,68,motor,3,228,0,1,0,,
96,,281147,HierDy7wfwke53,s15ulp761x,ms1000201,motorRepeat,,68,img/motor_3.png,68,motor,3,228,1,0,0,,
null,,281255,HierDy7wfwke53,s15ulp761x,ms1000201,iti,,null,img/motor_3.png,68,motor,,,,,,,
467,,281731,HierDy7wfwke53,s15ulp761x,ms1000201,motor,,76,img/motor_8.png,76,motor,8,229,1,0,0,,
null,,281840,HierDy7wfwke53,s15ulp761x,ms1000201,iti,,null,img/motor_8.png,76,motor,,,,,,,
459,,282314,HierDy7wfwke53,s15ulp761x,ms1000201,motor,,68,img/motor_3.png,68,motor,3,230,1,0,0,,
null,,282423,HierDy7wfwke53,s15ulp761x,ms1000201,iti,,null,img/motor_3.png,68,motor,,,,,,,
572,,283010,HierDy7wfwke53,s15ulp761x,ms1000201,motor,,72,img/motor_5.png,72,motor,5,231,1,0,0,,
null,,283119,HierDy7wfwke53,s15ulp761x,ms1000201,iti,,null,img/motor_5.png,72,motor,,,,,,,
532,,283660,HierDy7wfwke53,s15ulp761x,ms1000201,motor,,74,img/motor_6.png,74,motor,6,232,1,0,0,,
null,,283768,HierDy7wfwke53,s15ulp761x,ms1000201,iti,,null,img/motor_6.png,74,motor,,,,,,,
372,,284154,HierDy7wfwke53,s15ulp761x,ms1000201,motor,,76,img/motor_8.png,76,motor,8,233,1,0,0,,
null,,284270,HierDy7wfwke53,s15ulp761x,ms1000201,iti,,null,img/motor_8.png,76,motor,,,,,,,
468,,284754,HierDy7wfwke53,s15ulp761x,ms1000201,motor,,74,img/motor_6.png,74,motor,6,234,1,0,0,,
null,,284869,HierDy7wfwke53,s15ulp761x,ms1000201,iti,,null,img/motor_6.png,74,motor,,,,,,,
525,,285410,HierDy7wfwke53,s15ulp761x,ms1000201,motor,,68,img/motor_2.png,83,motor,2,235,0,1,0,,
281,,285699,HierDy7wfwke53,s15ulp761x,ms1000201,motorRepeat,,83,img/motor_2.png,83,motor,2,235,1,0,0,,
null,,285815,HierDy7wfwke53,s15ulp761x,ms1000201,iti,,null,img/motor_2.png,83,motor,,,,,,,
468,,286298,HierDy7wfwke53,s15ulp761x,ms1000201,motor,,65,img/motor_1.png,65,motor,1,236,1,0,0,,
null,,286407,HierDy7wfwke53,s15ulp761x,ms1000201,iti,,null,img/motor_1.png,65,motor,,,,,,,
420,,286835,HierDy7wfwke53,s15ulp761x,ms1000201,motor,,65,img/motor_1.png,65,motor,1,237,1,0,0,,
null,,286942,HierDy7wfwke53,s15ulp761x,ms1000201,iti,,null,img/motor_1.png,65,motor,,,,,,,
476,,287428,HierDy7wfwke53,s15ulp761x,ms1000201,motor,,72,img/motor_5.png,72,motor,5,238,1,0,0,,
null,,287543,HierDy7wfwke53,s15ulp761x,ms1000201,iti,,null,img/motor_5.png,72,motor,,,,,,,
420,,287970,HierDy7wfwke53,s15ulp761x,ms1000201,motor,,76,img/motor_8.png,76,motor,8,239,1,0,0,,
null,,288085,HierDy7wfwke53,s15ulp761x,ms1000201,iti,,null,img/motor_8.png,76,motor,,,,,,,
469,,288570,HierDy7wfwke53,s15ulp761x,ms1000201,motor,,70,img/motor_4.png,70,motor,4,240,1,0,0,,
null,,288686,HierDy7wfwke53,s15ulp761x,ms1000201,iti,,null,img/motor_4.png,70,motor,,,,,,,
541,,289235,HierDy7wfwke53,s15ulp761x,ms1000201,motor,,68,img/motor_2.png,83,motor,2,241,0,1,0,,
329,,289570,HierDy7wfwke53,s15ulp761x,ms1000201,motorRepeat,,83,img/motor_2.png,83,motor,2,241,1,0,0,,
null,,289679,HierDy7wfwke53,s15ulp761x,ms1000201,iti,,null,img/motor_2.png,83,motor,,,,,,,
444,,290132,HierDy7wfwke53,s15ulp761x,ms1000201,motor,,74,img/motor_6.png,74,motor,6,242,1,0,0,,
null,,290247,HierDy7wfwke53,s15ulp761x,ms1000201,iti,,null,img/motor_6.png,74,motor,,,,,,,
563,,290819,HierDy7wfwke53,s15ulp761x,ms1000201,motor,,70,img/motor_4.png,70,motor,4,243,1,0,0,,
null,,290929,HierDy7wfwke53,s15ulp761x,ms1000201,iti,,null,img/motor_4.png,70,motor,,,,,,,
370,,291307,HierDy7wfwke53,s15ulp761x,ms1000201,motor,,76,img/motor_8.png,76,motor,8,244,1,0,0,,
null,,291422,HierDy7wfwke53,s15ulp761x,ms1000201,iti,,null,img/motor_8.png,76,motor,,,,,,,
428,,291860,HierDy7wfwke53,s15ulp761x,ms1000201,motor,,72,img/motor_5.png,72,motor,5,245,1,0,0,,
null,,291968,HierDy7wfwke53,s15ulp761x,ms1000201,iti,,null,img/motor_5.png,72,motor,,,,,,,
450,,292434,HierDy7wfwke53,s15ulp761x,ms1000201,motor,,65,img/motor_1.png,65,motor,1,246,1,0,0,,
null,,292544,HierDy7wfwke53,s15ulp761x,ms1000201,iti,,null,img/motor_1.png,65,motor,,,,,,,
468,,293026,HierDy7wfwke53,s15ulp761x,ms1000201,motor,,68,img/motor_3.png,68,motor,3,247,1,0,0,,
null,,293142,HierDy7wfwke53,s15ulp761x,ms1000201,iti,,null,img/motor_3.png,68,motor,,,,,,,
485,,293636,HierDy7wfwke53,s15ulp761x,ms1000201,motor,,65,img/motor_1.png,65,motor,1,248,1,0,0,,
null,,293750,HierDy7wfwke53,s15ulp761x,ms1000201,iti,,null,img/motor_1.png,65,motor,,,,,,,
437,,294203,HierDy7wfwke53,s15ulp761x,ms1000201,motor,,70,img/motor_4.png,70,motor,4,249,1,0,0,,
null,,294311,HierDy7wfwke53,s15ulp761x,ms1000201,iti,,null,img/motor_4.png,70,motor,,,,,,,
452,,294772,HierDy7wfwke53,s15ulp761x,ms1000201,motor,,70,img/motor_4.png,70,motor,4,250,1,0,0,,
null,,294881,HierDy7wfwke53,s15ulp761x,ms1000201,iti,,null,img/motor_4.png,70,motor,,,,,,,
500,,295387,HierDy7wfwke53,s15ulp761x,ms1000201,motor,,68,img/motor_3.png,68,motor,3,251,1,0,0,,
null,,295496,HierDy7wfwke53,s15ulp761x,ms1000201,iti,,null,img/motor_3.png,68,motor,,,,,,,
492,,295996,HierDy7wfwke53,s15ulp761x,ms1000201,motor,,72,img/motor_7.png,75,motor,7,252,0,1,0,,
96,,296106,HierDy7wfwke53,s15ulp761x,ms1000201,motorRepeat,,74,img/motor_7.png,75,motor,7,252,0,1,0,,
57,,296177,HierDy7wfwke53,s15ulp761x,ms1000201,motorRepeat,,75,img/motor_7.png,75,motor,7,252,1,0,0,,
null,,296286,HierDy7wfwke53,s15ulp761x,ms1000201,iti,,null,img/motor_7.png,75,motor,,,,,,,
485,,296780,HierDy7wfwke53,s15ulp761x,ms1000201,motor,,68,img/motor_2.png,83,motor,2,253,0,1,0,,
88,,296883,HierDy7wfwke53,s15ulp761x,ms1000201,motorRepeat,,83,img/motor_2.png,83,motor,2,253,1,0,0,,
null,,296992,HierDy7wfwke53,s15ulp761x,ms1000201,iti,,null,img/motor_2.png,83,motor,,,,,,,
547,,297554,HierDy7wfwke53,s15ulp761x,ms1000201,motor,,72,img/motor_5.png,72,motor,5,254,1,0,0,,
null,,297669,HierDy7wfwke53,s15ulp761x,ms1000201,iti,,null,img/motor_5.png,72,motor,,,,,,,
406,,298090,HierDy7wfwke53,s15ulp761x,ms1000201,motor,,70,img/motor_4.png,70,motor,4,255,1,0,0,,
null,,298206,HierDy7wfwke53,s15ulp761x,ms1000201,iti,,null,img/motor_4.png,70,motor,,,,,,,
404,,298627,HierDy7wfwke53,s15ulp761x,ms1000201,motor,,76,img/motor_8.png,76,motor,8,256,1,0,0,,
null,,298742,HierDy7wfwke53,s15ulp761x,ms1000201,iti,,null,img/motor_8.png,76,motor,,,,,,,
493,,299250,HierDy7wfwke53,s15ulp761x,ms1000201,motor,,68,img/motor_2.png,83,motor,2,257,0,1,0,,
232,,299490,HierDy7wfwke53,s15ulp761x,ms1000201,motorRepeat,,83,img/motor_2.png,83,motor,2,257,1,0,0,,
null,,299599,HierDy7wfwke53,s15ulp761x,ms1000201,iti,,null,img/motor_2.png,83,motor,,,,,,,
453,,300059,HierDy7wfwke53,s15ulp761x,ms1000201,motor,,75,img/motor_7.png,75,motor,7,258,1,0,0,,
null,,300168,HierDy7wfwke53,s15ulp761x,ms1000201,iti,,null,img/motor_7.png,75,motor,,,,,,,
555,,300738,HierDy7wfwke53,s15ulp761x,ms1000201,motor,,70,img/motor_4.png,70,motor,4,259,1,0,0,,
null,,300848,HierDy7wfwke53,s15ulp761x,ms1000201,iti,,null,img/motor_4.png,70,motor,,,,,,,
332,,301187,HierDy7wfwke53,s15ulp761x,ms1000201,motor,,76,img/motor_8.png,76,motor,8,260,1,0,0,,
null,,301302,HierDy7wfwke53,s15ulp761x,ms1000201,iti,,null,img/motor_8.png,76,motor,,,,,,,
502,,301818,HierDy7wfwke53,s15ulp761x,ms1000201,motor,,68,img/motor_3.png,68,motor,3,261,1,0,0,,
null,,301934,HierDy7wfwke53,s15ulp761x,ms1000201,iti,,null,img/motor_3.png,68,motor,,,,,,,
534,,302482,HierDy7wfwke53,s15ulp761x,ms1000201,motor,,72,img/motor_5.png,72,motor,5,262,1,0,0,,
null,,302598,HierDy7wfwke53,s15ulp761x,ms1000201,iti,,null,img/motor_5.png,72,motor,,,,,,,
372,,302986,HierDy7wfwke53,s15ulp761x,ms1000201,motor,,76,img/motor_8.png,76,motor,8,263,1,0,0,,
null,,303096,HierDy7wfwke53,s15ulp761x,ms1000201,iti,,null,img/motor_8.png,76,motor,,,,,,,
437,,303539,HierDy7wfwke53,s15ulp761x,ms1000201,motor,,76,img/motor_8.png,76,motor,8,264,1,0,0,,
null,,303647,HierDy7wfwke53,s15ulp761x,ms1000201,iti,,null,img/motor_8.png,76,motor,,,,,,,
475,,304131,HierDy7wfwke53,s15ulp761x,ms1000201,motor,,76,img/motor_7.png,75,motor,7,265,0,1,0,,
160,,304300,HierDy7wfwke53,s15ulp761x,ms1000201,motorRepeat,,75,img/motor_7.png,75,motor,7,265,1,0,0,,
null,,304415,HierDy7wfwke53,s15ulp761x,ms1000201,iti,,null,img/motor_7.png,75,motor,,,,,,,
605,,305028,HierDy7wfwke53,s15ulp761x,ms1000201,motor,,65,img/motor_1.png,65,motor,1,266,1,0,0,,
null,,305136,HierDy7wfwke53,s15ulp761x,ms1000201,iti,,null,img/motor_1.png,65,motor,,,,,,,
547,,305692,HierDy7wfwke53,s15ulp761x,ms1000201,motor,,75,img/motor_7.png,75,motor,7,267,1,0,0,,
null,,305800,HierDy7wfwke53,s15ulp761x,ms1000201,iti,,null,img/motor_7.png,75,motor,,,,,,,
363,,306171,HierDy7wfwke53,s15ulp761x,ms1000201,motor,,76,img/motor_8.png,76,motor,8,268,1,0,0,,
null,,306286,HierDy7wfwke53,s15ulp761x,ms1000201,iti,,null,img/motor_8.png,76,motor,,,,,,,
588,,306883,HierDy7wfwke53,s15ulp761x,ms1000201,motor,,83,img/motor_2.png,83,motor,2,269,1,0,0,,
null,,306992,HierDy7wfwke53,s15ulp761x,ms1000201,iti,,null,img/motor_2.png,83,motor,,,,,,,
412,,307412,HierDy7wfwke53,s15ulp761x,ms1000201,motor,,83,img/motor_2.png,83,motor,2,270,1,0,0,,
null,,307520,HierDy7wfwke53,s15ulp761x,ms1000201,iti,,null,img/motor_2.png,83,motor,,,,,,,
443,,307972,HierDy7wfwke53,s15ulp761x,ms1000201,motor,,72,img/motor_5.png,72,motor,5,271,1,0,0,,
null,,308080,HierDy7wfwke53,s15ulp761x,ms1000201,iti,,null,img/motor_5.png,72,motor,,,,,,,
556,,308643,HierDy7wfwke53,s15ulp761x,ms1000201,motor,,68,img/motor_3.png,68,motor,3,272,1,0,0,,
null,,308759,HierDy7wfwke53,s15ulp761x,ms1000201,iti,,null,img/motor_3.png,68,motor,,,,,,,
412,,309179,HierDy7wfwke53,s15ulp761x,ms1000201,motor,,72,img/motor_5.png,72,motor,5,273,1,0,0,,
null,,309294,HierDy7wfwke53,s15ulp761x,ms1000201,iti,,null,img/motor_5.png,72,motor,,,,,,,
389,,309691,HierDy7wfwke53,s15ulp761x,ms1000201,motor,,83,img/motor_2.png,83,motor,2,274,1,0,0,,
null,,309806,HierDy7wfwke53,s15ulp761x,ms1000201,iti,,null,img/motor_2.png,83,motor,,,,,,,
525,,310340,HierDy7wfwke53,s15ulp761x,ms1000201,motor,,75,img/motor_7.png,75,motor,7,275,1,0,0,,
null,,310448,HierDy7wfwke53,s15ulp761x,ms1000201,iti,,null,img/motor_7.png,75,motor,,,,,,,
387,,310843,HierDy7wfwke53,s15ulp761x,ms1000201,motor,,75,img/motor_7.png,75,motor,7,276,1,0,0,,
null,,310958,HierDy7wfwke53,s15ulp761x,ms1000201,iti,,null,img/motor_7.png,75,motor,,,,,,,
469,,311436,HierDy7wfwke53,s15ulp761x,ms1000201,motor,,72,img/motor_5.png,72,motor,5,277,1,0,0,,
null,,311550,HierDy7wfwke53,s15ulp761x,ms1000201,iti,,null,img/motor_5.png,72,motor,,,,,,,
573,,312138,HierDy7wfwke53,s15ulp761x,ms1000201,motor,,68,img/motor_3.png,68,motor,3,278,1,0,0,,
null,,312254,HierDy7wfwke53,s15ulp761x,ms1000201,iti,,null,img/motor_3.png,68,motor,,,,,,,
461,,312724,HierDy7wfwke53,s15ulp761x,ms1000201,motor,,76,img/motor_8.png,76,motor,8,279,1,0,0,,
null,,312832,HierDy7wfwke53,s15ulp761x,ms1000201,iti,,null,img/motor_8.png,76,motor,,,,,,,
396,,313243,HierDy7wfwke53,s15ulp761x,ms1000201,motor,,76,img/motor_7.png,75,motor,7,280,0,1,0,,
321,,313571,HierDy7wfwke53,s15ulp761x,ms1000201,motorRepeat,,75,img/motor_7.png,75,motor,7,280,1,0,0,,
null,,313680,HierDy7wfwke53,s15ulp761x,ms1000201,iti,,null,img/motor_7.png,75,motor,,,,,,,
564,,314252,HierDy7wfwke53,s15ulp761x,ms1000201,motor,,74,img/motor_6.png,74,motor,6,281,1,0,0,,
null,,314359,HierDy7wfwke53,s15ulp761x,ms1000201,iti,,null,img/motor_6.png,74,motor,,,,,,,
349,,314716,HierDy7wfwke53,s15ulp761x,ms1000201,motor,,76,img/motor_8.png,76,motor,8,282,1,0,0,,
null,,314824,HierDy7wfwke53,s15ulp761x,ms1000201,iti,,null,img/motor_8.png,76,motor,,,,,,,
522,,315355,HierDy7wfwke53,s15ulp761x,ms1000201,motor,,70,img/motor_4.png,70,motor,4,283,1,0,0,,
null,,315470,HierDy7wfwke53,s15ulp761x,ms1000201,iti,,null,img/motor_4.png,70,motor,,,,,,,
468,,315948,HierDy7wfwke53,s15ulp761x,ms1000201,motor,,70,img/motor_4.png,70,motor,4,284,1,0,0,,
null,,316056,HierDy7wfwke53,s15ulp761x,ms1000201,iti,,null,img/motor_4.png,70,motor,,,,,,,
707,,316772,HierDy7wfwke53,s15ulp761x,ms1000201,motor,,74,img/motor_6.png,74,motor,6,285,1,0,0,,
null,,316887,HierDy7wfwke53,s15ulp761x,ms1000201,iti,,null,img/motor_6.png,74,motor,,,,,,,
581,,317475,HierDy7wfwke53,s15ulp761x,ms1000201,motor,,68,img/motor_3.png,68,motor,3,286,1,0,0,,
null,,317590,HierDy7wfwke53,s15ulp761x,ms1000201,iti,,null,img/motor_3.png,68,motor,,,,,,,
509,,318107,HierDy7wfwke53,s15ulp761x,ms1000201,motor,,65,img/motor_1.png,65,motor,1,287,1,0,0,,
null,,318215,HierDy7wfwke53,s15ulp761x,ms1000201,iti,,null,img/motor_1.png,65,motor,,,,,,,
428,,318651,HierDy7wfwke53,s15ulp761x,ms1000201,motor,,68,img/motor_2.png,83,motor,2,288,0,1,0,,
344,,319004,HierDy7wfwke53,s15ulp761x,ms1000201,motorRepeat,,83,img/motor_2.png,83,motor,2,288,1,0,0,,
null,,319119,HierDy7wfwke53,s15ulp761x,ms1000201,iti,,null,img/motor_2.png,83,motor,,,,,,,
411,,319540,HierDy7wfwke53,s15ulp761x,ms1000201,motor,,68,img/motor_4.png,70,motor,4,289,0,1,0,,
46,,319602,HierDy7wfwke53,s15ulp761x,ms1000201,motorRepeat,,70,img/motor_4.png,70,motor,4,289,1,0,0,,
null,,319710,HierDy7wfwke53,s15ulp761x,ms1000201,iti,,null,img/motor_4.png,70,motor,,,,,,,
517,,320243,HierDy7wfwke53,s15ulp761x,ms1000201,motor,,83,img/motor_2.png,83,motor,2,290,1,0,0,,
null,,320352,HierDy7wfwke53,s15ulp761x,ms1000201,iti,,null,img/motor_2.png,83,motor,,,,,,,
484,,320844,HierDy7wfwke53,s15ulp761x,ms1000201,motor,,68,img/motor_3.png,68,motor,3,291,1,0,0,,
null,,320952,HierDy7wfwke53,s15ulp761x,ms1000201,iti,,null,img/motor_3.png,68,motor,,,,,,,
364,,321330,HierDy7wfwke53,s15ulp761x,ms1000201,motor,,83,img/motor_2.png,83,motor,2,292,1,0,0,,
null,,321445,HierDy7wfwke53,s15ulp761x,ms1000201,iti,,null,img/motor_2.png,83,motor,,,,,,,
453,,321915,HierDy7wfwke53,s15ulp761x,ms1000201,motor,,76,img/motor_8.png,76,motor,8,293,1,0,0,,
null,,322024,HierDy7wfwke53,s15ulp761x,ms1000201,iti,,null,img/motor_8.png,76,motor,,,,,,,
388,,322427,HierDy7wfwke53,s15ulp761x,ms1000201,motor,,72,img/motor_6.png,74,motor,6,294,0,1,0,,
145,,322586,HierDy7wfwke53,s15ulp761x,ms1000201,motorRepeat,,74,img/motor_6.png,74,motor,6,294,1,0,0,,
null,,322695,HierDy7wfwke53,s15ulp761x,ms1000201,iti,,null,img/motor_6.png,74,motor,,,,,,,
412,,323116,HierDy7wfwke53,s15ulp761x,ms1000201,motor,,72,img/motor_5.png,72,motor,5,295,1,0,0,,
null,,323224,HierDy7wfwke53,s15ulp761x,ms1000201,iti,,null,img/motor_5.png,72,motor,,,,,,,
483,,323723,HierDy7wfwke53,s15ulp761x,ms1000201,motor,,65,img/motor_1.png,65,motor,1,296,1,0,0,,
null,,323838,HierDy7wfwke53,s15ulp761x,ms1000201,iti,,null,img/motor_1.png,65,motor,,,,,,,
421,,324274,HierDy7wfwke53,s15ulp761x,ms1000201,motor,,68,img/motor_3.png,68,motor,3,297,1,0,0,,
null,,324390,HierDy7wfwke53,s15ulp761x,ms1000201,iti,,null,img/motor_3.png,68,motor,,,,,,,
605,,325004,HierDy7wfwke53,s15ulp761x,ms1000201,motor,,74,img/motor_6.png,74,motor,6,298,1,0,0,,
null,,325112,HierDy7wfwke53,s15ulp761x,ms1000201,iti,,null,img/motor_6.png,74,motor,,,,,,,
499,,325627,HierDy7wfwke53,s15ulp761x,ms1000201,motor,,83,img/motor_3.png,68,motor,3,299,0,1,0,,
321,,325955,HierDy7wfwke53,s15ulp761x,ms1000201,motorRepeat,,74,img/motor_3.png,68,motor,3,299,0,1,0,,
185,,326147,HierDy7wfwke53,s15ulp761x,ms1000201,motorRepeat,,70,img/motor_3.png,68,motor,3,299,0,1,0,,
232,,326394,HierDy7wfwke53,s15ulp761x,ms1000201,motorRepeat,,68,img/motor_3.png,68,motor,3,299,1,0,0,,
null,,326503,HierDy7wfwke53,s15ulp761x,ms1000201,iti,,null,img/motor_3.png,68,motor,,,,,,,
492,,327003,HierDy7wfwke53,s15ulp761x,ms1000201,motor,,83,img/motor_2.png,83,motor,2,300,1,0,0,,
null,,327113,HierDy7wfwke53,s15ulp761x,ms1000201,iti,,null,img/motor_2.png,83,motor,,,,,,,
563,,327691,HierDy7wfwke53,s15ulp761x,ms1000201,motor,,70,img/motor_4.png,70,motor,4,301,1,0,0,,
null,,327809,HierDy7wfwke53,s15ulp761x,ms1000201,iti,,null,img/motor_4.png,70,motor,,,,,,,
538,,328362,HierDy7wfwke53,s15ulp761x,ms1000201,motor,,83,img/motor_2.png,83,motor,2,302,1,0,0,,
null,,328478,HierDy7wfwke53,s15ulp761x,ms1000201,iti,,null,img/motor_2.png,83,motor,,,,,,,
357,,328851,HierDy7wfwke53,s15ulp761x,ms1000201,motor,,83,img/motor_2.png,83,motor,2,303,1,0,0,,
null,,328960,HierDy7wfwke53,s15ulp761x,ms1000201,iti,,null,img/motor_2.png,83,motor,,,,,,,
588,,329562,HierDy7wfwke53,s15ulp761x,ms1000201,motor,,75,img/motor_7.png,75,motor,7,304,1,0,0,,
null,,329672,HierDy7wfwke53,s15ulp761x,ms1000201,iti,,null,img/motor_7.png,75,motor,,,,,,,
444,,330124,HierDy7wfwke53,s15ulp761x,ms1000201,motor,,72,img/motor_5.png,72,motor,5,305,1,0,0,,
null,,330232,HierDy7wfwke53,s15ulp761x,ms1000201,iti,,null,img/motor_5.png,72,motor,,,,,,,
603,,330844,HierDy7wfwke53,s15ulp761x,ms1000201,motor,,65,img/motor_1.png,65,motor,1,306,1,0,0,,
null,,330952,HierDy7wfwke53,s15ulp761x,ms1000201,iti,,null,img/motor_1.png,65,motor,,,,,,,
403,,331364,HierDy7wfwke53,s15ulp761x,ms1000201,motor,,72,img/motor_5.png,72,motor,5,307,1,0,0,,
null,,331479,HierDy7wfwke53,s15ulp761x,ms1000201,iti,,null,img/motor_5.png,72,motor,,,,,,,
555,,332044,HierDy7wfwke53,s15ulp761x,ms1000201,motor,,83,img/motor_2.png,83,motor,2,308,1,0,0,,
null,,332159,HierDy7wfwke53,s15ulp761x,ms1000201,iti,,null,img/motor_2.png,83,motor,,,,,,,
396,,332565,HierDy7wfwke53,s15ulp761x,ms1000201,motor,,83,img/motor_2.png,83,motor,2,309,1,0,0,,
null,,332679,HierDy7wfwke53,s15ulp761x,ms1000201,iti,,null,img/motor_2.png,83,motor,,,,,,,
484,,333172,HierDy7wfwke53,s15ulp761x,ms1000201,motor,,68,img/motor_4.png,70,motor,4,310,0,1,0,,
104,,333291,HierDy7wfwke53,s15ulp761x,ms1000201,motorRepeat,,70,img/motor_4.png,70,motor,4,310,1,0,0,,
null,,333400,HierDy7wfwke53,s15ulp761x,ms1000201,iti,,null,img/motor_4.png,70,motor,,,,,,,
475,,333884,HierDy7wfwke53,s15ulp761x,ms1000201,motor,,68,img/motor_3.png,68,motor,3,311,1,0,0,,
null,,333998,HierDy7wfwke53,s15ulp761x,ms1000201,iti,,null,img/motor_3.png,68,motor,,,,,,,
461,,334468,HierDy7wfwke53,s15ulp761x,ms1000201,motor,,65,img/motor_1.png,65,motor,1,312,1,0,0,,
null,,334583,HierDy7wfwke53,s15ulp761x,ms1000201,iti,,null,img/motor_1.png,65,motor,,,,,,,
652,,335244,HierDy7wfwke53,s15ulp761x,ms1000201,motor,,75,img/motor_7.png,75,motor,7,313,1,0,0,,
null,,335353,HierDy7wfwke53,s15ulp761x,ms1000201,iti,,null,img/motor_7.png,75,motor,,,,,,,
451,,335813,HierDy7wfwke53,s15ulp761x,ms1000201,motor,,72,img/motor_5.png,72,motor,5,314,1,0,0,,
null,,335928,HierDy7wfwke53,s15ulp761x,ms1000201,iti,,null,img/motor_5.png,72,motor,,,,,,,
428,,336364,HierDy7wfwke53,s15ulp761x,ms1000201,motor,,72,img/motor_5.png,72,motor,5,315,1,0,0,,
null,,336479,HierDy7wfwke53,s15ulp761x,ms1000201,iti,,null,img/motor_5.png,72,motor,,,,,,,
460,,336948,HierDy7wfwke53,s15ulp761x,ms1000201,motor,,75,img/motor_7.png,75,motor,7,316,1,0,0,,
null,,337063,HierDy7wfwke53,s15ulp761x,ms1000201,iti,,null,img/motor_7.png,75,motor,,,,,,,
460,,337532,HierDy7wfwke53,s15ulp761x,ms1000201,motor,,65,img/motor_1.png,65,motor,1,317,1,0,0,,
null,,337641,HierDy7wfwke53,s15ulp761x,ms1000201,iti,,null,img/motor_1.png,65,motor,,,,,,,
435,,338084,HierDy7wfwke53,s15ulp761x,ms1000201,motor,,70,img/motor_4.png,70,motor,4,318,1,0,0,,
null,,338192,HierDy7wfwke53,s15ulp761x,ms1000201,iti,,null,img/motor_4.png,70,motor,,,,,,,
508,,338708,HierDy7wfwke53,s15ulp761x,ms1000201,motor,,65,img/motor_1.png,65,motor,1,319,1,0,0,,
null,,338816,HierDy7wfwke53,s15ulp761x,ms1000201,iti,,null,img/motor_1.png,65,motor,,,,,,,
434,,339260,HierDy7wfwke53,s15ulp761x,ms1000201,motor,,76,img/motor_8.png,76,motor,8,320,1,0,0,,
null,,339369,HierDy7wfwke53,s15ulp761x,ms1000201,iti,,null,img/motor_8.png,76,motor,,,,,,,
460,,339836,HierDy7wfwke53,s15ulp761x,ms1000201,motor,,72,img/motor_4.png,70,motor,4,321,0,1,0,,
392,,340243,HierDy7wfwke53,s15ulp761x,ms1000201,motorRepeat,,70,img/motor_4.png,70,motor,4,321,1,0,0,,
null,,340352,HierDy7wfwke53,s15ulp761x,ms1000201,iti,,null,img/motor_4.png,70,motor,,,,,,,
484,,340852,HierDy7wfwke53,s15ulp761x,ms1000201,motor,,74,img/motor_6.png,74,motor,6,322,1,0,0,,
null,,340961,HierDy7wfwke53,s15ulp761x,ms1000201,iti,,null,img/motor_6.png,74,motor,,,,,,,
483,,341458,HierDy7wfwke53,s15ulp761x,ms1000201,motor,,70,img/motor_4.png,70,motor,4,323,1,0,0,,
null,,341574,HierDy7wfwke53,s15ulp761x,ms1000201,iti,,null,img/motor_4.png,70,motor,,,,,,,
509,,342098,HierDy7wfwke53,s15ulp761x,ms1000201,motor,,75,img/motor_7.png,75,motor,7,324,1,0,0,,
null,,342215,HierDy7wfwke53,s15ulp761x,ms1000201,iti,,null,img/motor_7.png,75,motor,,,,,,,
646,,342875,HierDy7wfwke53,s15ulp761x,ms1000201,motor,,68,img/motor_2.png,83,motor,2,325,0,1,0,,
289,,343172,HierDy7wfwke53,s15ulp761x,ms1000201,motorRepeat,,83,img/motor_2.png,83,motor,2,325,1,0,0,,
null,,343281,HierDy7wfwke53,s15ulp761x,ms1000201,iti,,null,img/motor_2.png,83,motor,,,,,,,
507,,343795,HierDy7wfwke53,s15ulp761x,ms1000201,motor,,76,img/motor_8.png,76,motor,8,326,1,0,0,,
null,,343910,HierDy7wfwke53,s15ulp761x,ms1000201,iti,,null,img/motor_8.png,76,motor,,,,,,,
613,,344539,HierDy7wfwke53,s15ulp761x,ms1000201,motor,,65,img/motor_1.png,65,motor,1,327,1,0,0,,
null,,344654,HierDy7wfwke53,s15ulp761x,ms1000201,iti,,null,img/motor_1.png,65,motor,,,,,,,
549,,345213,HierDy7wfwke53,s15ulp761x,ms1000201,motor,,72,img/motor_5.png,72,motor,5,328,1,0,0,,
null,,345320,HierDy7wfwke53,s15ulp761x,ms1000201,iti,,null,img/motor_5.png,72,motor,,,,,,,
460,,345789,HierDy7wfwke53,s15ulp761x,ms1000201,motor,,76,img/motor_8.png,76,motor,8,329,1,0,0,,
null,,345897,HierDy7wfwke53,s15ulp761x,ms1000201,iti,,null,img/motor_8.png,76,motor,,,,,,,
507,,346412,HierDy7wfwke53,s15ulp761x,ms1000201,motor,,72,img/motor_8.png,76,motor,8,330,0,1,0,,
22,,346448,HierDy7wfwke53,s15ulp761x,ms1000201,motorRepeat,,76,img/motor_8.png,76,motor,8,330,1,0,0,,
null,,346564,HierDy7wfwke53,s15ulp761x,ms1000201,iti,,null,img/motor_8.png,76,motor,,,,,,,
496,,347068,HierDy7wfwke53,s15ulp761x,ms1000201,motor,,65,img/motor_1.png,65,motor,1,331,1,0,0,,
null,,347177,HierDy7wfwke53,s15ulp761x,ms1000201,iti,,null,img/motor_1.png,65,motor,,,,,,,
692,,347883,HierDy7wfwke53,s15ulp761x,ms1000201,motor,,70,img/motor_4.png,70,motor,4,332,1,0,0,,
null,,347992,HierDy7wfwke53,s15ulp761x,ms1000201,iti,,null,img/motor_4.png,70,motor,,,,,,,
444,,348445,HierDy7wfwke53,s15ulp761x,ms1000201,motor,,72,img/motor_5.png,72,motor,5,333,1,0,0,,
null,,348559,HierDy7wfwke53,s15ulp761x,ms1000201,iti,,null,img/motor_5.png,72,motor,,,,,,,
580,,349148,HierDy7wfwke53,s15ulp761x,ms1000201,motor,,72,img/motor_5.png,72,motor,5,334,1,0,0,,
null,,349256,HierDy7wfwke53,s15ulp761x,ms1000201,iti,,null,img/motor_5.png,72,motor,,,,,,,
435,,349700,HierDy7wfwke53,s15ulp761x,ms1000201,motor,,65,img/motor_1.png,65,motor,1,335,1,0,0,,
null,,349815,HierDy7wfwke53,s15ulp761x,ms1000201,iti,,null,img/motor_1.png,65,motor,,,,,,,
660,,350484,HierDy7wfwke53,s15ulp761x,ms1000201,motor,,68,img/motor_3.png,68,motor,3,336,1,0,0,,
null,,350593,HierDy7wfwke53,s15ulp761x,ms1000201,iti,,null,img/motor_3.png,68,motor,,,,,,,
419,,351027,HierDy7wfwke53,s15ulp761x,ms1000201,motor,,65,img/motor_1.png,65,motor,1,337,1,0,0,,
null,,351142,HierDy7wfwke53,s15ulp761x,ms1000201,iti,,null,img/motor_1.png,65,motor,,,,,,,
461,,351613,HierDy7wfwke53,s15ulp761x,ms1000201,motor,,76,img/motor_8.png,76,motor,8,338,1,0,0,,
null,,351720,HierDy7wfwke53,s15ulp761x,ms1000201,iti,,null,img/motor_8.png,76,motor,,,,,,,
531,,352260,HierDy7wfwke53,s15ulp761x,ms1000201,motor,,68,img/motor_3.png,68,motor,3,339,1,0,0,,
null,,352369,HierDy7wfwke53,s15ulp761x,ms1000201,iti,,null,img/motor_3.png,68,motor,,,,,,,
707,,353084,HierDy7wfwke53,s15ulp761x,ms1000201,motor,,75,img/motor_7.png,75,motor,7,340,1,0,0,,
null,,353192,HierDy7wfwke53,s15ulp761x,ms1000201,iti,,null,img/motor_7.png,75,motor,,,,,,,
596,,353797,HierDy7wfwke53,s15ulp761x,ms1000201,motor,,76,img/motor_8.png,76,motor,8,341,1,0,0,,
null,,353904,HierDy7wfwke53,s15ulp761x,ms1000201,iti,,null,img/motor_8.png,76,motor,,,,,,,
579,,354493,HierDy7wfwke53,s15ulp761x,ms1000201,motor,,72,img/motor_5.png,72,motor,5,342,1,0,0,,
null,,354600,HierDy7wfwke53,s15ulp761x,ms1000201,iti,,null,img/motor_5.png,72,motor,,,,,,,
859,,355468,HierDy7wfwke53,s15ulp761x,ms1000201,motor,,74,img/motor_6.png,74,motor,6,343,1,0,0,,
null,,355577,HierDy7wfwke53,s15ulp761x,ms1000201,iti,,null,img/motor_6.png,74,motor,,,,,,,
579,,356171,HierDy7wfwke53,s15ulp761x,ms1000201,motor,,65,img/motor_1.png,65,motor,1,344,1,0,0,,
null,,356280,HierDy7wfwke53,s15ulp761x,ms1000201,iti,,null,img/motor_1.png,65,motor,,,,,,,
491,,356780,HierDy7wfwke53,s15ulp761x,ms1000201,motor,,70,img/motor_4.png,70,motor,4,345,1,0,0,,
null,,356889,HierDy7wfwke53,s15ulp761x,ms1000201,iti,,null,img/motor_4.png,70,motor,,,,,,,
571,,357469,HierDy7wfwke53,s15ulp761x,ms1000201,motor,,68,img/motor_3.png,68,motor,3,346,1,0,0,,
null,,357577,HierDy7wfwke53,s15ulp761x,ms1000201,iti,,null,img/motor_3.png,68,motor,,,,,,,
404,,357989,HierDy7wfwke53,s15ulp761x,ms1000201,motor,,70,img/motor_4.png,70,motor,4,347,1,0,0,,
null,,358097,HierDy7wfwke53,s15ulp761x,ms1000201,iti,,null,img/motor_4.png,70,motor,,,,,,,
515,,358620,HierDy7wfwke53,s15ulp761x,ms1000201,motor,,74,img/motor_7.png,75,motor,7,348,0,1,0,,
80,,358708,HierDy7wfwke53,s15ulp761x,ms1000201,motorRepeat,,75,img/motor_7.png,75,motor,7,348,1,0,0,,
null,,358817,HierDy7wfwke53,s15ulp761x,ms1000201,iti,,null,img/motor_7.png,75,motor,,,,,,,
507,,359339,HierDy7wfwke53,s15ulp761x,ms1000201,motor,,70,img/motor_4.png,70,motor,4,349,1,0,0,,
null,,359448,HierDy7wfwke53,s15ulp761x,ms1000201,iti,,null,img/motor_4.png,70,motor,,,,,,,
460,,359923,HierDy7wfwke53,s15ulp761x,ms1000201,motor,,75,img/motor_8.png,76,motor,8,350,0,1,0,,
257,,360195,HierDy7wfwke53,s15ulp761x,ms1000201,motorRepeat,,76,img/motor_8.png,76,motor,8,350,1,0,0,,
null,,360304,HierDy7wfwke53,s15ulp761x,ms1000201,iti,,null,img/motor_8.png,76,motor,,,,,,,
436,,360749,HierDy7wfwke53,s15ulp761x,ms1000201,motor,,72,img/motor_5.png,72,motor,5,351,1,0,0,,
null,,360864,HierDy7wfwke53,s15ulp761x,ms1000201,iti,,null,img/motor_5.png,72,motor,,,,,,,
379,,361256,HierDy7wfwke53,s15ulp761x,ms1000201,motor,,76,img/motor_7.png,75,motor,7,352,0,1,0,,
250,,361522,HierDy7wfwke53,s15ulp761x,ms1000201,motorRepeat,,75,img/motor_7.png,75,motor,7,352,1,0,0,,
null,,361631,HierDy7wfwke53,s15ulp761x,ms1000201,iti,,null,img/motor_7.png,75,motor,,,,,,,
428,,362069,HierDy7wfwke53,s15ulp761x,ms1000201,motor,,75,img/motor_7.png,75,motor,7,353,1,0,0,,
null,,362183,HierDy7wfwke53,s15ulp761x,ms1000201,iti,,null,img/motor_7.png,75,motor,,,,,,,
571,,362765,HierDy7wfwke53,s15ulp761x,ms1000201,motor,,68,img/motor_3.png,68,motor,3,354,1,0,0,,
null,,362880,HierDy7wfwke53,s15ulp761x,ms1000201,iti,,null,img/motor_3.png,68,motor,,,,,,,
516,,363411,HierDy7wfwke53,s15ulp761x,ms1000201,motor,,70,img/motor_4.png,70,motor,4,355,1,0,0,,
null,,363527,HierDy7wfwke53,s15ulp761x,ms1000201,iti,,null,img/motor_4.png,70,motor,,,,,,,
501,,364036,HierDy7wfwke53,s15ulp761x,ms1000201,motor,,72,img/motor_5.png,72,motor,5,356,1,0,0,,
null,,364150,HierDy7wfwke53,s15ulp761x,ms1000201,iti,,null,img/motor_5.png,72,motor,,,,,,,
548,,364714,HierDy7wfwke53,s15ulp761x,ms1000201,motor,,65,img/motor_1.png,65,motor,1,357,1,0,0,,
null,,364824,HierDy7wfwke53,s15ulp761x,ms1000201,iti,,null,img/motor_1.png,65,motor,,,,,,,
461,,365292,HierDy7wfwke53,s15ulp761x,ms1000201,motor,,74,img/motor_6.png,74,motor,6,358,1,0,0,,
null,,365401,HierDy7wfwke53,s15ulp761x,ms1000201,iti,,null,img/motor_6.png,74,motor,,,,,,,
564,,365973,HierDy7wfwke53,s15ulp761x,ms1000201,motor,,68,img/motor_3.png,68,motor,3,359,1,0,0,,
null,,366081,HierDy7wfwke53,s15ulp761x,ms1000201,iti,,null,img/motor_3.png,68,motor,,,,,,,
539,,366628,HierDy7wfwke53,s15ulp761x,ms1000201,motor,,65,img/motor_1.png,65,motor,1,360,1,0,0,,
null,,366736,HierDy7wfwke53,s15ulp761x,ms1000201,iti,,null,img/motor_1.png,65,motor,,,,,,,
467,,367212,HierDy7wfwke53,s15ulp761x,ms1000201,motor,,68,img/motor_2.png,83,motor,2,361,0,1,0,,
401,,367620,HierDy7wfwke53,s15ulp761x,ms1000201,motorRepeat,,83,img/motor_2.png,83,motor,2,361,1,0,0,,
null,,367730,HierDy7wfwke53,s15ulp761x,ms1000201,iti,,null,img/motor_2.png,83,motor,,,,,,,
435,,368173,HierDy7wfwke53,s15ulp761x,ms1000201,motor,,83,img/motor_1.png,65,motor,1,362,0,1,0,,
183,,368365,HierDy7wfwke53,s15ulp761x,ms1000201,motorRepeat,,65,img/motor_1.png,65,motor,1,362,1,0,0,,
null,,368474,HierDy7wfwke53,s15ulp761x,ms1000201,iti,,null,img/motor_1.png,65,motor,,,,,,,
483,,368971,HierDy7wfwke53,s15ulp761x,ms1000201,motor,,70,img/motor_4.png,70,motor,4,363,1,0,0,,
null,,369087,HierDy7wfwke53,s15ulp761x,ms1000201,iti,,null,img/motor_4.png,70,motor,,,,,,,
653,,369749,HierDy7wfwke53,s15ulp761x,ms1000201,motor,,75,img/motor_7.png,75,motor,7,364,1,0,0,,
null,,369856,HierDy7wfwke53,s15ulp761x,ms1000201,iti,,null,img/motor_7.png,75,motor,,,,,,,
571,,370436,HierDy7wfwke53,s15ulp761x,ms1000201,motor,,65,img/motor_1.png,65,motor,1,365,1,0,0,,
null,,370544,HierDy7wfwke53,s15ulp761x,ms1000201,iti,,null,img/motor_1.png,65,motor,,,,,,,
453,,371011,HierDy7wfwke53,s15ulp761x,ms1000201,motor,,68,img/motor_3.png,68,motor,3,366,1,0,0,,
null,,371128,HierDy7wfwke53,s15ulp761x,ms1000201,iti,,null,img/motor_3.png,68,motor,,,,,,,
420,,371563,HierDy7wfwke53,s15ulp761x,ms1000201,motor,,68,img/motor_3.png,68,motor,3,367,1,0,0,,
null,,371672,HierDy7wfwke53,s15ulp761x,ms1000201,iti,,null,img/motor_3.png,68,motor,,,,,,,
603,,372284,HierDy7wfwke53,s15ulp761x,ms1000201,motor,,74,img/motor_6.png,74,motor,6,368,1,0,0,,
null,,372393,HierDy7wfwke53,s15ulp761x,ms1000201,iti,,null,img/motor_6.png,74,motor,,,,,,,
556,,372956,HierDy7wfwke53,s15ulp761x,ms1000201,motor,,74,img/motor_6.png,74,motor,6,369,1,0,0,,
null,,373072,HierDy7wfwke53,s15ulp761x,ms1000201,iti,,null,img/motor_6.png,74,motor,,,,,,,
428,,373514,HierDy7wfwke53,s15ulp761x,ms1000201,motor,,72,img/motor_5.png,72,motor,5,370,1,0,0,,
null,,373624,HierDy7wfwke53,s15ulp761x,ms1000201,iti,,null,img/motor_5.png,72,motor,,,,,,,
500,,374133,HierDy7wfwke53,s15ulp761x,ms1000201,motor,,75,img/motor_7.png,75,motor,7,371,1,0,0,,
null,,374241,HierDy7wfwke53,s15ulp761x,ms1000201,iti,,null,img/motor_7.png,75,motor,,,,,,,
484,,374733,HierDy7wfwke53,s15ulp761x,ms1000201,motor,,65,img/motor_1.png,65,motor,1,372,1,0,0,,
null,,374848,HierDy7wfwke53,s15ulp761x,ms1000201,iti,,null,img/motor_1.png,65,motor,,,,,,,
428,,375292,HierDy7wfwke53,s15ulp761x,ms1000201,motor,,65,img/motor_1.png,65,motor,1,373,1,0,0,,
null,,375407,HierDy7wfwke53,s15ulp761x,ms1000201,iti,,null,img/motor_1.png,65,motor,,,,,,,
445,,375860,HierDy7wfwke53,s15ulp761x,ms1000201,motor,,76,img/motor_8.png,76,motor,8,374,1,0,0,,
null,,375975,HierDy7wfwke53,s15ulp761x,ms1000201,iti,,null,img/motor_8.png,76,motor,,,,,,,
652,,376636,HierDy7wfwke53,s15ulp761x,ms1000201,motor,,75,img/motor_7.png,75,motor,7,375,1,0,0,,
null,,376751,HierDy7wfwke53,s15ulp761x,ms1000201,iti,,null,img/motor_7.png,75,motor,,,,,,,
517,,377276,HierDy7wfwke53,s15ulp761x,ms1000201,motor,,72,img/motor_5.png,72,motor,5,376,1,0,0,,
null,,377384,HierDy7wfwke53,s15ulp761x,ms1000201,iti,,null,img/motor_5.png,72,motor,,,,,,,
755,,378148,HierDy7wfwke53,s15ulp761x,ms1000201,motor,,83,img/motor_2.png,83,motor,2,377,1,0,0,,
null,,378256,HierDy7wfwke53,s15ulp761x,ms1000201,iti,,null,img/motor_2.png,83,motor,,,,,,,
437,,378700,HierDy7wfwke53,s15ulp761x,ms1000201,motor,,72,img/motor_5.png,72,motor,5,378,1,0,0,,
null,,378809,HierDy7wfwke53,s15ulp761x,ms1000201,iti,,null,img/motor_5.png,72,motor,,,,,,,
515,,379332,HierDy7wfwke53,s15ulp761x,ms1000201,motor,,83,img/motor_2.png,83,motor,2,379,1,0,0,,
null,,379440,HierDy7wfwke53,s15ulp761x,ms1000201,iti,,null,img/motor_2.png,83,motor,,,,,,,
484,,379939,HierDy7wfwke53,s15ulp761x,ms1000201,motor,,65,img/motor_1.png,65,motor,1,380,1,0,0,,
null,,380048,HierDy7wfwke53,s15ulp761x,ms1000201,iti,,null,img/motor_1.png,65,motor,,,,,,,
548,,380604,HierDy7wfwke53,s15ulp761x,ms1000201,motor,,74,img/motor_6.png,74,motor,6,381,1,0,0,,
null,,380719,HierDy7wfwke53,s15ulp761x,ms1000201,iti,,null,img/motor_6.png,74,motor,,,,,,,
540,,381268,HierDy7wfwke53,s15ulp761x,ms1000201,motor,,68,img/motor_3.png,68,motor,3,382,1,0,0,,
null,,381377,HierDy7wfwke53,s15ulp761x,ms1000201,iti,,null,img/motor_3.png,68,motor,,,,,,,
459,,381844,HierDy7wfwke53,s15ulp761x,ms1000201,motor,,74,img/motor_6.png,74,motor,6,383,1,0,0,,
null,,381959,HierDy7wfwke53,s15ulp761x,ms1000201,iti,,null,img/motor_6.png,74,motor,,,,,,,
421,,382388,HierDy7wfwke53,s15ulp761x,ms1000201,motor,,76,img/motor_8.png,76,motor,8,384,1,0,0,,
null,,382504,HierDy7wfwke53,s15ulp761x,ms1000201,iti,,null,img/motor_8.png,76,motor,,,,,,,
515,,383035,HierDy7wfwke53,s15ulp761x,ms1000201,motor,,76,img/motor_8.png,76,motor,8,385,1,0,0,,
null,,383151,HierDy7wfwke53,s15ulp761x,ms1000201,iti,,null,img/motor_8.png,76,motor,,,,,,,
524,,383685,HierDy7wfwke53,s15ulp761x,ms1000201,motor,,74,img/motor_6.png,74,motor,6,386,1,0,0,,
null,,383800,HierDy7wfwke53,s15ulp761x,ms1000201,iti,,null,img/motor_6.png,74,motor,,,,,,,
476,,384285,HierDy7wfwke53,s15ulp761x,ms1000201,motor,,70,img/motor_4.png,70,motor,4,387,1,0,0,,
null,,384393,HierDy7wfwke53,s15ulp761x,ms1000201,iti,,null,img/motor_4.png,70,motor,,,,,,,
435,,384836,HierDy7wfwke53,s15ulp761x,ms1000201,motor,,65,img/motor_1.png,65,motor,1,388,1,0,0,,
null,,384951,HierDy7wfwke53,s15ulp761x,ms1000201,iti,,null,img/motor_1.png,65,motor,,,,,,,
484,,385444,HierDy7wfwke53,s15ulp761x,ms1000201,motor,,65,img/motor_1.png,65,motor,1,389,1,0,0,,
null,,385560,HierDy7wfwke53,s15ulp761x,ms1000201,iti,,null,img/motor_1.png,65,motor,,,,,,,
620,,386188,HierDy7wfwke53,s15ulp761x,ms1000201,motor,,75,img/motor_7.png,75,motor,7,390,1,0,0,,
null,,386297,HierDy7wfwke53,s15ulp761x,ms1000201,iti,,null,img/motor_7.png,75,motor,,,,,,,
515,,386820,HierDy7wfwke53,s15ulp761x,ms1000201,motor,,72,img/motor_5.png,72,motor,5,391,1,0,0,,
null,,386936,HierDy7wfwke53,s15ulp761x,ms1000201,iti,,null,img/motor_5.png,72,motor,,,,,,,
388,,387339,HierDy7wfwke53,s15ulp761x,ms1000201,motor,,74,img/motor_6.png,74,motor,6,392,1,0,0,,
null,,387447,HierDy7wfwke53,s15ulp761x,ms1000201,iti,,null,img/motor_6.png,74,motor,,,,,,,
493,,387948,HierDy7wfwke53,s15ulp761x,ms1000201,motor,,65,img/motor_1.png,65,motor,1,393,1,0,0,,
null,,388056,HierDy7wfwke53,s15ulp761x,ms1000201,iti,,null,img/motor_1.png,65,motor,,,,,,,
476,,388540,HierDy7wfwke53,s15ulp761x,ms1000201,motor,,74,img/motor_6.png,74,motor,6,394,1,0,0,,
null,,388655,HierDy7wfwke53,s15ulp761x,ms1000201,iti,,null,img/motor_6.png,74,motor,,,,,,,
556,,389227,HierDy7wfwke53,s15ulp761x,ms1000201,motor,,68,img/motor_3.png,68,motor,3,395,1,0,0,,
null,,389343,HierDy7wfwke53,s15ulp761x,ms1000201,iti,,null,img/motor_3.png,68,motor,,,,,,,
372,,389724,HierDy7wfwke53,s15ulp761x,ms1000201,motor,,68,img/motor_3.png,68,motor,3,396,1,0,0,,
null,,389833,HierDy7wfwke53,s15ulp761x,ms1000201,iti,,null,img/motor_3.png,68,motor,,,,,,,
411,,390251,HierDy7wfwke53,s15ulp761x,ms1000201,motor,,76,img/motor_8.png,76,motor,8,397,1,0,0,,
null,,390367,HierDy7wfwke53,s15ulp761x,ms1000201,iti,,null,img/motor_8.png,76,motor,,,,,,,
492,,390870,HierDy7wfwke53,s15ulp761x,ms1000201,motor,,68,img/motor_4.png,70,motor,4,398,0,1,0,,
269,,391148,HierDy7wfwke53,s15ulp761x,ms1000201,motorRepeat,,70,img/motor_4.png,70,motor,4,398,1,0,0,,
null,,391257,HierDy7wfwke53,s15ulp761x,ms1000201,iti,,null,img/motor_4.png,70,motor,,,,,,,
563,,391829,HierDy7wfwke53,s15ulp761x,ms1000201,motor,,68,img/motor_3.png,68,motor,3,399,1,0,0,,
null,,391944,HierDy7wfwke53,s15ulp761x,ms1000201,iti,,null,img/motor_3.png,68,motor,,,,,,,
667,,392629,HierDy7wfwke53,s15ulp761x,ms1000201,motor,,70,img/motor_4.png,70,motor,4,400,1,0,0,,
null,,392746,HierDy7wfwke53,s15ulp761x,ms1000201,iti,,null,img/motor_4.png,70,motor,,,,,,,
481,,393243,HierDy7wfwke53,s15ulp761x,ms1000201,motor,,74,img/motor_6.png,74,motor,6,401,1,0,0,,
null,,393353,HierDy7wfwke53,s15ulp761x,ms1000201,iti,,null,img/motor_6.png,74,motor,,,,,,,
428,,393795,HierDy7wfwke53,s15ulp761x,ms1000201,motor,,74,img/motor_6.png,74,motor,6,402,1,0,0,,
null,,393912,HierDy7wfwke53,s15ulp761x,ms1000201,iti,,null,img/motor_6.png,74,motor,,,,,,,
475,,394403,HierDy7wfwke53,s15ulp761x,ms1000201,motor,,76,img/motor_8.png,76,motor,8,403,1,0,0,,
null,,394513,HierDy7wfwke53,s15ulp761x,ms1000201,iti,,null,img/motor_8.png,76,motor,,,,,,,
491,,395012,HierDy7wfwke53,s15ulp761x,ms1000201,motor,,72,img/motor_5.png,72,motor,5,404,1,0,0,,
null,,395128,HierDy7wfwke53,s15ulp761x,ms1000201,iti,,null,img/motor_5.png,72,motor,,,,,,,
684,,395820,HierDy7wfwke53,s15ulp761x,ms1000201,motor,,68,img/motor_2.png,83,motor,2,405,0,1,0,,
257,,396085,HierDy7wfwke53,s15ulp761x,ms1000201,motorRepeat,,83,img/motor_2.png,83,motor,2,405,1,0,0,,
null,,396200,HierDy7wfwke53,s15ulp761x,ms1000201,iti,,null,img/motor_2.png,83,motor,,,,,,,
468,,396677,HierDy7wfwke53,s15ulp761x,ms1000201,motor,,70,img/motor_3.png,68,motor,3,406,0,1,0,,
503,,397195,HierDy7wfwke53,s15ulp761x,ms1000201,motorRepeat,,68,img/motor_3.png,68,motor,3,406,1,0,0,,
null,,397312,HierDy7wfwke53,s15ulp761x,ms1000201,iti,,null,img/motor_3.png,68,motor,,,,,,,
541,,397867,HierDy7wfwke53,s15ulp761x,ms1000201,motor,,70,img/motor_4.png,70,motor,4,407,1,0,0,,
null,,397984,HierDy7wfwke53,s15ulp761x,ms1000201,iti,,null,img/motor_4.png,70,motor,,,,,,,
580,,398572,HierDy7wfwke53,s15ulp761x,ms1000201,motor,,74,img/motor_7.png,75,motor,7,408,0,1,0,,
344,,398925,HierDy7wfwke53,s15ulp761x,ms1000201,motorRepeat,,75,img/motor_7.png,75,motor,7,408,1,0,0,,
null,,399034,HierDy7wfwke53,s15ulp761x,ms1000201,iti,,null,img/motor_7.png,75,motor,,,,,,,
538,,399588,HierDy7wfwke53,s15ulp761x,ms1000201,motor,,65,img/motor_1.png,65,motor,1,409,1,0,0,,
null,,399697,HierDy7wfwke53,s15ulp761x,ms1000201,iti,,null,img/motor_1.png,65,motor,,,,,,,
580,,400284,HierDy7wfwke53,s15ulp761x,ms1000201,motor,,72,img/motor_5.png,72,motor,5,410,1,0,0,,
null,,400400,HierDy7wfwke53,s15ulp761x,ms1000201,iti,,null,img/motor_5.png,72,motor,,,,,,,
586,,400997,HierDy7wfwke53,s15ulp761x,ms1000201,motor,,70,img/motor_4.png,70,motor,4,411,1,0,0,,
null,,401112,HierDy7wfwke53,s15ulp761x,ms1000201,iti,,null,img/motor_4.png,70,motor,,,,,,,
563,,401685,HierDy7wfwke53,s15ulp761x,ms1000201,motor,,65,img/motor_1.png,65,motor,1,412,1,0,0,,
null,,401801,HierDy7wfwke53,s15ulp761x,ms1000201,iti,,null,img/motor_1.png,65,motor,,,,,,,
500,,402315,HierDy7wfwke53,s15ulp761x,ms1000201,motor,,75,img/motor_7.png,75,motor,7,413,1,0,0,,
null,,402432,HierDy7wfwke53,s15ulp761x,ms1000201,iti,,null,img/motor_7.png,75,motor,,,,,,,
412,,402860,HierDy7wfwke53,s15ulp761x,ms1000201,motor,,76,img/motor_8.png,76,motor,8,414,1,0,0,,
null,,402976,HierDy7wfwke53,s15ulp761x,ms1000201,iti,,null,img/motor_8.png,76,motor,,,,,,,
492,,403476,HierDy7wfwke53,s15ulp761x,ms1000201,motor,,68,img/motor_3.png,68,motor,3,415,1,0,0,,
null,,403585,HierDy7wfwke53,s15ulp761x,ms1000201,iti,,null,img/motor_3.png,68,motor,,,,,,,
500,,404093,HierDy7wfwke53,s15ulp761x,ms1000201,motor,,75,img/motor_6.png,74,motor,6,416,0,1,0,,
7,,404107,HierDy7wfwke53,s15ulp761x,ms1000201,motorRepeat,,74,img/motor_6.png,74,motor,6,416,1,0,0,,
null,,404215,HierDy7wfwke53,s15ulp761x,ms1000201,iti,,null,img/motor_6.png,74,motor,,,,,,,
454,,404677,HierDy7wfwke53,s15ulp761x,ms1000201,motor,,72,img/motor_5.png,72,motor,5,417,1,0,0,,
null,,404792,HierDy7wfwke53,s15ulp761x,ms1000201,iti,,null,img/motor_5.png,72,motor,,,,,,,
379,,405188,HierDy7wfwke53,s15ulp761x,ms1000201,motor,,76,img/motor_8.png,76,motor,8,418,1,0,0,,
null,,405304,HierDy7wfwke53,s15ulp761x,ms1000201,iti,,null,img/motor_8.png,76,motor,,,,,,,
413,,405725,HierDy7wfwke53,s15ulp761x,ms1000201,motor,,72,img/motor_5.png,72,motor,5,419,1,0,0,,
null,,405841,HierDy7wfwke53,s15ulp761x,ms1000201,iti,,null,img/motor_5.png,72,motor,,,,,,,
428,,406276,HierDy7wfwke53,s15ulp761x,ms1000201,motor,,76,img/motor_8.png,76,motor,8,420,1,0,0,,
null,,406384,HierDy7wfwke53,s15ulp761x,ms1000201,iti,,null,img/motor_8.png,76,motor,,,,,,,
508,,406908,HierDy7wfwke53,s15ulp761x,ms1000201,motor,,74,img/motor_6.png,74,motor,6,421,1,0,0,,
null,,407023,HierDy7wfwke53,s15ulp761x,ms1000201,iti,,null,img/motor_6.png,74,motor,,,,,,,
603,,407644,HierDy7wfwke53,s15ulp761x,ms1000201,motor,,68,img/motor_2.png,83,motor,2,422,0,1,0,,
280,,407939,HierDy7wfwke53,s15ulp761x,ms1000201,motorRepeat,,83,img/motor_2.png,83,motor,2,422,1,0,0,,
null,,408055,HierDy7wfwke53,s15ulp761x,ms1000201,iti,,null,img/motor_2.png,83,motor,,,,,,,
589,,408653,HierDy7wfwke53,s15ulp761x,ms1000201,motor,,75,img/motor_7.png,75,motor,7,423,1,0,0,,
null,,408762,HierDy7wfwke53,s15ulp761x,ms1000201,iti,,null,img/motor_7.png,75,motor,,,,,,,
562,,409339,HierDy7wfwke53,s15ulp761x,ms1000201,motor,,70,img/motor_4.png,70,motor,4,424,1,0,0,,
null,,409449,HierDy7wfwke53,s15ulp761x,ms1000201,iti,,null,img/motor_4.png,70,motor,,,,,,,
421,,409876,HierDy7wfwke53,s15ulp761x,ms1000201,motor,,70,img/motor_4.png,70,motor,4,425,1,0,0,,
null,,409991,HierDy7wfwke53,s15ulp761x,ms1000201,iti,,null,img/motor_4.png,70,motor,,,,,,,
508,,410509,HierDy7wfwke53,s15ulp761x,ms1000201,motor,,74,img/motor_6.png,74,motor,6,426,1,0,0,,
null,,410625,HierDy7wfwke53,s15ulp761x,ms1000201,iti,,null,img/motor_6.png,74,motor,,,,,,,
443,,411083,HierDy7wfwke53,s15ulp761x,ms1000201,motor,,65,img/motor_1.png,65,motor,1,427,1,0,0,,
null,,411194,HierDy7wfwke53,s15ulp761x,ms1000201,iti,,null,img/motor_1.png,65,motor,,,,,,,
500,,411708,HierDy7wfwke53,s15ulp761x,ms1000201,motor,,75,img/motor_7.png,75,motor,7,428,1,0,0,,
null,,411817,HierDy7wfwke53,s15ulp761x,ms1000201,iti,,null,img/motor_7.png,75,motor,,,,,,,
386,,412219,HierDy7wfwke53,s15ulp761x,ms1000201,motor,,76,img/motor_8.png,76,motor,8,429,1,0,0,,
null,,412329,HierDy7wfwke53,s15ulp761x,ms1000201,iti,,null,img/motor_8.png,76,motor,,,,,,,
651,,412989,HierDy7wfwke53,s15ulp761x,ms1000201,motor,,83,img/motor_2.png,83,motor,2,430,1,0,0,,
null,,413098,HierDy7wfwke53,s15ulp761x,ms1000201,iti,,null,img/motor_2.png,83,motor,,,,,,,
363,,413469,HierDy7wfwke53,s15ulp761x,ms1000201,motor,,74,img/motor_6.png,74,motor,6,431,1,0,0,,
null,,413585,HierDy7wfwke53,s15ulp761x,ms1000201,iti,,null,img/motor_6.png,74,motor,,,,,,,
474,,414068,HierDy7wfwke53,s15ulp761x,ms1000201,motor,,76,img/motor_8.png,76,motor,8,432,1,0,0,,
null,,414184,HierDy7wfwke53,s15ulp761x,ms1000201,iti,,null,img/motor_8.png,76,motor,,,,,,,
476,,414669,HierDy7wfwke53,s15ulp761x,ms1000201,motor,,74,img/motor_4.png,70,motor,4,433,0,1,0,,
272,,414949,HierDy7wfwke53,s15ulp761x,ms1000201,motorRepeat,,70,img/motor_4.png,70,motor,4,433,1,0,0,,
null,,415064,HierDy7wfwke53,s15ulp761x,ms1000201,iti,,null,img/motor_4.png,70,motor,,,,,,,
444,,415517,HierDy7wfwke53,s15ulp761x,ms1000201,motor,,74,img/motor_7.png,75,motor,7,434,0,1,0,,
96,,415627,HierDy7wfwke53,s15ulp761x,ms1000201,motorRepeat,,75,img/motor_7.png,75,motor,7,434,1,0,0,,
null,,415736,HierDy7wfwke53,s15ulp761x,ms1000201,iti,,null,img/motor_7.png,75,motor,,,,,,,
515,,416261,HierDy7wfwke53,s15ulp761x,ms1000201,motor,,70,img/motor_4.png,70,motor,4,435,1,0,0,,
null,,416370,HierDy7wfwke53,s15ulp761x,ms1000201,iti,,null,img/motor_4.png,70,motor,,,,,,,
499,,416877,HierDy7wfwke53,s15ulp761x,ms1000201,motor,,65,img/motor_1.png,65,motor,1,436,1,0,0,,
null,,416992,HierDy7wfwke53,s15ulp761x,ms1000201,iti,,null,img/motor_1.png,65,motor,,,,,,,
476,,417478,HierDy7wfwke53,s15ulp761x,ms1000201,motor,,70,img/motor_4.png,70,motor,4,437,1,0,0,,
null,,417593,HierDy7wfwke53,s15ulp761x,ms1000201,iti,,null,img/motor_4.png,70,motor,,,,,,,
442,,418052,HierDy7wfwke53,s15ulp761x,ms1000201,motor,,65,img/motor_1.png,65,motor,1,438,1,0,0,,
null,,418162,HierDy7wfwke53,s15ulp761x,ms1000201,iti,,null,img/motor_1.png,65,motor,,,,,,,
516,,418685,HierDy7wfwke53,s15ulp761x,ms1000201,motor,,74,img/motor_6.png,74,motor,6,439,1,0,0,,
null,,418794,HierDy7wfwke53,s15ulp761x,ms1000201,iti,,null,img/motor_6.png,74,motor,,,,,,,
474,,419277,HierDy7wfwke53,s15ulp761x,ms1000201,motor,,65,img/motor_1.png,65,motor,1,440,1,0,0,,
null,,419385,HierDy7wfwke53,s15ulp761x,ms1000201,iti,,null,img/motor_1.png,65,motor,,,,,,,
379,,419773,HierDy7wfwke53,s15ulp761x,ms1000201,motor,,74,img/motor_5.png,72,motor,5,441,0,1,0,,
399,,420180,HierDy7wfwke53,s15ulp761x,ms1000201,motorRepeat,,72,img/motor_5.png,72,motor,5,441,1,0,0,,
null,,420289,HierDy7wfwke53,s15ulp761x,ms1000201,iti,,null,img/motor_5.png,72,motor,,,,,,,
420,,420716,HierDy7wfwke53,s15ulp761x,ms1000201,motor,,72,img/motor_6.png,74,motor,6,442,0,1,0,,
161,,420885,HierDy7wfwke53,s15ulp761x,ms1000201,motorRepeat,,74,img/motor_6.png,74,motor,6,442,1,0,0,,
null,,421001,HierDy7wfwke53,s15ulp761x,ms1000201,iti,,null,img/motor_6.png,74,motor,,,,,,,
499,,421516,HierDy7wfwke53,s15ulp761x,ms1000201,motor,,72,img/motor_5.png,72,motor,5,443,1,0,0,,
null,,421632,HierDy7wfwke53,s15ulp761x,ms1000201,iti,,null,img/motor_5.png,72,motor,,,,,,,
340,,421981,HierDy7wfwke53,s15ulp761x,ms1000201,motor,,74,img/motor_7.png,75,motor,7,444,0,1,0,,
311,,422300,HierDy7wfwke53,s15ulp761x,ms1000201,motorRepeat,,75,img/motor_7.png,75,motor,7,444,1,0,0,,
null,,422416,HierDy7wfwke53,s15ulp761x,ms1000201,iti,,null,img/motor_7.png,75,motor,,,,,,,
611,,423043,HierDy7wfwke53,s15ulp761x,ms1000201,motor,,83,img/motor_2.png,83,motor,2,445,1,0,0,,
1,,423160,HierDy7wfwke53,s15ulp761x,ms1000201,iti,,68,img/motor_2.png,83,motor,,,,,,,
548,,423723,HierDy7wfwke53,s15ulp761x,ms1000201,motor,,68,img/motor_3.png,68,motor,3,446,1,0,0,,
null,,423833,HierDy7wfwke53,s15ulp761x,ms1000201,iti,,null,img/motor_3.png,68,motor,,,,,,,
396,,424237,HierDy7wfwke53,s15ulp761x,ms1000201,motor,,75,img/motor_7.png,75,motor,7,447,1,0,0,,
null,,424346,HierDy7wfwke53,s15ulp761x,ms1000201,iti,,null,img/motor_7.png,75,motor,,,,,,,
498,,424852,HierDy7wfwke53,s15ulp761x,ms1000201,motor,,65,img/motor_1.png,65,motor,1,448,1,0,0,,
null,,424962,HierDy7wfwke53,s15ulp761x,ms1000201,iti,,null,img/motor_1.png,65,motor,,,,,,,
539,,425509,HierDy7wfwke53,s15ulp761x,ms1000201,motor,,72,img/motor_6.png,74,motor,6,449,0,1,0,,
246,,425765,HierDy7wfwke53,s15ulp761x,ms1000201,motorRepeat,,74,img/motor_6.png,74,motor,6,449,1,0,0,,
null,,425874,HierDy7wfwke53,s15ulp761x,ms1000201,iti,,null,img/motor_6.png,74,motor,,,,,,,
803,,426685,HierDy7wfwke53,s15ulp761x,ms1000201,motor,,70,img/motor_4.png,70,motor,4,450,1,0,0,,
null,,426794,HierDy7wfwke53,s15ulp761x,ms1000201,iti,,null,img/motor_4.png,70,motor,,,,,,,
539,,427341,HierDy7wfwke53,s15ulp761x,ms1000201,motor,,65,img/motor_1.png,65,motor,1,451,1,0,0,,
null,,427457,HierDy7wfwke53,s15ulp761x,ms1000201,iti,,null,img/motor_1.png,65,motor,,,,,,,
436,,427901,HierDy7wfwke53,s15ulp761x,ms1000201,motor,,65,img/motor_1.png,65,motor,1,452,1,0,0,,
null,,428017,HierDy7wfwke53,s15ulp761x,ms1000201,iti,,null,img/motor_1.png,65,motor,,,,,,,
500,,428532,HierDy7wfwke53,s15ulp761x,ms1000201,motor,,83,img/motor_2.png,83,motor,2,453,1,0,0,,
null,,428648,HierDy7wfwke53,s15ulp761x,ms1000201,iti,,null,img/motor_2.png,83,motor,,,,,,,
356,,429013,HierDy7wfwke53,s15ulp761x,ms1000201,motor,,83,img/motor_2.png,83,motor,2,454,1,0,0,,
null,,429129,HierDy7wfwke53,s15ulp761x,ms1000201,iti,,null,img/motor_2.png,83,motor,,,,,,,
532,,429669,HierDy7wfwke53,s15ulp761x,ms1000201,motor,,75,img/motor_6.png,74,motor,6,455,0,1,0,,
224,,429901,HierDy7wfwke53,s15ulp761x,ms1000201,motorRepeat,,74,img/motor_6.png,74,motor,6,455,1,0,0,,
null,,430016,HierDy7wfwke53,s15ulp761x,ms1000201,iti,,null,img/motor_6.png,74,motor,,,,,,,
548,,430574,HierDy7wfwke53,s15ulp761x,ms1000201,motor,,68,img/motor_3.png,68,motor,3,456,1,0,0,,
null,,430689,HierDy7wfwke53,s15ulp761x,ms1000201,iti,,null,img/motor_3.png,68,motor,,,,,,,
403,,431101,HierDy7wfwke53,s15ulp761x,ms1000201,motor,,74,img/motor_7.png,75,motor,7,457,0,1,0,,
216,,431325,HierDy7wfwke53,s15ulp761x,ms1000201,motorRepeat,,75,img/motor_7.png,75,motor,7,457,1,0,0,,
null,,431441,HierDy7wfwke53,s15ulp761x,ms1000201,iti,,null,img/motor_7.png,75,motor,,,,,,,
379,,431829,HierDy7wfwke53,s15ulp761x,ms1000201,motor,,75,img/motor_8.png,76,motor,8,458,0,1,0,,
71,,431916,HierDy7wfwke53,s15ulp761x,ms1000201,motorRepeat,,76,img/motor_8.png,76,motor,8,458,1,0,0,,
null,,432025,HierDy7wfwke53,s15ulp761x,ms1000201,iti,,null,img/motor_8.png,76,motor,,,,,,,
452,,432485,HierDy7wfwke53,s15ulp761x,ms1000201,motor,,76,img/motor_8.png,76,motor,8,459,1,0,0,,
null,,432593,HierDy7wfwke53,s15ulp761x,ms1000201,iti,,null,img/motor_8.png,76,motor,,,,,,,
547,,433156,HierDy7wfwke53,s15ulp761x,ms1000201,motor,,74,img/motor_6.png,74,motor,6,460,1,0,0,,
null,,433273,HierDy7wfwke53,s15ulp761x,ms1000201,iti,,null,img/motor_6.png,74,motor,,,,,,,
556,,433844,HierDy7wfwke53,s15ulp761x,ms1000201,motor,,83,img/motor_2.png,83,motor,2,461,1,0,0,,
null,,433953,HierDy7wfwke53,s15ulp761x,ms1000201,iti,,null,img/motor_2.png,83,motor,,,,,,,
524,,434484,HierDy7wfwke53,s15ulp761x,ms1000201,motor,,75,img/motor_7.png,75,motor,7,462,1,0,0,,
null,,434593,HierDy7wfwke53,s15ulp761x,ms1000201,iti,,null,img/motor_7.png,75,motor,,,,,,,
588,,435189,HierDy7wfwke53,s15ulp761x,ms1000201,motor,,74,img/motor_6.png,74,motor,6,463,1,0,0,,
null,,435298,HierDy7wfwke53,s15ulp761x,ms1000201,iti,,null,img/motor_6.png,74,motor,,,,,,,
411,,435717,HierDy7wfwke53,s15ulp761x,ms1000201,motor,,74,img/motor_6.png,74,motor,6,464,1,0,0,,
null,,435833,HierDy7wfwke53,s15ulp761x,ms1000201,iti,,null,img/motor_6.png,74,motor,,,,,,,
564,,436412,HierDy7wfwke53,s15ulp761x,ms1000201,motor,,83,img/motor_2.png,83,motor,2,465,1,0,0,,
null,,436528,HierDy7wfwke53,s15ulp761x,ms1000201,iti,,null,img/motor_2.png,83,motor,,,,,,,
621,,437158,HierDy7wfwke53,s15ulp761x,ms1000201,motor,,72,img/motor_5.png,72,motor,5,466,1,0,0,,
null,,437267,HierDy7wfwke53,s15ulp761x,ms1000201,iti,,null,img/motor_5.png,72,motor,,,,,,,
570,,437845,HierDy7wfwke53,s15ulp761x,ms1000201,motor,,70,img/motor_4.png,70,motor,4,467,1,0,0,,
null,,437961,HierDy7wfwke53,s15ulp761x,ms1000201,iti,,null,img/motor_4.png,70,motor,,,,,,,
467,,438444,HierDy7wfwke53,s15ulp761x,ms1000201,motor,,76,img/motor_8.png,76,motor,8,468,1,0,0,,
null,,438553,HierDy7wfwke53,s15ulp761x,ms1000201,iti,,null,img/motor_8.png,76,motor,,,,,,,
467,,439028,HierDy7wfwke53,s15ulp761x,ms1000201,motor,,74,img/motor_6.png,74,motor,6,469,1,0,0,,
null,,439136,HierDy7wfwke53,s15ulp761x,ms1000201,iti,,null,img/motor_6.png,74,motor,,,,,,,
404,,439556,HierDy7wfwke53,s15ulp761x,ms1000201,motor,,76,img/motor_8.png,76,motor,8,470,1,0,0,,
null,,439666,HierDy7wfwke53,s15ulp761x,ms1000201,iti,,null,img/motor_8.png,76,motor,,,,,,,
667,,440341,HierDy7wfwke53,s15ulp761x,ms1000201,motor,,83,img/motor_2.png,83,motor,2,471,1,0,0,,
null,,440450,HierDy7wfwke53,s15ulp761x,ms1000201,iti,,null,img/motor_2.png,83,motor,,,,,,,
467,,440925,HierDy7wfwke53,s15ulp761x,ms1000201,motor,,70,img/motor_4.png,70,motor,4,472,1,0,0,,
null,,441034,HierDy7wfwke53,s15ulp761x,ms1000201,iti,,null,img/motor_4.png,70,motor,,,,,,,
603,,441645,HierDy7wfwke53,s15ulp761x,ms1000201,motor,,72,img/motor_6.png,74,motor,6,473,0,1,0,,
136,,441789,HierDy7wfwke53,s15ulp761x,ms1000201,motorRepeat,,74,img/motor_6.png,74,motor,6,473,1,0,0,,
null,,441904,HierDy7wfwke53,s15ulp761x,ms1000201,iti,,null,img/motor_6.png,74,motor,,,,,,,
627,,442541,HierDy7wfwke53,s15ulp761x,ms1000201,motor,,83,img/motor_2.png,83,motor,2,474,1,0,0,,
null,,442657,HierDy7wfwke53,s15ulp761x,ms1000201,iti,,null,img/motor_2.png,83,motor,,,,,,,
444,,443109,HierDy7wfwke53,s15ulp761x,ms1000201,motor,,74,img/motor_6.png,74,motor,6,475,1,0,0,,
null,,443225,HierDy7wfwke53,s15ulp761x,ms1000201,iti,,null,img/motor_6.png,74,motor,,,,,,,
531,,443765,HierDy7wfwke53,s15ulp761x,ms1000201,motor,,70,img/motor_4.png,70,motor,4,476,1,0,0,,
null,,443874,HierDy7wfwke53,s15ulp761x,ms1000201,iti,,null,img/motor_4.png,70,motor,,,,,,,
403,,444285,HierDy7wfwke53,s15ulp761x,ms1000201,motor,,70,img/motor_4.png,70,motor,4,477,1,0,0,,
null,,444394,HierDy7wfwke53,s15ulp761x,ms1000201,iti,,null,img/motor_4.png,70,motor,,,,,,,
515,,444916,HierDy7wfwke53,s15ulp761x,ms1000201,motor,,74,img/motor_6.png,74,motor,6,478,1,0,0,,
null,,445032,HierDy7wfwke53,s15ulp761x,ms1000201,iti,,null,img/motor_6.png,74,motor,,,,,,,
509,,445549,HierDy7wfwke53,s15ulp761x,ms1000201,motor,,74,img/motor_7.png,75,motor,7,479,0,1,0,,
88,,445652,HierDy7wfwke53,s15ulp761x,ms1000201,motorRepeat,,75,img/motor_7.png,75,motor,7,479,1,0,0,,
null,,445761,HierDy7wfwke53,s15ulp761x,ms1000201,iti,,null,img/motor_7.png,75,motor,,,,,,,
412,,446182,HierDy7wfwke53,s15ulp761x,ms1000201,motor,,75,img/motor_7.png,75,motor,7,480,1,0,0,,
null,,446290,HierDy7wfwke53,s15ulp761x,ms1000201,iti,,null,img/motor_7.png,75,motor,,,,,,,
515,,446813,HierDy7wfwke53,s15ulp761x,ms1000201,motor,,74,img/motor_6.png,74,motor,6,481,1,0,0,,
null,,446928,HierDy7wfwke53,s15ulp761x,ms1000201,iti,,null,img/motor_6.png,74,motor,,,,,,,
660,,447604,HierDy7wfwke53,s15ulp761x,ms1000201,motor,,70,img/motor_4.png,70,motor,4,482,1,0,0,,
null,,447720,HierDy7wfwke53,s15ulp761x,ms1000201,iti,,null,img/motor_4.png,70,motor,,,,,,,
588,,448324,HierDy7wfwke53,s15ulp761x,ms1000201,motor,,68,img/motor_3.png,68,motor,3,483,1,0,0,,
null,,448441,HierDy7wfwke53,s15ulp761x,ms1000201,iti,,null,img/motor_3.png,68,motor,,,,,,,
395,,448852,HierDy7wfwke53,s15ulp761x,ms1000201,motor,,75,img/motor_6.png,74,motor,6,484,0,1,0,,
312,,449173,HierDy7wfwke53,s15ulp761x,ms1000201,motorRepeat,,74,img/motor_6.png,74,motor,6,484,1,0,0,,
null,,449289,HierDy7wfwke53,s15ulp761x,ms1000201,iti,,null,img/motor_6.png,74,motor,,,,,,,
