"rt","responses","time_elapsed","subject","prolificID","demoID","trialType","question_order","key_press","stim","corrresp","phase","stimNum","trialNum","corr","repeatTrial","motorSwitch","pracCounter","hierarchy"
"320781","{""Q0"":""ms1000379""}","320816","HierDyyptfudne","flun8cl57a","ms1000379","","","","","","","","","","","","",""
"1088","","321911","HierDyyptfudne","flun8cl57a","ms1000379","","","","","","","","","","","","",""
"","","324010","HierDyyptfudne","flun8cl57a","ms1000379","fullscreen","","","","","","","","","","","",""
"13650","{""Vision"":""Yes"",""Handedness"":""Right"",""Gender"":""female""}","337679","HierDyyptfudne","flun8cl57a","ms1000379","","[0,1,2]","","","","","","","","","","",""
"3706","{""Q0"":""19""}","341395","HierDyyptfudne","flun8cl57a","ms1000379","","","","","","","","","","","","",""
"83222","","424636","HierDyyptfudne","flun8cl57a","ms1000379","","","","","","","","","","","","",""
"1870","","426524","HierDyyptfudne","flun8cl57a","ms1000379","motor","","68","img/motor_3.png","68","motor","3","1","1","0","0","",""
"null","","426642","HierDyyptfudne","flun8cl57a","ms1000379","iti","","null","img/motor_3.png","68","motor","","","","","","",""
"692","","427341","HierDyyptfudne","flun8cl57a","ms1000379","motor","","75","img/motor_7.png","75","motor","7","2","1","0","0","",""
"null","","427450","HierDyyptfudne","flun8cl57a","ms1000379","iti","","null","img/motor_7.png","75","motor","","","","","","",""
"475","","427932","HierDyyptfudne","flun8cl57a","ms1000379","motor","","65","img/motor_1.png","65","motor","1","3","1","0","0","",""
"null","","428048","HierDyyptfudne","flun8cl57a","ms1000379","iti","","null","img/motor_1.png","65","motor","","","","","","",""
"1293","","429350","HierDyyptfudne","flun8cl57a","ms1000379","motor","","74","img/motor_6.png","74","motor","6","4","1","0","0","",""
"null","","429458","HierDyyptfudne","flun8cl57a","ms1000379","iti","","null","img/motor_6.png","74","motor","","","","","","",""
"523","","429989","HierDyyptfudne","flun8cl57a","ms1000379","motor","","72","img/motor_5.png","72","motor","5","5","1","0","0","",""
"null","","430098","HierDyyptfudne","flun8cl57a","ms1000379","iti","","null","img/motor_5.png","72","motor","","","","","","",""
"572","","430684","HierDyyptfudne","flun8cl57a","ms1000379","motor","","68","img/motor_3.png","68","motor","3","6","1","0","0","",""
"null","","430793","HierDyyptfudne","flun8cl57a","ms1000379","iti","","null","img/motor_3.png","68","motor","","","","","","",""
"613","","431413","HierDyyptfudne","flun8cl57a","ms1000379","motor","","83","img/motor_2.png","83","motor","2","7","1","0","0","",""
"null","","431527","HierDyyptfudne","flun8cl57a","ms1000379","iti","","null","img/motor_2.png","83","motor","","","","","","",""
"486","","432021","HierDyyptfudne","flun8cl57a","ms1000379","motor","","70","img/motor_4.png","70","motor","4","8","1","0","0","",""
"null","","432136","HierDyyptfudne","flun8cl57a","ms1000379","iti","","null","img/motor_4.png","70","motor","","","","","","",""
"372","","432517","HierDyyptfudne","flun8cl57a","ms1000379","motor","","72","img/motor_5.png","72","motor","5","9","1","0","0","",""
"null","","432625","HierDyyptfudne","flun8cl57a","ms1000379","iti","","null","img/motor_5.png","72","motor","","","","","","",""
"412","","433046","HierDyyptfudne","flun8cl57a","ms1000379","motor","","68","img/motor_3.png","68","motor","3","10","1","0","0","",""
"null","","433160","HierDyyptfudne","flun8cl57a","ms1000379","iti","","null","img/motor_3.png","68","motor","","","","","","",""
"461","","433636","HierDyyptfudne","flun8cl57a","ms1000379","motor","","70","img/motor_4.png","70","motor","4","11","1","0","0","",""
"null","","433753","HierDyyptfudne","flun8cl57a","ms1000379","iti","","null","img/motor_4.png","70","motor","","","","","","",""
"356","","434117","HierDyyptfudne","flun8cl57a","ms1000379","motor","","70","img/motor_4.png","70","motor","4","12","1","0","0","",""
"null","","434225","HierDyyptfudne","flun8cl57a","ms1000379","iti","","null","img/motor_4.png","70","motor","","","","","","",""
"532","","434765","HierDyyptfudne","flun8cl57a","ms1000379","motor","","74","img/motor_6.png","74","motor","6","13","1","0","0","",""
"null","","434874","HierDyyptfudne","flun8cl57a","ms1000379","iti","","null","img/motor_6.png","74","motor","","","","","","",""
"547","","435429","HierDyyptfudne","flun8cl57a","ms1000379","motor","","72","img/motor_5.png","72","motor","5","14","1","0","0","",""
"null","","435544","HierDyyptfudne","flun8cl57a","ms1000379","iti","","null","img/motor_5.png","72","motor","","","","","","",""
"470","","436021","HierDyyptfudne","flun8cl57a","ms1000379","motor","","75","img/motor_7.png","75","motor","7","15","1","0","0","",""
"null","","436136","HierDyyptfudne","flun8cl57a","ms1000379","iti","","null","img/motor_7.png","75","motor","","","","","","",""
"516","","436661","HierDyyptfudne","flun8cl57a","ms1000379","motor","","83","img/motor_2.png","83","motor","2","16","1","0","0","",""
"null","","436769","HierDyyptfudne","flun8cl57a","ms1000379","iti","","null","img/motor_2.png","83","motor","","","","","","",""
"405","","437181","HierDyyptfudne","flun8cl57a","ms1000379","motor","","70","img/motor_4.png","70","motor","4","17","1","0","0","",""
"null","","437289","HierDyyptfudne","flun8cl57a","ms1000379","iti","","null","img/motor_4.png","70","motor","","","","","","",""
"541","","437836","HierDyyptfudne","flun8cl57a","ms1000379","motor","","74","img/motor_6.png","74","motor","6","18","1","0","0","",""
"null","","437945","HierDyyptfudne","flun8cl57a","ms1000379","iti","","null","img/motor_6.png","74","motor","","","","","","",""
"494","","438452","HierDyyptfudne","flun8cl57a","ms1000379","motor","","65","img/motor_1.png","65","motor","1","19","1","0","0","",""
"null","","438566","HierDyyptfudne","flun8cl57a","ms1000379","iti","","null","img/motor_1.png","65","motor","","","","","","",""
"406","","438988","HierDyyptfudne","flun8cl57a","ms1000379","motor","","72","img/motor_5.png","72","motor","5","20","1","0","0","",""
"null","","439096","HierDyyptfudne","flun8cl57a","ms1000379","iti","","null","img/motor_5.png","72","motor","","","","","","",""
"380","","439492","HierDyyptfudne","flun8cl57a","ms1000379","motor","","74","img/motor_6.png","74","motor","6","21","1","0","0","",""
"null","","439600","HierDyyptfudne","flun8cl57a","ms1000379","iti","","null","img/motor_6.png","74","motor","","","","","","",""
"389","","439997","HierDyyptfudne","flun8cl57a","ms1000379","motor","","76","img/motor_8.png","76","motor","8","22","1","0","0","",""
"null","","440111","HierDyyptfudne","flun8cl57a","ms1000379","iti","","null","img/motor_8.png","76","motor","","","","","","",""
"446","","440572","HierDyyptfudne","flun8cl57a","ms1000379","motor","","70","img/motor_4.png","70","motor","4","23","1","0","0","",""
"null","","440680","HierDyyptfudne","flun8cl57a","ms1000379","iti","","null","img/motor_4.png","70","motor","","","","","","",""
"388","","441084","HierDyyptfudne","flun8cl57a","ms1000379","motor","","72","img/motor_5.png","72","motor","5","24","1","0","0","",""
"null","","441193","HierDyyptfudne","flun8cl57a","ms1000379","iti","","null","img/motor_5.png","72","motor","","","","","","",""
"548","","441749","HierDyyptfudne","flun8cl57a","ms1000379","motor","","83","img/motor_2.png","83","motor","2","25","1","0","0","",""
"null","","441857","HierDyyptfudne","flun8cl57a","ms1000379","iti","","null","img/motor_2.png","83","motor","","","","","","",""
"390","","442253","HierDyyptfudne","flun8cl57a","ms1000379","motor","","83","img/motor_2.png","83","motor","2","26","1","0","0","",""
"null","","442368","HierDyyptfudne","flun8cl57a","ms1000379","iti","","null","img/motor_2.png","83","motor","","","","","","",""
"413","","442789","HierDyyptfudne","flun8cl57a","ms1000379","motor","","76","img/motor_8.png","76","motor","8","27","1","0","0","",""
"null","","442897","HierDyyptfudne","flun8cl57a","ms1000379","iti","","null","img/motor_8.png","76","motor","","","","","","",""
"389","","443292","HierDyyptfudne","flun8cl57a","ms1000379","motor","","70","img/motor_4.png","70","motor","4","28","1","0","0","",""
"null","","443402","HierDyyptfudne","flun8cl57a","ms1000379","iti","","null","img/motor_4.png","70","motor","","","","","","",""
"484","","443894","HierDyyptfudne","flun8cl57a","ms1000379","motor","","68","img/motor_3.png","68","motor","3","29","1","0","0","",""
"null","","444008","HierDyyptfudne","flun8cl57a","ms1000379","iti","","null","img/motor_3.png","68","motor","","","","","","",""
"349","","444365","HierDyyptfudne","flun8cl57a","ms1000379","motor","","68","img/motor_3.png","68","motor","3","30","1","0","0","",""
"null","","444480","HierDyyptfudne","flun8cl57a","ms1000379","iti","","null","img/motor_3.png","68","motor","","","","","","",""
"413","","444902","HierDyyptfudne","flun8cl57a","ms1000379","motor","","65","img/motor_1.png","65","motor","1","31","1","0","0","",""
"null","","445010","HierDyyptfudne","flun8cl57a","ms1000379","iti","","null","img/motor_1.png","65","motor","","","","","","",""
"316","","445334","HierDyyptfudne","flun8cl57a","ms1000379","motor","","76","img/motor_5.png","72","motor","5","32","0","1","0","",""
"407","","445749","HierDyyptfudne","flun8cl57a","ms1000379","motorRepeat","","72","img/motor_5.png","72","motor","5","32","1","0","0","",""
"null","","445864","HierDyyptfudne","flun8cl57a","ms1000379","iti","","null","img/motor_5.png","72","motor","","","","","","",""
"486","","446357","HierDyyptfudne","flun8cl57a","ms1000379","motor","","76","img/motor_8.png","76","motor","8","33","1","0","0","",""
"null","","446466","HierDyyptfudne","flun8cl57a","ms1000379","iti","","null","img/motor_8.png","76","motor","","","","","","",""
"717","","447195","HierDyyptfudne","flun8cl57a","ms1000379","motor","","83","img/motor_2.png","83","motor","2","34","1","0","0","",""
"null","","447310","HierDyyptfudne","flun8cl57a","ms1000379","iti","","null","img/motor_2.png","83","motor","","","","","","",""
"478","","447796","HierDyyptfudne","flun8cl57a","ms1000379","motor","","68","img/motor_3.png","68","motor","3","35","1","0","0","",""
"null","","447905","HierDyyptfudne","flun8cl57a","ms1000379","iti","","null","img/motor_3.png","68","motor","","","","","","",""
"405","","448318","HierDyyptfudne","flun8cl57a","ms1000379","motor","","65","img/motor_1.png","65","motor","1","36","1","0","0","",""
"null","","448426","HierDyyptfudne","flun8cl57a","ms1000379","iti","","null","img/motor_1.png","65","motor","","","","","","",""
"475","","448909","HierDyyptfudne","flun8cl57a","ms1000379","motor","","72","img/motor_5.png","72","motor","5","37","1","0","0","",""
"null","","449024","HierDyyptfudne","flun8cl57a","ms1000379","iti","","null","img/motor_5.png","72","motor","","","","","","",""
"365","","449404","HierDyyptfudne","flun8cl57a","ms1000379","motor","","76","img/motor_8.png","76","motor","8","38","1","0","0","",""
"null","","449512","HierDyyptfudne","flun8cl57a","ms1000379","iti","","null","img/motor_8.png","76","motor","","","","","","",""
"477","","450004","HierDyyptfudne","flun8cl57a","ms1000379","motor","","83","img/motor_2.png","83","motor","2","39","1","0","0","",""
"null","","450120","HierDyyptfudne","flun8cl57a","ms1000379","iti","","null","img/motor_2.png","83","motor","","","","","","",""
"381","","450510","HierDyyptfudne","flun8cl57a","ms1000379","motor","","83","img/motor_2.png","83","motor","2","40","1","0","0","",""
"null","","450623","HierDyyptfudne","flun8cl57a","ms1000379","iti","","null","img/motor_2.png","83","motor","","","","","","",""
"366","","450998","HierDyyptfudne","flun8cl57a","ms1000379","motor","","76","img/motor_8.png","76","motor","8","41","1","0","0","",""
"null","","451106","HierDyyptfudne","flun8cl57a","ms1000379","iti","","null","img/motor_8.png","76","motor","","","","","","",""
"514","","451635","HierDyyptfudne","flun8cl57a","ms1000379","motor","","65","img/motor_1.png","65","motor","1","42","1","0","0","",""
"null","","451751","HierDyyptfudne","flun8cl57a","ms1000379","iti","","null","img/motor_1.png","65","motor","","","","","","",""
"437","","452197","HierDyyptfudne","flun8cl57a","ms1000379","motor","","65","img/motor_1.png","65","motor","1","43","1","0","0","",""
"null","","452311","HierDyyptfudne","flun8cl57a","ms1000379","iti","","null","img/motor_1.png","65","motor","","","","","","",""
"485","","452811","HierDyyptfudne","flun8cl57a","ms1000379","motor","","72","img/motor_5.png","72","motor","5","44","1","0","0","",""
"null","","452920","HierDyyptfudne","flun8cl57a","ms1000379","iti","","null","img/motor_5.png","72","motor","","","","","","",""
"469","","453404","HierDyyptfudne","flun8cl57a","ms1000379","motor","","74","img/motor_6.png","74","motor","6","45","1","0","0","",""
"null","","453519","HierDyyptfudne","flun8cl57a","ms1000379","iti","","null","img/motor_6.png","74","motor","","","","","","",""
"398","","453932","HierDyyptfudne","flun8cl57a","ms1000379","motor","","83","img/motor_3.png","68","motor","3","46","0","1","0","",""
"378","","454323","HierDyyptfudne","flun8cl57a","ms1000379","motorRepeat","","68","img/motor_3.png","68","motor","3","46","1","0","0","",""
"null","","454433","HierDyyptfudne","flun8cl57a","ms1000379","iti","","null","img/motor_3.png","68","motor","","","","","","",""
"429","","454873","HierDyyptfudne","flun8cl57a","ms1000379","motor","","83","img/motor_2.png","83","motor","2","47","1","0","0","",""
"null","","454987","HierDyyptfudne","flun8cl57a","ms1000379","iti","","null","img/motor_2.png","83","motor","","","","","","",""
"920","","455917","HierDyyptfudne","flun8cl57a","ms1000379","motor","","74","img/motor_6.png","74","motor","6","48","1","0","0","",""
"null","","456032","HierDyyptfudne","flun8cl57a","ms1000379","iti","","null","img/motor_6.png","74","motor","","","","","","",""
"549","","456589","HierDyyptfudne","flun8cl57a","ms1000379","motor","","65","img/motor_1.png","65","motor","1","49","1","0","0","",""
"null","","456697","HierDyyptfudne","flun8cl57a","ms1000379","iti","","null","img/motor_1.png","65","motor","","","","","","",""
"739","","457452","HierDyyptfudne","flun8cl57a","ms1000379","motor","","75","img/motor_7.png","75","motor","7","50","1","0","0","",""
"null","","457560","HierDyyptfudne","flun8cl57a","ms1000379","iti","","null","img/motor_7.png","75","motor","","","","","","",""
"526","","458100","HierDyyptfudne","flun8cl57a","ms1000379","motor","","72","img/motor_5.png","72","motor","5","51","1","0","0","",""
"null","","458209","HierDyyptfudne","flun8cl57a","ms1000379","iti","","null","img/motor_5.png","72","motor","","","","","","",""
"965","","459188","HierDyyptfudne","flun8cl57a","ms1000379","motor","","68","img/motor_3.png","68","motor","3","52","1","0","0","",""
"null","","459303","HierDyyptfudne","flun8cl57a","ms1000379","iti","","null","img/motor_3.png","68","motor","","","","","","",""
"444","","459757","HierDyyptfudne","flun8cl57a","ms1000379","motor","","70","img/motor_4.png","70","motor","4","53","1","0","0","",""
"null","","459872","HierDyyptfudne","flun8cl57a","ms1000379","iti","","null","img/motor_4.png","70","motor","","","","","","",""
"574","","460454","HierDyyptfudne","flun8cl57a","ms1000379","motor","","75","img/motor_7.png","75","motor","7","54","1","0","0","",""
"null","","460568","HierDyyptfudne","flun8cl57a","ms1000379","iti","","null","img/motor_7.png","75","motor","","","","","","",""
"597","","461174","HierDyyptfudne","flun8cl57a","ms1000379","motor","","74","img/motor_6.png","74","motor","6","55","1","0","0","",""
"null","","461282","HierDyyptfudne","flun8cl57a","ms1000379","iti","","null","img/motor_6.png","74","motor","","","","","","",""
"458","","461749","HierDyyptfudne","flun8cl57a","ms1000379","motor","","75","img/motor_7.png","75","motor","7","56","1","0","0","",""
"null","","461856","HierDyyptfudne","flun8cl57a","ms1000379","iti","","null","img/motor_7.png","75","motor","","","","","","",""
"397","","462262","HierDyyptfudne","flun8cl57a","ms1000379","motor","","76","img/motor_8.png","76","motor","8","57","1","0","0","",""
"null","","462376","HierDyyptfudne","flun8cl57a","ms1000379","iti","","null","img/motor_8.png","76","motor","","","","","","",""
"438","","462821","HierDyyptfudne","flun8cl57a","ms1000379","motor","","72","img/motor_6.png","74","motor","6","58","0","1","0","",""
"272","","463101","HierDyyptfudne","flun8cl57a","ms1000379","motorRepeat","","74","img/motor_6.png","74","motor","6","58","1","0","0","",""
"null","","463216","HierDyyptfudne","flun8cl57a","ms1000379","iti","","null","img/motor_6.png","74","motor","","","","","","",""
"484","","463709","HierDyyptfudne","flun8cl57a","ms1000379","motor","","75","img/motor_7.png","75","motor","7","59","1","0","0","",""
"null","","463817","HierDyyptfudne","flun8cl57a","ms1000379","iti","","null","img/motor_7.png","75","motor","","","","","","",""
"996","","464828","HierDyyptfudne","flun8cl57a","ms1000379","motor","","68","img/motor_3.png","68","motor","3","60","1","0","0","",""
"null","","464942","HierDyyptfudne","flun8cl57a","ms1000379","iti","","null","img/motor_3.png","68","motor","","","","","","",""
"495","","465445","HierDyyptfudne","flun8cl57a","ms1000379","motor","","76","img/motor_8.png","76","motor","8","61","1","0","0","",""
"null","","465560","HierDyyptfudne","flun8cl57a","ms1000379","iti","","null","img/motor_8.png","76","motor","","","","","","",""
"493","","466062","HierDyyptfudne","flun8cl57a","ms1000379","motor","","65","img/motor_1.png","65","motor","1","62","1","0","0","",""
"null","","466177","HierDyyptfudne","flun8cl57a","ms1000379","iti","","null","img/motor_1.png","65","motor","","","","","","",""
"412","","466603","HierDyyptfudne","flun8cl57a","ms1000379","motor","","76","img/motor_8.png","76","motor","8","63","1","0","0","",""
"null","","466713","HierDyyptfudne","flun8cl57a","ms1000379","iti","","null","img/motor_8.png","76","motor","","","","","","",""
"2013","","468733","HierDyyptfudne","flun8cl57a","ms1000379","motor","","68","img/motor_3.png","68","motor","3","64","1","0","0","",""
"null","","468842","HierDyyptfudne","flun8cl57a","ms1000379","iti","","null","img/motor_3.png","68","motor","","","","","","",""
"916","","469771","HierDyyptfudne","flun8cl57a","ms1000379","motor","","74","img/motor_6.png","74","motor","6","65","1","0","0","",""
"null","","469886","HierDyyptfudne","flun8cl57a","ms1000379","iti","","null","img/motor_6.png","74","motor","","","","","","",""
"511","","470412","HierDyyptfudne","flun8cl57a","ms1000379","motor","","75","img/motor_7.png","75","motor","7","66","1","0","0","",""
"null","","470527","HierDyyptfudne","flun8cl57a","ms1000379","iti","","null","img/motor_7.png","75","motor","","","","","","",""
"526","","471061","HierDyyptfudne","flun8cl57a","ms1000379","motor","","83","img/motor_2.png","83","motor","2","67","1","0","0","",""
"null","","471176","HierDyyptfudne","flun8cl57a","ms1000379","iti","","null","img/motor_2.png","83","motor","","","","","","",""
"405","","471596","HierDyyptfudne","flun8cl57a","ms1000379","motor","","70","img/motor_4.png","70","motor","4","68","1","0","0","",""
"null","","471705","HierDyyptfudne","flun8cl57a","ms1000379","iti","","null","img/motor_4.png","70","motor","","","","","","",""
"446","","472157","HierDyyptfudne","flun8cl57a","ms1000379","motor","","65","img/motor_1.png","65","motor","1","69","1","0","0","",""
"null","","472266","HierDyyptfudne","flun8cl57a","ms1000379","iti","","null","img/motor_1.png","65","motor","","","","","","",""
"709","","472988","HierDyyptfudne","flun8cl57a","ms1000379","motor","","68","img/motor_3.png","68","motor","3","70","1","0","0","",""
"null","","473103","HierDyyptfudne","flun8cl57a","ms1000379","iti","","null","img/motor_3.png","68","motor","","","","","","",""
"406","","473518","HierDyyptfudne","flun8cl57a","ms1000379","motor","","68","img/motor_3.png","68","motor","3","71","1","0","0","",""
"null","","473631","HierDyyptfudne","flun8cl57a","ms1000379","iti","","null","img/motor_3.png","68","motor","","","","","","",""
"422","","474061","HierDyyptfudne","flun8cl57a","ms1000379","motor","","83","img/motor_2.png","83","motor","2","72","1","0","0","",""
"null","","474175","HierDyyptfudne","flun8cl57a","ms1000379","iti","","null","img/motor_2.png","83","motor","","","","","","",""
"524","","474709","HierDyyptfudne","flun8cl57a","ms1000379","motor","","70","img/motor_4.png","70","motor","4","73","1","0","0","",""
"null","","474823","HierDyyptfudne","flun8cl57a","ms1000379","iti","","null","img/motor_4.png","70","motor","","","","","","",""
"405","","475236","HierDyyptfudne","flun8cl57a","ms1000379","motor","","75","img/motor_7.png","75","motor","7","74","1","0","0","",""
"null","","475343","HierDyyptfudne","flun8cl57a","ms1000379","iti","","null","img/motor_7.png","75","motor","","","","","","",""
"366","","475718","HierDyyptfudne","flun8cl57a","ms1000379","motor","","75","img/motor_7.png","75","motor","7","75","1","0","0","",""
"null","","475826","HierDyyptfudne","flun8cl57a","ms1000379","iti","","null","img/motor_7.png","75","motor","","","","","","",""
"373","","476205","HierDyyptfudne","flun8cl57a","ms1000379","motor","","72","img/motor_6.png","74","motor","6","76","0","1","0","",""
"295","","476508","HierDyyptfudne","flun8cl57a","ms1000379","motorRepeat","","74","img/motor_6.png","74","motor","6","76","1","0","0","",""
"null","","476617","HierDyyptfudne","flun8cl57a","ms1000379","iti","","null","img/motor_6.png","74","motor","","","","","","",""
"597","","477222","HierDyyptfudne","flun8cl57a","ms1000379","motor","","68","img/motor_3.png","68","motor","3","77","1","0","0","",""
"null","","477329","HierDyyptfudne","flun8cl57a","ms1000379","iti","","null","img/motor_3.png","68","motor","","","","","","",""
"388","","477725","HierDyyptfudne","flun8cl57a","ms1000379","motor","","83","img/motor_2.png","83","motor","2","78","1","0","0","",""
"null","","477840","HierDyyptfudne","flun8cl57a","ms1000379","iti","","null","img/motor_2.png","83","motor","","","","","","",""
"404","","478253","HierDyyptfudne","flun8cl57a","ms1000379","motor","","65","img/motor_1.png","65","motor","1","79","1","0","0","",""
"null","","478368","HierDyyptfudne","flun8cl57a","ms1000379","iti","","null","img/motor_1.png","65","motor","","","","","","",""
"676","","479054","HierDyyptfudne","flun8cl57a","ms1000379","motor","","72","img/motor_5.png","72","motor","5","80","1","0","0","",""
"null","","479162","HierDyyptfudne","flun8cl57a","ms1000379","iti","","null","img/motor_5.png","72","motor","","","","","","",""
"388","","479564","HierDyyptfudne","flun8cl57a","ms1000379","motor","","74","img/motor_6.png","74","motor","6","81","1","0","0","",""
"null","","479679","HierDyyptfudne","flun8cl57a","ms1000379","iti","","null","img/motor_6.png","74","motor","","","","","","",""
"526","","480220","HierDyyptfudne","flun8cl57a","ms1000379","motor","","83","img/motor_2.png","83","motor","2","82","1","0","0","",""
"null","","480335","HierDyyptfudne","flun8cl57a","ms1000379","iti","","null","img/motor_2.png","83","motor","","","","","","",""
"446","","480790","HierDyyptfudne","flun8cl57a","ms1000379","motor","","72","img/motor_5.png","72","motor","5","83","1","0","0","",""
"null","","480898","HierDyyptfudne","flun8cl57a","ms1000379","iti","","null","img/motor_5.png","72","motor","","","","","","",""
"492","","481398","HierDyyptfudne","flun8cl57a","ms1000379","motor","","65","img/motor_1.png","65","motor","1","84","1","0","0","",""
"null","","481506","HierDyyptfudne","flun8cl57a","ms1000379","iti","","null","img/motor_1.png","65","motor","","","","","","",""
"516","","482030","HierDyyptfudne","flun8cl57a","ms1000379","motor","","70","img/motor_4.png","70","motor","4","85","1","0","0","",""
"null","","482138","HierDyyptfudne","flun8cl57a","ms1000379","iti","","null","img/motor_4.png","70","motor","","","","","","",""
"525","","482676","HierDyyptfudne","flun8cl57a","ms1000379","motor","","68","img/motor_3.png","68","motor","3","86","1","0","0","",""
"null","","482785","HierDyyptfudne","flun8cl57a","ms1000379","iti","","null","img/motor_3.png","68","motor","","","","","","",""
"588","","483381","HierDyyptfudne","flun8cl57a","ms1000379","motor","","75","img/motor_7.png","75","motor","7","87","1","0","0","",""
"null","","483490","HierDyyptfudne","flun8cl57a","ms1000379","iti","","null","img/motor_7.png","75","motor","","","","","","",""
"540","","484044","HierDyyptfudne","flun8cl57a","ms1000379","motor","","65","img/motor_1.png","65","motor","1","88","1","0","0","",""
"null","","484159","HierDyyptfudne","flun8cl57a","ms1000379","iti","","null","img/motor_1.png","65","motor","","","","","","",""
"422","","484596","HierDyyptfudne","flun8cl57a","ms1000379","motor","","70","img/motor_4.png","70","motor","4","89","1","0","0","",""
"null","","484705","HierDyyptfudne","flun8cl57a","ms1000379","iti","","null","img/motor_4.png","70","motor","","","","","","",""
"397","","485110","HierDyyptfudne","flun8cl57a","ms1000379","motor","","65","img/motor_1.png","65","motor","1","90","1","0","0","",""
"null","","485218","HierDyyptfudne","flun8cl57a","ms1000379","iti","","null","img/motor_1.png","65","motor","","","","","","",""
"565","","485789","HierDyyptfudne","flun8cl57a","ms1000379","motor","","68","img/motor_3.png","68","motor","3","91","1","0","0","",""
"null","","485897","HierDyyptfudne","flun8cl57a","ms1000379","iti","","null","img/motor_3.png","68","motor","","","","","","",""
"380","","486285","HierDyyptfudne","flun8cl57a","ms1000379","motor","","65","img/motor_1.png","65","motor","1","92","1","0","0","",""
"null","","486400","HierDyyptfudne","flun8cl57a","ms1000379","iti","","null","img/motor_1.png","65","motor","","","","","","",""
"422","","486836","HierDyyptfudne","flun8cl57a","ms1000379","motor","","76","img/motor_8.png","76","motor","8","93","1","0","0","",""
"null","","486945","HierDyyptfudne","flun8cl57a","ms1000379","iti","","null","img/motor_8.png","76","motor","","","","","","",""
"517","","487475","HierDyyptfudne","flun8cl57a","ms1000379","motor","","72","img/motor_5.png","72","motor","5","94","1","0","0","",""
"null","","487585","HierDyyptfudne","flun8cl57a","ms1000379","iti","","null","img/motor_5.png","72","motor","","","","","","",""
"566","","488163","HierDyyptfudne","flun8cl57a","ms1000379","motor","","70","img/motor_4.png","70","motor","4","95","1","0","0","",""
"null","","488273","HierDyyptfudne","flun8cl57a","ms1000379","iti","","null","img/motor_4.png","70","motor","","","","","","",""
"548","","488830","HierDyyptfudne","flun8cl57a","ms1000379","motor","","75","img/motor_7.png","75","motor","7","96","1","0","0","",""
"null","","488944","HierDyyptfudne","flun8cl57a","ms1000379","iti","","null","img/motor_7.png","75","motor","","","","","","",""
"524","","489478","HierDyyptfudne","flun8cl57a","ms1000379","motor","","70","img/motor_4.png","70","motor","4","97","1","0","0","",""
"null","","489592","HierDyyptfudne","flun8cl57a","ms1000379","iti","","null","img/motor_4.png","70","motor","","","","","","",""
"429","","490036","HierDyyptfudne","flun8cl57a","ms1000379","motor","","72","img/motor_5.png","72","motor","5","98","1","0","0","",""
"null","","490152","HierDyyptfudne","flun8cl57a","ms1000379","iti","","null","img/motor_5.png","72","motor","","","","","","",""
"413","","490574","HierDyyptfudne","flun8cl57a","ms1000379","motor","","76","img/motor_8.png","76","motor","8","99","1","0","0","",""
"null","","490688","HierDyyptfudne","flun8cl57a","ms1000379","iti","","null","img/motor_8.png","76","motor","","","","","","",""
"484","","491188","HierDyyptfudne","flun8cl57a","ms1000379","motor","","65","img/motor_1.png","65","motor","1","100","1","0","0","",""
"null","","491303","HierDyyptfudne","flun8cl57a","ms1000379","iti","","null","img/motor_1.png","65","motor","","","","","","",""
"478","","491796","HierDyyptfudne","flun8cl57a","ms1000379","motor","","72","img/motor_5.png","72","motor","5","101","1","0","0","",""
"null","","491911","HierDyyptfudne","flun8cl57a","ms1000379","iti","","null","img/motor_5.png","72","motor","","","","","","",""
"415","","492340","HierDyyptfudne","flun8cl57a","ms1000379","motor","","76","img/motor_8.png","76","motor","8","102","1","0","0","",""
"null","","492456","HierDyyptfudne","flun8cl57a","ms1000379","iti","","null","img/motor_8.png","76","motor","","","","","","",""
"381","","492852","HierDyyptfudne","flun8cl57a","ms1000379","motor","","65","img/motor_1.png","65","motor","1","103","1","0","0","",""
"null","","492960","HierDyyptfudne","flun8cl57a","ms1000379","iti","","null","img/motor_1.png","65","motor","","","","","","",""
"526","","493494","HierDyyptfudne","flun8cl57a","ms1000379","motor","","68","img/motor_3.png","68","motor","3","104","1","0","0","",""
"null","","493609","HierDyyptfudne","flun8cl57a","ms1000379","iti","","null","img/motor_3.png","68","motor","","","","","","",""
"469","","494086","HierDyyptfudne","flun8cl57a","ms1000379","motor","","65","img/motor_1.png","65","motor","1","105","1","0","0","",""
"null","","494199","HierDyyptfudne","flun8cl57a","ms1000379","iti","","null","img/motor_1.png","65","motor","","","","","","",""
"414","","494622","HierDyyptfudne","flun8cl57a","ms1000379","motor","","76","img/motor_8.png","76","motor","8","106","1","0","0","",""
"null","","494730","HierDyyptfudne","flun8cl57a","ms1000379","iti","","null","img/motor_8.png","76","motor","","","","","","",""
"596","","495334","HierDyyptfudne","flun8cl57a","ms1000379","motor","","70","img/motor_4.png","70","motor","4","107","1","0","0","",""
"null","","495448","HierDyyptfudne","flun8cl57a","ms1000379","iti","","null","img/motor_4.png","70","motor","","","","","","",""
"524","","495982","HierDyyptfudne","flun8cl57a","ms1000379","motor","","68","img/motor_3.png","68","motor","3","108","1","0","0","",""
"null","","496092","HierDyyptfudne","flun8cl57a","ms1000379","iti","","null","img/motor_3.png","68","motor","","","","","","",""
"616","","496717","HierDyyptfudne","flun8cl57a","ms1000379","motor","","75","img/motor_6.png","74","motor","6","109","0","1","0","",""
"304","","497029","HierDyyptfudne","flun8cl57a","ms1000379","motorRepeat","","72","img/motor_6.png","74","motor","6","109","0","1","0","",""
"377","","497413","HierDyyptfudne","flun8cl57a","ms1000379","motorRepeat","","74","img/motor_6.png","74","motor","6","109","1","0","0","",""
"null","","497527","HierDyyptfudne","flun8cl57a","ms1000379","iti","","null","img/motor_6.png","74","motor","","","","","","",""
"886","","498420","HierDyyptfudne","flun8cl57a","ms1000379","motor","","68","img/motor_3.png","68","motor","3","110","1","0","0","",""
"null","","498535","HierDyyptfudne","flun8cl57a","ms1000379","iti","","null","img/motor_3.png","68","motor","","","","","","",""
"734","","499284","HierDyyptfudne","flun8cl57a","ms1000379","motor","","72","img/motor_6.png","74","motor","6","111","0","1","0","",""
"138","","499436","HierDyyptfudne","flun8cl57a","ms1000379","motorRepeat","","74","img/motor_6.png","74","motor","6","111","1","0","0","",""
"null","","499551","HierDyyptfudne","flun8cl57a","ms1000379","iti","","null","img/motor_6.png","74","motor","","","","","","",""
"566","","500126","HierDyyptfudne","flun8cl57a","ms1000379","motor","","70","img/motor_4.png","70","motor","4","112","1","0","0","",""
"null","","500234","HierDyyptfudne","flun8cl57a","ms1000379","iti","","null","img/motor_4.png","70","motor","","","","","","",""
"579","","500821","HierDyyptfudne","flun8cl57a","ms1000379","motor","","83","img/motor_2.png","83","motor","2","113","1","0","0","",""
"null","","500935","HierDyyptfudne","flun8cl57a","ms1000379","iti","","null","img/motor_2.png","83","motor","","","","","","",""
"557","","501508","HierDyyptfudne","flun8cl57a","ms1000379","motor","","72","img/motor_5.png","72","motor","5","114","1","0","0","",""
"null","","501624","HierDyyptfudne","flun8cl57a","ms1000379","iti","","null","img/motor_5.png","72","motor","","","","","","",""
"438","","502070","HierDyyptfudne","flun8cl57a","ms1000379","motor","","83","img/motor_2.png","83","motor","2","115","1","0","0","",""
"null","","502184","HierDyyptfudne","flun8cl57a","ms1000379","iti","","null","img/motor_2.png","83","motor","","","","","","",""
"469","","502661","HierDyyptfudne","flun8cl57a","ms1000379","motor","","75","img/motor_7.png","75","motor","7","116","1","0","0","",""
"null","","502776","HierDyyptfudne","flun8cl57a","ms1000379","iti","","null","img/motor_7.png","75","motor","","","","","","",""
"550","","503334","HierDyyptfudne","flun8cl57a","ms1000379","motor","","74","img/motor_6.png","74","motor","6","117","1","0","0","",""
"null","","503443","HierDyyptfudne","flun8cl57a","ms1000379","iti","","null","img/motor_6.png","74","motor","","","","","","",""
"484","","503932","HierDyyptfudne","flun8cl57a","ms1000379","motor","","65","img/motor_1.png","65","motor","1","118","1","0","0","",""
"null","","504047","HierDyyptfudne","flun8cl57a","ms1000379","iti","","null","img/motor_1.png","65","motor","","","","","","",""
"566","","504628","HierDyyptfudne","flun8cl57a","ms1000379","motor","","74","img/motor_6.png","74","motor","6","119","1","0","0","",""
"null","","504737","HierDyyptfudne","flun8cl57a","ms1000379","iti","","null","img/motor_6.png","74","motor","","","","","","",""
"645","","505389","HierDyyptfudne","flun8cl57a","ms1000379","motor","","65","img/motor_1.png","65","motor","1","120","1","0","0","",""
"null","","505504","HierDyyptfudne","flun8cl57a","ms1000379","iti","","null","img/motor_1.png","65","motor","","","","","","",""
"565","","506078","HierDyyptfudne","flun8cl57a","ms1000379","motor","","83","img/motor_2.png","83","motor","2","121","1","0","0","",""
"null","","506186","HierDyyptfudne","flun8cl57a","ms1000379","iti","","null","img/motor_2.png","83","motor","","","","","","",""
"508","","506702","HierDyyptfudne","flun8cl57a","ms1000379","motor","","72","img/motor_5.png","72","motor","5","122","1","0","0","",""
"null","","506810","HierDyyptfudne","flun8cl57a","ms1000379","iti","","null","img/motor_5.png","72","motor","","","","","","",""
"380","","507198","HierDyyptfudne","flun8cl57a","ms1000379","motor","","76","img/motor_8.png","76","motor","8","123","1","0","0","",""
"null","","507307","HierDyyptfudne","flun8cl57a","ms1000379","iti","","null","img/motor_8.png","76","motor","","","","","","",""
"428","","507749","HierDyyptfudne","flun8cl57a","ms1000379","motor","","74","img/motor_6.png","74","motor","6","124","1","0","0","",""
"null","","507865","HierDyyptfudne","flun8cl57a","ms1000379","iti","","null","img/motor_6.png","74","motor","","","","","","",""
"358","","508229","HierDyyptfudne","flun8cl57a","ms1000379","motor","","74","img/motor_6.png","74","motor","6","125","1","0","0","",""
"null","","508337","HierDyyptfudne","flun8cl57a","ms1000379","iti","","null","img/motor_6.png","74","motor","","","","","","",""
"396","","508741","HierDyyptfudne","flun8cl57a","ms1000379","motor","","75","img/motor_7.png","75","motor","7","126","1","0","0","",""
"null","","508855","HierDyyptfudne","flun8cl57a","ms1000379","iti","","null","img/motor_7.png","75","motor","","","","","","",""
"542","","509406","HierDyyptfudne","flun8cl57a","ms1000379","motor","","70","img/motor_4.png","70","motor","4","127","1","0","0","",""
"null","","509515","HierDyyptfudne","flun8cl57a","ms1000379","iti","","null","img/motor_4.png","70","motor","","","","","","",""
"403","","509933","HierDyyptfudne","flun8cl57a","ms1000379","motor","","72","img/motor_5.png","72","motor","5","128","1","0","0","",""
"null","","510042","HierDyyptfudne","flun8cl57a","ms1000379","iti","","null","img/motor_5.png","72","motor","","","","","","",""
"468","","510525","HierDyyptfudne","flun8cl57a","ms1000379","motor","","65","img/motor_1.png","65","motor","1","129","1","0","0","",""
"null","","510640","HierDyyptfudne","flun8cl57a","ms1000379","iti","","null","img/motor_1.png","65","motor","","","","","","",""
"422","","511076","HierDyyptfudne","flun8cl57a","ms1000379","motor","","72","img/motor_5.png","72","motor","5","130","1","0","0","",""
"null","","511185","HierDyyptfudne","flun8cl57a","ms1000379","iti","","null","img/motor_5.png","72","motor","","","","","","",""
"620","","511813","HierDyyptfudne","flun8cl57a","ms1000379","motor","","68","img/motor_3.png","68","motor","3","131","1","0","0","",""
"null","","511921","HierDyyptfudne","flun8cl57a","ms1000379","iti","","null","img/motor_3.png","68","motor","","","","","","",""
"557","","512492","HierDyyptfudne","flun8cl57a","ms1000379","motor","","74","img/motor_6.png","74","motor","6","132","1","0","0","",""
"null","","512601","HierDyyptfudne","flun8cl57a","ms1000379","iti","","null","img/motor_6.png","74","motor","","","","","","",""
"477","","513086","HierDyyptfudne","flun8cl57a","ms1000379","motor","","83","img/motor_2.png","83","motor","2","133","1","0","0","",""
"null","","513194","HierDyyptfudne","flun8cl57a","ms1000379","iti","","null","img/motor_2.png","83","motor","","","","","","",""
"524","","513726","HierDyyptfudne","flun8cl57a","ms1000379","motor","","74","img/motor_6.png","74","motor","6","134","1","0","0","",""
"null","","513841","HierDyyptfudne","flun8cl57a","ms1000379","iti","","null","img/motor_6.png","74","motor","","","","","","",""
"621","","514476","HierDyyptfudne","flun8cl57a","ms1000379","motor","","70","img/motor_3.png","68","motor","3","135","0","1","0","",""
"313","","514796","HierDyyptfudne","flun8cl57a","ms1000379","motorRepeat","","68","img/motor_3.png","68","motor","3","135","1","0","0","",""
"null","","514911","HierDyyptfudne","flun8cl57a","ms1000379","iti","","null","img/motor_3.png","68","motor","","","","","","",""
"462","","515389","HierDyyptfudne","flun8cl57a","ms1000379","motor","","74","img/motor_6.png","74","motor","6","136","1","0","0","",""
"null","","515497","HierDyyptfudne","flun8cl57a","ms1000379","iti","","null","img/motor_6.png","74","motor","","","","","","",""
"604","","516110","HierDyyptfudne","flun8cl57a","ms1000379","motor","","76","img/motor_8.png","76","motor","8","137","1","0","0","",""
"null","","516224","HierDyyptfudne","flun8cl57a","ms1000379","iti","","null","img/motor_8.png","76","motor","","","","","","",""
"453","","516693","HierDyyptfudne","flun8cl57a","ms1000379","motor","","65","img/motor_1.png","65","motor","1","138","1","0","0","",""
"null","","516802","HierDyyptfudne","flun8cl57a","ms1000379","iti","","null","img/motor_1.png","65","motor","","","","","","",""
"500","","517310","HierDyyptfudne","flun8cl57a","ms1000379","motor","","70","img/motor_4.png","70","motor","4","139","1","0","0","",""
"null","","517418","HierDyyptfudne","flun8cl57a","ms1000379","iti","","null","img/motor_4.png","70","motor","","","","","","",""
"611","","518044","HierDyyptfudne","flun8cl57a","ms1000379","motor","","75","img/motor_7.png","75","motor","7","140","1","0","0","",""
"null","","518153","HierDyyptfudne","flun8cl57a","ms1000379","iti","","null","img/motor_7.png","75","motor","","","","","","",""
"693","","518861","HierDyyptfudne","flun8cl57a","ms1000379","motor","","74","img/motor_6.png","74","motor","6","141","1","0","0","",""
"null","","518975","HierDyyptfudne","flun8cl57a","ms1000379","iti","","null","img/motor_6.png","74","motor","","","","","","",""
"406","","519393","HierDyyptfudne","flun8cl57a","ms1000379","motor","","72","img/motor_5.png","72","motor","5","142","1","0","0","",""
"null","","519500","HierDyyptfudne","flun8cl57a","ms1000379","iti","","null","img/motor_5.png","72","motor","","","","","","",""
"457","","519973","HierDyyptfudne","flun8cl57a","ms1000379","motor","","70","img/motor_4.png","70","motor","4","143","1","0","0","",""
"null","","520083","HierDyyptfudne","flun8cl57a","ms1000379","iti","","null","img/motor_4.png","70","motor","","","","","","",""
"483","","520580","HierDyyptfudne","flun8cl57a","ms1000379","motor","","76","img/motor_8.png","76","motor","8","144","1","0","0","",""
"null","","520691","HierDyyptfudne","flun8cl57a","ms1000379","iti","","null","img/motor_8.png","76","motor","","","","","","",""
"523","","521229","HierDyyptfudne","flun8cl57a","ms1000379","motor","","68","img/motor_3.png","68","motor","3","145","1","0","0","",""
"null","","521344","HierDyyptfudne","flun8cl57a","ms1000379","iti","","null","img/motor_3.png","68","motor","","","","","","",""
"421","","521774","HierDyyptfudne","flun8cl57a","ms1000379","motor","","65","img/motor_1.png","65","motor","1","146","1","0","0","",""
"null","","521889","HierDyyptfudne","flun8cl57a","ms1000379","iti","","null","img/motor_1.png","65","motor","","","","","","",""
"452","","522350","HierDyyptfudne","flun8cl57a","ms1000379","motor","","75","img/motor_7.png","75","motor","7","147","1","0","0","",""
"null","","522459","HierDyyptfudne","flun8cl57a","ms1000379","iti","","null","img/motor_7.png","75","motor","","","","","","",""
"483","","522957","HierDyyptfudne","flun8cl57a","ms1000379","motor","","70","img/motor_4.png","70","motor","4","148","1","0","0","",""
"null","","523073","HierDyyptfudne","flun8cl57a","ms1000379","iti","","null","img/motor_4.png","70","motor","","","","","","",""
"428","","523516","HierDyyptfudne","flun8cl57a","ms1000379","motor","","68","img/motor_3.png","68","motor","3","149","1","0","0","",""
"null","","523632","HierDyyptfudne","flun8cl57a","ms1000379","iti","","null","img/motor_3.png","68","motor","","","","","","",""
"453","","524093","HierDyyptfudne","flun8cl57a","ms1000379","motor","","70","img/motor_4.png","70","motor","4","150","1","0","0","",""
"null","","524202","HierDyyptfudne","flun8cl57a","ms1000379","iti","","null","img/motor_4.png","70","motor","","","","","","",""
"484","","524694","HierDyyptfudne","flun8cl57a","ms1000379","motor","","83","img/motor_2.png","83","motor","2","151","1","0","0","",""
"null","","524802","HierDyyptfudne","flun8cl57a","ms1000379","iti","","null","img/motor_2.png","83","motor","","","","","","",""
"468","","525278","HierDyyptfudne","flun8cl57a","ms1000379","motor","","65","img/motor_1.png","65","motor","1","152","1","0","0","",""
"null","","525387","HierDyyptfudne","flun8cl57a","ms1000379","iti","","null","img/motor_1.png","65","motor","","","","","","",""
"467","","525862","HierDyyptfudne","flun8cl57a","ms1000379","motor","","76","img/motor_8.png","76","motor","8","153","1","0","0","",""
"null","","525976","HierDyyptfudne","flun8cl57a","ms1000379","iti","","null","img/motor_8.png","76","motor","","","","","","",""
"454","","526438","HierDyyptfudne","flun8cl57a","ms1000379","motor","","74","img/motor_6.png","74","motor","6","154","1","0","0","",""
"null","","526546","HierDyyptfudne","flun8cl57a","ms1000379","iti","","null","img/motor_6.png","74","motor","","","","","","",""
"195","","526750","HierDyyptfudne","flun8cl57a","ms1000379","motor","","75","img/motor_8.png","76","motor","8","155","0","1","0","",""
"392","","527150","HierDyyptfudne","flun8cl57a","ms1000379","motorRepeat","","76","img/motor_8.png","76","motor","8","155","1","0","0","",""
"null","","527265","HierDyyptfudne","flun8cl57a","ms1000379","iti","","null","img/motor_8.png","76","motor","","","","","","",""
"636","","527910","HierDyyptfudne","flun8cl57a","ms1000379","motor","","68","img/motor_3.png","68","motor","3","156","1","0","0","",""
"null","","528025","HierDyyptfudne","flun8cl57a","ms1000379","iti","","null","img/motor_3.png","68","motor","","","","","","",""
"412","","528447","HierDyyptfudne","flun8cl57a","ms1000379","motor","","70","img/motor_4.png","70","motor","4","157","1","0","0","",""
"null","","528561","HierDyyptfudne","flun8cl57a","ms1000379","iti","","null","img/motor_4.png","70","motor","","","","","","",""
"437","","529006","HierDyyptfudne","flun8cl57a","ms1000379","motor","","76","img/motor_8.png","76","motor","8","158","1","0","0","",""
"null","","529114","HierDyyptfudne","flun8cl57a","ms1000379","iti","","null","img/motor_8.png","76","motor","","","","","","",""
"604","","529726","HierDyyptfudne","flun8cl57a","ms1000379","motor","","83","img/motor_2.png","83","motor","2","159","1","0","0","",""
"null","","529835","HierDyyptfudne","flun8cl57a","ms1000379","iti","","null","img/motor_2.png","83","motor","","","","","","",""
"563","","530413","HierDyyptfudne","flun8cl57a","ms1000379","motor","","70","img/motor_4.png","70","motor","4","160","1","0","0","",""
"null","","530522","HierDyyptfudne","flun8cl57a","ms1000379","iti","","null","img/motor_4.png","70","motor","","","","","","",""
"460","","530997","HierDyyptfudne","flun8cl57a","ms1000379","motor","","83","img/motor_2.png","83","motor","2","161","1","0","0","",""
"null","","531106","HierDyyptfudne","flun8cl57a","ms1000379","iti","","null","img/motor_2.png","83","motor","","","","","","",""
"372","","531487","HierDyyptfudne","flun8cl57a","ms1000379","motor","","83","img/motor_2.png","83","motor","2","162","1","0","0","",""
"null","","531602","HierDyyptfudne","flun8cl57a","ms1000379","iti","","null","img/motor_2.png","83","motor","","","","","","",""
"524","","532141","HierDyyptfudne","flun8cl57a","ms1000379","motor","","75","img/motor_6.png","74","motor","6","163","0","1","0","",""
"281","","532431","HierDyyptfudne","flun8cl57a","ms1000379","motorRepeat","","74","img/motor_6.png","74","motor","6","163","1","0","0","",""
"null","","532540","HierDyyptfudne","flun8cl57a","ms1000379","iti","","null","img/motor_6.png","74","motor","","","","","","",""
"395","","532942","HierDyyptfudne","flun8cl57a","ms1000379","motor","","76","img/motor_8.png","76","motor","8","164","1","0","0","",""
"null","","533057","HierDyyptfudne","flun8cl57a","ms1000379","iti","","null","img/motor_8.png","76","motor","","","","","","",""
"444","","533518","HierDyyptfudne","flun8cl57a","ms1000379","motor","","72","img/motor_5.png","72","motor","5","165","1","0","0","",""
"null","","533626","HierDyyptfudne","flun8cl57a","ms1000379","iti","","null","img/motor_5.png","72","motor","","","","","","",""
"349","","533989","HierDyyptfudne","flun8cl57a","ms1000379","motor","","72","img/motor_5.png","72","motor","5","166","1","0","0","",""
"null","","534098","HierDyyptfudne","flun8cl57a","ms1000379","iti","","null","img/motor_5.png","72","motor","","","","","","",""
"412","","534525","HierDyyptfudne","flun8cl57a","ms1000379","motor","","76","img/motor_8.png","76","motor","8","167","1","0","0","",""
"null","","534633","HierDyyptfudne","flun8cl57a","ms1000379","iti","","null","img/motor_8.png","76","motor","","","","","","",""
"404","","535047","HierDyyptfudne","flun8cl57a","ms1000379","motor","","72","img/motor_5.png","72","motor","5","168","1","0","0","",""
"null","","535161","HierDyyptfudne","flun8cl57a","ms1000379","iti","","null","img/motor_5.png","72","motor","","","","","","",""
"356","","535533","HierDyyptfudne","flun8cl57a","ms1000379","motor","","72","img/motor_5.png","72","motor","5","169","1","0","0","",""
"null","","535643","HierDyyptfudne","flun8cl57a","ms1000379","iti","","null","img/motor_5.png","72","motor","","","","","","",""
"396","","536053","HierDyyptfudne","flun8cl57a","ms1000379","motor","","65","img/motor_1.png","65","motor","1","170","1","0","0","",""
"null","","536162","HierDyyptfudne","flun8cl57a","ms1000379","iti","","null","img/motor_1.png","65","motor","","","","","","",""
"540","","536717","HierDyyptfudne","flun8cl57a","ms1000379","motor","","75","img/motor_7.png","75","motor","7","171","1","0","0","",""
"null","","536832","HierDyyptfudne","flun8cl57a","ms1000379","iti","","null","img/motor_7.png","75","motor","","","","","","",""
"461","","537301","HierDyyptfudne","flun8cl57a","ms1000379","motor","","83","img/motor_2.png","83","motor","2","172","1","0","0","",""
"null","","537416","HierDyyptfudne","flun8cl57a","ms1000379","iti","","null","img/motor_2.png","83","motor","","","","","","",""
"469","","537894","HierDyyptfudne","flun8cl57a","ms1000379","motor","","68","img/motor_3.png","68","motor","3","173","1","0","0","",""
"null","","538009","HierDyyptfudne","flun8cl57a","ms1000379","iti","","null","img/motor_3.png","68","motor","","","","","","",""
"405","","538422","HierDyyptfudne","flun8cl57a","ms1000379","motor","","68","img/motor_3.png","68","motor","3","174","1","0","0","",""
"null","","538530","HierDyyptfudne","flun8cl57a","ms1000379","iti","","null","img/motor_3.png","68","motor","","","","","","",""
"444","","538989","HierDyyptfudne","flun8cl57a","ms1000379","motor","","76","img/motor_8.png","76","motor","8","175","1","0","0","",""
"null","","539104","HierDyyptfudne","flun8cl57a","ms1000379","iti","","null","img/motor_8.png","76","motor","","","","","","",""
"366","","539485","HierDyyptfudne","flun8cl57a","ms1000379","motor","","76","img/motor_8.png","76","motor","8","176","1","0","0","",""
"null","","539601","HierDyyptfudne","flun8cl57a","ms1000379","iti","","null","img/motor_8.png","76","motor","","","","","","",""
"510","","540125","HierDyyptfudne","flun8cl57a","ms1000379","motor","","75","img/motor_7.png","75","motor","7","177","1","0","0","",""
"null","","540241","HierDyyptfudne","flun8cl57a","ms1000379","iti","","null","img/motor_7.png","75","motor","","","","","","",""
"564","","540814","HierDyyptfudne","flun8cl57a","ms1000379","motor","","70","img/motor_4.png","70","motor","4","178","1","0","0","",""
"null","","540923","HierDyyptfudne","flun8cl57a","ms1000379","iti","","null","img/motor_4.png","70","motor","","","","","","",""
"396","","541333","HierDyyptfudne","flun8cl57a","ms1000379","motor","","76","img/motor_8.png","76","motor","8","179","1","0","0","",""
"null","","541442","HierDyyptfudne","flun8cl57a","ms1000379","iti","","null","img/motor_8.png","76","motor","","","","","","",""
"516","","541966","HierDyyptfudne","flun8cl57a","ms1000379","motor","","68","img/motor_3.png","68","motor","3","180","1","0","0","",""
"null","","542075","HierDyyptfudne","flun8cl57a","ms1000379","iti","","null","img/motor_3.png","68","motor","","","","","","",""
"556","","542638","HierDyyptfudne","flun8cl57a","ms1000379","motor","","75","img/motor_7.png","75","motor","7","181","1","0","0","",""
"null","","542752","HierDyyptfudne","flun8cl57a","ms1000379","iti","","null","img/motor_7.png","75","motor","","","","","","",""
"421","","543182","HierDyyptfudne","flun8cl57a","ms1000379","motor","","72","img/motor_5.png","72","motor","5","182","1","0","0","",""
"null","","543297","HierDyyptfudne","flun8cl57a","ms1000379","iti","","null","img/motor_5.png","72","motor","","","","","","",""
"349","","543654","HierDyyptfudne","flun8cl57a","ms1000379","motor","","72","img/motor_5.png","72","motor","5","183","1","0","0","",""
"null","","543769","HierDyyptfudne","flun8cl57a","ms1000379","iti","","null","img/motor_5.png","72","motor","","","","","","",""
"493","","544271","HierDyyptfudne","flun8cl57a","ms1000379","motor","","65","img/motor_1.png","65","motor","1","184","1","0","0","",""
"null","","544379","HierDyyptfudne","flun8cl57a","ms1000379","iti","","null","img/motor_1.png","65","motor","","","","","","",""
"515","","544909","HierDyyptfudne","flun8cl57a","ms1000379","motor","","75","img/motor_7.png","75","motor","7","185","1","0","0","",""
"null","","545017","HierDyyptfudne","flun8cl57a","ms1000379","iti","","null","img/motor_7.png","75","motor","","","","","","",""
"789","","545821","HierDyyptfudne","flun8cl57a","ms1000379","motor","","68","img/motor_3.png","68","motor","3","186","1","0","0","",""
"null","","545930","HierDyyptfudne","flun8cl57a","ms1000379","iti","","null","img/motor_3.png","68","motor","","","","","","",""
"444","","546383","HierDyyptfudne","flun8cl57a","ms1000379","motor","","76","img/motor_8.png","76","motor","8","187","1","0","0","",""
"null","","546491","HierDyyptfudne","flun8cl57a","ms1000379","iti","","null","img/motor_8.png","76","motor","","","","","","",""
"963","","547462","HierDyyptfudne","flun8cl57a","ms1000379","motor","","70","img/motor_4.png","70","motor","4","188","1","0","0","",""
"null","","547577","HierDyyptfudne","flun8cl57a","ms1000379","iti","","null","img/motor_4.png","70","motor","","","","","","",""
"524","","548109","HierDyyptfudne","flun8cl57a","ms1000379","motor","","75","img/motor_7.png","75","motor","7","189","1","0","0","",""
"null","","548218","HierDyyptfudne","flun8cl57a","ms1000379","iti","","null","img/motor_7.png","75","motor","","","","","","",""
"516","","548743","HierDyyptfudne","flun8cl57a","ms1000379","motor","","83","img/motor_2.png","83","motor","2","190","1","0","0","",""
"null","","548852","HierDyyptfudne","flun8cl57a","ms1000379","iti","","null","img/motor_2.png","83","motor","","","","","","",""
"458","","549325","HierDyyptfudne","flun8cl57a","ms1000379","motor","","76","img/motor_8.png","76","motor","8","191","1","0","0","",""
"null","","549434","HierDyyptfudne","flun8cl57a","ms1000379","iti","","null","img/motor_8.png","76","motor","","","","","","",""
"652","","550101","HierDyyptfudne","flun8cl57a","ms1000379","motor","","70","img/motor_4.png","70","motor","4","192","1","0","0","",""
"null","","550211","HierDyyptfudne","flun8cl57a","ms1000379","iti","","null","img/motor_4.png","70","motor","","","","","","",""
"451","","550671","HierDyyptfudne","flun8cl57a","ms1000379","motor","","68","img/motor_3.png","68","motor","3","193","1","0","0","",""
"null","","550785","HierDyyptfudne","flun8cl57a","ms1000379","iti","","null","img/motor_3.png","68","motor","","","","","","",""
"468","","551269","HierDyyptfudne","flun8cl57a","ms1000379","motor","","75","img/motor_7.png","75","motor","7","194","1","0","0","",""
"null","","551378","HierDyyptfudne","flun8cl57a","ms1000379","iti","","null","img/motor_7.png","75","motor","","","","","","",""
"452","","551838","HierDyyptfudne","flun8cl57a","ms1000379","motor","","83","img/motor_2.png","83","motor","2","195","1","0","0","",""
"null","","551947","HierDyyptfudne","flun8cl57a","ms1000379","iti","","null","img/motor_2.png","83","motor","","","","","","",""
"523","","552485","HierDyyptfudne","flun8cl57a","ms1000379","motor","","65","img/motor_1.png","65","motor","1","196","1","0","0","",""
"null","","552601","HierDyyptfudne","flun8cl57a","ms1000379","iti","","null","img/motor_1.png","65","motor","","","","","","",""
"454","","553063","HierDyyptfudne","flun8cl57a","ms1000379","motor","","75","img/motor_7.png","75","motor","7","197","1","0","0","",""
"null","","553178","HierDyyptfudne","flun8cl57a","ms1000379","iti","","null","img/motor_7.png","75","motor","","","","","","",""
"477","","553663","HierDyyptfudne","flun8cl57a","ms1000379","motor","","72","img/motor_5.png","72","motor","5","198","1","0","0","",""
"null","","553771","HierDyyptfudne","flun8cl57a","ms1000379","iti","","null","img/motor_5.png","72","motor","","","","","","",""
"540","","554325","HierDyyptfudne","flun8cl57a","ms1000379","motor","","68","img/motor_2.png","83","motor","2","199","0","1","0","",""
"80","","554421","HierDyyptfudne","flun8cl57a","ms1000379","motorRepeat","","83","img/motor_2.png","83","motor","2","199","1","0","0","",""
"null","","554537","HierDyyptfudne","flun8cl57a","ms1000379","iti","","null","img/motor_2.png","83","motor","","","","","","",""
"365","","554910","HierDyyptfudne","flun8cl57a","ms1000379","motor","","76","img/motor_8.png","76","motor","8","200","1","0","0","",""
"null","","555018","HierDyyptfudne","flun8cl57a","ms1000379","iti","","null","img/motor_8.png","76","motor","","","","","","",""
"579","","555613","HierDyyptfudne","flun8cl57a","ms1000379","motor","","74","img/motor_6.png","74","motor","6","201","1","0","0","",""
"null","","555722","HierDyyptfudne","flun8cl57a","ms1000379","iti","","null","img/motor_6.png","74","motor","","","","","","",""
"372","","556103","HierDyyptfudne","flun8cl57a","ms1000379","motor","","76","img/motor_8.png","76","motor","8","202","1","0","0","",""
"null","","556217","HierDyyptfudne","flun8cl57a","ms1000379","iti","","null","img/motor_8.png","76","motor","","","","","","",""
"404","","556631","HierDyyptfudne","flun8cl57a","ms1000379","motor","","76","img/motor_8.png","76","motor","8","203","1","0","0","",""
"null","","556740","HierDyyptfudne","flun8cl57a","ms1000379","iti","","null","img/motor_8.png","76","motor","","","","","","",""
"508","","557261","HierDyyptfudne","flun8cl57a","ms1000379","motor","","83","img/motor_3.png","68","motor","3","204","0","1","0","",""
"233","","557502","HierDyyptfudne","flun8cl57a","ms1000379","motorRepeat","","68","img/motor_3.png","68","motor","3","204","1","0","0","",""
"null","","557610","HierDyyptfudne","flun8cl57a","ms1000379","iti","","null","img/motor_3.png","68","motor","","","","","","",""
"380","","558005","HierDyyptfudne","flun8cl57a","ms1000379","motor","","76","img/motor_8.png","76","motor","8","205","1","0","0","",""
"null","","558114","HierDyyptfudne","flun8cl57a","ms1000379","iti","","null","img/motor_8.png","76","motor","","","","","","",""
"555","","558684","HierDyyptfudne","flun8cl57a","ms1000379","motor","","70","img/motor_4.png","70","motor","4","206","1","0","0","",""
"null","","558794","HierDyyptfudne","flun8cl57a","ms1000379","iti","","null","img/motor_4.png","70","motor","","","","","","",""
"420","","559222","HierDyyptfudne","flun8cl57a","ms1000379","motor","","65","img/motor_1.png","65","motor","1","207","1","0","0","",""
"null","","559337","HierDyyptfudne","flun8cl57a","ms1000379","iti","","null","img/motor_1.png","65","motor","","","","","","",""
"405","","559751","HierDyyptfudne","flun8cl57a","ms1000379","motor","","76","img/motor_8.png","76","motor","8","208","1","0","0","",""
"null","","559865","HierDyyptfudne","flun8cl57a","ms1000379","iti","","null","img/motor_8.png","76","motor","","","","","","",""
"467","","560342","HierDyyptfudne","flun8cl57a","ms1000379","motor","","72","img/motor_5.png","72","motor","5","209","1","0","0","",""
"null","","560452","HierDyyptfudne","flun8cl57a","ms1000379","iti","","null","img/motor_5.png","72","motor","","","","","","",""
"466","","560926","HierDyyptfudne","flun8cl57a","ms1000379","motor","","65","img/motor_1.png","65","motor","1","210","1","0","0","",""
"null","","561041","HierDyyptfudne","flun8cl57a","ms1000379","iti","","null","img/motor_1.png","65","motor","","","","","","",""
"380","","561431","HierDyyptfudne","flun8cl57a","ms1000379","motor","","65","img/motor_1.png","65","motor","1","211","1","0","0","",""
"null","","561539","HierDyyptfudne","flun8cl57a","ms1000379","iti","","null","img/motor_1.png","65","motor","","","","","","",""
"547","","562094","HierDyyptfudne","flun8cl57a","ms1000379","motor","","75","img/motor_7.png","75","motor","7","212","1","0","0","",""
"null","","562209","HierDyyptfudne","flun8cl57a","ms1000379","iti","","null","img/motor_7.png","75","motor","","","","","","",""
"366","","562589","HierDyyptfudne","flun8cl57a","ms1000379","motor","","75","img/motor_7.png","75","motor","7","213","1","0","0","",""
"null","","562705","HierDyyptfudne","flun8cl57a","ms1000379","iti","","null","img/motor_7.png","75","motor","","","","","","",""
"413","","563127","HierDyyptfudne","flun8cl57a","ms1000379","motor","","72","img/motor_5.png","72","motor","5","214","1","0","0","",""
"null","","563235","HierDyyptfudne","flun8cl57a","ms1000379","iti","","null","img/motor_5.png","72","motor","","","","","","",""
"467","","563717","HierDyyptfudne","flun8cl57a","ms1000379","motor","","75","img/motor_7.png","75","motor","7","215","1","0","0","",""
"null","","563826","HierDyyptfudne","flun8cl57a","ms1000379","iti","","null","img/motor_7.png","75","motor","","","","","","",""
"452","","564293","HierDyyptfudne","flun8cl57a","ms1000379","motor","","83","img/motor_2.png","83","motor","2","216","1","0","0","",""
"null","","564402","HierDyyptfudne","flun8cl57a","ms1000379","iti","","null","img/motor_2.png","83","motor","","","","","","",""
"421","","564837","HierDyyptfudne","flun8cl57a","ms1000379","motor","","72","img/motor_5.png","72","motor","5","217","1","0","0","",""
"null","","564952","HierDyyptfudne","flun8cl57a","ms1000379","iti","","null","img/motor_5.png","72","motor","","","","","","",""
"437","","565405","HierDyyptfudne","flun8cl57a","ms1000379","motor","","75","img/motor_7.png","75","motor","7","218","1","0","0","",""
"null","","565514","HierDyyptfudne","flun8cl57a","ms1000379","iti","","null","img/motor_7.png","75","motor","","","","","","",""
"390","","565917","HierDyyptfudne","flun8cl57a","ms1000379","motor","","75","img/motor_7.png","75","motor","7","219","1","0","0","",""
"null","","566026","HierDyyptfudne","flun8cl57a","ms1000379","iti","","null","img/motor_7.png","75","motor","","","","","","",""
"573","","566606","HierDyyptfudne","flun8cl57a","ms1000379","motor","","68","img/motor_3.png","68","motor","3","220","1","0","0","",""
"null","","566722","HierDyyptfudne","flun8cl57a","ms1000379","iti","","null","img/motor_3.png","68","motor","","","","","","",""
"53","","566788","HierDyyptfudne","flun8cl57a","ms1000379","motor","","68","img/motor_5.png","72","motor","5","221","0","1","0","",""
"418","","567214","HierDyyptfudne","flun8cl57a","ms1000379","motorRepeat","","75","img/motor_5.png","72","motor","5","221","0","1","0","",""
"392","","567622","HierDyyptfudne","flun8cl57a","ms1000379","motorRepeat","","74","img/motor_5.png","72","motor","5","221","0","1","0","",""
"201","","567838","HierDyyptfudne","flun8cl57a","ms1000379","motorRepeat","","72","img/motor_5.png","72","motor","5","221","1","0","0","",""
"null","","567954","HierDyyptfudne","flun8cl57a","ms1000379","iti","","null","img/motor_5.png","72","motor","","","","","","",""
"564","","568533","HierDyyptfudne","flun8cl57a","ms1000379","motor","","83","img/motor_2.png","83","motor","2","222","1","0","0","",""
"null","","568649","HierDyyptfudne","flun8cl57a","ms1000379","iti","","null","img/motor_2.png","83","motor","","","","","","",""
"421","","569085","HierDyyptfudne","flun8cl57a","ms1000379","motor","","83","img/motor_2.png","83","motor","2","223","1","0","0","",""
"null","","569194","HierDyyptfudne","flun8cl57a","ms1000379","iti","","null","img/motor_2.png","83","motor","","","","","","",""
"587","","569790","HierDyyptfudne","flun8cl57a","ms1000379","motor","","72","img/motor_5.png","72","motor","5","224","1","0","0","",""
"null","","569905","HierDyyptfudne","flun8cl57a","ms1000379","iti","","null","img/motor_5.png","72","motor","","","","","","",""
"372","","570286","HierDyyptfudne","flun8cl57a","ms1000379","motor","","72","img/motor_5.png","72","motor","5","225","1","0","0","",""
"null","","570394","HierDyyptfudne","flun8cl57a","ms1000379","iti","","null","img/motor_5.png","72","motor","","","","","","",""
"477","","570878","HierDyyptfudne","flun8cl57a","ms1000379","motor","","70","img/motor_4.png","70","motor","4","226","1","0","0","",""
"null","","570987","HierDyyptfudne","flun8cl57a","ms1000379","iti","","null","img/motor_4.png","70","motor","","","","","","",""
"371","","571367","HierDyyptfudne","flun8cl57a","ms1000379","motor","","75","img/motor_7.png","75","motor","7","227","1","0","0","",""
"null","","571475","HierDyyptfudne","flun8cl57a","ms1000379","iti","","null","img/motor_7.png","75","motor","","","","","","",""
"323","","571806","HierDyyptfudne","flun8cl57a","ms1000379","motor","","72","img/motor_5.png","72","motor","5","228","1","0","0","",""
"null","","571922","HierDyyptfudne","flun8cl57a","ms1000379","iti","","null","img/motor_5.png","72","motor","","","","","","",""
"365","","572294","HierDyyptfudne","flun8cl57a","ms1000379","motor","","72","img/motor_5.png","72","motor","5","229","1","0","0","",""
"null","","572402","HierDyyptfudne","flun8cl57a","ms1000379","iti","","null","img/motor_5.png","72","motor","","","","","","",""
"373","","572782","HierDyyptfudne","flun8cl57a","ms1000379","motor","","75","img/motor_6.png","74","motor","6","230","0","1","0","",""
"200","","572997","HierDyyptfudne","flun8cl57a","ms1000379","motorRepeat","","74","img/motor_6.png","74","motor","6","230","1","0","0","",""
"null","","573113","HierDyyptfudne","flun8cl57a","ms1000379","iti","","null","img/motor_6.png","74","motor","","","","","","",""
"452","","573575","HierDyyptfudne","flun8cl57a","ms1000379","motor","","70","img/motor_4.png","70","motor","4","231","1","0","0","",""
"null","","573683","HierDyyptfudne","flun8cl57a","ms1000379","iti","","null","img/motor_4.png","70","motor","","","","","","",""
"444","","574141","HierDyyptfudne","flun8cl57a","ms1000379","motor","","76","img/motor_8.png","76","motor","8","232","1","0","0","",""
"null","","574251","HierDyyptfudne","flun8cl57a","ms1000379","iti","","null","img/motor_8.png","76","motor","","","","","","",""
"340","","574599","HierDyyptfudne","flun8cl57a","ms1000379","motor","","76","img/motor_8.png","76","motor","8","233","1","0","0","",""
"null","","574707","HierDyyptfudne","flun8cl57a","ms1000379","iti","","null","img/motor_8.png","76","motor","","","","","","",""
"603","","575325","HierDyyptfudne","flun8cl57a","ms1000379","motor","","74","img/motor_6.png","74","motor","6","234","1","0","0","",""
"null","","575440","HierDyyptfudne","flun8cl57a","ms1000379","iti","","null","img/motor_6.png","74","motor","","","","","","",""
"557","","576007","HierDyyptfudne","flun8cl57a","ms1000379","motor","","70","img/motor_4.png","70","motor","4","235","1","0","0","",""
"null","","576115","HierDyyptfudne","flun8cl57a","ms1000379","iti","","null","img/motor_4.png","70","motor","","","","","","",""
"445","","576566","HierDyyptfudne","flun8cl57a","ms1000379","motor","","76","img/motor_8.png","76","motor","8","236","1","0","0","",""
"null","","576681","HierDyyptfudne","flun8cl57a","ms1000379","iti","","null","img/motor_8.png","76","motor","","","","","","",""
"326","","577013","HierDyyptfudne","flun8cl57a","ms1000379","motor","","70","img/motor_4.png","70","motor","4","237","1","0","0","",""
"null","","577129","HierDyyptfudne","flun8cl57a","ms1000379","iti","","null","img/motor_4.png","70","motor","","","","","","",""
"430","","577567","HierDyyptfudne","flun8cl57a","ms1000379","motor","","83","img/motor_2.png","83","motor","2","238","1","0","0","",""
"null","","577682","HierDyyptfudne","flun8cl57a","ms1000379","iti","","null","img/motor_2.png","83","motor","","","","","","",""
"396","","578093","HierDyyptfudne","flun8cl57a","ms1000379","motor","","70","img/motor_4.png","70","motor","4","239","1","0","0","",""
"null","","578202","HierDyyptfudne","flun8cl57a","ms1000379","iti","","null","img/motor_4.png","70","motor","","","","","","",""
"452","","578669","HierDyyptfudne","flun8cl57a","ms1000379","motor","","75","img/motor_7.png","75","motor","7","240","1","0","0","",""
"null","","578786","HierDyyptfudne","flun8cl57a","ms1000379","iti","","null","img/motor_7.png","75","motor","","","","","","",""
"404","","579199","HierDyyptfudne","flun8cl57a","ms1000379","motor","","72","img/motor_6.png","74","motor","6","241","0","1","0","",""
"247","","579454","HierDyyptfudne","flun8cl57a","ms1000379","motorRepeat","","74","img/motor_6.png","74","motor","6","241","1","0","0","",""
"null","","579562","HierDyyptfudne","flun8cl57a","ms1000379","iti","","null","img/motor_6.png","74","motor","","","","","","",""
"451","","580022","HierDyyptfudne","flun8cl57a","ms1000379","motor","","75","img/motor_7.png","75","motor","7","242","1","0","0","",""
"null","","580137","HierDyyptfudne","flun8cl57a","ms1000379","iti","","null","img/motor_7.png","75","motor","","","","","","",""
"548","","580695","HierDyyptfudne","flun8cl57a","ms1000379","motor","","83","img/motor_2.png","83","motor","2","243","1","0","0","",""
"null","","580809","HierDyyptfudne","flun8cl57a","ms1000379","iti","","null","img/motor_2.png","83","motor","","","","","","",""
"493","","581310","HierDyyptfudne","flun8cl57a","ms1000379","motor","","75","img/motor_7.png","75","motor","7","244","1","0","0","",""
"null","","581419","HierDyyptfudne","flun8cl57a","ms1000379","iti","","null","img/motor_7.png","75","motor","","","","","","",""
"443","","581877","HierDyyptfudne","flun8cl57a","ms1000379","motor","","72","img/motor_5.png","72","motor","5","245","1","0","0","",""
"null","","581986","HierDyyptfudne","flun8cl57a","ms1000379","iti","","null","img/motor_5.png","72","motor","","","","","","",""
"508","","582509","HierDyyptfudne","flun8cl57a","ms1000379","motor","","70","img/motor_4.png","70","motor","4","246","1","0","0","",""
"null","","582617","HierDyyptfudne","flun8cl57a","ms1000379","iti","","null","img/motor_4.png","70","motor","","","","","","",""
"622","","583247","HierDyyptfudne","flun8cl57a","ms1000379","motor","","74","img/motor_5.png","72","motor","5","247","0","1","0","",""
"383","","583642","HierDyyptfudne","flun8cl57a","ms1000379","motorRepeat","","72","img/motor_5.png","72","motor","5","247","1","0","0","",""
"null","","583757","HierDyyptfudne","flun8cl57a","ms1000379","iti","","null","img/motor_5.png","72","motor","","","","","","",""
"575","","584343","HierDyyptfudne","flun8cl57a","ms1000379","motor","","83","img/motor_2.png","83","motor","2","248","1","0","0","",""
"null","","584452","HierDyyptfudne","flun8cl57a","ms1000379","iti","","null","img/motor_2.png","83","motor","","","","","","",""
"491","","584950","HierDyyptfudne","flun8cl57a","ms1000379","motor","","75","img/motor_7.png","75","motor","7","249","1","0","0","",""
"null","","585066","HierDyyptfudne","flun8cl57a","ms1000379","iti","","null","img/motor_7.png","75","motor","","","","","","",""
"698","","585774","HierDyyptfudne","flun8cl57a","ms1000379","motor","","68","img/motor_3.png","68","motor","3","250","1","0","0","",""
"null","","585883","HierDyyptfudne","flun8cl57a","ms1000379","iti","","null","img/motor_3.png","68","motor","","","","","","",""
"491","","586382","HierDyyptfudne","flun8cl57a","ms1000379","motor","","65","img/motor_1.png","65","motor","1","251","1","0","0","",""
"null","","586497","HierDyyptfudne","flun8cl57a","ms1000379","iti","","null","img/motor_1.png","65","motor","","","","","","",""
"477","","586983","HierDyyptfudne","flun8cl57a","ms1000379","motor","","83","img/motor_2.png","83","motor","2","252","1","0","0","",""
"null","","587091","HierDyyptfudne","flun8cl57a","ms1000379","iti","","null","img/motor_2.png","83","motor","","","","","","",""
"515","","587620","HierDyyptfudne","flun8cl57a","ms1000379","motor","","70","img/motor_4.png","70","motor","4","253","1","0","0","",""
"null","","587736","HierDyyptfudne","flun8cl57a","ms1000379","iti","","null","img/motor_4.png","70","motor","","","","","","",""
"390","","588141","HierDyyptfudne","flun8cl57a","ms1000379","motor","","70","img/motor_4.png","70","motor","4","254","1","0","0","",""
"null","","588257","HierDyyptfudne","flun8cl57a","ms1000379","iti","","null","img/motor_4.png","70","motor","","","","","","",""
"460","","588726","HierDyyptfudne","flun8cl57a","ms1000379","motor","","83","img/motor_2.png","83","motor","2","255","1","0","0","",""
"null","","588842","HierDyyptfudne","flun8cl57a","ms1000379","iti","","null","img/motor_2.png","83","motor","","","","","","",""
"564","","589415","HierDyyptfudne","flun8cl57a","ms1000379","motor","","75","img/motor_7.png","75","motor","7","256","1","0","0","",""
"null","","589524","HierDyyptfudne","flun8cl57a","ms1000379","iti","","null","img/motor_7.png","75","motor","","","","","","",""
"643","","590181","HierDyyptfudne","flun8cl57a","ms1000379","motor","","68","img/motor_3.png","68","motor","3","257","1","0","0","",""
"null","","590290","HierDyyptfudne","flun8cl57a","ms1000379","iti","","null","img/motor_3.png","68","motor","","","","","","",""
"748","","591047","HierDyyptfudne","flun8cl57a","ms1000379","motor","","72","img/motor_5.png","72","motor","5","258","1","0","0","",""
"null","","591162","HierDyyptfudne","flun8cl57a","ms1000379","iti","","null","img/motor_5.png","72","motor","","","","","","",""
"755","","591934","HierDyyptfudne","flun8cl57a","ms1000379","motor","","70","img/motor_4.png","70","motor","4","259","1","0","0","",""
"null","","592049","HierDyyptfudne","flun8cl57a","ms1000379","iti","","null","img/motor_4.png","70","motor","","","","","","",""
"557","","592621","HierDyyptfudne","flun8cl57a","ms1000379","motor","","68","img/motor_3.png","68","motor","3","260","1","0","0","",""
"null","","592738","HierDyyptfudne","flun8cl57a","ms1000379","iti","","null","img/motor_3.png","68","motor","","","","","","",""
"548","","593302","HierDyyptfudne","flun8cl57a","ms1000379","motor","","75","img/motor_7.png","75","motor","7","261","1","0","0","",""
"null","","593411","HierDyyptfudne","flun8cl57a","ms1000379","iti","","null","img/motor_7.png","75","motor","","","","","","",""
"531","","593951","HierDyyptfudne","flun8cl57a","ms1000379","motor","","65","img/motor_1.png","65","motor","1","262","1","0","0","",""
"null","","594066","HierDyyptfudne","flun8cl57a","ms1000379","iti","","null","img/motor_1.png","65","motor","","","","","","",""
"492","","594567","HierDyyptfudne","flun8cl57a","ms1000379","motor","","76","img/motor_8.png","76","motor","8","263","1","0","0","",""
"null","","594675","HierDyyptfudne","flun8cl57a","ms1000379","iti","","null","img/motor_8.png","76","motor","","","","","","",""
"683","","595373","HierDyyptfudne","flun8cl57a","ms1000379","motor","","68","img/motor_3.png","68","motor","3","264","1","0","0","",""
"null","","595482","HierDyyptfudne","flun8cl57a","ms1000379","iti","","null","img/motor_3.png","68","motor","","","","","","",""
"533","","596023","HierDyyptfudne","flun8cl57a","ms1000379","motor","","75","img/motor_7.png","75","motor","7","265","1","0","0","",""
"null","","596137","HierDyyptfudne","flun8cl57a","ms1000379","iti","","null","img/motor_7.png","75","motor","","","","","","",""
"764","","596911","HierDyyptfudne","flun8cl57a","ms1000379","motor","","75","img/motor_7.png","75","motor","7","266","1","0","0","",""
"null","","597026","HierDyyptfudne","flun8cl57a","ms1000379","iti","","null","img/motor_7.png","75","motor","","","","","","",""
"515","","597551","HierDyyptfudne","flun8cl57a","ms1000379","motor","","70","img/motor_4.png","70","motor","4","267","1","0","0","",""
"null","","597659","HierDyyptfudne","flun8cl57a","ms1000379","iti","","null","img/motor_4.png","70","motor","","","","","","",""
"644","","598317","HierDyyptfudne","flun8cl57a","ms1000379","motor","","74","img/motor_6.png","74","motor","6","268","1","0","0","",""
"null","","598433","HierDyyptfudne","flun8cl57a","ms1000379","iti","","null","img/motor_6.png","74","motor","","","","","","",""
"598","","599039","HierDyyptfudne","flun8cl57a","ms1000379","motor","","65","img/motor_1.png","65","motor","1","269","1","0","0","",""
"null","","599153","HierDyyptfudne","flun8cl57a","ms1000379","iti","","null","img/motor_1.png","65","motor","","","","","","",""
"501","","599669","HierDyyptfudne","flun8cl57a","ms1000379","motor","","83","img/motor_2.png","83","motor","2","270","1","0","0","",""
"null","","599785","HierDyyptfudne","flun8cl57a","ms1000379","iti","","null","img/motor_2.png","83","motor","","","","","","",""
"637","","600438","HierDyyptfudne","flun8cl57a","ms1000379","motor","","75","img/motor_7.png","75","motor","7","271","1","0","0","",""
"null","","600547","HierDyyptfudne","flun8cl57a","ms1000379","iti","","null","img/motor_7.png","75","motor","","","","","","",""
"756","","601312","HierDyyptfudne","flun8cl57a","ms1000379","motor","","68","img/motor_3.png","68","motor","3","272","1","0","0","",""
"null","","601419","HierDyyptfudne","flun8cl57a","ms1000379","iti","","null","img/motor_3.png","68","motor","","","","","","",""
"476","","601904","HierDyyptfudne","flun8cl57a","ms1000379","motor","","83","img/motor_2.png","83","motor","2","273","1","0","0","",""
"null","","602018","HierDyyptfudne","flun8cl57a","ms1000379","iti","","null","img/motor_2.png","83","motor","","","","","","",""
"627","","602655","HierDyyptfudne","flun8cl57a","ms1000379","motor","","74","img/motor_6.png","74","motor","6","274","1","0","0","",""
"null","","602764","HierDyyptfudne","flun8cl57a","ms1000379","iti","","null","img/motor_6.png","74","motor","","","","","","",""
"556","","603333","HierDyyptfudne","flun8cl57a","ms1000379","motor","","70","img/motor_4.png","70","motor","4","275","1","0","0","",""
"null","","603449","HierDyyptfudne","flun8cl57a","ms1000379","iti","","null","img/motor_4.png","70","motor","","","","","","",""
"517","","603975","HierDyyptfudne","flun8cl57a","ms1000379","motor","","83","img/motor_2.png","83","motor","2","276","1","0","0","",""
"null","","604090","HierDyyptfudne","flun8cl57a","ms1000379","iti","","null","img/motor_2.png","83","motor","","","","","","",""
"509","","604607","HierDyyptfudne","flun8cl57a","ms1000379","motor","","75","img/motor_7.png","75","motor","7","277","1","0","0","",""
"null","","604716","HierDyyptfudne","flun8cl57a","ms1000379","iti","","null","img/motor_7.png","75","motor","","","","","","",""
"442","","605167","HierDyyptfudne","flun8cl57a","ms1000379","motor","","65","img/motor_1.png","65","motor","1","278","1","0","0","",""
"null","","605283","HierDyyptfudne","flun8cl57a","ms1000379","iti","","null","img/motor_1.png","65","motor","","","","","","",""
"548","","605845","HierDyyptfudne","flun8cl57a","ms1000379","motor","","70","img/motor_4.png","70","motor","4","279","1","0","0","",""
"null","","605954","HierDyyptfudne","flun8cl57a","ms1000379","iti","","null","img/motor_4.png","70","motor","","","","","","",""
"709","","606677","HierDyyptfudne","flun8cl57a","ms1000379","motor","","74","img/motor_6.png","74","motor","6","280","1","0","0","",""
"null","","606787","HierDyyptfudne","flun8cl57a","ms1000379","iti","","null","img/motor_6.png","74","motor","","","","","","",""
"517","","607318","HierDyyptfudne","flun8cl57a","ms1000379","motor","","83","img/motor_3.png","68","motor","3","281","0","1","0","",""
"247","","607575","HierDyyptfudne","flun8cl57a","ms1000379","motorRepeat","","68","img/motor_3.png","68","motor","3","281","1","0","0","",""
"null","","607682","HierDyyptfudne","flun8cl57a","ms1000379","iti","","null","img/motor_3.png","68","motor","","","","","","",""
"524","","608215","HierDyyptfudne","flun8cl57a","ms1000379","motor","","76","img/motor_8.png","76","motor","8","282","1","0","0","",""
"null","","608330","HierDyyptfudne","flun8cl57a","ms1000379","iti","","null","img/motor_8.png","76","motor","","","","","","",""
"1052","","609392","HierDyyptfudne","flun8cl57a","ms1000379","motor","","74","img/motor_6.png","74","motor","6","283","1","0","0","",""
"null","","609507","HierDyyptfudne","flun8cl57a","ms1000379","iti","","null","img/motor_6.png","74","motor","","","","","","",""
"531","","610054","HierDyyptfudne","flun8cl57a","ms1000379","motor","","83","img/motor_2.png","83","motor","2","284","1","0","0","",""
"null","","610169","HierDyyptfudne","flun8cl57a","ms1000379","iti","","null","img/motor_2.png","83","motor","","","","","","",""
"556","","610741","HierDyyptfudne","flun8cl57a","ms1000379","motor","","68","img/motor_3.png","68","motor","3","285","1","0","0","",""
"null","","610851","HierDyyptfudne","flun8cl57a","ms1000379","iti","","null","img/motor_3.png","68","motor","","","","","","",""
"451","","611310","HierDyyptfudne","flun8cl57a","ms1000379","motor","","83","img/motor_2.png","83","motor","2","286","1","0","0","",""
"null","","611420","HierDyyptfudne","flun8cl57a","ms1000379","iti","","null","img/motor_2.png","83","motor","","","","","","",""
"796","","612229","HierDyyptfudne","flun8cl57a","ms1000379","motor","","74","img/motor_6.png","74","motor","6","287","1","0","0","",""
"null","","612338","HierDyyptfudne","flun8cl57a","ms1000379","iti","","null","img/motor_6.png","74","motor","","","","","","",""
"604","","612957","HierDyyptfudne","flun8cl57a","ms1000379","motor","","83","img/motor_2.png","83","motor","2","288","1","0","0","",""
"null","","613067","HierDyyptfudne","flun8cl57a","ms1000379","iti","","null","img/motor_2.png","83","motor","","","","","","",""
"508","","613589","HierDyyptfudne","flun8cl57a","ms1000379","motor","","74","img/motor_6.png","74","motor","6","289","1","0","0","",""
"null","","613699","HierDyyptfudne","flun8cl57a","ms1000379","iti","","null","img/motor_6.png","74","motor","","","","","","",""
"635","","614342","HierDyyptfudne","flun8cl57a","ms1000379","motor","","74","img/motor_6.png","74","motor","6","290","1","0","0","",""
"null","","614457","HierDyyptfudne","flun8cl57a","ms1000379","iti","","null","img/motor_6.png","74","motor","","","","","","",""
"613","","615086","HierDyyptfudne","flun8cl57a","ms1000379","motor","","68","img/motor_3.png","68","motor","3","291","1","0","0","",""
"null","","615196","HierDyyptfudne","flun8cl57a","ms1000379","iti","","null","img/motor_3.png","68","motor","","","","","","",""
"675","","615886","HierDyyptfudne","flun8cl57a","ms1000379","motor","","74","img/motor_6.png","74","motor","6","292","1","0","0","",""
"null","","615996","HierDyyptfudne","flun8cl57a","ms1000379","iti","","null","img/motor_6.png","74","motor","","","","","","",""
"564","","616568","HierDyyptfudne","flun8cl57a","ms1000379","motor","","75","img/motor_7.png","75","motor","7","293","1","0","0","",""
"null","","616676","HierDyyptfudne","flun8cl57a","ms1000379","iti","","null","img/motor_7.png","75","motor","","","","","","",""
"658","","617343","HierDyyptfudne","flun8cl57a","ms1000379","motor","","83","img/motor_2.png","83","motor","2","294","1","0","0","",""
"null","","617452","HierDyyptfudne","flun8cl57a","ms1000379","iti","","null","img/motor_2.png","83","motor","","","","","","",""
"643","","618110","HierDyyptfudne","flun8cl57a","ms1000379","motor","","76","img/motor_8.png","76","motor","8","295","1","0","0","",""
"null","","618225","HierDyyptfudne","flun8cl57a","ms1000379","iti","","null","img/motor_8.png","76","motor","","","","","","",""
"677","","618918","HierDyyptfudne","flun8cl57a","ms1000379","motor","","72","img/motor_5.png","72","motor","5","296","1","0","0","",""
"null","","619034","HierDyyptfudne","flun8cl57a","ms1000379","iti","","null","img/motor_5.png","72","motor","","","","","","",""
"612","","619662","HierDyyptfudne","flun8cl57a","ms1000379","motor","","83","img/motor_2.png","83","motor","2","297","1","0","0","",""
"null","","619771","HierDyyptfudne","flun8cl57a","ms1000379","iti","","null","img/motor_2.png","83","motor","","","","","","",""
"595","","620375","HierDyyptfudne","flun8cl57a","ms1000379","motor","","65","img/motor_1.png","65","motor","1","298","1","0","0","",""
"null","","620483","HierDyyptfudne","flun8cl57a","ms1000379","iti","","null","img/motor_1.png","65","motor","","","","","","",""
"611","","621103","HierDyyptfudne","flun8cl57a","ms1000379","motor","","76","img/motor_8.png","76","motor","8","299","1","0","0","",""
"null","","621211","HierDyyptfudne","flun8cl57a","ms1000379","iti","","null","img/motor_8.png","76","motor","","","","","","",""
"531","","621751","HierDyyptfudne","flun8cl57a","ms1000379","motor","","65","img/motor_1.png","65","motor","1","300","1","0","0","",""
"null","","621859","HierDyyptfudne","flun8cl57a","ms1000379","iti","","null","img/motor_1.png","65","motor","","","","","","",""
"828","","622696","HierDyyptfudne","flun8cl57a","ms1000379","motor","","74","img/motor_6.png","74","motor","6","301","1","0","0","",""
"null","","622803","HierDyyptfudne","flun8cl57a","ms1000379","iti","","null","img/motor_6.png","74","motor","","","","","","",""
"564","","623375","HierDyyptfudne","flun8cl57a","ms1000379","motor","","72","img/motor_5.png","72","motor","5","302","1","0","0","",""
"null","","623483","HierDyyptfudne","flun8cl57a","ms1000379","iti","","null","img/motor_5.png","72","motor","","","","","","",""
"508","","623999","HierDyyptfudne","flun8cl57a","ms1000379","motor","","75","img/motor_7.png","75","motor","7","303","1","0","0","",""
"null","","624108","HierDyyptfudne","flun8cl57a","ms1000379","iti","","null","img/motor_7.png","75","motor","","","","","","",""
"523","","624639","HierDyyptfudne","flun8cl57a","ms1000379","motor","","74","img/motor_6.png","74","motor","6","304","1","0","0","",""
"null","","624748","HierDyyptfudne","flun8cl57a","ms1000379","iti","","null","img/motor_6.png","74","motor","","","","","","",""
"572","","625334","HierDyyptfudne","flun8cl57a","ms1000379","motor","","70","img/motor_4.png","70","motor","4","305","1","0","0","",""
"null","","625443","HierDyyptfudne","flun8cl57a","ms1000379","iti","","null","img/motor_4.png","70","motor","","","","","","",""
"540","","625991","HierDyyptfudne","flun8cl57a","ms1000379","motor","","68","img/motor_3.png","68","motor","3","306","1","0","0","",""
"null","","626099","HierDyyptfudne","flun8cl57a","ms1000379","iti","","null","img/motor_3.png","68","motor","","","","","","",""
"524","","626632","HierDyyptfudne","flun8cl57a","ms1000379","motor","","76","img/motor_8.png","76","motor","8","307","1","0","0","",""
"null","","626747","HierDyyptfudne","flun8cl57a","ms1000379","iti","","null","img/motor_8.png","76","motor","","","","","","",""
"771","","627527","HierDyyptfudne","flun8cl57a","ms1000379","motor","","68","img/motor_3.png","68","motor","3","308","1","0","0","",""
"null","","627636","HierDyyptfudne","flun8cl57a","ms1000379","iti","","null","img/motor_3.png","68","motor","","","","","","",""
"579","","628223","HierDyyptfudne","flun8cl57a","ms1000379","motor","","72","img/motor_5.png","72","motor","5","309","1","0","0","",""
"null","","628331","HierDyyptfudne","flun8cl57a","ms1000379","iti","","null","img/motor_5.png","72","motor","","","","","","",""
"516","","628854","HierDyyptfudne","flun8cl57a","ms1000379","motor","","75","img/motor_7.png","75","motor","7","310","1","0","0","",""
"null","","628969","HierDyyptfudne","flun8cl57a","ms1000379","iti","","null","img/motor_7.png","75","motor","","","","","","",""
"637","","629622","HierDyyptfudne","flun8cl57a","ms1000379","motor","","74","img/motor_6.png","74","motor","6","311","1","0","0","",""
"null","","629731","HierDyyptfudne","flun8cl57a","ms1000379","iti","","null","img/motor_6.png","74","motor","","","","","","",""
"612","","630351","HierDyyptfudne","flun8cl57a","ms1000379","motor","","83","img/motor_2.png","83","motor","2","312","1","0","0","",""
"null","","630460","HierDyyptfudne","flun8cl57a","ms1000379","iti","","null","img/motor_2.png","83","motor","","","","","","",""
"451","","630919","HierDyyptfudne","flun8cl57a","ms1000379","motor","","65","img/motor_1.png","65","motor","1","313","1","0","0","",""
"null","","631027","HierDyyptfudne","flun8cl57a","ms1000379","iti","","null","img/motor_1.png","65","motor","","","","","","",""
"540","","631582","HierDyyptfudne","flun8cl57a","ms1000379","motor","","70","img/motor_4.png","70","motor","4","314","1","0","0","",""
"null","","631698","HierDyyptfudne","flun8cl57a","ms1000379","iti","","null","img/motor_4.png","70","motor","","","","","","",""
"462","","632174","HierDyyptfudne","flun8cl57a","ms1000379","motor","","70","img/motor_4.png","70","motor","4","315","1","0","0","",""
"null","","632284","HierDyyptfudne","flun8cl57a","ms1000379","iti","","null","img/motor_4.png","70","motor","","","","","","",""
"739","","633038","HierDyyptfudne","flun8cl57a","ms1000379","motor","","74","img/motor_6.png","74","motor","6","316","1","0","0","",""
"null","","633153","HierDyyptfudne","flun8cl57a","ms1000379","iti","","null","img/motor_6.png","74","motor","","","","","","",""
"429","","633598","HierDyyptfudne","flun8cl57a","ms1000379","motor","","74","img/motor_6.png","74","motor","6","317","1","0","0","",""
"null","","633714","HierDyyptfudne","flun8cl57a","ms1000379","iti","","null","img/motor_6.png","74","motor","","","","","","",""
"509","","634231","HierDyyptfudne","flun8cl57a","ms1000379","motor","","65","img/motor_1.png","65","motor","1","318","1","0","0","",""
"null","","634346","HierDyyptfudne","flun8cl57a","ms1000379","iti","","null","img/motor_1.png","65","motor","","","","","","",""
"556","","634918","HierDyyptfudne","flun8cl57a","ms1000379","motor","","83","img/motor_2.png","83","motor","2","319","1","0","0","",""
"null","","635034","HierDyyptfudne","flun8cl57a","ms1000379","iti","","null","img/motor_2.png","83","motor","","","","","","",""
"524","","635574","HierDyyptfudne","flun8cl57a","ms1000379","motor","","70","img/motor_4.png","70","motor","4","320","1","0","0","",""
"null","","635683","HierDyyptfudne","flun8cl57a","ms1000379","iti","","null","img/motor_4.png","70","motor","","","","","","",""
"596","","636294","HierDyyptfudne","flun8cl57a","ms1000379","motor","","70","img/motor_4.png","70","motor","4","321","1","0","0","",""
"null","","636404","HierDyyptfudne","flun8cl57a","ms1000379","iti","","null","img/motor_4.png","70","motor","","","","","","",""
"548","","636966","HierDyyptfudne","flun8cl57a","ms1000379","motor","","83","img/motor_2.png","83","motor","2","322","1","0","0","",""
"null","","637083","HierDyyptfudne","flun8cl57a","ms1000379","iti","","null","img/motor_2.png","83","motor","","","","","","",""
"571","","637663","HierDyyptfudne","flun8cl57a","ms1000379","motor","","68","img/motor_3.png","68","motor","3","323","1","0","0","",""
"null","","637772","HierDyyptfudne","flun8cl57a","ms1000379","iti","","null","img/motor_3.png","68","motor","","","","","","",""
"643","","638424","HierDyyptfudne","flun8cl57a","ms1000379","motor","","68","img/motor_3.png","68","motor","3","324","1","0","0","",""
"null","","638532","HierDyyptfudne","flun8cl57a","ms1000379","iti","","null","img/motor_3.png","68","motor","","","","","","",""
"467","","639007","HierDyyptfudne","flun8cl57a","ms1000379","motor","","65","img/motor_1.png","65","motor","1","325","1","0","0","",""
"null","","639116","HierDyyptfudne","flun8cl57a","ms1000379","iti","","null","img/motor_1.png","65","motor","","","","","","",""
"507","","639638","HierDyyptfudne","flun8cl57a","ms1000379","motor","","76","img/motor_8.png","76","motor","8","326","1","0","0","",""
"null","","639747","HierDyyptfudne","flun8cl57a","ms1000379","iti","","null","img/motor_8.png","76","motor","","","","","","",""
"524","","640286","HierDyyptfudne","flun8cl57a","ms1000379","motor","","75","img/motor_7.png","75","motor","7","327","1","0","0","",""
"null","","640396","HierDyyptfudne","flun8cl57a","ms1000379","iti","","null","img/motor_7.png","75","motor","","","","","","",""
"547","","640957","HierDyyptfudne","flun8cl57a","ms1000379","motor","","68","img/motor_3.png","68","motor","3","328","1","0","0","",""
"null","","641067","HierDyyptfudne","flun8cl57a","ms1000379","iti","","null","img/motor_3.png","68","motor","","","","","","",""
"556","","641630","HierDyyptfudne","flun8cl57a","ms1000379","motor","","75","img/motor_7.png","75","motor","7","329","1","0","0","",""
"null","","641745","HierDyyptfudne","flun8cl57a","ms1000379","iti","","null","img/motor_7.png","75","motor","","","","","","",""
"533","","642294","HierDyyptfudne","flun8cl57a","ms1000379","motor","","72","img/motor_5.png","72","motor","5","330","1","0","0","",""
"null","","642403","HierDyyptfudne","flun8cl57a","ms1000379","iti","","null","img/motor_5.png","72","motor","","","","","","",""
"860","","643278","HierDyyptfudne","flun8cl57a","ms1000379","motor","","68","img/motor_3.png","68","motor","3","331","1","0","0","",""
"null","","643394","HierDyyptfudne","flun8cl57a","ms1000379","iti","","null","img/motor_3.png","68","motor","","","","","","",""
"517","","643926","HierDyyptfudne","flun8cl57a","ms1000379","motor","","70","img/motor_4.png","70","motor","4","332","1","0","0","",""
"null","","644041","HierDyyptfudne","flun8cl57a","ms1000379","iti","","null","img/motor_4.png","70","motor","","","","","","",""
"486","","644536","HierDyyptfudne","flun8cl57a","ms1000379","motor","","72","img/motor_5.png","72","motor","5","333","1","0","0","",""
"null","","644651","HierDyyptfudne","flun8cl57a","ms1000379","iti","","null","img/motor_5.png","72","motor","","","","","","",""
"685","","645343","HierDyyptfudne","flun8cl57a","ms1000379","motor","","70","img/motor_4.png","70","motor","4","334","1","0","0","",""
"null","","645452","HierDyyptfudne","flun8cl57a","ms1000379","iti","","null","img/motor_4.png","70","motor","","","","","","",""
"450","","645910","HierDyyptfudne","flun8cl57a","ms1000379","motor","","65","img/motor_1.png","65","motor","1","335","1","0","0","",""
"null","","646025","HierDyyptfudne","flun8cl57a","ms1000379","iti","","null","img/motor_1.png","65","motor","","","","","","",""
"565","","646605","HierDyyptfudne","flun8cl57a","ms1000379","motor","","68","img/motor_3.png","68","motor","3","336","1","0","0","",""
"null","","646715","HierDyyptfudne","flun8cl57a","ms1000379","iti","","null","img/motor_3.png","68","motor","","","","","","",""
"396","","647118","HierDyyptfudne","flun8cl57a","ms1000379","motor","","70","img/motor_4.png","70","motor","4","337","1","0","0","",""
"null","","647234","HierDyyptfudne","flun8cl57a","ms1000379","iti","","null","img/motor_4.png","70","motor","","","","","","",""
"1061","","648305","HierDyyptfudne","flun8cl57a","ms1000379","motor","","74","img/motor_6.png","74","motor","6","338","1","0","0","",""
"null","","648414","HierDyyptfudne","flun8cl57a","ms1000379","iti","","null","img/motor_6.png","74","motor","","","","","","",""
"402","","648823","HierDyyptfudne","flun8cl57a","ms1000379","motor","","76","img/motor_8.png","76","motor","8","339","1","0","0","",""
"null","","648933","HierDyyptfudne","flun8cl57a","ms1000379","iti","","null","img/motor_8.png","76","motor","","","","","","",""
"491","","649432","HierDyyptfudne","flun8cl57a","ms1000379","motor","","72","img/motor_5.png","72","motor","5","340","1","0","0","",""
"null","","649548","HierDyyptfudne","flun8cl57a","ms1000379","iti","","null","img/motor_5.png","72","motor","","","","","","",""
"554","","650111","HierDyyptfudne","flun8cl57a","ms1000379","motor","","83","img/motor_2.png","83","motor","2","341","1","0","0","",""
"null","","650220","HierDyyptfudne","flun8cl57a","ms1000379","iti","","null","img/motor_2.png","83","motor","","","","","","",""
"444","","650672","HierDyyptfudne","flun8cl57a","ms1000379","motor","","65","img/motor_1.png","65","motor","1","342","1","0","0","",""
"null","","650786","HierDyyptfudne","flun8cl57a","ms1000379","iti","","null","img/motor_1.png","65","motor","","","","","","",""
"459","","651254","HierDyyptfudne","flun8cl57a","ms1000379","motor","","65","img/motor_1.png","65","motor","1","343","1","0","0","",""
"null","","651369","HierDyyptfudne","flun8cl57a","ms1000379","iti","","null","img/motor_1.png","65","motor","","","","","","",""
"622","","652006","HierDyyptfudne","flun8cl57a","ms1000379","motor","","68","img/motor_3.png","68","motor","3","344","1","0","0","",""
"null","","652122","HierDyyptfudne","flun8cl57a","ms1000379","iti","","null","img/motor_3.png","68","motor","","","","","","",""
"484","","652616","HierDyyptfudne","flun8cl57a","ms1000379","motor","","70","img/motor_4.png","70","motor","4","345","1","0","0","",""
"null","","652724","HierDyyptfudne","flun8cl57a","ms1000379","iti","","null","img/motor_4.png","70","motor","","","","","","",""
"515","","653248","HierDyyptfudne","flun8cl57a","ms1000379","motor","","72","img/motor_5.png","72","motor","5","346","1","0","0","",""
"null","","653357","HierDyyptfudne","flun8cl57a","ms1000379","iti","","null","img/motor_5.png","72","motor","","","","","","",""
"514","","653880","HierDyyptfudne","flun8cl57a","ms1000379","motor","","65","img/motor_1.png","65","motor","1","347","1","0","0","",""
"null","","653988","HierDyyptfudne","flun8cl57a","ms1000379","iti","","null","img/motor_1.png","65","motor","","","","","","",""
"475","","654478","HierDyyptfudne","flun8cl57a","ms1000379","motor","","83","img/motor_2.png","83","motor","2","348","1","0","0","",""
"null","","654588","HierDyyptfudne","flun8cl57a","ms1000379","iti","","null","img/motor_2.png","83","motor","","","","","","",""
"491","","655088","HierDyyptfudne","flun8cl57a","ms1000379","motor","","75","img/motor_7.png","75","motor","7","349","1","0","0","",""
"null","","655203","HierDyyptfudne","flun8cl57a","ms1000379","iti","","null","img/motor_7.png","75","motor","","","","","","",""
"477","","655695","HierDyyptfudne","flun8cl57a","ms1000379","motor","","65","img/motor_1.png","65","motor","1","350","1","0","0","",""
"null","","655804","HierDyyptfudne","flun8cl57a","ms1000379","iti","","null","img/motor_1.png","65","motor","","","","","","",""
"428","","656239","HierDyyptfudne","flun8cl57a","ms1000379","motor","","70","img/motor_4.png","70","motor","4","351","1","0","0","",""
"null","","656355","HierDyyptfudne","flun8cl57a","ms1000379","iti","","null","img/motor_4.png","70","motor","","","","","","",""
"428","","656798","HierDyyptfudne","flun8cl57a","ms1000379","motor","","83","img/motor_2.png","83","motor","2","352","1","0","0","",""
"null","","656914","HierDyyptfudne","flun8cl57a","ms1000379","iti","","null","img/motor_2.png","83","motor","","","","","","",""
"461","","657383","HierDyyptfudne","flun8cl57a","ms1000379","motor","","72","img/motor_5.png","72","motor","5","353","1","0","0","",""
"null","","657492","HierDyyptfudne","flun8cl57a","ms1000379","iti","","null","img/motor_5.png","72","motor","","","","","","",""
"476","","657982","HierDyyptfudne","flun8cl57a","ms1000379","motor","","76","img/motor_8.png","76","motor","8","354","1","0","0","",""
"null","","658098","HierDyyptfudne","flun8cl57a","ms1000379","iti","","null","img/motor_8.png","76","motor","","","","","","",""
"564","","658678","HierDyyptfudne","flun8cl57a","ms1000379","motor","","74","img/motor_6.png","74","motor","6","355","1","0","0","",""
"null","","658794","HierDyyptfudne","flun8cl57a","ms1000379","iti","","null","img/motor_6.png","74","motor","","","","","","",""
"516","","659326","HierDyyptfudne","flun8cl57a","ms1000379","motor","","72","img/motor_5.png","72","motor","5","356","1","0","0","",""
"null","","659442","HierDyyptfudne","flun8cl57a","ms1000379","iti","","null","img/motor_5.png","72","motor","","","","","","",""
"492","","659943","HierDyyptfudne","flun8cl57a","ms1000379","motor","","70","img/motor_3.png","68","motor","3","357","0","1","0","",""
"249","","660206","HierDyyptfudne","flun8cl57a","ms1000379","motorRepeat","","68","img/motor_3.png","68","motor","3","357","1","0","0","",""
"null","","660316","HierDyyptfudne","flun8cl57a","ms1000379","iti","","null","img/motor_3.png","68","motor","","","","","","",""
"485","","660814","HierDyyptfudne","flun8cl57a","ms1000379","motor","","72","img/motor_5.png","72","motor","5","358","1","0","0","",""
"null","","660923","HierDyyptfudne","flun8cl57a","ms1000379","iti","","null","img/motor_5.png","72","motor","","","","","","",""
"580","","661518","HierDyyptfudne","flun8cl57a","ms1000379","motor","","65","img/motor_1.png","65","motor","1","359","1","0","0","",""
"null","","661627","HierDyyptfudne","flun8cl57a","ms1000379","iti","","null","img/motor_1.png","65","motor","","","","","","",""
"1235","","662872","HierDyyptfudne","flun8cl57a","ms1000379","motor","","74","img/motor_6.png","74","motor","6","360","1","0","0","",""
"null","","662980","HierDyyptfudne","flun8cl57a","ms1000379","iti","","null","img/motor_6.png","74","motor","","","","","","",""
"571","","663566","HierDyyptfudne","flun8cl57a","ms1000379","motor","","70","img/motor_4.png","70","motor","4","361","1","0","0","",""
"null","","663676","HierDyyptfudne","flun8cl57a","ms1000379","iti","","null","img/motor_4.png","70","motor","","","","","","",""
"835","","664519","HierDyyptfudne","flun8cl57a","ms1000379","motor","","65","img/motor_1.png","65","motor","1","362","1","0","0","",""
"null","","664634","HierDyyptfudne","flun8cl57a","ms1000379","iti","","null","img/motor_1.png","65","motor","","","","","","",""
