"rt","responses","time_elapsed","subject","prolificID","demoID","trialType","question_order","key_press","stim","corrresp","phase","stimNum","trialNum","corr","repeatTrial","motorSwitch","pracCounter","hierarchy"
"27123","{""Q0"":""ms1000306""}","27156","HierDyb9rvmxwu","pb2sfs4wv8","ms1000306","","","","","","","","","","","","",""
"4038","","31210","HierDyb9rvmxwu","pb2sfs4wv8","ms1000306","","","","","","","","","","","","",""
"","","33425","HierDyb9rvmxwu","pb2sfs4wv8","ms1000306","fullscreen","","","","","","","","","","","",""
"25326","{""Vision"":""Yes"",""Handedness"":""Right"",""Gender"":""male""}","58769","HierDyb9rvmxwu","pb2sfs4wv8","ms1000306","","[0,1,2]","","","","","","","","","","",""
"1878","{""Q0"":""20""}","60664","HierDyb9rvmxwu","pb2sfs4wv8","ms1000306","","","","","","","","","","","","",""
"96896","","157581","HierDyb9rvmxwu","pb2sfs4wv8","ms1000306","","","","","","","","","","","","",""
"611","","158208","HierDyb9rvmxwu","pb2sfs4wv8","ms1000306","motor","","83","img/motor_2.png","83","motor","2","1","1","0","0","",""
"null","","158317","HierDyb9rvmxwu","pb2sfs4wv8","ms1000306","iti","","null","img/motor_2.png","83","motor","","","","","","",""
"828","","159159","HierDyb9rvmxwu","pb2sfs4wv8","ms1000306","motor","","74","img/motor_6.png","74","motor","6","2","1","0","0","",""
"null","","159269","HierDyb9rvmxwu","pb2sfs4wv8","ms1000306","iti","","null","img/motor_6.png","74","motor","","","","","","",""
"741","","160018","HierDyb9rvmxwu","pb2sfs4wv8","ms1000306","motor","","70","img/motor_4.png","70","motor","4","3","1","0","0","",""
"null","","160132","HierDyb9rvmxwu","pb2sfs4wv8","ms1000306","iti","","null","img/motor_4.png","70","motor","","","","","","",""
"1267","","161409","HierDyb9rvmxwu","pb2sfs4wv8","ms1000306","motor","","70","img/motor_4.png","70","motor","4","4","1","0","0","",""
"null","","161525","HierDyb9rvmxwu","pb2sfs4wv8","ms1000306","iti","","null","img/motor_4.png","70","motor","","","","","","",""
"782","","162313","HierDyb9rvmxwu","pb2sfs4wv8","ms1000306","motor","","72","img/motor_5.png","72","motor","5","5","1","0","0","",""
"null","","162421","HierDyb9rvmxwu","pb2sfs4wv8","ms1000306","iti","","null","img/motor_5.png","72","motor","","","","","","",""
"548","","162977","HierDyb9rvmxwu","pb2sfs4wv8","ms1000306","motor","","83","img/motor_2.png","83","motor","2","6","1","0","0","",""
"null","","163085","HierDyb9rvmxwu","pb2sfs4wv8","ms1000306","iti","","null","img/motor_2.png","83","motor","","","","","","",""
"516","","163609","HierDyb9rvmxwu","pb2sfs4wv8","ms1000306","motor","","65","img/motor_1.png","65","motor","1","7","1","0","0","",""
"null","","163717","HierDyb9rvmxwu","pb2sfs4wv8","ms1000306","iti","","null","img/motor_1.png","65","motor","","","","","","",""
"668","","164393","HierDyb9rvmxwu","pb2sfs4wv8","ms1000306","motor","","70","img/motor_3.png","68","motor","3","8","0","1","0","",""
"104","","164511","HierDyb9rvmxwu","pb2sfs4wv8","ms1000306","motorRepeat","","68","img/motor_3.png","68","motor","3","8","1","0","0","",""
"null","","164626","HierDyb9rvmxwu","pb2sfs4wv8","ms1000306","iti","","null","img/motor_3.png","68","motor","","","","","","",""
"711","","165345","HierDyb9rvmxwu","pb2sfs4wv8","ms1000306","motor","","70","img/motor_4.png","70","motor","4","9","1","0","0","",""
"null","","165460","HierDyb9rvmxwu","pb2sfs4wv8","ms1000306","iti","","null","img/motor_4.png","70","motor","","","","","","",""
"557","","166025","HierDyb9rvmxwu","pb2sfs4wv8","ms1000306","motor","","65","img/motor_1.png","65","motor","1","10","1","0","0","",""
"null","","166132","HierDyb9rvmxwu","pb2sfs4wv8","ms1000306","iti","","null","img/motor_1.png","65","motor","","","","","","",""
"525","","166665","HierDyb9rvmxwu","pb2sfs4wv8","ms1000306","motor","","68","img/motor_3.png","68","motor","3","11","1","0","0","",""
"null","","166779","HierDyb9rvmxwu","pb2sfs4wv8","ms1000306","iti","","null","img/motor_3.png","68","motor","","","","","","",""
"557","","167351","HierDyb9rvmxwu","pb2sfs4wv8","ms1000306","motor","","74","img/motor_6.png","74","motor","6","12","1","0","0","",""
"null","","167467","HierDyb9rvmxwu","pb2sfs4wv8","ms1000306","iti","","null","img/motor_6.png","74","motor","","","","","","",""
"710","","168186","HierDyb9rvmxwu","pb2sfs4wv8","ms1000306","motor","","68","img/motor_3.png","68","motor","3","13","1","0","0","",""
"null","","168300","HierDyb9rvmxwu","pb2sfs4wv8","ms1000306","iti","","null","img/motor_3.png","68","motor","","","","","","",""
"621","","168929","HierDyb9rvmxwu","pb2sfs4wv8","ms1000306","motor","","76","img/motor_8.png","76","motor","8","14","1","0","0","",""
"null","","169037","HierDyb9rvmxwu","pb2sfs4wv8","ms1000306","iti","","null","img/motor_8.png","76","motor","","","","","","",""
"605","","169648","HierDyb9rvmxwu","pb2sfs4wv8","ms1000306","motor","","83","img/motor_2.png","83","motor","2","15","1","0","0","",""
"null","","169763","HierDyb9rvmxwu","pb2sfs4wv8","ms1000306","iti","","null","img/motor_2.png","83","motor","","","","","","",""
"487","","170263","HierDyb9rvmxwu","pb2sfs4wv8","ms1000306","motor","","76","img/motor_8.png","76","motor","8","16","1","0","0","",""
"null","","170372","HierDyb9rvmxwu","pb2sfs4wv8","ms1000306","iti","","null","img/motor_8.png","76","motor","","","","","","",""
"677","","171064","HierDyb9rvmxwu","pb2sfs4wv8","ms1000306","motor","","72","img/motor_5.png","72","motor","5","17","1","0","0","",""
"null","","171178","HierDyb9rvmxwu","pb2sfs4wv8","ms1000306","iti","","null","img/motor_5.png","72","motor","","","","","","",""
"488","","171680","HierDyb9rvmxwu","pb2sfs4wv8","ms1000306","motor","","76","img/motor_8.png","76","motor","8","18","1","0","0","",""
"null","","171789","HierDyb9rvmxwu","pb2sfs4wv8","ms1000306","iti","","null","img/motor_8.png","76","motor","","","","","","",""
"461","","172264","HierDyb9rvmxwu","pb2sfs4wv8","ms1000306","motor","","83","img/motor_2.png","83","motor","2","19","1","0","0","",""
"null","","172373","HierDyb9rvmxwu","pb2sfs4wv8","ms1000306","iti","","null","img/motor_2.png","83","motor","","","","","","",""
"678","","173057","HierDyb9rvmxwu","pb2sfs4wv8","ms1000306","motor","","72","img/motor_5.png","72","motor","5","20","1","0","0","",""
"null","","173172","HierDyb9rvmxwu","pb2sfs4wv8","ms1000306","iti","","null","img/motor_5.png","72","motor","","","","","","",""
"446","","173626","HierDyb9rvmxwu","pb2sfs4wv8","ms1000306","motor","","76","img/motor_8.png","76","motor","8","21","1","0","0","",""
"null","","173740","HierDyb9rvmxwu","pb2sfs4wv8","ms1000306","iti","","null","img/motor_8.png","76","motor","","","","","","",""
"389","","174145","HierDyb9rvmxwu","pb2sfs4wv8","ms1000306","motor","","72","img/motor_5.png","72","motor","5","22","1","0","0","",""
"null","","174253","HierDyb9rvmxwu","pb2sfs4wv8","ms1000306","iti","","null","img/motor_5.png","72","motor","","","","","","",""
"508","","174770","HierDyb9rvmxwu","pb2sfs4wv8","ms1000306","motor","","83","img/motor_2.png","83","motor","2","23","1","0","0","",""
"null","","174884","HierDyb9rvmxwu","pb2sfs4wv8","ms1000306","iti","","null","img/motor_2.png","83","motor","","","","","","",""
"414","","175312","HierDyb9rvmxwu","pb2sfs4wv8","ms1000306","motor","","76","img/motor_8.png","76","motor","8","24","1","0","0","",""
"null","","175427","HierDyb9rvmxwu","pb2sfs4wv8","ms1000306","iti","","null","img/motor_8.png","76","motor","","","","","","",""
"574","","176010","HierDyb9rvmxwu","pb2sfs4wv8","ms1000306","motor","","70","img/motor_4.png","70","motor","4","25","1","0","0","",""
"null","","176125","HierDyb9rvmxwu","pb2sfs4wv8","ms1000306","iti","","null","img/motor_4.png","70","motor","","","","","","",""
"748","","176882","HierDyb9rvmxwu","pb2sfs4wv8","ms1000306","motor","","75","img/motor_7.png","75","motor","7","26","1","0","0","",""
"null","","176990","HierDyb9rvmxwu","pb2sfs4wv8","ms1000306","iti","","null","img/motor_7.png","75","motor","","","","","","",""
"525","","177522","HierDyb9rvmxwu","pb2sfs4wv8","ms1000306","motor","","83","img/motor_2.png","83","motor","2","27","1","0","0","",""
"null","","177638","HierDyb9rvmxwu","pb2sfs4wv8","ms1000306","iti","","null","img/motor_2.png","83","motor","","","","","","",""
"588","","178240","HierDyb9rvmxwu","pb2sfs4wv8","ms1000306","motor","","74","img/motor_6.png","74","motor","6","28","1","0","0","",""
"null","","178356","HierDyb9rvmxwu","pb2sfs4wv8","ms1000306","iti","","null","img/motor_6.png","74","motor","","","","","","",""
"541","","178906","HierDyb9rvmxwu","pb2sfs4wv8","ms1000306","motor","","83","img/motor_2.png","83","motor","2","29","1","0","0","",""
"null","","179013","HierDyb9rvmxwu","pb2sfs4wv8","ms1000306","iti","","null","img/motor_2.png","83","motor","","","","","","",""
"492","","179514","HierDyb9rvmxwu","pb2sfs4wv8","ms1000306","motor","","76","img/motor_8.png","76","motor","8","30","1","0","0","",""
"null","","179622","HierDyb9rvmxwu","pb2sfs4wv8","ms1000306","iti","","null","img/motor_8.png","76","motor","","","","","","",""
"492","","180129","HierDyb9rvmxwu","pb2sfs4wv8","ms1000306","motor","","76","img/motor_8.png","76","motor","8","31","1","0","0","",""
"null","","180244","HierDyb9rvmxwu","pb2sfs4wv8","ms1000306","iti","","null","img/motor_8.png","76","motor","","","","","","",""
"494","","180747","HierDyb9rvmxwu","pb2sfs4wv8","ms1000306","motor","","65","img/motor_1.png","65","motor","1","32","1","0","0","",""
"null","","180860","HierDyb9rvmxwu","pb2sfs4wv8","ms1000306","iti","","null","img/motor_1.png","65","motor","","","","","","",""
"525","","181400","HierDyb9rvmxwu","pb2sfs4wv8","ms1000306","motor","","72","img/motor_5.png","72","motor","5","33","1","0","0","",""
"null","","181516","HierDyb9rvmxwu","pb2sfs4wv8","ms1000306","iti","","null","img/motor_5.png","72","motor","","","","","","",""
"960","","182483","HierDyb9rvmxwu","pb2sfs4wv8","ms1000306","motor","","70","img/motor_4.png","70","motor","4","34","1","0","0","",""
"null","","182597","HierDyb9rvmxwu","pb2sfs4wv8","ms1000306","iti","","null","img/motor_4.png","70","motor","","","","","","",""
"453","","183065","HierDyb9rvmxwu","pb2sfs4wv8","ms1000306","motor","","74","img/motor_6.png","74","motor","6","35","1","0","0","",""
"null","","183174","HierDyb9rvmxwu","pb2sfs4wv8","ms1000306","iti","","null","img/motor_6.png","74","motor","","","","","","",""
"404","","183586","HierDyb9rvmxwu","pb2sfs4wv8","ms1000306","motor","","83","img/motor_3.png","68","motor","3","36","0","1","0","",""
"439","","184035","HierDyb9rvmxwu","pb2sfs4wv8","ms1000306","motorRepeat","","68","img/motor_3.png","68","motor","3","36","1","0","0","",""
"null","","184143","HierDyb9rvmxwu","pb2sfs4wv8","ms1000306","iti","","null","img/motor_3.png","68","motor","","","","","","",""
"468","","184618","HierDyb9rvmxwu","pb2sfs4wv8","ms1000306","motor","","65","img/motor_1.png","65","motor","1","37","1","0","0","",""
"null","","184728","HierDyb9rvmxwu","pb2sfs4wv8","ms1000306","iti","","null","img/motor_1.png","65","motor","","","","","","",""
"476","","185211","HierDyb9rvmxwu","pb2sfs4wv8","ms1000306","motor","","72","img/motor_5.png","72","motor","5","38","1","0","0","",""
"null","","185319","HierDyb9rvmxwu","pb2sfs4wv8","ms1000306","iti","","null","img/motor_5.png","72","motor","","","","","","",""
"469","","185794","HierDyb9rvmxwu","pb2sfs4wv8","ms1000306","motor","","70","img/motor_4.png","70","motor","4","39","1","0","0","",""
"null","","185909","HierDyb9rvmxwu","pb2sfs4wv8","ms1000306","iti","","null","img/motor_4.png","70","motor","","","","","","",""
"524","","186442","HierDyb9rvmxwu","pb2sfs4wv8","ms1000306","motor","","75","img/motor_7.png","75","motor","7","40","1","0","0","",""
"null","","186551","HierDyb9rvmxwu","pb2sfs4wv8","ms1000306","iti","","null","img/motor_7.png","75","motor","","","","","","",""
"508","","187066","HierDyb9rvmxwu","pb2sfs4wv8","ms1000306","motor","","72","img/motor_5.png","72","motor","5","41","1","0","0","",""
"null","","187175","HierDyb9rvmxwu","pb2sfs4wv8","ms1000306","iti","","null","img/motor_5.png","72","motor","","","","","","",""
"468","","187650","HierDyb9rvmxwu","pb2sfs4wv8","ms1000306","motor","","65","img/motor_1.png","65","motor","1","42","1","0","0","",""
"null","","187759","HierDyb9rvmxwu","pb2sfs4wv8","ms1000306","iti","","null","img/motor_1.png","65","motor","","","","","","",""
"493","","188259","HierDyb9rvmxwu","pb2sfs4wv8","ms1000306","motor","","83","img/motor_3.png","68","motor","3","43","0","1","0","",""
"433","","188698","HierDyb9rvmxwu","pb2sfs4wv8","ms1000306","motorRepeat","","68","img/motor_3.png","68","motor","3","43","1","0","0","",""
"null","","188812","HierDyb9rvmxwu","pb2sfs4wv8","ms1000306","iti","","null","img/motor_3.png","68","motor","","","","","","",""
"439","","189257","HierDyb9rvmxwu","pb2sfs4wv8","ms1000306","motor","","83","img/motor_2.png","83","motor","2","44","1","0","0","",""
"null","","189372","HierDyb9rvmxwu","pb2sfs4wv8","ms1000306","iti","","null","img/motor_2.png","83","motor","","","","","","",""
"391","","189771","HierDyb9rvmxwu","pb2sfs4wv8","ms1000306","motor","","68","img/motor_3.png","68","motor","3","45","1","0","0","",""
"null","","189879","HierDyb9rvmxwu","pb2sfs4wv8","ms1000306","iti","","null","img/motor_3.png","68","motor","","","","","","",""
"588","","190475","HierDyb9rvmxwu","pb2sfs4wv8","ms1000306","motor","","74","img/motor_6.png","74","motor","6","46","1","0","0","",""
"null","","190583","HierDyb9rvmxwu","pb2sfs4wv8","ms1000306","iti","","null","img/motor_6.png","74","motor","","","","","","",""
"603","","191202","HierDyb9rvmxwu","pb2sfs4wv8","ms1000306","motor","","72","img/motor_5.png","72","motor","5","47","1","0","0","",""
"null","","191310","HierDyb9rvmxwu","pb2sfs4wv8","ms1000306","iti","","null","img/motor_5.png","72","motor","","","","","","",""
"453","","191771","HierDyb9rvmxwu","pb2sfs4wv8","ms1000306","motor","","76","img/motor_8.png","76","motor","8","48","1","0","0","",""
"null","","191886","HierDyb9rvmxwu","pb2sfs4wv8","ms1000306","iti","","null","img/motor_8.png","76","motor","","","","","","",""
"382","","192281","HierDyb9rvmxwu","pb2sfs4wv8","ms1000306","motor","","72","img/motor_5.png","72","motor","5","49","1","0","0","",""
"null","","192390","HierDyb9rvmxwu","pb2sfs4wv8","ms1000306","iti","","null","img/motor_5.png","72","motor","","","","","","",""
"357","","192754","HierDyb9rvmxwu","pb2sfs4wv8","ms1000306","motor","","76","img/motor_8.png","76","motor","8","50","1","0","0","",""
"null","","192863","HierDyb9rvmxwu","pb2sfs4wv8","ms1000306","iti","","null","img/motor_8.png","76","motor","","","","","","",""
"462","","193330","HierDyb9rvmxwu","pb2sfs4wv8","ms1000306","motor","","65","img/motor_1.png","65","motor","1","51","1","0","0","",""
"null","","193438","HierDyb9rvmxwu","pb2sfs4wv8","ms1000306","iti","","null","img/motor_1.png","65","motor","","","","","","",""
"389","","193834","HierDyb9rvmxwu","pb2sfs4wv8","ms1000306","motor","","76","img/motor_8.png","76","motor","8","52","1","0","0","",""
"null","","193943","HierDyb9rvmxwu","pb2sfs4wv8","ms1000306","iti","","null","img/motor_8.png","76","motor","","","","","","",""
"430","","194387","HierDyb9rvmxwu","pb2sfs4wv8","ms1000306","motor","","74","img/motor_6.png","74","motor","6","53","1","0","0","",""
"null","","194495","HierDyb9rvmxwu","pb2sfs4wv8","ms1000306","iti","","null","img/motor_6.png","74","motor","","","","","","",""
"572","","195074","HierDyb9rvmxwu","pb2sfs4wv8","ms1000306","motor","","70","img/motor_4.png","70","motor","4","54","1","0","0","",""
"null","","195182","HierDyb9rvmxwu","pb2sfs4wv8","ms1000306","iti","","null","img/motor_4.png","70","motor","","","","","","",""
"670","","195860","HierDyb9rvmxwu","pb2sfs4wv8","ms1000306","motor","","72","img/motor_5.png","72","motor","5","55","1","0","0","",""
"null","","195967","HierDyb9rvmxwu","pb2sfs4wv8","ms1000306","iti","","null","img/motor_5.png","72","motor","","","","","","",""
"404","","196380","HierDyb9rvmxwu","pb2sfs4wv8","ms1000306","motor","","76","img/motor_8.png","76","motor","8","56","1","0","0","",""
"null","","196487","HierDyb9rvmxwu","pb2sfs4wv8","ms1000306","iti","","null","img/motor_8.png","76","motor","","","","","","",""
"349","","196843","HierDyb9rvmxwu","pb2sfs4wv8","ms1000306","motor","","72","img/motor_5.png","72","motor","5","57","1","0","0","",""
"null","","196963","HierDyb9rvmxwu","pb2sfs4wv8","ms1000306","iti","","null","img/motor_5.png","72","motor","","","","","","",""
"608","","197581","HierDyb9rvmxwu","pb2sfs4wv8","ms1000306","motor","","83","img/motor_3.png","68","motor","3","58","0","1","0","",""
"414","","198004","HierDyb9rvmxwu","pb2sfs4wv8","ms1000306","motorRepeat","","68","img/motor_3.png","68","motor","3","58","1","0","0","",""
"null","","198119","HierDyb9rvmxwu","pb2sfs4wv8","ms1000306","iti","","null","img/motor_3.png","68","motor","","","","","","",""
"445","","198572","HierDyb9rvmxwu","pb2sfs4wv8","ms1000306","motor","","72","img/motor_4.png","70","motor","4","59","0","1","0","",""
"295","","198877","HierDyb9rvmxwu","pb2sfs4wv8","ms1000306","motorRepeat","","70","img/motor_4.png","70","motor","4","59","1","0","0","",""
"null","","198985","HierDyb9rvmxwu","pb2sfs4wv8","ms1000306","iti","","null","img/motor_4.png","70","motor","","","","","","",""
"460","","199452","HierDyb9rvmxwu","pb2sfs4wv8","ms1000306","motor","","83","img/motor_2.png","83","motor","2","60","1","0","0","",""
"null","","199560","HierDyb9rvmxwu","pb2sfs4wv8","ms1000306","iti","","null","img/motor_2.png","83","motor","","","","","","",""
"501","","200069","HierDyb9rvmxwu","pb2sfs4wv8","ms1000306","motor","","76","img/motor_8.png","76","motor","8","61","1","0","0","",""
"null","","200185","HierDyb9rvmxwu","pb2sfs4wv8","ms1000306","iti","","null","img/motor_8.png","76","motor","","","","","","",""
"490","","200684","HierDyb9rvmxwu","pb2sfs4wv8","ms1000306","motor","","83","img/motor_2.png","83","motor","2","62","1","0","0","",""
"null","","200792","HierDyb9rvmxwu","pb2sfs4wv8","ms1000306","iti","","null","img/motor_2.png","83","motor","","","","","","",""
"716","","201516","HierDyb9rvmxwu","pb2sfs4wv8","ms1000306","motor","","72","img/motor_6.png","74","motor","6","63","0","1","0","",""
"296","","201820","HierDyb9rvmxwu","pb2sfs4wv8","ms1000306","motorRepeat","","74","img/motor_6.png","74","motor","6","63","1","0","0","",""
"null","","201928","HierDyb9rvmxwu","pb2sfs4wv8","ms1000306","iti","","null","img/motor_6.png","74","motor","","","","","","",""
"548","","202485","HierDyb9rvmxwu","pb2sfs4wv8","ms1000306","motor","","65","img/motor_1.png","65","motor","1","64","1","0","0","",""
"null","","202593","HierDyb9rvmxwu","pb2sfs4wv8","ms1000306","iti","","null","img/motor_1.png","65","motor","","","","","","",""
"508","","203108","HierDyb9rvmxwu","pb2sfs4wv8","ms1000306","motor","","72","img/motor_5.png","72","motor","5","65","1","0","0","",""
"null","","203223","HierDyb9rvmxwu","pb2sfs4wv8","ms1000306","iti","","null","img/motor_5.png","72","motor","","","","","","",""
"485","","203716","HierDyb9rvmxwu","pb2sfs4wv8","ms1000306","motor","","83","img/motor_2.png","83","motor","2","66","1","0","0","",""
"null","","203824","HierDyb9rvmxwu","pb2sfs4wv8","ms1000306","iti","","null","img/motor_2.png","83","motor","","","","","","",""
"444","","204276","HierDyb9rvmxwu","pb2sfs4wv8","ms1000306","motor","","68","img/motor_3.png","68","motor","3","67","1","0","0","",""
"null","","204384","HierDyb9rvmxwu","pb2sfs4wv8","ms1000306","iti","","null","img/motor_3.png","68","motor","","","","","","",""
"508","","204900","HierDyb9rvmxwu","pb2sfs4wv8","ms1000306","motor","","72","img/motor_5.png","72","motor","5","68","1","0","0","",""
"null","","205009","HierDyb9rvmxwu","pb2sfs4wv8","ms1000306","iti","","null","img/motor_5.png","72","motor","","","","","","",""
"500","","205516","HierDyb9rvmxwu","pb2sfs4wv8","ms1000306","motor","","75","img/motor_7.png","75","motor","7","69","1","0","0","",""
"null","","205625","HierDyb9rvmxwu","pb2sfs4wv8","ms1000306","iti","","null","img/motor_7.png","75","motor","","","","","","",""
"483","","206117","HierDyb9rvmxwu","pb2sfs4wv8","ms1000306","motor","","83","img/motor_3.png","68","motor","3","70","0","1","0","",""
"303","","206428","HierDyb9rvmxwu","pb2sfs4wv8","ms1000306","motorRepeat","","68","img/motor_3.png","68","motor","3","70","1","0","0","",""
"null","","206544","HierDyb9rvmxwu","pb2sfs4wv8","ms1000306","iti","","null","img/motor_3.png","68","motor","","","","","","",""
"509","","207061","HierDyb9rvmxwu","pb2sfs4wv8","ms1000306","motor","","76","img/motor_8.png","76","motor","8","71","1","0","0","",""
"null","","207175","HierDyb9rvmxwu","pb2sfs4wv8","ms1000306","iti","","null","img/motor_8.png","76","motor","","","","","","",""
"540","","207725","HierDyb9rvmxwu","pb2sfs4wv8","ms1000306","motor","","74","img/motor_7.png","75","motor","7","72","0","1","0","",""
"48","","207780","HierDyb9rvmxwu","pb2sfs4wv8","ms1000306","motorRepeat","","75","img/motor_7.png","75","motor","7","72","1","0","0","",""
"null","","207895","HierDyb9rvmxwu","pb2sfs4wv8","ms1000306","iti","","null","img/motor_7.png","75","motor","","","","","","",""
"860","","208765","HierDyb9rvmxwu","pb2sfs4wv8","ms1000306","motor","","68","img/motor_3.png","68","motor","3","73","1","0","0","",""
"null","","208879","HierDyb9rvmxwu","pb2sfs4wv8","ms1000306","iti","","null","img/motor_3.png","68","motor","","","","","","",""
"604","","209493","HierDyb9rvmxwu","pb2sfs4wv8","ms1000306","motor","","72","img/motor_5.png","72","motor","5","74","1","0","0","",""
"null","","209601","HierDyb9rvmxwu","pb2sfs4wv8","ms1000306","iti","","null","img/motor_5.png","72","motor","","","","","","",""
"499","","210109","HierDyb9rvmxwu","pb2sfs4wv8","ms1000306","motor","","83","img/motor_3.png","68","motor","3","75","0","1","0","",""
"279","","210397","HierDyb9rvmxwu","pb2sfs4wv8","ms1000306","motorRepeat","","68","img/motor_3.png","68","motor","3","75","1","0","0","",""
"null","","210505","HierDyb9rvmxwu","pb2sfs4wv8","ms1000306","iti","","null","img/motor_3.png","68","motor","","","","","","",""
"877","","211389","HierDyb9rvmxwu","pb2sfs4wv8","ms1000306","motor","","72","img/motor_5.png","72","motor","5","76","1","0","0","",""
"null","","211498","HierDyb9rvmxwu","pb2sfs4wv8","ms1000306","iti","","null","img/motor_5.png","72","motor","","","","","","",""
"700","","212205","HierDyb9rvmxwu","pb2sfs4wv8","ms1000306","motor","","70","img/motor_3.png","68","motor","3","77","0","1","0","",""
"432","","212646","HierDyb9rvmxwu","pb2sfs4wv8","ms1000306","motorRepeat","","68","img/motor_3.png","68","motor","3","77","1","0","0","",""
"null","","212761","HierDyb9rvmxwu","pb2sfs4wv8","ms1000306","iti","","null","img/motor_3.png","68","motor","","","","","","",""
"492","","213261","HierDyb9rvmxwu","pb2sfs4wv8","ms1000306","motor","","68","img/motor_3.png","68","motor","3","78","1","0","0","",""
"null","","213377","HierDyb9rvmxwu","pb2sfs4wv8","ms1000306","iti","","null","img/motor_3.png","68","motor","","","","","","",""
"684","","214070","HierDyb9rvmxwu","pb2sfs4wv8","ms1000306","motor","","70","img/motor_4.png","70","motor","4","79","1","0","0","",""
"null","","214180","HierDyb9rvmxwu","pb2sfs4wv8","ms1000306","iti","","null","img/motor_4.png","70","motor","","","","","","",""
"562","","214756","HierDyb9rvmxwu","pb2sfs4wv8","ms1000306","motor","","74","img/motor_6.png","74","motor","6","80","1","0","0","",""
"null","","214864","HierDyb9rvmxwu","pb2sfs4wv8","ms1000306","iti","","null","img/motor_6.png","74","motor","","","","","","",""
"549","","215422","HierDyb9rvmxwu","pb2sfs4wv8","ms1000306","motor","","70","img/motor_4.png","70","motor","4","81","1","0","0","",""
"null","","215535","HierDyb9rvmxwu","pb2sfs4wv8","ms1000306","iti","","null","img/motor_4.png","70","motor","","","","","","",""
"502","","216044","HierDyb9rvmxwu","pb2sfs4wv8","ms1000306","motor","","65","img/motor_1.png","65","motor","1","82","1","0","0","",""
"null","","216159","HierDyb9rvmxwu","pb2sfs4wv8","ms1000306","iti","","null","img/motor_1.png","65","motor","","","","","","",""
"597","","216771","HierDyb9rvmxwu","pb2sfs4wv8","ms1000306","motor","","75","img/motor_7.png","75","motor","7","83","1","0","0","",""
"null","","216887","HierDyb9rvmxwu","pb2sfs4wv8","ms1000306","iti","","null","img/motor_7.png","75","motor","","","","","","",""
"606","","217508","HierDyb9rvmxwu","pb2sfs4wv8","ms1000306","motor","","65","img/motor_1.png","65","motor","1","84","1","0","0","",""
"null","","217623","HierDyb9rvmxwu","pb2sfs4wv8","ms1000306","iti","","null","img/motor_1.png","65","motor","","","","","","",""
"422","","218060","HierDyb9rvmxwu","pb2sfs4wv8","ms1000306","motor","","65","img/motor_1.png","65","motor","1","85","1","0","0","",""
"null","","218175","HierDyb9rvmxwu","pb2sfs4wv8","ms1000306","iti","","null","img/motor_1.png","65","motor","","","","","","",""
"487","","218670","HierDyb9rvmxwu","pb2sfs4wv8","ms1000306","motor","","83","img/motor_3.png","68","motor","3","86","0","1","0","",""
"249","","218926","HierDyb9rvmxwu","pb2sfs4wv8","ms1000306","motorRepeat","","68","img/motor_3.png","68","motor","3","86","1","0","0","",""
"null","","219034","HierDyb9rvmxwu","pb2sfs4wv8","ms1000306","iti","","null","img/motor_3.png","68","motor","","","","","","",""
"683","","219726","HierDyb9rvmxwu","pb2sfs4wv8","ms1000306","motor","","75","img/motor_7.png","75","motor","7","87","1","0","0","",""
"null","","219834","HierDyb9rvmxwu","pb2sfs4wv8","ms1000306","iti","","null","img/motor_7.png","75","motor","","","","","","",""
"554","","220398","HierDyb9rvmxwu","pb2sfs4wv8","ms1000306","motor","","70","img/motor_4.png","70","motor","4","88","1","0","0","",""
"null","","220506","HierDyb9rvmxwu","pb2sfs4wv8","ms1000306","iti","","null","img/motor_4.png","70","motor","","","","","","",""
"516","","221029","HierDyb9rvmxwu","pb2sfs4wv8","ms1000306","motor","","72","img/motor_5.png","72","motor","5","89","1","0","0","",""
"null","","221144","HierDyb9rvmxwu","pb2sfs4wv8","ms1000306","iti","","null","img/motor_5.png","72","motor","","","","","","",""
"479","","221636","HierDyb9rvmxwu","pb2sfs4wv8","ms1000306","motor","","65","img/motor_1.png","65","motor","1","90","1","0","0","",""
"null","","221745","HierDyb9rvmxwu","pb2sfs4wv8","ms1000306","iti","","null","img/motor_1.png","65","motor","","","","","","",""
"501","","222254","HierDyb9rvmxwu","pb2sfs4wv8","ms1000306","motor","","76","img/motor_8.png","76","motor","8","91","1","0","0","",""
"null","","222369","HierDyb9rvmxwu","pb2sfs4wv8","ms1000306","iti","","null","img/motor_8.png","76","motor","","","","","","",""
"589","","222972","HierDyb9rvmxwu","pb2sfs4wv8","ms1000306","motor","","70","img/motor_3.png","68","motor","3","92","0","1","0","",""
"353","","223334","HierDyb9rvmxwu","pb2sfs4wv8","ms1000306","motorRepeat","","68","img/motor_3.png","68","motor","3","92","1","0","0","",""
"null","","223448","HierDyb9rvmxwu","pb2sfs4wv8","ms1000306","iti","","null","img/motor_3.png","68","motor","","","","","","",""
"581","","224038","HierDyb9rvmxwu","pb2sfs4wv8","ms1000306","motor","","75","img/motor_7.png","75","motor","7","93","1","0","0","",""
"null","","224147","HierDyb9rvmxwu","pb2sfs4wv8","ms1000306","iti","","null","img/motor_7.png","75","motor","","","","","","",""
"603","","224765","HierDyb9rvmxwu","pb2sfs4wv8","ms1000306","motor","","70","img/motor_4.png","70","motor","4","94","1","0","0","",""
"null","","224874","HierDyb9rvmxwu","pb2sfs4wv8","ms1000306","iti","","null","img/motor_4.png","70","motor","","","","","","",""
"476","","225359","HierDyb9rvmxwu","pb2sfs4wv8","ms1000306","motor","","83","img/motor_2.png","83","motor","2","95","1","0","0","",""
"null","","225474","HierDyb9rvmxwu","pb2sfs4wv8","ms1000306","iti","","null","img/motor_2.png","83","motor","","","","","","",""
"468","","225950","HierDyb9rvmxwu","pb2sfs4wv8","ms1000306","motor","","68","img/motor_3.png","68","motor","3","96","1","0","0","",""
"null","","226059","HierDyb9rvmxwu","pb2sfs4wv8","ms1000306","iti","","null","img/motor_3.png","68","motor","","","","","","",""
"556","","226623","HierDyb9rvmxwu","pb2sfs4wv8","ms1000306","motor","","75","img/motor_7.png","75","motor","7","97","1","0","0","",""
"null","","226738","HierDyb9rvmxwu","pb2sfs4wv8","ms1000306","iti","","null","img/motor_7.png","75","motor","","","","","","",""
"460","","227207","HierDyb9rvmxwu","pb2sfs4wv8","ms1000306","motor","","76","img/motor_8.png","76","motor","8","98","1","0","0","",""
"null","","227322","HierDyb9rvmxwu","pb2sfs4wv8","ms1000306","iti","","null","img/motor_8.png","76","motor","","","","","","",""
"468","","227799","HierDyb9rvmxwu","pb2sfs4wv8","ms1000306","motor","","76","img/motor_8.png","76","motor","8","99","1","0","0","",""
"null","","227907","HierDyb9rvmxwu","pb2sfs4wv8","ms1000306","iti","","null","img/motor_8.png","76","motor","","","","","","",""
"547","","228469","HierDyb9rvmxwu","pb2sfs4wv8","ms1000306","motor","","74","img/motor_7.png","75","motor","7","100","0","1","0","",""
"271","","228756","HierDyb9rvmxwu","pb2sfs4wv8","ms1000306","motorRepeat","","75","img/motor_7.png","75","motor","7","100","1","0","0","",""
"null","","228865","HierDyb9rvmxwu","pb2sfs4wv8","ms1000306","iti","","null","img/motor_7.png","75","motor","","","","","","",""
"573","","229447","HierDyb9rvmxwu","pb2sfs4wv8","ms1000306","motor","","70","img/motor_4.png","70","motor","4","101","1","0","0","",""
"null","","229555","HierDyb9rvmxwu","pb2sfs4wv8","ms1000306","iti","","null","img/motor_4.png","70","motor","","","","","","",""
"460","","230029","HierDyb9rvmxwu","pb2sfs4wv8","ms1000306","motor","","76","img/motor_8.png","76","motor","8","102","1","0","0","",""
"null","","230139","HierDyb9rvmxwu","pb2sfs4wv8","ms1000306","iti","","null","img/motor_8.png","76","motor","","","","","","",""
"515","","230663","HierDyb9rvmxwu","pb2sfs4wv8","ms1000306","motor","","72","img/motor_5.png","72","motor","5","103","1","0","0","",""
"null","","230777","HierDyb9rvmxwu","pb2sfs4wv8","ms1000306","iti","","null","img/motor_5.png","72","motor","","","","","","",""
"517","","231303","HierDyb9rvmxwu","pb2sfs4wv8","ms1000306","motor","","70","img/motor_4.png","70","motor","4","104","1","0","0","",""
"null","","231411","HierDyb9rvmxwu","pb2sfs4wv8","ms1000306","iti","","null","img/motor_4.png","70","motor","","","","","","",""
"380","","231798","HierDyb9rvmxwu","pb2sfs4wv8","ms1000306","motor","","70","img/motor_4.png","70","motor","4","105","1","0","0","",""
"null","","231912","HierDyb9rvmxwu","pb2sfs4wv8","ms1000306","iti","","null","img/motor_4.png","70","motor","","","","","","",""
"389","","232310","HierDyb9rvmxwu","pb2sfs4wv8","ms1000306","motor","","75","img/motor_6.png","74","motor","6","106","0","1","0","",""
"376","","232701","HierDyb9rvmxwu","pb2sfs4wv8","ms1000306","motorRepeat","","74","img/motor_6.png","74","motor","6","106","1","0","0","",""
"null","","232811","HierDyb9rvmxwu","pb2sfs4wv8","ms1000306","iti","","null","img/motor_6.png","74","motor","","","","","","",""
"475","","233294","HierDyb9rvmxwu","pb2sfs4wv8","ms1000306","motor","","65","img/motor_1.png","65","motor","1","107","1","0","0","",""
"null","","233410","HierDyb9rvmxwu","pb2sfs4wv8","ms1000306","iti","","null","img/motor_1.png","65","motor","","","","","","",""
"452","","233870","HierDyb9rvmxwu","pb2sfs4wv8","ms1000306","motor","","83","img/motor_3.png","68","motor","3","108","0","1","0","",""
"120","","233998","HierDyb9rvmxwu","pb2sfs4wv8","ms1000306","motorRepeat","","68","img/motor_3.png","68","motor","3","108","1","0","0","",""
"null","","234107","HierDyb9rvmxwu","pb2sfs4wv8","ms1000306","iti","","null","img/motor_3.png","68","motor","","","","","","",""
"476","","234590","HierDyb9rvmxwu","pb2sfs4wv8","ms1000306","motor","","65","img/motor_1.png","65","motor","1","109","1","0","0","",""
"null","","234705","HierDyb9rvmxwu","pb2sfs4wv8","ms1000306","iti","","null","img/motor_1.png","65","motor","","","","","","",""
"412","","235126","HierDyb9rvmxwu","pb2sfs4wv8","ms1000306","motor","","76","img/motor_8.png","76","motor","8","110","1","0","0","",""
"null","","235235","HierDyb9rvmxwu","pb2sfs4wv8","ms1000306","iti","","null","img/motor_8.png","76","motor","","","","","","",""
"531","","235781","HierDyb9rvmxwu","pb2sfs4wv8","ms1000306","motor","","75","img/motor_7.png","75","motor","7","111","1","0","0","",""
"null","","235889","HierDyb9rvmxwu","pb2sfs4wv8","ms1000306","iti","","null","img/motor_7.png","75","motor","","","","","","",""
"637","","236534","HierDyb9rvmxwu","pb2sfs4wv8","ms1000306","motor","","68","img/motor_3.png","68","motor","3","112","1","0","0","",""
"null","","236642","HierDyb9rvmxwu","pb2sfs4wv8","ms1000306","iti","","null","img/motor_3.png","68","motor","","","","","","",""
"484","","237134","HierDyb9rvmxwu","pb2sfs4wv8","ms1000306","motor","","70","img/motor_4.png","70","motor","4","113","1","0","0","",""
"null","","237242","HierDyb9rvmxwu","pb2sfs4wv8","ms1000306","iti","","null","img/motor_4.png","70","motor","","","","","","",""
"451","","237702","HierDyb9rvmxwu","pb2sfs4wv8","ms1000306","motor","","83","img/motor_2.png","83","motor","2","114","1","0","0","",""
"null","","237810","HierDyb9rvmxwu","pb2sfs4wv8","ms1000306","iti","","null","img/motor_2.png","83","motor","","","","","","",""
"444","","238262","HierDyb9rvmxwu","pb2sfs4wv8","ms1000306","motor","","75","img/motor_7.png","75","motor","7","115","1","0","0","",""
"null","","238369","HierDyb9rvmxwu","pb2sfs4wv8","ms1000306","iti","","null","img/motor_7.png","75","motor","","","","","","",""
"405","","238781","HierDyb9rvmxwu","pb2sfs4wv8","ms1000306","motor","","75","img/motor_7.png","75","motor","7","116","1","0","0","",""
"null","","238896","HierDyb9rvmxwu","pb2sfs4wv8","ms1000306","iti","","null","img/motor_7.png","75","motor","","","","","","",""
"596","","239508","HierDyb9rvmxwu","pb2sfs4wv8","ms1000306","motor","","83","img/motor_2.png","83","motor","2","117","1","0","0","",""
"null","","239617","HierDyb9rvmxwu","pb2sfs4wv8","ms1000306","iti","","null","img/motor_2.png","83","motor","","","","","","",""
"518","","240141","HierDyb9rvmxwu","pb2sfs4wv8","ms1000306","motor","","72","img/motor_5.png","72","motor","5","118","1","0","0","",""
"null","","240256","HierDyb9rvmxwu","pb2sfs4wv8","ms1000306","iti","","null","img/motor_5.png","72","motor","","","","","","",""
"396","","240661","HierDyb9rvmxwu","pb2sfs4wv8","ms1000306","motor","","83","img/motor_2.png","83","motor","2","119","1","0","0","",""
"null","","240770","HierDyb9rvmxwu","pb2sfs4wv8","ms1000306","iti","","null","img/motor_2.png","83","motor","","","","","","",""
"579","","241357","HierDyb9rvmxwu","pb2sfs4wv8","ms1000306","motor","","70","img/motor_4.png","70","motor","4","120","1","0","0","",""
"null","","241466","HierDyb9rvmxwu","pb2sfs4wv8","ms1000306","iti","","null","img/motor_4.png","70","motor","","","","","","",""
"428","","241902","HierDyb9rvmxwu","pb2sfs4wv8","ms1000306","motor","","75","img/motor_6.png","74","motor","6","121","0","1","0","",""
"280","","242190","HierDyb9rvmxwu","pb2sfs4wv8","ms1000306","motorRepeat","","74","img/motor_6.png","74","motor","6","121","1","0","0","",""
"null","","242298","HierDyb9rvmxwu","pb2sfs4wv8","ms1000306","iti","","null","img/motor_6.png","74","motor","","","","","","",""
"443","","242756","HierDyb9rvmxwu","pb2sfs4wv8","ms1000306","motor","","83","img/motor_2.png","83","motor","2","122","1","0","0","",""
"null","","242871","HierDyb9rvmxwu","pb2sfs4wv8","ms1000306","iti","","null","img/motor_2.png","83","motor","","","","","","",""
"470","","243350","HierDyb9rvmxwu","pb2sfs4wv8","ms1000306","motor","","75","img/motor_7.png","75","motor","7","123","1","0","0","",""
"null","","243458","HierDyb9rvmxwu","pb2sfs4wv8","ms1000306","iti","","null","img/motor_7.png","75","motor","","","","","","",""
"572","","244044","HierDyb9rvmxwu","pb2sfs4wv8","ms1000306","motor","","70","img/motor_4.png","70","motor","4","124","1","0","0","",""
"null","","244159","HierDyb9rvmxwu","pb2sfs4wv8","ms1000306","iti","","null","img/motor_4.png","70","motor","","","","","","",""
"438","","244606","HierDyb9rvmxwu","pb2sfs4wv8","ms1000306","motor","","83","img/motor_2.png","83","motor","2","125","1","0","0","",""
"null","","244719","HierDyb9rvmxwu","pb2sfs4wv8","ms1000306","iti","","null","img/motor_2.png","83","motor","","","","","","",""
"429","","245157","HierDyb9rvmxwu","pb2sfs4wv8","ms1000306","motor","","72","img/motor_5.png","72","motor","5","126","1","0","0","",""
"null","","245272","HierDyb9rvmxwu","pb2sfs4wv8","ms1000306","iti","","null","img/motor_5.png","72","motor","","","","","","",""
"444","","245726","HierDyb9rvmxwu","pb2sfs4wv8","ms1000306","motor","","75","img/motor_7.png","75","motor","7","127","1","0","0","",""
"null","","245834","HierDyb9rvmxwu","pb2sfs4wv8","ms1000306","iti","","null","img/motor_7.png","75","motor","","","","","","",""
"443","","246285","HierDyb9rvmxwu","pb2sfs4wv8","ms1000306","motor","","76","img/motor_8.png","76","motor","8","128","1","0","0","",""
"null","","246394","HierDyb9rvmxwu","pb2sfs4wv8","ms1000306","iti","","null","img/motor_8.png","76","motor","","","","","","",""
"509","","246908","HierDyb9rvmxwu","pb2sfs4wv8","ms1000306","motor","","74","img/motor_6.png","74","motor","6","129","1","0","0","",""
"null","","247016","HierDyb9rvmxwu","pb2sfs4wv8","ms1000306","iti","","null","img/motor_6.png","74","motor","","","","","","",""
"437","","247461","HierDyb9rvmxwu","pb2sfs4wv8","ms1000306","motor","","74","img/motor_6.png","74","motor","6","130","1","0","0","",""
"null","","247576","HierDyb9rvmxwu","pb2sfs4wv8","ms1000306","iti","","null","img/motor_6.png","74","motor","","","","","","",""
"437","","248021","HierDyb9rvmxwu","pb2sfs4wv8","ms1000306","motor","","75","img/motor_7.png","75","motor","7","131","1","0","0","",""
"null","","248130","HierDyb9rvmxwu","pb2sfs4wv8","ms1000306","iti","","null","img/motor_7.png","75","motor","","","","","","",""
"555","","248700","HierDyb9rvmxwu","pb2sfs4wv8","ms1000306","motor","","83","img/motor_2.png","83","motor","2","132","1","0","0","",""
"null","","248809","HierDyb9rvmxwu","pb2sfs4wv8","ms1000306","iti","","null","img/motor_2.png","83","motor","","","","","","",""
"372","","249190","HierDyb9rvmxwu","pb2sfs4wv8","ms1000306","motor","","83","img/motor_2.png","83","motor","2","133","1","0","0","",""
"null","","249297","HierDyb9rvmxwu","pb2sfs4wv8","ms1000306","iti","","null","img/motor_2.png","83","motor","","","","","","",""
"524","","249836","HierDyb9rvmxwu","pb2sfs4wv8","ms1000306","motor","","70","img/motor_4.png","70","motor","4","134","1","0","0","",""
"null","","249951","HierDyb9rvmxwu","pb2sfs4wv8","ms1000306","iti","","null","img/motor_4.png","70","motor","","","","","","",""
"694","","250654","HierDyb9rvmxwu","pb2sfs4wv8","ms1000306","motor","","76","img/motor_8.png","76","motor","8","135","1","0","0","",""
"null","","250762","HierDyb9rvmxwu","pb2sfs4wv8","ms1000306","iti","","null","img/motor_8.png","76","motor","","","","","","",""
"595","","251364","HierDyb9rvmxwu","pb2sfs4wv8","ms1000306","motor","","83","img/motor_2.png","83","motor","2","136","1","0","0","",""
"null","","251473","HierDyb9rvmxwu","pb2sfs4wv8","ms1000306","iti","","null","img/motor_2.png","83","motor","","","","","","",""
"124","","251611","HierDyb9rvmxwu","pb2sfs4wv8","ms1000306","motor","","83","img/motor_4.png","70","motor","4","137","0","1","0","",""
"345","","251971","HierDyb9rvmxwu","pb2sfs4wv8","ms1000306","motorRepeat","","70","img/motor_4.png","70","motor","4","137","1","0","0","",""
"null","","252086","HierDyb9rvmxwu","pb2sfs4wv8","ms1000306","iti","","null","img/motor_4.png","70","motor","","","","","","",""
"502","","252597","HierDyb9rvmxwu","pb2sfs4wv8","ms1000306","motor","","74","img/motor_7.png","75","motor","7","138","0","1","0","",""
"14","","252622","HierDyb9rvmxwu","pb2sfs4wv8","ms1000306","motorRepeat","","75","img/motor_7.png","75","motor","7","138","1","0","0","",""
"null","","252738","HierDyb9rvmxwu","pb2sfs4wv8","ms1000306","iti","","null","img/motor_7.png","75","motor","","","","","","",""
"482","","253236","HierDyb9rvmxwu","pb2sfs4wv8","ms1000306","motor","","74","img/motor_6.png","74","motor","6","139","1","0","0","",""
"null","","253345","HierDyb9rvmxwu","pb2sfs4wv8","ms1000306","iti","","null","img/motor_6.png","74","motor","","","","","","",""
"476","","253836","HierDyb9rvmxwu","pb2sfs4wv8","ms1000306","motor","","83","img/motor_2.png","83","motor","2","140","1","0","0","",""
"null","","253945","HierDyb9rvmxwu","pb2sfs4wv8","ms1000306","iti","","null","img/motor_2.png","83","motor","","","","","","",""
"581","","254534","HierDyb9rvmxwu","pb2sfs4wv8","ms1000306","motor","","65","img/motor_1.png","65","motor","1","141","1","0","0","",""
"null","","254642","HierDyb9rvmxwu","pb2sfs4wv8","ms1000306","iti","","null","img/motor_1.png","65","motor","","","","","","",""
"371","","255021","HierDyb9rvmxwu","pb2sfs4wv8","ms1000306","motor","","83","img/motor_2.png","83","motor","2","142","1","0","0","",""
"null","","255130","HierDyb9rvmxwu","pb2sfs4wv8","ms1000306","iti","","null","img/motor_2.png","83","motor","","","","","","",""
"579","","255717","HierDyb9rvmxwu","pb2sfs4wv8","ms1000306","motor","","70","img/motor_4.png","70","motor","4","143","1","0","0","",""
"null","","255832","HierDyb9rvmxwu","pb2sfs4wv8","ms1000306","iti","","null","img/motor_4.png","70","motor","","","","","","",""
"436","","256277","HierDyb9rvmxwu","pb2sfs4wv8","ms1000306","motor","","65","img/motor_1.png","65","motor","1","144","1","0","0","",""
"null","","256385","HierDyb9rvmxwu","pb2sfs4wv8","ms1000306","iti","","null","img/motor_1.png","65","motor","","","","","","",""
"396","","256789","HierDyb9rvmxwu","pb2sfs4wv8","ms1000306","motor","","75","img/motor_6.png","74","motor","6","145","0","1","0","",""
"137","","256939","HierDyb9rvmxwu","pb2sfs4wv8","ms1000306","motorRepeat","","74","img/motor_6.png","74","motor","6","145","1","0","0","",""
"null","","257048","HierDyb9rvmxwu","pb2sfs4wv8","ms1000306","iti","","null","img/motor_6.png","74","motor","","","","","","",""
"492","","257549","HierDyb9rvmxwu","pb2sfs4wv8","ms1000306","motor","","74","img/motor_6.png","74","motor","6","146","1","0","0","",""
"null","","257664","HierDyb9rvmxwu","pb2sfs4wv8","ms1000306","iti","","null","img/motor_6.png","74","motor","","","","","","",""
"501","","258179","HierDyb9rvmxwu","pb2sfs4wv8","ms1000306","motor","","65","img/motor_1.png","65","motor","1","147","1","0","0","",""
"null","","258294","HierDyb9rvmxwu","pb2sfs4wv8","ms1000306","iti","","null","img/motor_1.png","65","motor","","","","","","",""
"605","","258915","HierDyb9rvmxwu","pb2sfs4wv8","ms1000306","motor","","70","img/motor_4.png","70","motor","4","148","1","0","0","",""
"null","","259031","HierDyb9rvmxwu","pb2sfs4wv8","ms1000306","iti","","null","img/motor_4.png","70","motor","","","","","","",""
"503","","259547","HierDyb9rvmxwu","pb2sfs4wv8","ms1000306","motor","","76","img/motor_8.png","76","motor","8","149","1","0","0","",""
"null","","259663","HierDyb9rvmxwu","pb2sfs4wv8","ms1000306","iti","","null","img/motor_8.png","76","motor","","","","","","",""
"470","","260147","HierDyb9rvmxwu","pb2sfs4wv8","ms1000306","motor","","70","img/motor_4.png","70","motor","4","150","1","0","0","",""
"null","","260256","HierDyb9rvmxwu","pb2sfs4wv8","ms1000306","iti","","null","img/motor_4.png","70","motor","","","","","","",""
"461","","260725","HierDyb9rvmxwu","pb2sfs4wv8","ms1000306","motor","","83","img/motor_3.png","68","motor","3","151","0","1","0","",""
"289","","261020","HierDyb9rvmxwu","pb2sfs4wv8","ms1000306","motorRepeat","","68","img/motor_3.png","68","motor","3","151","1","0","0","",""
"null","","261129","HierDyb9rvmxwu","pb2sfs4wv8","ms1000306","iti","","null","img/motor_3.png","68","motor","","","","","","",""
"444","","261584","HierDyb9rvmxwu","pb2sfs4wv8","ms1000306","motor","","65","img/motor_1.png","65","motor","1","152","1","0","0","",""
"null","","261693","HierDyb9rvmxwu","pb2sfs4wv8","ms1000306","iti","","null","img/motor_1.png","65","motor","","","","","","",""
"865","","262565","HierDyb9rvmxwu","pb2sfs4wv8","ms1000306","motor","","74","img/motor_6.png","74","motor","6","153","1","0","0","",""
"null","","262680","HierDyb9rvmxwu","pb2sfs4wv8","ms1000306","iti","","null","img/motor_6.png","74","motor","","","","","","",""
"644","","263332","HierDyb9rvmxwu","pb2sfs4wv8","ms1000306","motor","","70","img/motor_3.png","68","motor","3","154","0","1","0","",""
"231","","263573","HierDyb9rvmxwu","pb2sfs4wv8","ms1000306","motorRepeat","","68","img/motor_3.png","68","motor","3","154","1","0","0","",""
"null","","263682","HierDyb9rvmxwu","pb2sfs4wv8","ms1000306","iti","","null","img/motor_3.png","68","motor","","","","","","",""
"538","","264228","HierDyb9rvmxwu","pb2sfs4wv8","ms1000306","motor","","65","img/motor_1.png","65","motor","1","155","1","0","0","",""
"null","","264343","HierDyb9rvmxwu","pb2sfs4wv8","ms1000306","iti","","null","img/motor_1.png","65","motor","","","","","","",""
"604","","264957","HierDyb9rvmxwu","pb2sfs4wv8","ms1000306","motor","","72","img/motor_6.png","74","motor","6","156","0","1","0","",""
"337","","265301","HierDyb9rvmxwu","pb2sfs4wv8","ms1000306","motorRepeat","","74","img/motor_6.png","74","motor","6","156","1","0","0","",""
"null","","265409","HierDyb9rvmxwu","pb2sfs4wv8","ms1000306","iti","","null","img/motor_6.png","74","motor","","","","","","",""
"564","","265980","HierDyb9rvmxwu","pb2sfs4wv8","ms1000306","motor","","68","img/motor_3.png","68","motor","3","157","1","0","0","",""
"null","","266088","HierDyb9rvmxwu","pb2sfs4wv8","ms1000306","iti","","null","img/motor_3.png","68","motor","","","","","","",""
"444","","266547","HierDyb9rvmxwu","pb2sfs4wv8","ms1000306","motor","","76","img/motor_8.png","76","motor","8","158","1","0","0","",""
"null","","266656","HierDyb9rvmxwu","pb2sfs4wv8","ms1000306","iti","","null","img/motor_8.png","76","motor","","","","","","",""
"492","","267157","HierDyb9rvmxwu","pb2sfs4wv8","ms1000306","motor","","72","img/motor_5.png","72","motor","5","159","1","0","0","",""
"null","","267271","HierDyb9rvmxwu","pb2sfs4wv8","ms1000306","iti","","null","img/motor_5.png","72","motor","","","","","","",""
"557","","267836","HierDyb9rvmxwu","pb2sfs4wv8","ms1000306","motor","","68","img/motor_3.png","68","motor","3","160","1","0","0","",""
"null","","267944","HierDyb9rvmxwu","pb2sfs4wv8","ms1000306","iti","","null","img/motor_3.png","68","motor","","","","","","",""
"484","","268437","HierDyb9rvmxwu","pb2sfs4wv8","ms1000306","motor","","74","img/motor_5.png","72","motor","5","161","0","1","0","",""
"223","","268669","HierDyb9rvmxwu","pb2sfs4wv8","ms1000306","motorRepeat","","72","img/motor_5.png","72","motor","5","161","1","0","0","",""
"null","","268783","HierDyb9rvmxwu","pb2sfs4wv8","ms1000306","iti","","null","img/motor_5.png","72","motor","","","","","","",""
"453","","269245","HierDyb9rvmxwu","pb2sfs4wv8","ms1000306","motor","","72","img/motor_5.png","72","motor","5","162","1","0","0","",""
"null","","269359","HierDyb9rvmxwu","pb2sfs4wv8","ms1000306","iti","","null","img/motor_5.png","72","motor","","","","","","",""
"397","","269765","HierDyb9rvmxwu","pb2sfs4wv8","ms1000306","motor","","74","img/motor_6.png","74","motor","6","163","1","0","0","",""
"null","","269873","HierDyb9rvmxwu","pb2sfs4wv8","ms1000306","iti","","null","img/motor_6.png","74","motor","","","","","","",""
"451","","270333","HierDyb9rvmxwu","pb2sfs4wv8","ms1000306","motor","","65","img/motor_1.png","65","motor","1","164","1","0","0","",""
"null","","270441","HierDyb9rvmxwu","pb2sfs4wv8","ms1000306","iti","","null","img/motor_1.png","65","motor","","","","","","",""
"452","","270901","HierDyb9rvmxwu","pb2sfs4wv8","ms1000306","motor","","83","img/motor_2.png","83","motor","2","165","1","0","0","",""
"null","","271009","HierDyb9rvmxwu","pb2sfs4wv8","ms1000306","iti","","null","img/motor_2.png","83","motor","","","","","","",""
"708","","271731","HierDyb9rvmxwu","pb2sfs4wv8","ms1000306","motor","","72","img/motor_5.png","72","motor","5","166","1","0","0","",""
"null","","271840","HierDyb9rvmxwu","pb2sfs4wv8","ms1000306","iti","","null","img/motor_5.png","72","motor","","","","","","",""
"420","","272268","HierDyb9rvmxwu","pb2sfs4wv8","ms1000306","motor","","65","img/motor_1.png","65","motor","1","167","1","0","0","",""
"null","","272382","HierDyb9rvmxwu","pb2sfs4wv8","ms1000306","iti","","null","img/motor_1.png","65","motor","","","","","","",""
"437","","272828","HierDyb9rvmxwu","pb2sfs4wv8","ms1000306","motor","","65","img/motor_1.png","65","motor","1","168","1","0","0","",""
"null","","272935","HierDyb9rvmxwu","pb2sfs4wv8","ms1000306","iti","","null","img/motor_1.png","65","motor","","","","","","",""
"493","","273443","HierDyb9rvmxwu","pb2sfs4wv8","ms1000306","motor","","70","img/motor_4.png","70","motor","4","169","1","0","0","",""
"null","","273559","HierDyb9rvmxwu","pb2sfs4wv8","ms1000306","iti","","null","img/motor_4.png","70","motor","","","","","","",""
"437","","274011","HierDyb9rvmxwu","pb2sfs4wv8","ms1000306","motor","","74","img/motor_7.png","75","motor","7","170","0","1","0","",""
"233","","274260","HierDyb9rvmxwu","pb2sfs4wv8","ms1000306","motorRepeat","","75","img/motor_7.png","75","motor","7","170","1","0","0","",""
"null","","274368","HierDyb9rvmxwu","pb2sfs4wv8","ms1000306","iti","","null","img/motor_7.png","75","motor","","","","","","",""
"548","","274932","HierDyb9rvmxwu","pb2sfs4wv8","ms1000306","motor","","74","img/motor_6.png","74","motor","6","171","1","0","0","",""
"null","","275041","HierDyb9rvmxwu","pb2sfs4wv8","ms1000306","iti","","null","img/motor_6.png","74","motor","","","","","","",""
"524","","275572","HierDyb9rvmxwu","pb2sfs4wv8","ms1000306","motor","","72","img/motor_5.png","72","motor","5","172","1","0","0","",""
"null","","275688","HierDyb9rvmxwu","pb2sfs4wv8","ms1000306","iti","","null","img/motor_5.png","72","motor","","","","","","",""
"411","","276109","HierDyb9rvmxwu","pb2sfs4wv8","ms1000306","motor","","83","img/motor_2.png","83","motor","2","173","1","0","0","",""
"null","","276218","HierDyb9rvmxwu","pb2sfs4wv8","ms1000306","iti","","null","img/motor_2.png","83","motor","","","","","","",""
"699","","276932","HierDyb9rvmxwu","pb2sfs4wv8","ms1000306","motor","","74","img/motor_6.png","74","motor","6","174","1","0","0","",""
"null","","277042","HierDyb9rvmxwu","pb2sfs4wv8","ms1000306","iti","","null","img/motor_6.png","74","motor","","","","","","",""
"435","","277491","HierDyb9rvmxwu","pb2sfs4wv8","ms1000306","motor","","75","img/motor_7.png","75","motor","7","175","1","0","0","",""
"null","","277600","HierDyb9rvmxwu","pb2sfs4wv8","ms1000306","iti","","null","img/motor_7.png","75","motor","","","","","","",""
"429","","278036","HierDyb9rvmxwu","pb2sfs4wv8","ms1000306","motor","","76","img/motor_8.png","76","motor","8","176","1","0","0","",""
"null","","278144","HierDyb9rvmxwu","pb2sfs4wv8","ms1000306","iti","","null","img/motor_8.png","76","motor","","","","","","",""
"413","","278565","HierDyb9rvmxwu","pb2sfs4wv8","ms1000306","motor","","75","img/motor_7.png","75","motor","7","177","1","0","0","",""
"null","","278673","HierDyb9rvmxwu","pb2sfs4wv8","ms1000306","iti","","null","img/motor_7.png","75","motor","","","","","","",""
"524","","279205","HierDyb9rvmxwu","pb2sfs4wv8","ms1000306","motor","","70","img/motor_4.png","70","motor","4","178","1","0","0","",""
"null","","279320","HierDyb9rvmxwu","pb2sfs4wv8","ms1000306","iti","","null","img/motor_4.png","70","motor","","","","","","",""
"500","","279829","HierDyb9rvmxwu","pb2sfs4wv8","ms1000306","motor","","72","img/motor_5.png","72","motor","5","179","1","0","0","",""
"null","","279944","HierDyb9rvmxwu","pb2sfs4wv8","ms1000306","iti","","null","img/motor_5.png","72","motor","","","","","","",""
"476","","280428","HierDyb9rvmxwu","pb2sfs4wv8","ms1000306","motor","","65","img/motor_1.png","65","motor","1","180","1","0","0","",""
"null","","280538","HierDyb9rvmxwu","pb2sfs4wv8","ms1000306","iti","","null","img/motor_1.png","65","motor","","","","","","",""
"379","","280926","HierDyb9rvmxwu","pb2sfs4wv8","ms1000306","motor","","75","img/motor_7.png","75","motor","7","181","1","0","0","",""
"null","","281033","HierDyb9rvmxwu","pb2sfs4wv8","ms1000306","iti","","null","img/motor_7.png","75","motor","","","","","","",""
"403","","281450","HierDyb9rvmxwu","pb2sfs4wv8","ms1000306","motor","","74","img/motor_6.png","74","motor","6","182","1","0","0","",""
"null","","281560","HierDyb9rvmxwu","pb2sfs4wv8","ms1000306","iti","","null","img/motor_6.png","74","motor","","","","","","",""
"300","","281869","HierDyb9rvmxwu","pb2sfs4wv8","ms1000306","motor","","75","img/motor_7.png","75","motor","7","183","1","0","0","",""
"null","","281984","HierDyb9rvmxwu","pb2sfs4wv8","ms1000306","iti","","null","img/motor_7.png","75","motor","","","","","","",""
"595","","282589","HierDyb9rvmxwu","pb2sfs4wv8","ms1000306","motor","","72","img/motor_5.png","72","motor","5","184","1","0","0","",""
"null","","282697","HierDyb9rvmxwu","pb2sfs4wv8","ms1000306","iti","","null","img/motor_5.png","72","motor","","","","","","",""
"476","","283180","HierDyb9rvmxwu","pb2sfs4wv8","ms1000306","motor","","76","img/motor_8.png","76","motor","8","185","1","0","0","",""
"null","","283289","HierDyb9rvmxwu","pb2sfs4wv8","ms1000306","iti","","null","img/motor_8.png","76","motor","","","","","","",""
"363","","283661","HierDyb9rvmxwu","pb2sfs4wv8","ms1000306","motor","","76","img/motor_8.png","76","motor","8","186","1","0","0","",""
"null","","283769","HierDyb9rvmxwu","pb2sfs4wv8","ms1000306","iti","","null","img/motor_8.png","76","motor","","","","","","",""
"499","","284276","HierDyb9rvmxwu","pb2sfs4wv8","ms1000306","motor","","83","img/motor_2.png","83","motor","2","187","1","0","0","",""
"null","","284390","HierDyb9rvmxwu","pb2sfs4wv8","ms1000306","iti","","null","img/motor_2.png","83","motor","","","","","","",""
"581","","284986","HierDyb9rvmxwu","pb2sfs4wv8","ms1000306","motor","","75","img/motor_7.png","75","motor","7","188","1","0","0","",""
"null","","285102","HierDyb9rvmxwu","pb2sfs4wv8","ms1000306","iti","","null","img/motor_7.png","75","motor","","","","","","",""
"430","","285540","HierDyb9rvmxwu","pb2sfs4wv8","ms1000306","motor","","83","img/motor_2.png","83","motor","2","189","1","0","0","",""
"null","","285649","HierDyb9rvmxwu","pb2sfs4wv8","ms1000306","iti","","null","img/motor_2.png","83","motor","","","","","","",""
"461","","286116","HierDyb9rvmxwu","pb2sfs4wv8","ms1000306","motor","","70","img/motor_4.png","70","motor","4","190","1","0","0","",""
"null","","286225","HierDyb9rvmxwu","pb2sfs4wv8","ms1000306","iti","","null","img/motor_4.png","70","motor","","","","","","",""
"572","","286804","HierDyb9rvmxwu","pb2sfs4wv8","ms1000306","motor","","65","img/motor_1.png","65","motor","1","191","1","0","0","",""
"null","","286913","HierDyb9rvmxwu","pb2sfs4wv8","ms1000306","iti","","null","img/motor_1.png","65","motor","","","","","","",""
"565","","287485","HierDyb9rvmxwu","pb2sfs4wv8","ms1000306","motor","","74","img/motor_6.png","74","motor","6","192","1","0","0","",""
"null","","287593","HierDyb9rvmxwu","pb2sfs4wv8","ms1000306","iti","","null","img/motor_6.png","74","motor","","","","","","",""
"412","","288013","HierDyb9rvmxwu","pb2sfs4wv8","ms1000306","motor","","76","img/motor_8.png","76","motor","8","193","1","0","0","",""
"null","","288121","HierDyb9rvmxwu","pb2sfs4wv8","ms1000306","iti","","null","img/motor_8.png","76","motor","","","","","","",""
"516","","288646","HierDyb9rvmxwu","pb2sfs4wv8","ms1000306","motor","","83","img/motor_3.png","68","motor","3","194","0","1","0","",""
"111","","288771","HierDyb9rvmxwu","pb2sfs4wv8","ms1000306","motorRepeat","","68","img/motor_3.png","68","motor","3","194","1","0","0","",""
"null","","288881","HierDyb9rvmxwu","pb2sfs4wv8","ms1000306","iti","","null","img/motor_3.png","68","motor","","","","","","",""
"540","","289428","HierDyb9rvmxwu","pb2sfs4wv8","ms1000306","motor","","74","img/motor_6.png","74","motor","6","195","1","0","0","",""
"null","","289543","HierDyb9rvmxwu","pb2sfs4wv8","ms1000306","iti","","null","img/motor_6.png","74","motor","","","","","","",""
"596","","290147","HierDyb9rvmxwu","pb2sfs4wv8","ms1000306","motor","","72","img/motor_5.png","72","motor","5","196","1","0","0","",""
"null","","290256","HierDyb9rvmxwu","pb2sfs4wv8","ms1000306","iti","","null","img/motor_5.png","72","motor","","","","","","",""
"365","","290629","HierDyb9rvmxwu","pb2sfs4wv8","ms1000306","motor","","74","img/motor_6.png","74","motor","6","197","1","0","0","",""
"null","","290744","HierDyb9rvmxwu","pb2sfs4wv8","ms1000306","iti","","null","img/motor_6.png","74","motor","","","","","","",""
"404","","291157","HierDyb9rvmxwu","pb2sfs4wv8","ms1000306","motor","","76","img/motor_8.png","76","motor","8","198","1","0","0","",""
"null","","291272","HierDyb9rvmxwu","pb2sfs4wv8","ms1000306","iti","","null","img/motor_8.png","76","motor","","","","","","",""
"444","","291725","HierDyb9rvmxwu","pb2sfs4wv8","ms1000306","motor","","65","img/motor_1.png","65","motor","1","199","1","0","0","",""
"null","","291833","HierDyb9rvmxwu","pb2sfs4wv8","ms1000306","iti","","null","img/motor_1.png","65","motor","","","","","","",""
"531","","292373","HierDyb9rvmxwu","pb2sfs4wv8","ms1000306","motor","","75","img/motor_7.png","75","motor","7","200","1","0","0","",""
"null","","292481","HierDyb9rvmxwu","pb2sfs4wv8","ms1000306","iti","","null","img/motor_7.png","75","motor","","","","","","",""
"492","","292980","HierDyb9rvmxwu","pb2sfs4wv8","ms1000306","motor","","76","img/motor_8.png","76","motor","8","201","1","0","0","",""
"null","","293095","HierDyb9rvmxwu","pb2sfs4wv8","ms1000306","iti","","null","img/motor_8.png","76","motor","","","","","","",""
"405","","293509","HierDyb9rvmxwu","pb2sfs4wv8","ms1000306","motor","","75","img/motor_7.png","75","motor","7","202","1","0","0","",""
"null","","293623","HierDyb9rvmxwu","pb2sfs4wv8","ms1000306","iti","","null","img/motor_7.png","75","motor","","","","","","",""
"444","","294075","HierDyb9rvmxwu","pb2sfs4wv8","ms1000306","motor","","75","img/motor_7.png","75","motor","7","203","1","0","0","",""
"null","","294181","HierDyb9rvmxwu","pb2sfs4wv8","ms1000306","iti","","null","img/motor_7.png","75","motor","","","","","","",""
"431","","294621","HierDyb9rvmxwu","pb2sfs4wv8","ms1000306","motor","","65","img/motor_1.png","65","motor","1","204","1","0","0","",""
"null","","294729","HierDyb9rvmxwu","pb2sfs4wv8","ms1000306","iti","","null","img/motor_1.png","65","motor","","","","","","",""
"411","","295149","HierDyb9rvmxwu","pb2sfs4wv8","ms1000306","motor","","65","img/motor_1.png","65","motor","1","205","1","0","0","",""
"null","","295257","HierDyb9rvmxwu","pb2sfs4wv8","ms1000306","iti","","null","img/motor_1.png","65","motor","","","","","","",""
"525","","295787","HierDyb9rvmxwu","pb2sfs4wv8","ms1000306","motor","","74","img/motor_6.png","74","motor","6","206","1","0","0","",""
"null","","295902","HierDyb9rvmxwu","pb2sfs4wv8","ms1000306","iti","","null","img/motor_6.png","74","motor","","","","","","",""
"414","","296325","HierDyb9rvmxwu","pb2sfs4wv8","ms1000306","motor","","76","img/motor_8.png","76","motor","8","207","1","0","0","",""
"null","","296434","HierDyb9rvmxwu","pb2sfs4wv8","ms1000306","iti","","null","img/motor_8.png","76","motor","","","","","","",""
"370","","296813","HierDyb9rvmxwu","pb2sfs4wv8","ms1000306","motor","","74","img/motor_6.png","74","motor","6","208","1","0","0","",""
"null","","296928","HierDyb9rvmxwu","pb2sfs4wv8","ms1000306","iti","","null","img/motor_6.png","74","motor","","","","","","",""
"365","","297301","HierDyb9rvmxwu","pb2sfs4wv8","ms1000306","motor","","76","img/motor_7.png","75","motor","7","209","0","1","0","",""
"263","","297573","HierDyb9rvmxwu","pb2sfs4wv8","ms1000306","motorRepeat","","75","img/motor_7.png","75","motor","7","209","1","0","0","",""
"null","","297688","HierDyb9rvmxwu","pb2sfs4wv8","ms1000306","iti","","null","img/motor_7.png","75","motor","","","","","","",""
"406","","298101","HierDyb9rvmxwu","pb2sfs4wv8","ms1000306","motor","","65","img/motor_1.png","65","motor","1","210","1","0","0","",""
"null","","298216","HierDyb9rvmxwu","pb2sfs4wv8","ms1000306","iti","","null","img/motor_1.png","65","motor","","","","","","",""
"525","","298755","HierDyb9rvmxwu","pb2sfs4wv8","ms1000306","motor","","74","img/motor_6.png","74","motor","6","211","1","0","0","",""
"null","","298864","HierDyb9rvmxwu","pb2sfs4wv8","ms1000306","iti","","null","img/motor_6.png","74","motor","","","","","","",""
"525","","299398","HierDyb9rvmxwu","pb2sfs4wv8","ms1000306","motor","","70","img/motor_4.png","70","motor","4","212","1","0","0","",""
"null","","299507","HierDyb9rvmxwu","pb2sfs4wv8","ms1000306","iti","","null","img/motor_4.png","70","motor","","","","","","",""
"658","","300180","HierDyb9rvmxwu","pb2sfs4wv8","ms1000306","motor","","72","img/motor_5.png","72","motor","5","213","1","0","0","",""
"null","","300289","HierDyb9rvmxwu","pb2sfs4wv8","ms1000306","iti","","null","img/motor_5.png","72","motor","","","","","","",""
"373","","300676","HierDyb9rvmxwu","pb2sfs4wv8","ms1000306","motor","","72","img/motor_5.png","72","motor","5","214","1","0","0","",""
"null","","300785","HierDyb9rvmxwu","pb2sfs4wv8","ms1000306","iti","","null","img/motor_5.png","72","motor","","","","","","",""
"437","","301230","HierDyb9rvmxwu","pb2sfs4wv8","ms1000306","motor","","68","img/motor_4.png","70","motor","4","215","0","1","0","",""
"63","","301308","HierDyb9rvmxwu","pb2sfs4wv8","ms1000306","motorRepeat","","70","img/motor_4.png","70","motor","4","215","1","0","0","",""
"null","","301417","HierDyb9rvmxwu","pb2sfs4wv8","ms1000306","iti","","null","img/motor_4.png","70","motor","","","","","","",""
"419","","301845","HierDyb9rvmxwu","pb2sfs4wv8","ms1000306","motor","","70","img/motor_4.png","70","motor","4","216","1","0","0","",""
"null","","301953","HierDyb9rvmxwu","pb2sfs4wv8","ms1000306","iti","","null","img/motor_4.png","70","motor","","","","","","",""
"427","","302389","HierDyb9rvmxwu","pb2sfs4wv8","ms1000306","motor","","75","img/motor_7.png","75","motor","7","217","1","0","0","",""
"null","","302504","HierDyb9rvmxwu","pb2sfs4wv8","ms1000306","iti","","null","img/motor_7.png","75","motor","","","","","","",""
"595","","303109","HierDyb9rvmxwu","pb2sfs4wv8","ms1000306","motor","","70","img/motor_4.png","70","motor","4","218","1","0","0","",""
"null","","303217","HierDyb9rvmxwu","pb2sfs4wv8","ms1000306","iti","","null","img/motor_4.png","70","motor","","","","","","",""
"316","","303542","HierDyb9rvmxwu","pb2sfs4wv8","ms1000306","motor","","75","img/motor_7.png","75","motor","7","219","1","0","0","",""
"null","","303650","HierDyb9rvmxwu","pb2sfs4wv8","ms1000306","iti","","null","img/motor_7.png","75","motor","","","","","","",""
"459","","304124","HierDyb9rvmxwu","pb2sfs4wv8","ms1000306","motor","","75","img/motor_7.png","75","motor","7","220","1","0","0","",""
"null","","304238","HierDyb9rvmxwu","pb2sfs4wv8","ms1000306","iti","","null","img/motor_7.png","75","motor","","","","","","",""
"518","","304765","HierDyb9rvmxwu","pb2sfs4wv8","ms1000306","motor","","83","img/motor_2.png","83","motor","2","221","1","0","0","",""
"null","","304879","HierDyb9rvmxwu","pb2sfs4wv8","ms1000306","iti","","null","img/motor_2.png","83","motor","","","","","","",""
"333","","305222","HierDyb9rvmxwu","pb2sfs4wv8","ms1000306","motor","","75","img/motor_4.png","70","motor","4","222","0","1","0","",""
"232","","305467","HierDyb9rvmxwu","pb2sfs4wv8","ms1000306","motorRepeat","","72","img/motor_4.png","70","motor","4","222","0","1","0","",""
"81","","305564","HierDyb9rvmxwu","pb2sfs4wv8","ms1000306","motorRepeat","","70","img/motor_4.png","70","motor","4","222","1","0","0","",""
"null","","305678","HierDyb9rvmxwu","pb2sfs4wv8","ms1000306","iti","","null","img/motor_4.png","70","motor","","","","","","",""
"591","","306283","HierDyb9rvmxwu","pb2sfs4wv8","ms1000306","motor","","68","img/motor_3.png","68","motor","3","223","1","0","0","",""
"null","","306392","HierDyb9rvmxwu","pb2sfs4wv8","ms1000306","iti","","null","img/motor_3.png","68","motor","","","","","","",""
"429","","306829","HierDyb9rvmxwu","pb2sfs4wv8","ms1000306","motor","","75","img/motor_7.png","75","motor","7","224","1","0","0","",""
"null","","306944","HierDyb9rvmxwu","pb2sfs4wv8","ms1000306","iti","","null","img/motor_7.png","75","motor","","","","","","",""
"468","","307421","HierDyb9rvmxwu","pb2sfs4wv8","ms1000306","motor","","76","img/motor_8.png","76","motor","8","225","1","0","0","",""
"null","","307529","HierDyb9rvmxwu","pb2sfs4wv8","ms1000306","iti","","null","img/motor_8.png","76","motor","","","","","","",""
"412","","307948","HierDyb9rvmxwu","pb2sfs4wv8","ms1000306","motor","","75","img/motor_7.png","75","motor","7","226","1","0","0","",""
"null","","308057","HierDyb9rvmxwu","pb2sfs4wv8","ms1000306","iti","","null","img/motor_7.png","75","motor","","","","","","",""
"381","","308446","HierDyb9rvmxwu","pb2sfs4wv8","ms1000306","motor","","75","img/motor_7.png","75","motor","7","227","1","0","0","",""
"null","","308560","HierDyb9rvmxwu","pb2sfs4wv8","ms1000306","iti","","null","img/motor_7.png","75","motor","","","","","","",""
"620","","309189","HierDyb9rvmxwu","pb2sfs4wv8","ms1000306","motor","","74","img/motor_6.png","74","motor","6","228","1","0","0","",""
"null","","309297","HierDyb9rvmxwu","pb2sfs4wv8","ms1000306","iti","","null","img/motor_6.png","74","motor","","","","","","",""
"403","","309709","HierDyb9rvmxwu","pb2sfs4wv8","ms1000306","motor","","74","img/motor_6.png","74","motor","6","229","1","0","0","",""
"null","","309816","HierDyb9rvmxwu","pb2sfs4wv8","ms1000306","iti","","null","img/motor_6.png","74","motor","","","","","","",""
"452","","310277","HierDyb9rvmxwu","pb2sfs4wv8","ms1000306","motor","","65","img/motor_1.png","65","motor","1","230","1","0","0","",""
"null","","310392","HierDyb9rvmxwu","pb2sfs4wv8","ms1000306","iti","","null","img/motor_1.png","65","motor","","","","","","",""
"604","","311006","HierDyb9rvmxwu","pb2sfs4wv8","ms1000306","motor","","74","img/motor_6.png","74","motor","6","231","1","0","0","",""
"null","","311120","HierDyb9rvmxwu","pb2sfs4wv8","ms1000306","iti","","null","img/motor_6.png","74","motor","","","","","","",""
"612","","311742","HierDyb9rvmxwu","pb2sfs4wv8","ms1000306","motor","","68","img/motor_3.png","68","motor","3","232","1","0","0","",""
"null","","311850","HierDyb9rvmxwu","pb2sfs4wv8","ms1000306","iti","","null","img/motor_3.png","68","motor","","","","","","",""
"628","","312492","HierDyb9rvmxwu","pb2sfs4wv8","ms1000306","motor","","72","img/motor_5.png","72","motor","5","233","1","0","0","",""
"null","","312601","HierDyb9rvmxwu","pb2sfs4wv8","ms1000306","iti","","null","img/motor_5.png","72","motor","","","","","","",""
"437","","313045","HierDyb9rvmxwu","pb2sfs4wv8","ms1000306","motor","","70","img/motor_4.png","70","motor","4","234","1","0","0","",""
"null","","313153","HierDyb9rvmxwu","pb2sfs4wv8","ms1000306","iti","","null","img/motor_4.png","70","motor","","","","","","",""
"492","","313654","HierDyb9rvmxwu","pb2sfs4wv8","ms1000306","motor","","76","img/motor_8.png","76","motor","8","235","1","0","0","",""
"null","","313762","HierDyb9rvmxwu","pb2sfs4wv8","ms1000306","iti","","null","img/motor_8.png","76","motor","","","","","","",""
"619","","314387","HierDyb9rvmxwu","pb2sfs4wv8","ms1000306","motor","","68","img/motor_3.png","68","motor","3","236","1","0","0","",""
"null","","314495","HierDyb9rvmxwu","pb2sfs4wv8","ms1000306","iti","","null","img/motor_3.png","68","motor","","","","","","",""
"582","","315085","HierDyb9rvmxwu","pb2sfs4wv8","ms1000306","motor","","74","img/motor_5.png","72","motor","5","237","0","1","0","",""
"151","","315245","HierDyb9rvmxwu","pb2sfs4wv8","ms1000306","motorRepeat","","72","img/motor_5.png","72","motor","5","237","1","0","0","",""
"null","","315360","HierDyb9rvmxwu","pb2sfs4wv8","ms1000306","iti","","null","img/motor_5.png","72","motor","","","","","","",""
"452","","315821","HierDyb9rvmxwu","pb2sfs4wv8","ms1000306","motor","","74","img/motor_6.png","74","motor","6","238","1","0","0","",""
"null","","315929","HierDyb9rvmxwu","pb2sfs4wv8","ms1000306","iti","","null","img/motor_6.png","74","motor","","","","","","",""
"525","","316461","HierDyb9rvmxwu","pb2sfs4wv8","ms1000306","motor","","68","img/motor_3.png","68","motor","3","239","1","0","0","",""
"null","","316570","HierDyb9rvmxwu","pb2sfs4wv8","ms1000306","iti","","null","img/motor_3.png","68","motor","","","","","","",""
"563","","317141","HierDyb9rvmxwu","pb2sfs4wv8","ms1000306","motor","","74","img/motor_6.png","74","motor","6","240","1","0","0","",""
"null","","317249","HierDyb9rvmxwu","pb2sfs4wv8","ms1000306","iti","","null","img/motor_6.png","74","motor","","","","","","",""
"436","","317694","HierDyb9rvmxwu","pb2sfs4wv8","ms1000306","motor","","68","img/motor_2.png","83","motor","2","241","0","1","0","",""
"303","","318004","HierDyb9rvmxwu","pb2sfs4wv8","ms1000306","motorRepeat","","83","img/motor_2.png","83","motor","2","241","1","0","0","",""
"null","","318113","HierDyb9rvmxwu","pb2sfs4wv8","ms1000306","iti","","null","img/motor_2.png","83","motor","","","","","","",""
"605","","318725","HierDyb9rvmxwu","pb2sfs4wv8","ms1000306","motor","","72","img/motor_4.png","70","motor","4","242","0","1","0","",""
"168","","318901","HierDyb9rvmxwu","pb2sfs4wv8","ms1000306","motorRepeat","","70","img/motor_4.png","70","motor","4","242","1","0","0","",""
"null","","319009","HierDyb9rvmxwu","pb2sfs4wv8","ms1000306","iti","","null","img/motor_4.png","70","motor","","","","","","",""
"396","","319414","HierDyb9rvmxwu","pb2sfs4wv8","ms1000306","motor","","70","img/motor_4.png","70","motor","4","243","1","0","0","",""
"null","","319530","HierDyb9rvmxwu","pb2sfs4wv8","ms1000306","iti","","null","img/motor_4.png","70","motor","","","","","","",""
"467","","320006","HierDyb9rvmxwu","pb2sfs4wv8","ms1000306","motor","","68","img/motor_3.png","68","motor","3","244","1","0","0","",""
"null","","320120","HierDyb9rvmxwu","pb2sfs4wv8","ms1000306","iti","","null","img/motor_3.png","68","motor","","","","","","",""
"373","","320502","HierDyb9rvmxwu","pb2sfs4wv8","ms1000306","motor","","70","img/motor_4.png","70","motor","4","245","1","0","0","",""
"null","","320610","HierDyb9rvmxwu","pb2sfs4wv8","ms1000306","iti","","null","img/motor_4.png","70","motor","","","","","","",""
"660","","321284","HierDyb9rvmxwu","pb2sfs4wv8","ms1000306","motor","","74","img/motor_6.png","74","motor","6","246","1","0","0","",""
"null","","321393","HierDyb9rvmxwu","pb2sfs4wv8","ms1000306","iti","","null","img/motor_6.png","74","motor","","","","","","",""
"580","","321981","HierDyb9rvmxwu","pb2sfs4wv8","ms1000306","motor","","65","img/motor_1.png","65","motor","1","247","1","0","0","",""
"null","","322097","HierDyb9rvmxwu","pb2sfs4wv8","ms1000306","iti","","null","img/motor_1.png","65","motor","","","","","","",""
"427","","322534","HierDyb9rvmxwu","pb2sfs4wv8","ms1000306","motor","","76","img/motor_8.png","76","motor","8","248","1","0","0","",""
"null","","322643","HierDyb9rvmxwu","pb2sfs4wv8","ms1000306","iti","","null","img/motor_8.png","76","motor","","","","","","",""
"531","","323182","HierDyb9rvmxwu","pb2sfs4wv8","ms1000306","motor","","70","img/motor_3.png","68","motor","3","249","0","1","0","",""
"143","","323332","HierDyb9rvmxwu","pb2sfs4wv8","ms1000306","motorRepeat","","68","img/motor_3.png","68","motor","3","249","1","0","0","",""
"null","","323441","HierDyb9rvmxwu","pb2sfs4wv8","ms1000306","iti","","null","img/motor_3.png","68","motor","","","","","","",""
"540","","323990","HierDyb9rvmxwu","pb2sfs4wv8","ms1000306","motor","","75","img/motor_7.png","75","motor","7","250","1","0","0","",""
"null","","324099","HierDyb9rvmxwu","pb2sfs4wv8","ms1000306","iti","","null","img/motor_7.png","75","motor","","","","","","",""
"516","","324621","HierDyb9rvmxwu","pb2sfs4wv8","ms1000306","motor","","68","img/motor_3.png","68","motor","3","251","1","0","0","",""
"null","","324730","HierDyb9rvmxwu","pb2sfs4wv8","ms1000306","iti","","null","img/motor_3.png","68","motor","","","","","","",""
"461","","325197","HierDyb9rvmxwu","pb2sfs4wv8","ms1000306","motor","","83","img/motor_2.png","83","motor","2","252","1","0","0","",""
"null","","325306","HierDyb9rvmxwu","pb2sfs4wv8","ms1000306","iti","","null","img/motor_2.png","83","motor","","","","","","",""
"564","","325891","HierDyb9rvmxwu","pb2sfs4wv8","ms1000306","motor","","75","img/motor_7.png","75","motor","7","253","1","0","0","",""
"null","","326001","HierDyb9rvmxwu","pb2sfs4wv8","ms1000306","iti","","null","img/motor_7.png","75","motor","","","","","","",""
"565","","326575","HierDyb9rvmxwu","pb2sfs4wv8","ms1000306","motor","","83","img/motor_2.png","83","motor","2","254","1","0","0","",""
"null","","326683","HierDyb9rvmxwu","pb2sfs4wv8","ms1000306","iti","","null","img/motor_2.png","83","motor","","","","","","",""
"522","","327220","HierDyb9rvmxwu","pb2sfs4wv8","ms1000306","motor","","75","img/motor_7.png","75","motor","7","255","1","0","0","",""
"null","","327331","HierDyb9rvmxwu","pb2sfs4wv8","ms1000306","iti","","null","img/motor_7.png","75","motor","","","","","","",""
"515","","327854","HierDyb9rvmxwu","pb2sfs4wv8","ms1000306","motor","","76","img/motor_8.png","76","motor","8","256","1","0","0","",""
"null","","327969","HierDyb9rvmxwu","pb2sfs4wv8","ms1000306","iti","","null","img/motor_8.png","76","motor","","","","","","",""
"516","","328501","HierDyb9rvmxwu","pb2sfs4wv8","ms1000306","motor","","65","img/motor_1.png","65","motor","1","257","1","0","0","",""
"null","","328616","HierDyb9rvmxwu","pb2sfs4wv8","ms1000306","iti","","null","img/motor_1.png","65","motor","","","","","","",""
"780","","329406","HierDyb9rvmxwu","pb2sfs4wv8","ms1000306","motor","","76","img/motor_8.png","76","motor","8","258","1","0","0","",""
"null","","329514","HierDyb9rvmxwu","pb2sfs4wv8","ms1000306","iti","","null","img/motor_8.png","76","motor","","","","","","",""
"683","","330206","HierDyb9rvmxwu","pb2sfs4wv8","ms1000306","motor","","70","img/motor_4.png","70","motor","4","259","1","0","0","",""
"null","","330321","HierDyb9rvmxwu","pb2sfs4wv8","ms1000306","iti","","null","img/motor_4.png","70","motor","","","","","","",""
"499","","330831","HierDyb9rvmxwu","pb2sfs4wv8","ms1000306","motor","","83","img/motor_2.png","83","motor","2","260","1","0","0","",""
"null","","330945","HierDyb9rvmxwu","pb2sfs4wv8","ms1000306","iti","","null","img/motor_2.png","83","motor","","","","","","",""
"603","","331557","HierDyb9rvmxwu","pb2sfs4wv8","ms1000306","motor","","74","img/motor_6.png","74","motor","6","261","1","0","0","",""
"null","","331666","HierDyb9rvmxwu","pb2sfs4wv8","ms1000306","iti","","null","img/motor_6.png","74","motor","","","","","","",""
"436","","332110","HierDyb9rvmxwu","pb2sfs4wv8","ms1000306","motor","","83","img/motor_1.png","65","motor","1","262","0","1","0","",""
"319","","332438","HierDyb9rvmxwu","pb2sfs4wv8","ms1000306","motorRepeat","","65","img/motor_1.png","65","motor","1","262","1","0","0","",""
"null","","332552","HierDyb9rvmxwu","pb2sfs4wv8","ms1000306","iti","","null","img/motor_1.png","65","motor","","","","","","",""
"596","","333158","HierDyb9rvmxwu","pb2sfs4wv8","ms1000306","motor","","75","img/motor_7.png","75","motor","7","263","1","0","0","",""
"null","","333272","HierDyb9rvmxwu","pb2sfs4wv8","ms1000306","iti","","null","img/motor_7.png","75","motor","","","","","","",""
"493","","333774","HierDyb9rvmxwu","pb2sfs4wv8","ms1000306","motor","","76","img/motor_8.png","76","motor","8","264","1","0","0","",""
"null","","333889","HierDyb9rvmxwu","pb2sfs4wv8","ms1000306","iti","","null","img/motor_8.png","76","motor","","","","","","",""
"412","","334317","HierDyb9rvmxwu","pb2sfs4wv8","ms1000306","motor","","76","img/motor_8.png","76","motor","8","265","1","0","0","",""
"null","","334426","HierDyb9rvmxwu","pb2sfs4wv8","ms1000306","iti","","null","img/motor_8.png","76","motor","","","","","","",""
"548","","334989","HierDyb9rvmxwu","pb2sfs4wv8","ms1000306","motor","","70","img/motor_4.png","70","motor","4","266","1","0","0","",""
"null","","335104","HierDyb9rvmxwu","pb2sfs4wv8","ms1000306","iti","","null","img/motor_4.png","70","motor","","","","","","",""
"518","","335630","HierDyb9rvmxwu","pb2sfs4wv8","ms1000306","motor","","75","img/motor_7.png","75","motor","7","267","1","0","0","",""
"null","","335745","HierDyb9rvmxwu","pb2sfs4wv8","ms1000306","iti","","null","img/motor_7.png","75","motor","","","","","","",""
"524","","336285","HierDyb9rvmxwu","pb2sfs4wv8","ms1000306","motor","","65","img/motor_1.png","65","motor","1","268","1","0","0","",""
"null","","336401","HierDyb9rvmxwu","pb2sfs4wv8","ms1000306","iti","","null","img/motor_1.png","65","motor","","","","","","",""
"869","","337285","HierDyb9rvmxwu","pb2sfs4wv8","ms1000306","motor","","72","img/motor_5.png","72","motor","5","269","1","0","0","",""
"null","","337400","HierDyb9rvmxwu","pb2sfs4wv8","ms1000306","iti","","null","img/motor_5.png","72","motor","","","","","","",""
"437","","337845","HierDyb9rvmxwu","pb2sfs4wv8","ms1000306","motor","","75","img/motor_7.png","75","motor","7","270","1","0","0","",""
"null","","337954","HierDyb9rvmxwu","pb2sfs4wv8","ms1000306","iti","","null","img/motor_7.png","75","motor","","","","","","",""
"445","","338413","HierDyb9rvmxwu","pb2sfs4wv8","ms1000306","motor","","72","img/motor_5.png","72","motor","5","271","1","0","0","",""
"null","","338522","HierDyb9rvmxwu","pb2sfs4wv8","ms1000306","iti","","null","img/motor_5.png","72","motor","","","","","","",""
"556","","339087","HierDyb9rvmxwu","pb2sfs4wv8","ms1000306","motor","","83","img/motor_3.png","68","motor","3","272","0","1","0","",""
"303","","339405","HierDyb9rvmxwu","pb2sfs4wv8","ms1000306","motorRepeat","","68","img/motor_3.png","68","motor","3","272","1","0","0","",""
"null","","339521","HierDyb9rvmxwu","pb2sfs4wv8","ms1000306","iti","","null","img/motor_3.png","68","motor","","","","","","",""
"469","","340005","HierDyb9rvmxwu","pb2sfs4wv8","ms1000306","motor","","68","img/motor_3.png","68","motor","3","273","1","0","0","",""
"null","","340113","HierDyb9rvmxwu","pb2sfs4wv8","ms1000306","iti","","null","img/motor_3.png","68","motor","","","","","","",""
"484","","340606","HierDyb9rvmxwu","pb2sfs4wv8","ms1000306","motor","","76","img/motor_8.png","76","motor","8","274","1","0","0","",""
"null","","340721","HierDyb9rvmxwu","pb2sfs4wv8","ms1000306","iti","","null","img/motor_8.png","76","motor","","","","","","",""
"581","","341311","HierDyb9rvmxwu","pb2sfs4wv8","ms1000306","motor","","72","img/motor_6.png","74","motor","6","275","0","1","0","",""
"48","","341366","HierDyb9rvmxwu","pb2sfs4wv8","ms1000306","motorRepeat","","74","img/motor_6.png","74","motor","6","275","1","0","0","",""
"null","","341474","HierDyb9rvmxwu","pb2sfs4wv8","ms1000306","iti","","null","img/motor_6.png","74","motor","","","","","","",""
"428","","341910","HierDyb9rvmxwu","pb2sfs4wv8","ms1000306","motor","","75","img/motor_7.png","75","motor","7","276","1","0","0","",""
"null","","342025","HierDyb9rvmxwu","pb2sfs4wv8","ms1000306","iti","","null","img/motor_7.png","75","motor","","","","","","",""
"437","","342469","HierDyb9rvmxwu","pb2sfs4wv8","ms1000306","motor","","65","img/motor_1.png","65","motor","1","277","1","0","0","",""
"null","","342579","HierDyb9rvmxwu","pb2sfs4wv8","ms1000306","iti","","null","img/motor_1.png","65","motor","","","","","","",""
"476","","343062","HierDyb9rvmxwu","pb2sfs4wv8","ms1000306","motor","","70","img/motor_4.png","70","motor","4","278","1","0","0","",""
"null","","343170","HierDyb9rvmxwu","pb2sfs4wv8","ms1000306","iti","","null","img/motor_4.png","70","motor","","","","","","",""
"412","","343591","HierDyb9rvmxwu","pb2sfs4wv8","ms1000306","motor","","68","img/motor_3.png","68","motor","3","279","1","0","0","",""
"null","","343699","HierDyb9rvmxwu","pb2sfs4wv8","ms1000306","iti","","null","img/motor_3.png","68","motor","","","","","","",""
"364","","344071","HierDyb9rvmxwu","pb2sfs4wv8","ms1000306","motor","","70","img/motor_4.png","70","motor","4","280","1","0","0","",""
"null","","344186","HierDyb9rvmxwu","pb2sfs4wv8","ms1000306","iti","","null","img/motor_4.png","70","motor","","","","","","",""
"428","","344622","HierDyb9rvmxwu","pb2sfs4wv8","ms1000306","motor","","65","img/motor_1.png","65","motor","1","281","1","0","0","",""
"null","","344731","HierDyb9rvmxwu","pb2sfs4wv8","ms1000306","iti","","null","img/motor_1.png","65","motor","","","","","","",""
"555","","345301","HierDyb9rvmxwu","pb2sfs4wv8","ms1000306","motor","","68","img/motor_3.png","68","motor","3","282","1","0","0","",""
"null","","345409","HierDyb9rvmxwu","pb2sfs4wv8","ms1000306","iti","","null","img/motor_3.png","68","motor","","","","","","",""
"526","","345949","HierDyb9rvmxwu","pb2sfs4wv8","ms1000306","motor","","75","img/motor_6.png","74","motor","6","283","0","1","0","",""
"224","","346189","HierDyb9rvmxwu","pb2sfs4wv8","ms1000306","motorRepeat","","74","img/motor_6.png","74","motor","6","283","1","0","0","",""
"null","","346298","HierDyb9rvmxwu","pb2sfs4wv8","ms1000306","iti","","null","img/motor_6.png","74","motor","","","","","","",""
"444","","346757","HierDyb9rvmxwu","pb2sfs4wv8","ms1000306","motor","","75","img/motor_7.png","75","motor","7","284","1","0","0","",""
"null","","346866","HierDyb9rvmxwu","pb2sfs4wv8","ms1000306","iti","","null","img/motor_7.png","75","motor","","","","","","",""
"548","","347430","HierDyb9rvmxwu","pb2sfs4wv8","ms1000306","motor","","70","img/motor_4.png","70","motor","4","285","1","0","0","",""
"null","","347539","HierDyb9rvmxwu","pb2sfs4wv8","ms1000306","iti","","null","img/motor_4.png","70","motor","","","","","","",""
"604","","348150","HierDyb9rvmxwu","pb2sfs4wv8","ms1000306","motor","","75","img/motor_7.png","75","motor","7","286","1","0","0","",""
"null","","348266","HierDyb9rvmxwu","pb2sfs4wv8","ms1000306","iti","","null","img/motor_7.png","75","motor","","","","","","",""
"429","","348702","HierDyb9rvmxwu","pb2sfs4wv8","ms1000306","motor","","65","img/motor_1.png","65","motor","1","287","1","0","0","",""
"null","","348811","HierDyb9rvmxwu","pb2sfs4wv8","ms1000306","iti","","null","img/motor_1.png","65","motor","","","","","","",""
"491","","349311","HierDyb9rvmxwu","pb2sfs4wv8","ms1000306","motor","","83","img/motor_2.png","83","motor","2","288","1","0","0","",""
"null","","349419","HierDyb9rvmxwu","pb2sfs4wv8","ms1000306","iti","","null","img/motor_2.png","83","motor","","","","","","",""
"372","","349800","HierDyb9rvmxwu","pb2sfs4wv8","ms1000306","motor","","83","img/motor_2.png","83","motor","2","289","1","0","0","",""
"null","","349914","HierDyb9rvmxwu","pb2sfs4wv8","ms1000306","iti","","null","img/motor_2.png","83","motor","","","","","","",""
"588","","350510","HierDyb9rvmxwu","pb2sfs4wv8","ms1000306","motor","","72","img/motor_5.png","72","motor","5","290","1","0","0","",""
"null","","350619","HierDyb9rvmxwu","pb2sfs4wv8","ms1000306","iti","","null","img/motor_5.png","72","motor","","","","","","",""
"349","","350975","HierDyb9rvmxwu","pb2sfs4wv8","ms1000306","motor","","83","img/motor_2.png","83","motor","2","291","1","0","0","",""
"null","","351090","HierDyb9rvmxwu","pb2sfs4wv8","ms1000306","iti","","null","img/motor_2.png","83","motor","","","","","","",""
"541","","351638","HierDyb9rvmxwu","pb2sfs4wv8","ms1000306","motor","","65","img/motor_1.png","65","motor","1","292","1","0","0","",""
"null","","351747","HierDyb9rvmxwu","pb2sfs4wv8","ms1000306","iti","","null","img/motor_1.png","65","motor","","","","","","",""
"539","","352295","HierDyb9rvmxwu","pb2sfs4wv8","ms1000306","motor","","70","img/motor_3.png","68","motor","3","293","0","1","0","",""
"97","","352405","HierDyb9rvmxwu","pb2sfs4wv8","ms1000306","motorRepeat","","68","img/motor_3.png","68","motor","3","293","1","0","0","",""
"null","","352514","HierDyb9rvmxwu","pb2sfs4wv8","ms1000306","iti","","null","img/motor_3.png","68","motor","","","","","","",""
"500","","353023","HierDyb9rvmxwu","pb2sfs4wv8","ms1000306","motor","","76","img/motor_8.png","76","motor","8","294","1","0","0","",""
"null","","353139","HierDyb9rvmxwu","pb2sfs4wv8","ms1000306","iti","","null","img/motor_8.png","76","motor","","","","","","",""
"404","","353551","HierDyb9rvmxwu","pb2sfs4wv8","ms1000306","motor","","65","img/motor_1.png","65","motor","1","295","1","0","0","",""
"null","","353660","HierDyb9rvmxwu","pb2sfs4wv8","ms1000306","iti","","null","img/motor_1.png","65","motor","","","","","","",""
"427","","354096","HierDyb9rvmxwu","pb2sfs4wv8","ms1000306","motor","","83","img/motor_2.png","83","motor","2","296","1","0","0","",""
"null","","354203","HierDyb9rvmxwu","pb2sfs4wv8","ms1000306","iti","","null","img/motor_2.png","83","motor","","","","","","",""
"395","","354607","HierDyb9rvmxwu","pb2sfs4wv8","ms1000306","motor","","65","img/motor_1.png","65","motor","1","297","1","0","0","",""
"null","","354715","HierDyb9rvmxwu","pb2sfs4wv8","ms1000306","iti","","null","img/motor_1.png","65","motor","","","","","","",""
"492","","355222","HierDyb9rvmxwu","pb2sfs4wv8","ms1000306","motor","","72","img/motor_5.png","72","motor","5","298","1","0","0","",""
"null","","355332","HierDyb9rvmxwu","pb2sfs4wv8","ms1000306","iti","","null","img/motor_5.png","72","motor","","","","","","",""
"514","","355862","HierDyb9rvmxwu","pb2sfs4wv8","ms1000306","motor","","65","img/motor_1.png","65","motor","1","299","1","0","0","",""
"null","","355971","HierDyb9rvmxwu","pb2sfs4wv8","ms1000306","iti","","null","img/motor_1.png","65","motor","","","","","","",""
"403","","356383","HierDyb9rvmxwu","pb2sfs4wv8","ms1000306","motor","","76","img/motor_8.png","76","motor","8","300","1","0","0","",""
"null","","356491","HierDyb9rvmxwu","pb2sfs4wv8","ms1000306","iti","","null","img/motor_8.png","76","motor","","","","","","",""
"451","","356951","HierDyb9rvmxwu","pb2sfs4wv8","ms1000306","motor","","65","img/motor_1.png","65","motor","1","301","1","0","0","",""
"null","","357060","HierDyb9rvmxwu","pb2sfs4wv8","ms1000306","iti","","null","img/motor_1.png","65","motor","","","","","","",""
"451","","357519","HierDyb9rvmxwu","pb2sfs4wv8","ms1000306","motor","","83","img/motor_2.png","83","motor","2","302","1","0","0","",""
"null","","357627","HierDyb9rvmxwu","pb2sfs4wv8","ms1000306","iti","","null","img/motor_2.png","83","motor","","","","","","",""
"405","","358038","HierDyb9rvmxwu","pb2sfs4wv8","ms1000306","motor","","70","img/motor_4.png","70","motor","4","303","1","0","0","",""
"null","","358153","HierDyb9rvmxwu","pb2sfs4wv8","ms1000306","iti","","null","img/motor_4.png","70","motor","","","","","","",""
"341","","358502","HierDyb9rvmxwu","pb2sfs4wv8","ms1000306","motor","","68","img/motor_3.png","68","motor","3","304","1","0","0","",""
"null","","358617","HierDyb9rvmxwu","pb2sfs4wv8","ms1000306","iti","","null","img/motor_3.png","68","motor","","","","","","",""
"373","","358999","HierDyb9rvmxwu","pb2sfs4wv8","ms1000306","motor","","68","img/motor_3.png","68","motor","3","305","1","0","0","",""
"null","","359114","HierDyb9rvmxwu","pb2sfs4wv8","ms1000306","iti","","null","img/motor_3.png","68","motor","","","","","","",""
"429","","359551","HierDyb9rvmxwu","pb2sfs4wv8","ms1000306","motor","","83","img/motor_2.png","83","motor","2","306","1","0","0","",""
"null","","359667","HierDyb9rvmxwu","pb2sfs4wv8","ms1000306","iti","","null","img/motor_2.png","83","motor","","","","","","",""
"646","","360320","HierDyb9rvmxwu","pb2sfs4wv8","ms1000306","motor","","74","img/motor_7.png","75","motor","7","307","0","1","0","",""
"80","","360414","HierDyb9rvmxwu","pb2sfs4wv8","ms1000306","motorRepeat","","75","img/motor_7.png","75","motor","7","307","1","0","0","",""
"null","","360524","HierDyb9rvmxwu","pb2sfs4wv8","ms1000306","iti","","null","img/motor_7.png","75","motor","","","","","","",""
"444","","360975","HierDyb9rvmxwu","pb2sfs4wv8","ms1000306","motor","","76","img/motor_8.png","76","motor","8","308","1","0","0","",""
"null","","361084","HierDyb9rvmxwu","pb2sfs4wv8","ms1000306","iti","","null","img/motor_8.png","76","motor","","","","","","",""
"541","","361632","HierDyb9rvmxwu","pb2sfs4wv8","ms1000306","motor","","70","img/motor_4.png","70","motor","4","309","1","0","0","",""
"null","","361740","HierDyb9rvmxwu","pb2sfs4wv8","ms1000306","iti","","null","img/motor_4.png","70","motor","","","","","","",""
"420","","362174","HierDyb9rvmxwu","pb2sfs4wv8","ms1000306","motor","","68","img/motor_3.png","68","motor","3","310","1","0","0","",""
"null","","362283","HierDyb9rvmxwu","pb2sfs4wv8","ms1000306","iti","","null","img/motor_3.png","68","motor","","","","","","",""
"517","","362808","HierDyb9rvmxwu","pb2sfs4wv8","ms1000306","motor","","75","img/motor_6.png","74","motor","6","311","0","1","0","",""
"216","","363031","HierDyb9rvmxwu","pb2sfs4wv8","ms1000306","motorRepeat","","74","img/motor_6.png","74","motor","6","311","1","0","0","",""
"null","","363146","HierDyb9rvmxwu","pb2sfs4wv8","ms1000306","iti","","null","img/motor_6.png","74","motor","","","","","","",""
"428","","363584","HierDyb9rvmxwu","pb2sfs4wv8","ms1000306","motor","","76","img/motor_8.png","76","motor","8","312","1","0","0","",""
"null","","363692","HierDyb9rvmxwu","pb2sfs4wv8","ms1000306","iti","","null","img/motor_8.png","76","motor","","","","","","",""
"547","","364254","HierDyb9rvmxwu","pb2sfs4wv8","ms1000306","motor","","83","img/motor_2.png","83","motor","2","313","1","0","0","",""
"null","","364364","HierDyb9rvmxwu","pb2sfs4wv8","ms1000306","iti","","null","img/motor_2.png","83","motor","","","","","","",""
"500","","364878","HierDyb9rvmxwu","pb2sfs4wv8","ms1000306","motor","","65","img/motor_1.png","65","motor","1","314","1","0","0","",""
"null","","364987","HierDyb9rvmxwu","pb2sfs4wv8","ms1000306","iti","","null","img/motor_1.png","65","motor","","","","","","",""
"508","","365511","HierDyb9rvmxwu","pb2sfs4wv8","ms1000306","motor","","70","img/motor_3.png","68","motor","3","315","0","1","0","",""
"192","","365711","HierDyb9rvmxwu","pb2sfs4wv8","ms1000306","motorRepeat","","68","img/motor_3.png","68","motor","3","315","1","0","0","",""
"null","","365827","HierDyb9rvmxwu","pb2sfs4wv8","ms1000306","iti","","null","img/motor_3.png","68","motor","","","","","","",""
"525","","366360","HierDyb9rvmxwu","pb2sfs4wv8","ms1000306","motor","","76","img/motor_8.png","76","motor","8","316","1","0","0","",""
"null","","366468","HierDyb9rvmxwu","pb2sfs4wv8","ms1000306","iti","","null","img/motor_8.png","76","motor","","","","","","",""
"644","","367120","HierDyb9rvmxwu","pb2sfs4wv8","ms1000306","motor","","70","img/motor_4.png","70","motor","4","317","1","0","0","",""
"null","","367235","HierDyb9rvmxwu","pb2sfs4wv8","ms1000306","iti","","null","img/motor_4.png","70","motor","","","","","","",""
"660","","367903","HierDyb9rvmxwu","pb2sfs4wv8","ms1000306","motor","","74","img/motor_6.png","74","motor","6","318","1","0","0","",""
"null","","368012","HierDyb9rvmxwu","pb2sfs4wv8","ms1000306","iti","","null","img/motor_6.png","74","motor","","","","","","",""
"589","","368608","HierDyb9rvmxwu","pb2sfs4wv8","ms1000306","motor","","76","img/motor_8.png","76","motor","8","319","1","0","0","",""
"null","","368716","HierDyb9rvmxwu","pb2sfs4wv8","ms1000306","iti","","null","img/motor_8.png","76","motor","","","","","","",""
"491","","369216","HierDyb9rvmxwu","pb2sfs4wv8","ms1000306","motor","","75","img/motor_7.png","75","motor","7","320","1","0","0","",""
"null","","369331","HierDyb9rvmxwu","pb2sfs4wv8","ms1000306","iti","","null","img/motor_7.png","75","motor","","","","","","",""
"460","","369800","HierDyb9rvmxwu","pb2sfs4wv8","ms1000306","motor","","72","img/motor_5.png","72","motor","5","321","1","0","0","",""
"null","","369915","HierDyb9rvmxwu","pb2sfs4wv8","ms1000306","iti","","null","img/motor_5.png","72","motor","","","","","","",""
"355","","370279","HierDyb9rvmxwu","pb2sfs4wv8","ms1000306","motor","","75","img/motor_7.png","75","motor","7","322","1","0","0","",""
"null","","370387","HierDyb9rvmxwu","pb2sfs4wv8","ms1000306","iti","","null","img/motor_7.png","75","motor","","","","","","",""
"452","","370848","HierDyb9rvmxwu","pb2sfs4wv8","ms1000306","motor","","65","img/motor_1.png","65","motor","1","323","1","0","0","",""
"null","","370957","HierDyb9rvmxwu","pb2sfs4wv8","ms1000306","iti","","null","img/motor_1.png","65","motor","","","","","","",""
"436","","371399","HierDyb9rvmxwu","pb2sfs4wv8","ms1000306","motor","","70","img/motor_4.png","70","motor","4","324","1","0","0","",""
"null","","371514","HierDyb9rvmxwu","pb2sfs4wv8","ms1000306","iti","","null","img/motor_4.png","70","motor","","","","","","",""
"605","","372128","HierDyb9rvmxwu","pb2sfs4wv8","ms1000306","motor","","65","img/motor_1.png","65","motor","1","325","1","0","0","",""
"null","","372243","HierDyb9rvmxwu","pb2sfs4wv8","ms1000306","iti","","null","img/motor_1.png","65","motor","","","","","","",""
"421","","372678","HierDyb9rvmxwu","pb2sfs4wv8","ms1000306","motor","","70","img/motor_4.png","70","motor","4","326","1","0","0","",""
"null","","372794","HierDyb9rvmxwu","pb2sfs4wv8","ms1000306","iti","","null","img/motor_4.png","70","motor","","","","","","",""
"477","","373280","HierDyb9rvmxwu","pb2sfs4wv8","ms1000306","motor","","76","img/motor_8.png","76","motor","8","327","1","0","0","",""
"null","","373389","HierDyb9rvmxwu","pb2sfs4wv8","ms1000306","iti","","null","img/motor_8.png","76","motor","","","","","","",""
"500","","373896","HierDyb9rvmxwu","pb2sfs4wv8","ms1000306","motor","","65","img/motor_1.png","65","motor","1","328","1","0","0","",""
"null","","374004","HierDyb9rvmxwu","pb2sfs4wv8","ms1000306","iti","","null","img/motor_1.png","65","motor","","","","","","",""
"580","","374593","HierDyb9rvmxwu","pb2sfs4wv8","ms1000306","motor","","83","img/motor_2.png","83","motor","2","329","1","0","0","",""
"null","","374701","HierDyb9rvmxwu","pb2sfs4wv8","ms1000306","iti","","null","img/motor_2.png","83","motor","","","","","","",""
"434","","375144","HierDyb9rvmxwu","pb2sfs4wv8","ms1000306","motor","","76","img/motor_8.png","76","motor","8","330","1","0","0","",""
"null","","375252","HierDyb9rvmxwu","pb2sfs4wv8","ms1000306","iti","","null","img/motor_8.png","76","motor","","","","","","",""
"419","","375680","HierDyb9rvmxwu","pb2sfs4wv8","ms1000306","motor","","76","img/motor_8.png","76","motor","8","331","1","0","0","",""
"null","","375796","HierDyb9rvmxwu","pb2sfs4wv8","ms1000306","iti","","null","img/motor_8.png","76","motor","","","","","","",""
"492","","376296","HierDyb9rvmxwu","pb2sfs4wv8","ms1000306","motor","","74","img/motor_6.png","74","motor","6","332","1","0","0","",""
"null","","376404","HierDyb9rvmxwu","pb2sfs4wv8","ms1000306","iti","","null","img/motor_6.png","74","motor","","","","","","",""
"403","","376823","HierDyb9rvmxwu","pb2sfs4wv8","ms1000306","motor","","75","img/motor_7.png","75","motor","7","333","1","0","0","",""
"null","","376932","HierDyb9rvmxwu","pb2sfs4wv8","ms1000306","iti","","null","img/motor_7.png","75","motor","","","","","","",""
"412","","377352","HierDyb9rvmxwu","pb2sfs4wv8","ms1000306","motor","","72","img/motor_5.png","72","motor","5","334","1","0","0","",""
"null","","377461","HierDyb9rvmxwu","pb2sfs4wv8","ms1000306","iti","","null","img/motor_5.png","72","motor","","","","","","",""
"467","","377936","HierDyb9rvmxwu","pb2sfs4wv8","ms1000306","motor","","74","img/motor_6.png","74","motor","6","335","1","0","0","",""
"null","","378045","HierDyb9rvmxwu","pb2sfs4wv8","ms1000306","iti","","null","img/motor_6.png","74","motor","","","","","","",""
"524","","378577","HierDyb9rvmxwu","pb2sfs4wv8","ms1000306","motor","","70","img/motor_4.png","70","motor","4","336","1","0","0","",""
"null","","378691","HierDyb9rvmxwu","pb2sfs4wv8","ms1000306","iti","","null","img/motor_4.png","70","motor","","","","","","",""
"380","","379080","HierDyb9rvmxwu","pb2sfs4wv8","ms1000306","motor","","76","img/motor_8.png","76","motor","8","337","1","0","0","",""
"null","","379195","HierDyb9rvmxwu","pb2sfs4wv8","ms1000306","iti","","null","img/motor_8.png","76","motor","","","","","","",""
"501","","379704","HierDyb9rvmxwu","pb2sfs4wv8","ms1000306","motor","","83","img/motor_3.png","68","motor","3","338","0","1","0","",""
"328","","380041","HierDyb9rvmxwu","pb2sfs4wv8","ms1000306","motorRepeat","","68","img/motor_3.png","68","motor","3","338","1","0","0","",""
"null","","380149","HierDyb9rvmxwu","pb2sfs4wv8","ms1000306","iti","","null","img/motor_3.png","68","motor","","","","","","",""
"389","","380544","HierDyb9rvmxwu","pb2sfs4wv8","ms1000306","motor","","83","img/motor_2.png","83","motor","2","339","1","0","0","",""
"null","","380653","HierDyb9rvmxwu","pb2sfs4wv8","ms1000306","iti","","null","img/motor_2.png","83","motor","","","","","","",""
"684","","381345","HierDyb9rvmxwu","pb2sfs4wv8","ms1000306","motor","","74","img/motor_6.png","74","motor","6","340","1","0","0","",""
"null","","381453","HierDyb9rvmxwu","pb2sfs4wv8","ms1000306","iti","","null","img/motor_6.png","74","motor","","","","","","",""
"372","","381833","HierDyb9rvmxwu","pb2sfs4wv8","ms1000306","motor","","75","img/motor_7.png","75","motor","7","341","1","0","0","",""
"null","","381941","HierDyb9rvmxwu","pb2sfs4wv8","ms1000306","iti","","null","img/motor_7.png","75","motor","","","","","","",""
"540","","382488","HierDyb9rvmxwu","pb2sfs4wv8","ms1000306","motor","","83","img/motor_2.png","83","motor","2","342","1","0","0","",""
"null","","382602","HierDyb9rvmxwu","pb2sfs4wv8","ms1000306","iti","","null","img/motor_2.png","83","motor","","","","","","",""
"549","","383160","HierDyb9rvmxwu","pb2sfs4wv8","ms1000306","motor","","75","img/motor_7.png","75","motor","7","343","1","0","0","",""
"null","","383276","HierDyb9rvmxwu","pb2sfs4wv8","ms1000306","iti","","null","img/motor_7.png","75","motor","","","","","","",""
"404","","383688","HierDyb9rvmxwu","pb2sfs4wv8","ms1000306","motor","","75","img/motor_7.png","75","motor","7","344","1","0","0","",""
"null","","383798","HierDyb9rvmxwu","pb2sfs4wv8","ms1000306","iti","","null","img/motor_7.png","75","motor","","","","","","",""
"907","","384713","HierDyb9rvmxwu","pb2sfs4wv8","ms1000306","motor","","70","img/motor_5.png","72","motor","5","345","0","1","0","",""
"273","","384992","HierDyb9rvmxwu","pb2sfs4wv8","ms1000306","motorRepeat","","72","img/motor_5.png","72","motor","5","345","1","0","0","",""
"null","","385108","HierDyb9rvmxwu","pb2sfs4wv8","ms1000306","iti","","null","img/motor_5.png","72","motor","","","","","","",""
"435","","385560","HierDyb9rvmxwu","pb2sfs4wv8","ms1000306","motor","","75","img/motor_7.png","75","motor","7","346","1","0","0","",""
"null","","385669","HierDyb9rvmxwu","pb2sfs4wv8","ms1000306","iti","","null","img/motor_7.png","75","motor","","","","","","",""
"618","","386297","HierDyb9rvmxwu","pb2sfs4wv8","ms1000306","motor","","75","img/motor_5.png","72","motor","5","347","0","1","0","",""
"528","","386833","HierDyb9rvmxwu","pb2sfs4wv8","ms1000306","motorRepeat","","74","img/motor_5.png","72","motor","5","347","0","1","0","",""
"168","","387015","HierDyb9rvmxwu","pb2sfs4wv8","ms1000306","motorRepeat","","72","img/motor_5.png","72","motor","5","347","1","0","0","",""
"null","","387125","HierDyb9rvmxwu","pb2sfs4wv8","ms1000306","iti","","null","img/motor_5.png","72","motor","","","","","","",""
"364","","387497","HierDyb9rvmxwu","pb2sfs4wv8","ms1000306","motor","","72","img/motor_5.png","72","motor","5","348","1","0","0","",""
"null","","387612","HierDyb9rvmxwu","pb2sfs4wv8","ms1000306","iti","","null","img/motor_5.png","72","motor","","","","","","",""
"396","","388017","HierDyb9rvmxwu","pb2sfs4wv8","ms1000306","motor","","76","img/motor_8.png","76","motor","8","349","1","0","0","",""
