rt,responses,time_elapsed,subject,prolificID,demoID,trialType,question_order,key_press,stim,corrresp,phase,stimNum,trialNum,corr,repeatTrial,motorSwitch,pracCounter,hierarchy
11522,"{""Q0"":""ms1000202""}",11553,HierDydm17mqow,yg51qpjgem,ms1000202,,,,,,,,,,,,,
1249,,12812,HierDydm17mqow,yg51qpjgem,ms1000202,,,,,,,,,,,,,
,,15949,HierDydm17mqow,yg51qpjgem,ms1000202,fullscreen,,,,,,,,,,,,
18148,"{""Vision"":""Yes"",""Handedness"":""Right"",""Gender"":""female""}",34108,HierDydm17mqow,yg51qpjgem,ms1000202,,"[0,1,2]",,,,,,,,,,,
2893,"{""Q0"":""19""}",37014,HierDydm17mqow,yg51qpjgem,ms1000202,,,,,,,,,,,,,
130500,,167526,HierDydm17mqow,yg51qpjgem,ms1000202,,,,,,,,,,,,,
1832,,169369,HierDydm17mqow,yg51qpjgem,ms1000202,motor,,68,img/motor_2.png,83,motor,2,1,0,1,0,,
699,,170080,HierDydm17mqow,yg51qpjgem,ms1000202,motorRepeat,,83,img/motor_2.png,83,motor,2,1,1,0,0,,
null,,170192,HierDydm17mqow,yg51qpjgem,ms1000202,iti,,null,img/motor_2.png,83,motor,,,,,,,
1205,,171407,HierDydm17mqow,yg51qpjgem,ms1000202,motor,,74,img/motor_6.png,74,motor,6,2,1,0,0,,
null,,171518,HierDydm17mqow,yg51qpjgem,ms1000202,iti,,null,img/motor_6.png,74,motor,,,,,,,
765,,172294,HierDydm17mqow,yg51qpjgem,ms1000202,motor,,70,img/motor_4.png,70,motor,4,3,1,0,0,,
null,,172406,HierDydm17mqow,yg51qpjgem,ms1000202,iti,,null,img/motor_4.png,70,motor,,,,,,,
3590,,176006,HierDydm17mqow,yg51qpjgem,ms1000202,motor,,70,img/motor_4.png,70,motor,4,4,1,0,0,,
null,,176117,HierDydm17mqow,yg51qpjgem,ms1000202,iti,,null,img/motor_4.png,70,motor,,,,,,,
1444,,177572,HierDydm17mqow,yg51qpjgem,ms1000202,motor,,74,img/motor_5.png,72,motor,5,5,0,1,0,,
1257,,178840,HierDydm17mqow,yg51qpjgem,ms1000202,motorRepeat,,72,img/motor_5.png,72,motor,5,5,1,0,0,,
null,,178952,HierDydm17mqow,yg51qpjgem,ms1000202,iti,,null,img/motor_5.png,72,motor,,,,,,,
1657,,180618,HierDydm17mqow,yg51qpjgem,ms1000202,motor,,83,img/motor_2.png,83,motor,2,6,1,0,0,,
null,,180731,HierDydm17mqow,yg51qpjgem,ms1000202,iti,,null,img/motor_2.png,83,motor,,,,,,,
832,,181574,HierDydm17mqow,yg51qpjgem,ms1000202,motor,,65,img/motor_1.png,65,motor,1,7,1,0,0,,
null,,181684,HierDydm17mqow,yg51qpjgem,ms1000202,iti,,null,img/motor_1.png,65,motor,,,,,,,
908,,182602,HierDydm17mqow,yg51qpjgem,ms1000202,motor,,68,img/motor_3.png,68,motor,3,8,1,0,0,,
null,,182713,HierDydm17mqow,yg51qpjgem,ms1000202,iti,,null,img/motor_3.png,68,motor,,,,,,,
614,,183338,HierDydm17mqow,yg51qpjgem,ms1000202,motor,,70,img/motor_4.png,70,motor,4,9,1,0,0,,
null,,183451,HierDydm17mqow,yg51qpjgem,ms1000202,iti,,null,img/motor_4.png,70,motor,,,,,,,
1049,,184509,HierDydm17mqow,yg51qpjgem,ms1000202,motor,,65,img/motor_1.png,65,motor,1,10,1,0,0,,
null,,184620,HierDydm17mqow,yg51qpjgem,ms1000202,iti,,null,img/motor_1.png,65,motor,,,,,,,
590,,185221,HierDydm17mqow,yg51qpjgem,ms1000202,motor,,68,img/motor_3.png,68,motor,3,11,1,0,0,,
null,,185331,HierDydm17mqow,yg51qpjgem,ms1000202,iti,,null,img/motor_3.png,68,motor,,,,,,,
685,,186029,HierDydm17mqow,yg51qpjgem,ms1000202,motor,,74,img/motor_6.png,74,motor,6,12,1,0,0,,
null,,186141,HierDydm17mqow,yg51qpjgem,ms1000202,iti,,null,img/motor_6.png,74,motor,,,,,,,
652,,186803,HierDydm17mqow,yg51qpjgem,ms1000202,motor,,68,img/motor_3.png,68,motor,3,13,1,0,0,,
null,,186912,HierDydm17mqow,yg51qpjgem,ms1000202,iti,,null,img/motor_3.png,68,motor,,,,,,,
1168,,188091,HierDydm17mqow,yg51qpjgem,ms1000202,motor,,76,img/motor_8.png,76,motor,8,14,1,0,0,,
null,,188202,HierDydm17mqow,yg51qpjgem,ms1000202,iti,,null,img/motor_8.png,76,motor,,,,,,,
587,,188800,HierDydm17mqow,yg51qpjgem,ms1000202,motor,,68,img/motor_2.png,83,motor,2,15,0,1,0,,
389,,189199,HierDydm17mqow,yg51qpjgem,ms1000202,motorRepeat,,83,img/motor_2.png,83,motor,2,15,1,0,0,,
null,,189310,HierDydm17mqow,yg51qpjgem,ms1000202,iti,,null,img/motor_2.png,83,motor,,,,,,,
944,,190263,HierDydm17mqow,yg51qpjgem,ms1000202,motor,,76,img/motor_8.png,76,motor,8,16,1,0,0,,
null,,190374,HierDydm17mqow,yg51qpjgem,ms1000202,iti,,null,img/motor_8.png,76,motor,,,,,,,
617,,191001,HierDydm17mqow,yg51qpjgem,ms1000202,motor,,72,img/motor_5.png,72,motor,5,17,1,0,0,,
null,,191112,HierDydm17mqow,yg51qpjgem,ms1000202,iti,,null,img/motor_5.png,72,motor,,,,,,,
516,,191639,HierDydm17mqow,yg51qpjgem,ms1000202,motor,,76,img/motor_8.png,76,motor,8,18,1,0,0,,
null,,191751,HierDydm17mqow,yg51qpjgem,ms1000202,iti,,null,img/motor_8.png,76,motor,,,,,,,
678,,192438,HierDydm17mqow,yg51qpjgem,ms1000202,motor,,83,img/motor_2.png,83,motor,2,19,1,0,0,,
null,,192549,HierDydm17mqow,yg51qpjgem,ms1000202,iti,,null,img/motor_2.png,83,motor,,,,,,,
664,,193224,HierDydm17mqow,yg51qpjgem,ms1000202,motor,,72,img/motor_5.png,72,motor,5,20,1,0,0,,
null,,193336,HierDydm17mqow,yg51qpjgem,ms1000202,iti,,null,img/motor_5.png,72,motor,,,,,,,
738,,194082,HierDydm17mqow,yg51qpjgem,ms1000202,motor,,76,img/motor_8.png,76,motor,8,21,1,0,0,,
null,,194194,HierDydm17mqow,yg51qpjgem,ms1000202,iti,,null,img/motor_8.png,76,motor,,,,,,,
133,,194338,HierDydm17mqow,yg51qpjgem,ms1000202,motor,,76,img/motor_5.png,72,motor,5,22,0,1,0,,
454,,194803,HierDydm17mqow,yg51qpjgem,ms1000202,motorRepeat,,72,img/motor_5.png,72,motor,5,22,1,0,0,,
null,,194914,HierDydm17mqow,yg51qpjgem,ms1000202,iti,,null,img/motor_5.png,72,motor,,,,,,,
668,,195592,HierDydm17mqow,yg51qpjgem,ms1000202,motor,,83,img/motor_2.png,83,motor,2,23,1,0,0,,
null,,195703,HierDydm17mqow,yg51qpjgem,ms1000202,iti,,null,img/motor_2.png,83,motor,,,,,,,
867,,196582,HierDydm17mqow,yg51qpjgem,ms1000202,motor,,76,img/motor_8.png,76,motor,8,24,1,0,0,,
null,,196693,HierDydm17mqow,yg51qpjgem,ms1000202,iti,,null,img/motor_8.png,76,motor,,,,,,,
553,,197258,HierDydm17mqow,yg51qpjgem,ms1000202,motor,,70,img/motor_4.png,70,motor,4,25,1,0,0,,
null,,197370,HierDydm17mqow,yg51qpjgem,ms1000202,iti,,null,img/motor_4.png,70,motor,,,,,,,
768,,198149,HierDydm17mqow,yg51qpjgem,ms1000202,motor,,74,img/motor_7.png,75,motor,7,26,0,1,0,,
404,,198562,HierDydm17mqow,yg51qpjgem,ms1000202,motorRepeat,,75,img/motor_7.png,75,motor,7,26,1,0,0,,
null,,198674,HierDydm17mqow,yg51qpjgem,ms1000202,iti,,null,img/motor_7.png,75,motor,,,,,,,
667,,199350,HierDydm17mqow,yg51qpjgem,ms1000202,motor,,83,img/motor_2.png,83,motor,2,27,1,0,0,,
null,,199463,HierDydm17mqow,yg51qpjgem,ms1000202,iti,,null,img/motor_2.png,83,motor,,,,,,,
1062,,200536,HierDydm17mqow,yg51qpjgem,ms1000202,motor,,75,img/motor_6.png,74,motor,6,28,0,1,0,,
550,,201097,HierDydm17mqow,yg51qpjgem,ms1000202,motorRepeat,,74,img/motor_6.png,74,motor,6,28,1,0,0,,
null,,201208,HierDydm17mqow,yg51qpjgem,ms1000202,iti,,null,img/motor_6.png,74,motor,,,,,,,
882,,202102,HierDydm17mqow,yg51qpjgem,ms1000202,motor,,83,img/motor_2.png,83,motor,2,29,1,0,0,,
null,,202211,HierDydm17mqow,yg51qpjgem,ms1000202,iti,,null,img/motor_2.png,83,motor,,,,,,,
777,,202999,HierDydm17mqow,yg51qpjgem,ms1000202,motor,,76,img/motor_8.png,76,motor,8,30,1,0,0,,
null,,203110,HierDydm17mqow,yg51qpjgem,ms1000202,iti,,null,img/motor_8.png,76,motor,,,,,,,
3383,,206503,HierDydm17mqow,yg51qpjgem,ms1000202,motor,,76,img/motor_8.png,76,motor,8,31,1,0,0,,
null,,206615,HierDydm17mqow,yg51qpjgem,ms1000202,iti,,null,img/motor_8.png,76,motor,,,,,,,
851,,207476,HierDydm17mqow,yg51qpjgem,ms1000202,motor,,65,img/motor_1.png,65,motor,1,32,1,0,0,,
null,,207588,HierDydm17mqow,yg51qpjgem,ms1000202,iti,,null,img/motor_1.png,65,motor,,,,,,,
1122,,208723,HierDydm17mqow,yg51qpjgem,ms1000202,motor,,72,img/motor_5.png,72,motor,5,33,1,0,0,,
null,,208833,HierDydm17mqow,yg51qpjgem,ms1000202,iti,,null,img/motor_5.png,72,motor,,,,,,,
643,,209487,HierDydm17mqow,yg51qpjgem,ms1000202,motor,,70,img/motor_4.png,70,motor,4,34,1,0,0,,
null,,209598,HierDydm17mqow,yg51qpjgem,ms1000202,iti,,null,img/motor_4.png,70,motor,,,,,,,
602,,210211,HierDydm17mqow,yg51qpjgem,ms1000202,motor,,74,img/motor_6.png,74,motor,6,35,1,0,0,,
null,,210322,HierDydm17mqow,yg51qpjgem,ms1000202,iti,,null,img/motor_6.png,74,motor,,,,,,,
801,,211133,HierDydm17mqow,yg51qpjgem,ms1000202,motor,,68,img/motor_3.png,68,motor,3,36,1,0,0,,
null,,211245,HierDydm17mqow,yg51qpjgem,ms1000202,iti,,null,img/motor_3.png,68,motor,,,,,,,
746,,212001,HierDydm17mqow,yg51qpjgem,ms1000202,motor,,65,img/motor_1.png,65,motor,1,37,1,0,0,,
null,,212112,HierDydm17mqow,yg51qpjgem,ms1000202,iti,,null,img/motor_1.png,65,motor,,,,,,,
1078,,213201,HierDydm17mqow,yg51qpjgem,ms1000202,motor,,72,img/motor_5.png,72,motor,5,38,1,0,0,,
null,,213312,HierDydm17mqow,yg51qpjgem,ms1000202,iti,,null,img/motor_5.png,72,motor,,,,,,,
1063,,214387,HierDydm17mqow,yg51qpjgem,ms1000202,motor,,70,img/motor_4.png,70,motor,4,39,1,0,0,,
null,,214498,HierDydm17mqow,yg51qpjgem,ms1000202,iti,,null,img/motor_4.png,70,motor,,,,,,,
1352,,215860,HierDydm17mqow,yg51qpjgem,ms1000202,motor,,74,img/motor_7.png,75,motor,7,40,0,1,0,,
523,,216393,HierDydm17mqow,yg51qpjgem,ms1000202,motorRepeat,,75,img/motor_7.png,75,motor,7,40,1,0,0,,
null,,216504,HierDydm17mqow,yg51qpjgem,ms1000202,iti,,null,img/motor_7.png,75,motor,,,,,,,
520,,217034,HierDydm17mqow,yg51qpjgem,ms1000202,motor,,72,img/motor_5.png,72,motor,5,41,1,0,0,,
null,,217146,HierDydm17mqow,yg51qpjgem,ms1000202,iti,,null,img/motor_5.png,72,motor,,,,,,,
676,,217832,HierDydm17mqow,yg51qpjgem,ms1000202,motor,,65,img/motor_1.png,65,motor,1,42,1,0,0,,
null,,217943,HierDydm17mqow,yg51qpjgem,ms1000202,iti,,null,img/motor_1.png,65,motor,,,,,,,
807,,218760,HierDydm17mqow,yg51qpjgem,ms1000202,motor,,68,img/motor_3.png,68,motor,3,43,1,0,0,,
null,,218872,HierDydm17mqow,yg51qpjgem,ms1000202,iti,,null,img/motor_3.png,68,motor,,,,,,,
612,,219494,HierDydm17mqow,yg51qpjgem,ms1000202,motor,,83,img/motor_2.png,83,motor,2,44,1,0,0,,
null,,219605,HierDydm17mqow,yg51qpjgem,ms1000202,iti,,null,img/motor_2.png,83,motor,,,,,,,
961,,220577,HierDydm17mqow,yg51qpjgem,ms1000202,motor,,68,img/motor_3.png,68,motor,3,45,1,0,0,,
null,,220689,HierDydm17mqow,yg51qpjgem,ms1000202,iti,,null,img/motor_3.png,68,motor,,,,,,,
862,,221561,HierDydm17mqow,yg51qpjgem,ms1000202,motor,,74,img/motor_6.png,74,motor,6,46,1,0,0,,
null,,221673,HierDydm17mqow,yg51qpjgem,ms1000202,iti,,null,img/motor_6.png,74,motor,,,,,,,
580,,222263,HierDydm17mqow,yg51qpjgem,ms1000202,motor,,72,img/motor_5.png,72,motor,5,47,1,0,0,,
null,,222376,HierDydm17mqow,yg51qpjgem,ms1000202,iti,,null,img/motor_5.png,72,motor,,,,,,,
706,,223091,HierDydm17mqow,yg51qpjgem,ms1000202,motor,,76,img/motor_8.png,76,motor,8,48,1,0,0,,
null,,223203,HierDydm17mqow,yg51qpjgem,ms1000202,iti,,null,img/motor_8.png,76,motor,,,,,,,
818,,224032,HierDydm17mqow,yg51qpjgem,ms1000202,motor,,72,img/motor_5.png,72,motor,5,49,1,0,0,,
null,,224143,HierDydm17mqow,yg51qpjgem,ms1000202,iti,,null,img/motor_5.png,72,motor,,,,,,,
604,,224758,HierDydm17mqow,yg51qpjgem,ms1000202,motor,,76,img/motor_8.png,76,motor,8,50,1,0,0,,
null,,224869,HierDydm17mqow,yg51qpjgem,ms1000202,iti,,null,img/motor_8.png,76,motor,,,,,,,
832,,225712,HierDydm17mqow,yg51qpjgem,ms1000202,motor,,65,img/motor_1.png,65,motor,1,51,1,0,0,,
null,,225823,HierDydm17mqow,yg51qpjgem,ms1000202,iti,,null,img/motor_1.png,65,motor,,,,,,,
561,,226395,HierDydm17mqow,yg51qpjgem,ms1000202,motor,,76,img/motor_8.png,76,motor,8,52,1,0,0,,
null,,226506,HierDydm17mqow,yg51qpjgem,ms1000202,iti,,null,img/motor_8.png,76,motor,,,,,,,
625,,227143,HierDydm17mqow,yg51qpjgem,ms1000202,motor,,74,img/motor_6.png,74,motor,6,53,1,0,0,,
null,,227254,HierDydm17mqow,yg51qpjgem,ms1000202,iti,,null,img/motor_6.png,74,motor,,,,,,,
734,,227999,HierDydm17mqow,yg51qpjgem,ms1000202,motor,,70,img/motor_4.png,70,motor,4,54,1,0,0,,
null,,228110,HierDydm17mqow,yg51qpjgem,ms1000202,iti,,null,img/motor_4.png,70,motor,,,,,,,
640,,228762,HierDydm17mqow,yg51qpjgem,ms1000202,motor,,74,img/motor_5.png,72,motor,5,55,0,1,0,,
367,,229140,HierDydm17mqow,yg51qpjgem,ms1000202,motorRepeat,,72,img/motor_5.png,72,motor,5,55,1,0,0,,
null,,229251,HierDydm17mqow,yg51qpjgem,ms1000202,iti,,null,img/motor_5.png,72,motor,,,,,,,
741,,230002,HierDydm17mqow,yg51qpjgem,ms1000202,motor,,76,img/motor_8.png,76,motor,8,56,1,0,0,,
null,,230114,HierDydm17mqow,yg51qpjgem,ms1000202,iti,,null,img/motor_8.png,76,motor,,,,,,,
785,,230909,HierDydm17mqow,yg51qpjgem,ms1000202,motor,,72,img/motor_5.png,72,motor,5,57,1,0,0,,
null,,231020,HierDydm17mqow,yg51qpjgem,ms1000202,iti,,null,img/motor_5.png,72,motor,,,,,,,
843,,231874,HierDydm17mqow,yg51qpjgem,ms1000202,motor,,68,img/motor_3.png,68,motor,3,58,1,0,0,,
null,,231986,HierDydm17mqow,yg51qpjgem,ms1000202,iti,,null,img/motor_3.png,68,motor,,,,,,,
1155,,233151,HierDydm17mqow,yg51qpjgem,ms1000202,motor,,70,img/motor_4.png,70,motor,4,59,1,0,0,,
null,,233262,HierDydm17mqow,yg51qpjgem,ms1000202,iti,,null,img/motor_4.png,70,motor,,,,,,,
1170,,234442,HierDydm17mqow,yg51qpjgem,ms1000202,motor,,83,img/motor_2.png,83,motor,2,60,1,0,0,,
null,,234553,HierDydm17mqow,yg51qpjgem,ms1000202,iti,,null,img/motor_2.png,83,motor,,,,,,,
756,,235321,HierDydm17mqow,yg51qpjgem,ms1000202,motor,,76,img/motor_8.png,76,motor,8,61,1,0,0,,
null,,235432,HierDydm17mqow,yg51qpjgem,ms1000202,iti,,null,img/motor_8.png,76,motor,,,,,,,
1752,,237195,HierDydm17mqow,yg51qpjgem,ms1000202,motor,,83,img/motor_2.png,83,motor,2,62,1,0,0,,
null,,237306,HierDydm17mqow,yg51qpjgem,ms1000202,iti,,null,img/motor_2.png,83,motor,,,,,,,
874,,238190,HierDydm17mqow,yg51qpjgem,ms1000202,motor,,74,img/motor_6.png,74,motor,6,63,1,0,0,,
null,,238302,HierDydm17mqow,yg51qpjgem,ms1000202,iti,,null,img/motor_6.png,74,motor,,,,,,,
737,,239049,HierDydm17mqow,yg51qpjgem,ms1000202,motor,,65,img/motor_1.png,65,motor,1,64,1,0,0,,
null,,239159,HierDydm17mqow,yg51qpjgem,ms1000202,iti,,null,img/motor_1.png,65,motor,,,,,,,
907,,240078,HierDydm17mqow,yg51qpjgem,ms1000202,motor,,72,img/motor_5.png,72,motor,5,65,1,0,0,,
null,,240191,HierDydm17mqow,yg51qpjgem,ms1000202,iti,,null,img/motor_5.png,72,motor,,,,,,,
665,,240867,HierDydm17mqow,yg51qpjgem,ms1000202,motor,,83,img/motor_2.png,83,motor,2,66,1,0,0,,
null,,240977,HierDydm17mqow,yg51qpjgem,ms1000202,iti,,null,img/motor_2.png,83,motor,,,,,,,
629,,241617,HierDydm17mqow,yg51qpjgem,ms1000202,motor,,68,img/motor_3.png,68,motor,3,67,1,0,0,,
null,,241728,HierDydm17mqow,yg51qpjgem,ms1000202,iti,,null,img/motor_3.png,68,motor,,,,,,,
763,,242501,HierDydm17mqow,yg51qpjgem,ms1000202,motor,,72,img/motor_5.png,72,motor,5,68,1,0,0,,
null,,242613,HierDydm17mqow,yg51qpjgem,ms1000202,iti,,null,img/motor_5.png,72,motor,,,,,,,
911,,243534,HierDydm17mqow,yg51qpjgem,ms1000202,motor,,75,img/motor_7.png,75,motor,7,69,1,0,0,,
null,,243646,HierDydm17mqow,yg51qpjgem,ms1000202,iti,,null,img/motor_7.png,75,motor,,,,,,,
752,,244409,HierDydm17mqow,yg51qpjgem,ms1000202,motor,,68,img/motor_3.png,68,motor,3,70,1,0,0,,
null,,244520,HierDydm17mqow,yg51qpjgem,ms1000202,iti,,null,img/motor_3.png,68,motor,,,,,,,
800,,245331,HierDydm17mqow,yg51qpjgem,ms1000202,motor,,76,img/motor_8.png,76,motor,8,71,1,0,0,,
null,,245443,HierDydm17mqow,yg51qpjgem,ms1000202,iti,,null,img/motor_8.png,76,motor,,,,,,,
900,,246355,HierDydm17mqow,yg51qpjgem,ms1000202,motor,,75,img/motor_7.png,75,motor,7,72,1,0,0,,
null,,246466,HierDydm17mqow,yg51qpjgem,ms1000202,iti,,null,img/motor_7.png,75,motor,,,,,,,
907,,247383,HierDydm17mqow,yg51qpjgem,ms1000202,motor,,68,img/motor_3.png,68,motor,3,73,1,0,0,,
null,,247496,HierDydm17mqow,yg51qpjgem,ms1000202,iti,,null,img/motor_3.png,68,motor,,,,,,,
656,,248162,HierDydm17mqow,yg51qpjgem,ms1000202,motor,,72,img/motor_5.png,72,motor,5,74,1,0,0,,
null,,248274,HierDydm17mqow,yg51qpjgem,ms1000202,iti,,null,img/motor_5.png,72,motor,,,,,,,
736,,249020,HierDydm17mqow,yg51qpjgem,ms1000202,motor,,68,img/motor_3.png,68,motor,3,75,1,0,0,,
null,,249132,HierDydm17mqow,yg51qpjgem,ms1000202,iti,,null,img/motor_3.png,68,motor,,,,,,,
734,,249877,HierDydm17mqow,yg51qpjgem,ms1000202,motor,,72,img/motor_5.png,72,motor,5,76,1,0,0,,
null,,249988,HierDydm17mqow,yg51qpjgem,ms1000202,iti,,null,img/motor_5.png,72,motor,,,,,,,
639,,250637,HierDydm17mqow,yg51qpjgem,ms1000202,motor,,68,img/motor_3.png,68,motor,3,77,1,0,0,,
null,,250747,HierDydm17mqow,yg51qpjgem,ms1000202,iti,,null,img/motor_3.png,68,motor,,,,,,,
896,,251655,HierDydm17mqow,yg51qpjgem,ms1000202,motor,,68,img/motor_3.png,68,motor,3,78,1,0,0,,
null,,251766,HierDydm17mqow,yg51qpjgem,ms1000202,iti,,null,img/motor_3.png,68,motor,,,,,,,
621,,252398,HierDydm17mqow,yg51qpjgem,ms1000202,motor,,70,img/motor_4.png,70,motor,4,79,1,0,0,,
null,,252509,HierDydm17mqow,yg51qpjgem,ms1000202,iti,,null,img/motor_4.png,70,motor,,,,,,,
604,,253124,HierDydm17mqow,yg51qpjgem,ms1000202,motor,,74,img/motor_6.png,74,motor,6,80,1,0,0,,
null,,253236,HierDydm17mqow,yg51qpjgem,ms1000202,iti,,null,img/motor_6.png,74,motor,,,,,,,
616,,253862,HierDydm17mqow,yg51qpjgem,ms1000202,motor,,70,img/motor_4.png,70,motor,4,81,1,0,0,,
null,,253974,HierDydm17mqow,yg51qpjgem,ms1000202,iti,,null,img/motor_4.png,70,motor,,,,,,,
1012,,254996,HierDydm17mqow,yg51qpjgem,ms1000202,motor,,65,img/motor_1.png,65,motor,1,82,1,0,0,,
null,,255108,HierDydm17mqow,yg51qpjgem,ms1000202,iti,,null,img/motor_1.png,65,motor,,,,,,,
1472,,256591,HierDydm17mqow,yg51qpjgem,ms1000202,motor,,75,img/motor_7.png,75,motor,7,83,1,0,0,,
null,,256703,HierDydm17mqow,yg51qpjgem,ms1000202,iti,,null,img/motor_7.png,75,motor,,,,,,,
666,,257380,HierDydm17mqow,yg51qpjgem,ms1000202,motor,,65,img/motor_1.png,65,motor,1,84,1,0,0,,
null,,257492,HierDydm17mqow,yg51qpjgem,ms1000202,iti,,null,img/motor_1.png,65,motor,,,,,,,
733,,258234,HierDydm17mqow,yg51qpjgem,ms1000202,motor,,65,img/motor_1.png,65,motor,1,85,1,0,0,,
null,,258346,HierDydm17mqow,yg51qpjgem,ms1000202,iti,,null,img/motor_1.png,65,motor,,,,,,,
611,,258965,HierDydm17mqow,yg51qpjgem,ms1000202,motor,,68,img/motor_3.png,68,motor,3,86,1,0,0,,
null,,259077,HierDydm17mqow,yg51qpjgem,ms1000202,iti,,null,img/motor_3.png,68,motor,,,,,,,
1409,,260496,HierDydm17mqow,yg51qpjgem,ms1000202,motor,,75,img/motor_7.png,75,motor,7,87,1,0,0,,
null,,260608,HierDydm17mqow,yg51qpjgem,ms1000202,iti,,null,img/motor_7.png,75,motor,,,,,,,
686,,261305,HierDydm17mqow,yg51qpjgem,ms1000202,motor,,70,img/motor_4.png,70,motor,4,88,1,0,0,,
null,,261417,HierDydm17mqow,yg51qpjgem,ms1000202,iti,,null,img/motor_4.png,70,motor,,,,,,,
619,,262047,HierDydm17mqow,yg51qpjgem,ms1000202,motor,,72,img/motor_5.png,72,motor,5,89,1,0,0,,
null,,262159,HierDydm17mqow,yg51qpjgem,ms1000202,iti,,null,img/motor_5.png,72,motor,,,,,,,
726,,262895,HierDydm17mqow,yg51qpjgem,ms1000202,motor,,65,img/motor_1.png,65,motor,1,90,1,0,0,,
null,,263007,HierDydm17mqow,yg51qpjgem,ms1000202,iti,,null,img/motor_1.png,65,motor,,,,,,,
755,,263773,HierDydm17mqow,yg51qpjgem,ms1000202,motor,,76,img/motor_8.png,76,motor,8,91,1,0,0,,
null,,263884,HierDydm17mqow,yg51qpjgem,ms1000202,iti,,null,img/motor_8.png,76,motor,,,,,,,
652,,264547,HierDydm17mqow,yg51qpjgem,ms1000202,motor,,68,img/motor_3.png,68,motor,3,92,1,0,0,,
null,,264659,HierDydm17mqow,yg51qpjgem,ms1000202,iti,,null,img/motor_3.png,68,motor,,,,,,,
892,,265562,HierDydm17mqow,yg51qpjgem,ms1000202,motor,,74,img/motor_7.png,75,motor,7,93,0,1,0,,
369,,265941,HierDydm17mqow,yg51qpjgem,ms1000202,motorRepeat,,75,img/motor_7.png,75,motor,7,93,1,0,0,,
null,,266052,HierDydm17mqow,yg51qpjgem,ms1000202,iti,,null,img/motor_7.png,75,motor,,,,,,,
632,,266694,HierDydm17mqow,yg51qpjgem,ms1000202,motor,,70,img/motor_4.png,70,motor,4,94,1,0,0,,
null,,266806,HierDydm17mqow,yg51qpjgem,ms1000202,iti,,null,img/motor_4.png,70,motor,,,,,,,
897,,267712,HierDydm17mqow,yg51qpjgem,ms1000202,motor,,83,img/motor_2.png,83,motor,2,95,1,0,0,,
null,,267824,HierDydm17mqow,yg51qpjgem,ms1000202,iti,,null,img/motor_2.png,83,motor,,,,,,,
571,,268405,HierDydm17mqow,yg51qpjgem,ms1000202,motor,,68,img/motor_3.png,68,motor,3,96,1,0,0,,
null,,268516,HierDydm17mqow,yg51qpjgem,ms1000202,iti,,null,img/motor_3.png,68,motor,,,,,,,
787,,269314,HierDydm17mqow,yg51qpjgem,ms1000202,motor,,75,img/motor_7.png,75,motor,7,97,1,0,0,,
null,,269426,HierDydm17mqow,yg51qpjgem,ms1000202,iti,,null,img/motor_7.png,75,motor,,,,,,,
624,,270062,HierDydm17mqow,yg51qpjgem,ms1000202,motor,,76,img/motor_8.png,76,motor,8,98,1,0,0,,
null,,270173,HierDydm17mqow,yg51qpjgem,ms1000202,iti,,null,img/motor_8.png,76,motor,,,,,,,
600,,270783,HierDydm17mqow,yg51qpjgem,ms1000202,motor,,76,img/motor_8.png,76,motor,8,99,1,0,0,,
null,,270894,HierDydm17mqow,yg51qpjgem,ms1000202,iti,,null,img/motor_8.png,76,motor,,,,,,,
579,,271483,HierDydm17mqow,yg51qpjgem,ms1000202,motor,,75,img/motor_7.png,75,motor,7,100,1,0,0,,
null,,271596,HierDydm17mqow,yg51qpjgem,ms1000202,iti,,null,img/motor_7.png,75,motor,,,,,,,
567,,272173,HierDydm17mqow,yg51qpjgem,ms1000202,motor,,70,img/motor_4.png,70,motor,4,101,1,0,0,,
null,,272285,HierDydm17mqow,yg51qpjgem,ms1000202,iti,,null,img/motor_4.png,70,motor,,,,,,,
640,,272937,HierDydm17mqow,yg51qpjgem,ms1000202,motor,,76,img/motor_8.png,76,motor,8,102,1,0,0,,
null,,273049,HierDydm17mqow,yg51qpjgem,ms1000202,iti,,null,img/motor_8.png,76,motor,,,,,,,
1037,,274096,HierDydm17mqow,yg51qpjgem,ms1000202,motor,,72,img/motor_5.png,72,motor,5,103,1,0,0,,
null,,274207,HierDydm17mqow,yg51qpjgem,ms1000202,iti,,null,img/motor_5.png,72,motor,,,,,,,
525,,274742,HierDydm17mqow,yg51qpjgem,ms1000202,motor,,70,img/motor_4.png,70,motor,4,104,1,0,0,,
null,,274855,HierDydm17mqow,yg51qpjgem,ms1000202,iti,,null,img/motor_4.png,70,motor,,,,,,,
539,,275405,HierDydm17mqow,yg51qpjgem,ms1000202,motor,,70,img/motor_4.png,70,motor,4,105,1,0,0,,
null,,275516,HierDydm17mqow,yg51qpjgem,ms1000202,iti,,null,img/motor_4.png,70,motor,,,,,,,
681,,276207,HierDydm17mqow,yg51qpjgem,ms1000202,motor,,74,img/motor_6.png,74,motor,6,106,1,0,0,,
null,,276318,HierDydm17mqow,yg51qpjgem,ms1000202,iti,,null,img/motor_6.png,74,motor,,,,,,,
979,,277308,HierDydm17mqow,yg51qpjgem,ms1000202,motor,,65,img/motor_1.png,65,motor,1,107,1,0,0,,
null,,277419,HierDydm17mqow,yg51qpjgem,ms1000202,iti,,null,img/motor_1.png,65,motor,,,,,,,
782,,278211,HierDydm17mqow,yg51qpjgem,ms1000202,motor,,68,img/motor_3.png,68,motor,3,108,1,0,0,,
null,,278324,HierDydm17mqow,yg51qpjgem,ms1000202,iti,,null,img/motor_3.png,68,motor,,,,,,,
696,,279029,HierDydm17mqow,yg51qpjgem,ms1000202,motor,,65,img/motor_1.png,65,motor,1,109,1,0,0,,
null,,279141,HierDydm17mqow,yg51qpjgem,ms1000202,iti,,null,img/motor_1.png,65,motor,,,,,,,
855,,280010,HierDydm17mqow,yg51qpjgem,ms1000202,motor,,76,img/motor_8.png,76,motor,8,110,1,0,0,,
null,,280121,HierDydm17mqow,yg51qpjgem,ms1000202,iti,,null,img/motor_8.png,76,motor,,,,,,,
809,,280940,HierDydm17mqow,yg51qpjgem,ms1000202,motor,,75,img/motor_7.png,75,motor,7,111,1,0,0,,
null,,281052,HierDydm17mqow,yg51qpjgem,ms1000202,iti,,null,img/motor_7.png,75,motor,,,,,,,
658,,281720,HierDydm17mqow,yg51qpjgem,ms1000202,motor,,70,img/motor_3.png,68,motor,3,112,0,1,0,,
358,,282090,HierDydm17mqow,yg51qpjgem,ms1000202,motorRepeat,,68,img/motor_3.png,68,motor,3,112,1,0,0,,
null,,282202,HierDydm17mqow,yg51qpjgem,ms1000202,iti,,null,img/motor_3.png,68,motor,,,,,,,
480,,282693,HierDydm17mqow,yg51qpjgem,ms1000202,motor,,70,img/motor_4.png,70,motor,4,113,1,0,0,,
null,,282803,HierDydm17mqow,yg51qpjgem,ms1000202,iti,,null,img/motor_4.png,70,motor,,,,,,,
629,,283445,HierDydm17mqow,yg51qpjgem,ms1000202,motor,,83,img/motor_2.png,83,motor,2,114,1,0,0,,
null,,283558,HierDydm17mqow,yg51qpjgem,ms1000202,iti,,null,img/motor_2.png,83,motor,,,,,,,
748,,284317,HierDydm17mqow,yg51qpjgem,ms1000202,motor,,75,img/motor_7.png,75,motor,7,115,1,0,0,,
null,,284430,HierDydm17mqow,yg51qpjgem,ms1000202,iti,,null,img/motor_7.png,75,motor,,,,,,,
522,,284964,HierDydm17mqow,yg51qpjgem,ms1000202,motor,,75,img/motor_7.png,75,motor,7,116,1,0,0,,
null,,285075,HierDydm17mqow,yg51qpjgem,ms1000202,iti,,null,img/motor_7.png,75,motor,,,,,,,
686,,285771,HierDydm17mqow,yg51qpjgem,ms1000202,motor,,83,img/motor_2.png,83,motor,2,117,1,0,0,,
null,,285883,HierDydm17mqow,yg51qpjgem,ms1000202,iti,,null,img/motor_2.png,83,motor,,,,,,,
897,,286790,HierDydm17mqow,yg51qpjgem,ms1000202,motor,,72,img/motor_5.png,72,motor,5,118,1,0,0,,
null,,286900,HierDydm17mqow,yg51qpjgem,ms1000202,iti,,null,img/motor_5.png,72,motor,,,,,,,
738,,287648,HierDydm17mqow,yg51qpjgem,ms1000202,motor,,83,img/motor_2.png,83,motor,2,119,1,0,0,,
null,,287759,HierDydm17mqow,yg51qpjgem,ms1000202,iti,,null,img/motor_2.png,83,motor,,,,,,,
923,,288693,HierDydm17mqow,yg51qpjgem,ms1000202,motor,,70,img/motor_4.png,70,motor,4,120,1,0,0,,
null,,288804,HierDydm17mqow,yg51qpjgem,ms1000202,iti,,null,img/motor_4.png,70,motor,,,,,,,
682,,289496,HierDydm17mqow,yg51qpjgem,ms1000202,motor,,74,img/motor_6.png,74,motor,6,121,1,0,0,,
null,,289608,HierDydm17mqow,yg51qpjgem,ms1000202,iti,,null,img/motor_6.png,74,motor,,,,,,,
549,,290167,HierDydm17mqow,yg51qpjgem,ms1000202,motor,,83,img/motor_2.png,83,motor,2,122,1,0,0,,
null,,290278,HierDydm17mqow,yg51qpjgem,ms1000202,iti,,null,img/motor_2.png,83,motor,,,,,,,
947,,291237,HierDydm17mqow,yg51qpjgem,ms1000202,motor,,75,img/motor_7.png,75,motor,7,123,1,0,0,,
null,,291347,HierDydm17mqow,yg51qpjgem,ms1000202,iti,,null,img/motor_7.png,75,motor,,,,,,,
787,,292146,HierDydm17mqow,yg51qpjgem,ms1000202,motor,,70,img/motor_4.png,70,motor,4,124,1,0,0,,
null,,292257,HierDydm17mqow,yg51qpjgem,ms1000202,iti,,null,img/motor_4.png,70,motor,,,,,,,
551,,292818,HierDydm17mqow,yg51qpjgem,ms1000202,motor,,83,img/motor_2.png,83,motor,2,125,1,0,0,,
null,,292930,HierDydm17mqow,yg51qpjgem,ms1000202,iti,,null,img/motor_2.png,83,motor,,,,,,,
777,,293719,HierDydm17mqow,yg51qpjgem,ms1000202,motor,,72,img/motor_5.png,72,motor,5,126,1,0,0,,
null,,293831,HierDydm17mqow,yg51qpjgem,ms1000202,iti,,null,img/motor_5.png,72,motor,,,,,,,
356,,294198,HierDydm17mqow,yg51qpjgem,ms1000202,motor,,75,img/motor_7.png,75,motor,7,127,1,0,0,,
null,,294309,HierDydm17mqow,yg51qpjgem,ms1000202,iti,,null,img/motor_7.png,75,motor,,,,,,,
790,,295112,HierDydm17mqow,yg51qpjgem,ms1000202,motor,,76,img/motor_8.png,76,motor,8,128,1,0,0,,
null,,295223,HierDydm17mqow,yg51qpjgem,ms1000202,iti,,null,img/motor_8.png,76,motor,,,,,,,
590,,295825,HierDydm17mqow,yg51qpjgem,ms1000202,motor,,74,img/motor_6.png,74,motor,6,129,1,0,0,,
null,,295936,HierDydm17mqow,yg51qpjgem,ms1000202,iti,,null,img/motor_6.png,74,motor,,,,,,,
1011,,296958,HierDydm17mqow,yg51qpjgem,ms1000202,motor,,74,img/motor_6.png,74,motor,6,130,1,0,0,,
null,,297069,HierDydm17mqow,yg51qpjgem,ms1000202,iti,,null,img/motor_6.png,74,motor,,,,,,,
541,,297621,HierDydm17mqow,yg51qpjgem,ms1000202,motor,,75,img/motor_7.png,75,motor,7,131,1,0,0,,
null,,297731,HierDydm17mqow,yg51qpjgem,ms1000202,iti,,null,img/motor_7.png,75,motor,,,,,,,
545,,298288,HierDydm17mqow,yg51qpjgem,ms1000202,motor,,83,img/motor_2.png,83,motor,2,132,1,0,0,,
null,,298400,HierDydm17mqow,yg51qpjgem,ms1000202,iti,,null,img/motor_2.png,83,motor,,,,,,,
474,,298885,HierDydm17mqow,yg51qpjgem,ms1000202,motor,,83,img/motor_2.png,83,motor,2,133,1,0,0,,
null,,298996,HierDydm17mqow,yg51qpjgem,ms1000202,iti,,null,img/motor_2.png,83,motor,,,,,,,
713,,299720,HierDydm17mqow,yg51qpjgem,ms1000202,motor,,70,img/motor_4.png,70,motor,4,134,1,0,0,,
null,,299831,HierDydm17mqow,yg51qpjgem,ms1000202,iti,,null,img/motor_4.png,70,motor,,,,,,,
1141,,300983,HierDydm17mqow,yg51qpjgem,ms1000202,motor,,76,img/motor_8.png,76,motor,8,135,1,0,0,,
null,,301096,HierDydm17mqow,yg51qpjgem,ms1000202,iti,,null,img/motor_8.png,76,motor,,,,,,,
702,,301806,HierDydm17mqow,yg51qpjgem,ms1000202,motor,,83,img/motor_2.png,83,motor,2,136,1,0,0,,
null,,301918,HierDydm17mqow,yg51qpjgem,ms1000202,iti,,null,img/motor_2.png,83,motor,,,,,,,
484,,302412,HierDydm17mqow,yg51qpjgem,ms1000202,motor,,70,img/motor_4.png,70,motor,4,137,1,0,0,,
null,,302523,HierDydm17mqow,yg51qpjgem,ms1000202,iti,,null,img/motor_4.png,70,motor,,,,,,,
586,,303119,HierDydm17mqow,yg51qpjgem,ms1000202,motor,,74,img/motor_7.png,75,motor,7,138,0,1,0,,
442,,303572,HierDydm17mqow,yg51qpjgem,ms1000202,motorRepeat,,75,img/motor_7.png,75,motor,7,138,1,0,0,,
null,,303683,HierDydm17mqow,yg51qpjgem,ms1000202,iti,,null,img/motor_7.png,75,motor,,,,,,,
717,,304410,HierDydm17mqow,yg51qpjgem,ms1000202,motor,,74,img/motor_6.png,74,motor,6,139,1,0,0,,
null,,304521,HierDydm17mqow,yg51qpjgem,ms1000202,iti,,null,img/motor_6.png,74,motor,,,,,,,
615,,305146,HierDydm17mqow,yg51qpjgem,ms1000202,motor,,83,img/motor_2.png,83,motor,2,140,1,0,0,,
null,,305258,HierDydm17mqow,yg51qpjgem,ms1000202,iti,,null,img/motor_2.png,83,motor,,,,,,,
728,,305995,HierDydm17mqow,yg51qpjgem,ms1000202,motor,,65,img/motor_1.png,65,motor,1,141,1,0,0,,
null,,306107,HierDydm17mqow,yg51qpjgem,ms1000202,iti,,null,img/motor_1.png,65,motor,,,,,,,
511,,306628,HierDydm17mqow,yg51qpjgem,ms1000202,motor,,83,img/motor_2.png,83,motor,2,142,1,0,0,,
null,,306740,HierDydm17mqow,yg51qpjgem,ms1000202,iti,,null,img/motor_2.png,83,motor,,,,,,,
661,,307411,HierDydm17mqow,yg51qpjgem,ms1000202,motor,,70,img/motor_4.png,70,motor,4,143,1,0,0,,
null,,307522,HierDydm17mqow,yg51qpjgem,ms1000202,iti,,null,img/motor_4.png,70,motor,,,,,,,
685,,308217,HierDydm17mqow,yg51qpjgem,ms1000202,motor,,65,img/motor_1.png,65,motor,1,144,1,0,0,,
null,,308329,HierDydm17mqow,yg51qpjgem,ms1000202,iti,,null,img/motor_1.png,65,motor,,,,,,,
581,,308921,HierDydm17mqow,yg51qpjgem,ms1000202,motor,,74,img/motor_6.png,74,motor,6,145,1,0,0,,
null,,309033,HierDydm17mqow,yg51qpjgem,ms1000202,iti,,null,img/motor_6.png,74,motor,,,,,,,
555,,309599,HierDydm17mqow,yg51qpjgem,ms1000202,motor,,74,img/motor_6.png,74,motor,6,146,1,0,0,,
null,,309710,HierDydm17mqow,yg51qpjgem,ms1000202,iti,,null,img/motor_6.png,74,motor,,,,,,,
645,,310366,HierDydm17mqow,yg51qpjgem,ms1000202,motor,,65,img/motor_1.png,65,motor,1,147,1,0,0,,
null,,310476,HierDydm17mqow,yg51qpjgem,ms1000202,iti,,null,img/motor_1.png,65,motor,,,,,,,
546,,311034,HierDydm17mqow,yg51qpjgem,ms1000202,motor,,70,img/motor_4.png,70,motor,4,148,1,0,0,,
null,,311144,HierDydm17mqow,yg51qpjgem,ms1000202,iti,,null,img/motor_4.png,70,motor,,,,,,,
723,,311878,HierDydm17mqow,yg51qpjgem,ms1000202,motor,,74,img/motor_8.png,76,motor,8,149,0,1,0,,
440,,312329,HierDydm17mqow,yg51qpjgem,ms1000202,motorRepeat,,76,img/motor_8.png,76,motor,8,149,1,0,0,,
null,,312440,HierDydm17mqow,yg51qpjgem,ms1000202,iti,,null,img/motor_8.png,76,motor,,,,,,,
552,,313003,HierDydm17mqow,yg51qpjgem,ms1000202,motor,,70,img/motor_4.png,70,motor,4,150,1,0,0,,
null,,313115,HierDydm17mqow,yg51qpjgem,ms1000202,iti,,null,img/motor_4.png,70,motor,,,,,,,
583,,313708,HierDydm17mqow,yg51qpjgem,ms1000202,motor,,68,img/motor_3.png,68,motor,3,151,1,0,0,,
null,,313820,HierDydm17mqow,yg51qpjgem,ms1000202,iti,,null,img/motor_3.png,68,motor,,,,,,,
661,,314492,HierDydm17mqow,yg51qpjgem,ms1000202,motor,,65,img/motor_1.png,65,motor,1,152,1,0,0,,
null,,314603,HierDydm17mqow,yg51qpjgem,ms1000202,iti,,null,img/motor_1.png,65,motor,,,,,,,
25,,314638,HierDydm17mqow,yg51qpjgem,ms1000202,motor,,65,img/motor_6.png,74,motor,6,153,0,1,0,,
721,,315369,HierDydm17mqow,yg51qpjgem,ms1000202,motorRepeat,,74,img/motor_6.png,74,motor,6,153,1,0,0,,
null,,315480,HierDydm17mqow,yg51qpjgem,ms1000202,iti,,null,img/motor_6.png,74,motor,,,,,,,
722,,316213,HierDydm17mqow,yg51qpjgem,ms1000202,motor,,68,img/motor_3.png,68,motor,3,154,1,0,0,,
null,,316327,HierDydm17mqow,yg51qpjgem,ms1000202,iti,,null,img/motor_3.png,68,motor,,,,,,,
458,,316795,HierDydm17mqow,yg51qpjgem,ms1000202,motor,,65,img/motor_1.png,65,motor,1,155,1,0,0,,
null,,316907,HierDydm17mqow,yg51qpjgem,ms1000202,iti,,null,img/motor_1.png,65,motor,,,,,,,
575,,317493,HierDydm17mqow,yg51qpjgem,ms1000202,motor,,74,img/motor_6.png,74,motor,6,156,1,0,0,,
null,,317604,HierDydm17mqow,yg51qpjgem,ms1000202,iti,,null,img/motor_6.png,74,motor,,,,,,,
611,,318225,HierDydm17mqow,yg51qpjgem,ms1000202,motor,,68,img/motor_3.png,68,motor,3,157,1,0,0,,
null,,318337,HierDydm17mqow,yg51qpjgem,ms1000202,iti,,null,img/motor_3.png,68,motor,,,,,,,
505,,318853,HierDydm17mqow,yg51qpjgem,ms1000202,motor,,76,img/motor_8.png,76,motor,8,158,1,0,0,,
null,,318963,HierDydm17mqow,yg51qpjgem,ms1000202,iti,,null,img/motor_8.png,76,motor,,,,,,,
747,,319721,HierDydm17mqow,yg51qpjgem,ms1000202,motor,,72,img/motor_5.png,72,motor,5,159,1,0,0,,
null,,319834,HierDydm17mqow,yg51qpjgem,ms1000202,iti,,null,img/motor_5.png,72,motor,,,,,,,
633,,320478,HierDydm17mqow,yg51qpjgem,ms1000202,motor,,68,img/motor_3.png,68,motor,3,160,1,0,0,,
null,,320590,HierDydm17mqow,yg51qpjgem,ms1000202,iti,,null,img/motor_3.png,68,motor,,,,,,,
591,,321192,HierDydm17mqow,yg51qpjgem,ms1000202,motor,,72,img/motor_5.png,72,motor,5,161,1,0,0,,
null,,321303,HierDydm17mqow,yg51qpjgem,ms1000202,iti,,null,img/motor_5.png,72,motor,,,,,,,
506,,321819,HierDydm17mqow,yg51qpjgem,ms1000202,motor,,72,img/motor_5.png,72,motor,5,162,1,0,0,,
null,,321930,HierDydm17mqow,yg51qpjgem,ms1000202,iti,,null,img/motor_5.png,72,motor,,,,,,,
576,,322519,HierDydm17mqow,yg51qpjgem,ms1000202,motor,,74,img/motor_6.png,74,motor,6,163,1,0,0,,
null,,322629,HierDydm17mqow,yg51qpjgem,ms1000202,iti,,null,img/motor_6.png,74,motor,,,,,,,
690,,323330,HierDydm17mqow,yg51qpjgem,ms1000202,motor,,65,img/motor_1.png,65,motor,1,164,1,0,0,,
null,,323441,HierDydm17mqow,yg51qpjgem,ms1000202,iti,,null,img/motor_1.png,65,motor,,,,,,,
694,,324146,HierDydm17mqow,yg51qpjgem,ms1000202,motor,,83,img/motor_2.png,83,motor,2,165,1,0,0,,
null,,324258,HierDydm17mqow,yg51qpjgem,ms1000202,iti,,null,img/motor_2.png,83,motor,,,,,,,
602,,324871,HierDydm17mqow,yg51qpjgem,ms1000202,motor,,72,img/motor_5.png,72,motor,5,166,1,0,0,,
null,,324982,HierDydm17mqow,yg51qpjgem,ms1000202,iti,,null,img/motor_5.png,72,motor,,,,,,,
583,,325575,HierDydm17mqow,yg51qpjgem,ms1000202,motor,,65,img/motor_1.png,65,motor,1,167,1,0,0,,
null,,325687,HierDydm17mqow,yg51qpjgem,ms1000202,iti,,null,img/motor_1.png,65,motor,,,,,,,
471,,326169,HierDydm17mqow,yg51qpjgem,ms1000202,motor,,65,img/motor_1.png,65,motor,1,168,1,0,0,,
null,,326280,HierDydm17mqow,yg51qpjgem,ms1000202,iti,,null,img/motor_1.png,65,motor,,,,,,,
643,,326936,HierDydm17mqow,yg51qpjgem,ms1000202,motor,,70,img/motor_4.png,70,motor,4,169,1,0,0,,
null,,327048,HierDydm17mqow,yg51qpjgem,ms1000202,iti,,null,img/motor_4.png,70,motor,,,,,,,
847,,327905,HierDydm17mqow,yg51qpjgem,ms1000202,motor,,75,img/motor_7.png,75,motor,7,170,1,0,0,,
null,,328015,HierDydm17mqow,yg51qpjgem,ms1000202,iti,,null,img/motor_7.png,75,motor,,,,,,,
566,,328592,HierDydm17mqow,yg51qpjgem,ms1000202,motor,,74,img/motor_6.png,74,motor,6,171,1,0,0,,
null,,328705,HierDydm17mqow,yg51qpjgem,ms1000202,iti,,null,img/motor_6.png,74,motor,,,,,,,
415,,329129,HierDydm17mqow,yg51qpjgem,ms1000202,motor,,74,img/motor_5.png,72,motor,5,172,0,1,0,,
263,,329403,HierDydm17mqow,yg51qpjgem,ms1000202,motorRepeat,,72,img/motor_5.png,72,motor,5,172,1,0,0,,
null,,329514,HierDydm17mqow,yg51qpjgem,ms1000202,iti,,null,img/motor_5.png,72,motor,,,,,,,
645,,330170,HierDydm17mqow,yg51qpjgem,ms1000202,motor,,83,img/motor_2.png,83,motor,2,173,1,0,0,,
null,,330283,HierDydm17mqow,yg51qpjgem,ms1000202,iti,,null,img/motor_2.png,83,motor,,,,,,,
647,,330941,HierDydm17mqow,yg51qpjgem,ms1000202,motor,,74,img/motor_6.png,74,motor,6,174,1,0,0,,
null,,331053,HierDydm17mqow,yg51qpjgem,ms1000202,iti,,null,img/motor_6.png,74,motor,,,,,,,
556,,331618,HierDydm17mqow,yg51qpjgem,ms1000202,motor,,75,img/motor_7.png,75,motor,7,175,1,0,0,,
null,,331730,HierDydm17mqow,yg51qpjgem,ms1000202,iti,,null,img/motor_7.png,75,motor,,,,,,,
791,,332533,HierDydm17mqow,yg51qpjgem,ms1000202,motor,,76,img/motor_8.png,76,motor,8,176,1,0,0,,
null,,332643,HierDydm17mqow,yg51qpjgem,ms1000202,iti,,null,img/motor_8.png,76,motor,,,,,,,
572,,333227,HierDydm17mqow,yg51qpjgem,ms1000202,motor,,74,img/motor_7.png,75,motor,7,177,0,1,0,,
370,,333606,HierDydm17mqow,yg51qpjgem,ms1000202,motorRepeat,,75,img/motor_7.png,75,motor,7,177,1,0,0,,
null,,333718,HierDydm17mqow,yg51qpjgem,ms1000202,iti,,null,img/motor_7.png,75,motor,,,,,,,
590,,334319,HierDydm17mqow,yg51qpjgem,ms1000202,motor,,70,img/motor_4.png,70,motor,4,178,1,0,0,,
null,,334431,HierDydm17mqow,yg51qpjgem,ms1000202,iti,,null,img/motor_4.png,70,motor,,,,,,,
793,,335234,HierDydm17mqow,yg51qpjgem,ms1000202,motor,,72,img/motor_5.png,72,motor,5,179,1,0,0,,
null,,335344,HierDydm17mqow,yg51qpjgem,ms1000202,iti,,null,img/motor_5.png,72,motor,,,,,,,
631,,335986,HierDydm17mqow,yg51qpjgem,ms1000202,motor,,65,img/motor_1.png,65,motor,1,180,1,0,0,,
null,,336099,HierDydm17mqow,yg51qpjgem,ms1000202,iti,,null,img/motor_1.png,65,motor,,,,,,,
759,,336869,HierDydm17mqow,yg51qpjgem,ms1000202,motor,,75,img/motor_7.png,75,motor,7,181,1,0,0,,
null,,336979,HierDydm17mqow,yg51qpjgem,ms1000202,iti,,null,img/motor_7.png,75,motor,,,,,,,
556,,337546,HierDydm17mqow,yg51qpjgem,ms1000202,motor,,74,img/motor_6.png,74,motor,6,182,1,0,0,,
null,,337659,HierDydm17mqow,yg51qpjgem,ms1000202,iti,,null,img/motor_6.png,74,motor,,,,,,,
641,,338310,HierDydm17mqow,yg51qpjgem,ms1000202,motor,,75,img/motor_7.png,75,motor,7,183,1,0,0,,
null,,338421,HierDydm17mqow,yg51qpjgem,ms1000202,iti,,null,img/motor_7.png,75,motor,,,,,,,
725,,339158,HierDydm17mqow,yg51qpjgem,ms1000202,motor,,72,img/motor_5.png,72,motor,5,184,1,0,0,,
null,,339269,HierDydm17mqow,yg51qpjgem,ms1000202,iti,,null,img/motor_5.png,72,motor,,,,,,,
661,,339941,HierDydm17mqow,yg51qpjgem,ms1000202,motor,,76,img/motor_8.png,76,motor,8,185,1,0,0,,
null,,340053,HierDydm17mqow,yg51qpjgem,ms1000202,iti,,null,img/motor_8.png,76,motor,,,,,,,
489,,340552,HierDydm17mqow,yg51qpjgem,ms1000202,motor,,76,img/motor_8.png,76,motor,8,186,1,0,0,,
null,,340663,HierDydm17mqow,yg51qpjgem,ms1000202,iti,,null,img/motor_8.png,76,motor,,,,,,,
716,,341389,HierDydm17mqow,yg51qpjgem,ms1000202,motor,,83,img/motor_2.png,83,motor,2,187,1,0,0,,
null,,341501,HierDydm17mqow,yg51qpjgem,ms1000202,iti,,null,img/motor_2.png,83,motor,,,,,,,
906,,342418,HierDydm17mqow,yg51qpjgem,ms1000202,motor,,75,img/motor_7.png,75,motor,7,188,1,0,0,,
null,,342530,HierDydm17mqow,yg51qpjgem,ms1000202,iti,,null,img/motor_7.png,75,motor,,,,,,,
659,,343198,HierDydm17mqow,yg51qpjgem,ms1000202,motor,,83,img/motor_2.png,83,motor,2,189,1,0,0,,
null,,343310,HierDydm17mqow,yg51qpjgem,ms1000202,iti,,null,img/motor_2.png,83,motor,,,,,,,
602,,343924,HierDydm17mqow,yg51qpjgem,ms1000202,motor,,70,img/motor_4.png,70,motor,4,190,1,0,0,,
null,,344035,HierDydm17mqow,yg51qpjgem,ms1000202,iti,,null,img/motor_4.png,70,motor,,,,,,,
477,,344522,HierDydm17mqow,yg51qpjgem,ms1000202,motor,,83,img/motor_1.png,65,motor,1,191,0,1,0,,
390,,344923,HierDydm17mqow,yg51qpjgem,ms1000202,motorRepeat,,65,img/motor_1.png,65,motor,1,191,1,0,0,,
null,,345034,HierDydm17mqow,yg51qpjgem,ms1000202,iti,,null,img/motor_1.png,65,motor,,,,,,,
1124,,346169,HierDydm17mqow,yg51qpjgem,ms1000202,motor,,74,img/motor_6.png,74,motor,6,192,1,0,0,,
null,,346281,HierDydm17mqow,yg51qpjgem,ms1000202,iti,,null,img/motor_6.png,74,motor,,,,,,,
669,,346960,HierDydm17mqow,yg51qpjgem,ms1000202,motor,,76,img/motor_8.png,76,motor,8,193,1,0,0,,
null,,347072,HierDydm17mqow,yg51qpjgem,ms1000202,iti,,null,img/motor_8.png,76,motor,,,,,,,
668,,347750,HierDydm17mqow,yg51qpjgem,ms1000202,motor,,68,img/motor_3.png,68,motor,3,194,1,0,0,,
null,,347862,HierDydm17mqow,yg51qpjgem,ms1000202,iti,,null,img/motor_3.png,68,motor,,,,,,,
578,,348450,HierDydm17mqow,yg51qpjgem,ms1000202,motor,,74,img/motor_6.png,74,motor,6,195,1,0,0,,
null,,348562,HierDydm17mqow,yg51qpjgem,ms1000202,iti,,null,img/motor_6.png,74,motor,,,,,,,
1074,,349646,HierDydm17mqow,yg51qpjgem,ms1000202,motor,,72,img/motor_5.png,72,motor,5,196,1,0,0,,
null,,349757,HierDydm17mqow,yg51qpjgem,ms1000202,iti,,null,img/motor_5.png,72,motor,,,,,,,
438,,350207,HierDydm17mqow,yg51qpjgem,ms1000202,motor,,74,img/motor_6.png,74,motor,6,197,1,0,0,,
null,,350318,HierDydm17mqow,yg51qpjgem,ms1000202,iti,,null,img/motor_6.png,74,motor,,,,,,,
556,,350887,HierDydm17mqow,yg51qpjgem,ms1000202,motor,,76,img/motor_8.png,76,motor,8,198,1,0,0,,
null,,350999,HierDydm17mqow,yg51qpjgem,ms1000202,iti,,null,img/motor_8.png,76,motor,,,,,,,
729,,351737,HierDydm17mqow,yg51qpjgem,ms1000202,motor,,65,img/motor_1.png,65,motor,1,199,1,0,0,,
null,,351849,HierDydm17mqow,yg51qpjgem,ms1000202,iti,,null,img/motor_1.png,65,motor,,,,,,,
1058,,352917,HierDydm17mqow,yg51qpjgem,ms1000202,motor,,75,img/motor_7.png,75,motor,7,200,1,0,0,,
null,,353028,HierDydm17mqow,yg51qpjgem,ms1000202,iti,,null,img/motor_7.png,75,motor,,,,,,,
491,,353530,HierDydm17mqow,yg51qpjgem,ms1000202,motor,,76,img/motor_8.png,76,motor,8,201,1,0,0,,
null,,353642,HierDydm17mqow,yg51qpjgem,ms1000202,iti,,null,img/motor_8.png,76,motor,,,,,,,
505,,354158,HierDydm17mqow,yg51qpjgem,ms1000202,motor,,74,img/motor_7.png,75,motor,7,202,0,1,0,,
410,,354578,HierDydm17mqow,yg51qpjgem,ms1000202,motorRepeat,,74,img/motor_7.png,75,motor,7,202,0,1,0,,
260,,354849,HierDydm17mqow,yg51qpjgem,ms1000202,motorRepeat,,75,img/motor_7.png,75,motor,7,202,1,0,0,,
null,,354962,HierDydm17mqow,yg51qpjgem,ms1000202,iti,,null,img/motor_7.png,75,motor,,,,,,,
784,,355758,HierDydm17mqow,yg51qpjgem,ms1000202,motor,,75,img/motor_7.png,75,motor,7,203,1,0,0,,
null,,355869,HierDydm17mqow,yg51qpjgem,ms1000202,iti,,null,img/motor_7.png,75,motor,,,,,,,
1279,,357158,HierDydm17mqow,yg51qpjgem,ms1000202,motor,,65,img/motor_1.png,65,motor,1,204,1,0,0,,
null,,357270,HierDydm17mqow,yg51qpjgem,ms1000202,iti,,null,img/motor_1.png,65,motor,,,,,,,
49,,357329,HierDydm17mqow,yg51qpjgem,ms1000202,motor,,65,img/motor_1.png,65,motor,1,205,1,0,0,,
null,,357442,HierDydm17mqow,yg51qpjgem,ms1000202,iti,,null,img/motor_1.png,65,motor,,,,,,,
589,,358042,HierDydm17mqow,yg51qpjgem,ms1000202,motor,,74,img/motor_6.png,74,motor,6,206,1,0,0,,
null,,358152,HierDydm17mqow,yg51qpjgem,ms1000202,iti,,null,img/motor_6.png,74,motor,,,,,,,
549,,358712,HierDydm17mqow,yg51qpjgem,ms1000202,motor,,76,img/motor_8.png,76,motor,8,207,1,0,0,,
null,,358824,HierDydm17mqow,yg51qpjgem,ms1000202,iti,,null,img/motor_8.png,76,motor,,,,,,,
542,,359376,HierDydm17mqow,yg51qpjgem,ms1000202,motor,,74,img/motor_6.png,74,motor,6,208,1,0,0,,
null,,359487,HierDydm17mqow,yg51qpjgem,ms1000202,iti,,null,img/motor_6.png,74,motor,,,,,,,
644,,360143,HierDydm17mqow,yg51qpjgem,ms1000202,motor,,75,img/motor_7.png,75,motor,7,209,1,0,0,,
null,,360254,HierDydm17mqow,yg51qpjgem,ms1000202,iti,,null,img/motor_7.png,75,motor,,,,,,,
505,,360770,HierDydm17mqow,yg51qpjgem,ms1000202,motor,,65,img/motor_1.png,65,motor,1,210,1,0,0,,
null,,360881,HierDydm17mqow,yg51qpjgem,ms1000202,iti,,null,img/motor_1.png,65,motor,,,,,,,
658,,361549,HierDydm17mqow,yg51qpjgem,ms1000202,motor,,74,img/motor_6.png,74,motor,6,211,1,0,0,,
null,,361661,HierDydm17mqow,yg51qpjgem,ms1000202,iti,,null,img/motor_6.png,74,motor,,,,,,,
946,,362618,HierDydm17mqow,yg51qpjgem,ms1000202,motor,,70,img/motor_4.png,70,motor,4,212,1,0,0,,
null,,362729,HierDydm17mqow,yg51qpjgem,ms1000202,iti,,null,img/motor_4.png,70,motor,,,,,,,
720,,363460,HierDydm17mqow,yg51qpjgem,ms1000202,motor,,72,img/motor_5.png,72,motor,5,213,1,0,0,,
null,,363572,HierDydm17mqow,yg51qpjgem,ms1000202,iti,,null,img/motor_5.png,72,motor,,,,,,,
549,,364132,HierDydm17mqow,yg51qpjgem,ms1000202,motor,,72,img/motor_5.png,72,motor,5,214,1,0,0,,
null,,364243,HierDydm17mqow,yg51qpjgem,ms1000202,iti,,null,img/motor_5.png,72,motor,,,,,,,
496,,364751,HierDydm17mqow,yg51qpjgem,ms1000202,motor,,70,img/motor_4.png,70,motor,4,215,1,0,0,,
null,,364862,HierDydm17mqow,yg51qpjgem,ms1000202,iti,,null,img/motor_4.png,70,motor,,,,,,,
740,,365612,HierDydm17mqow,yg51qpjgem,ms1000202,motor,,70,img/motor_4.png,70,motor,4,216,1,0,0,,
null,,365724,HierDydm17mqow,yg51qpjgem,ms1000202,iti,,null,img/motor_4.png,70,motor,,,,,,,
752,,366487,HierDydm17mqow,yg51qpjgem,ms1000202,motor,,75,img/motor_7.png,75,motor,7,217,1,0,0,,
null,,366598,HierDydm17mqow,yg51qpjgem,ms1000202,iti,,null,img/motor_7.png,75,motor,,,,,,,
444,,367053,HierDydm17mqow,yg51qpjgem,ms1000202,motor,,70,img/motor_4.png,70,motor,4,218,1,0,0,,
null,,367165,HierDydm17mqow,yg51qpjgem,ms1000202,iti,,null,img/motor_4.png,70,motor,,,,,,,
685,,367861,HierDydm17mqow,yg51qpjgem,ms1000202,motor,,75,img/motor_7.png,75,motor,7,219,1,0,0,,
null,,367973,HierDydm17mqow,yg51qpjgem,ms1000202,iti,,null,img/motor_7.png,75,motor,,,,,,,
550,,368533,HierDydm17mqow,yg51qpjgem,ms1000202,motor,,75,img/motor_7.png,75,motor,7,220,1,0,0,,
19,,368645,HierDydm17mqow,yg51qpjgem,ms1000202,iti,,74,img/motor_7.png,75,motor,,,,,,,
702,,369359,HierDydm17mqow,yg51qpjgem,ms1000202,motor,,83,img/motor_2.png,83,motor,2,221,1,0,0,,
null,,369470,HierDydm17mqow,yg51qpjgem,ms1000202,iti,,null,img/motor_2.png,83,motor,,,,,,,
568,,370048,HierDydm17mqow,yg51qpjgem,ms1000202,motor,,70,img/motor_4.png,70,motor,4,222,1,0,0,,
null,,370161,HierDydm17mqow,yg51qpjgem,ms1000202,iti,,null,img/motor_4.png,70,motor,,,,,,,
763,,370936,HierDydm17mqow,yg51qpjgem,ms1000202,motor,,68,img/motor_3.png,68,motor,3,223,1,0,0,,
null,,371047,HierDydm17mqow,yg51qpjgem,ms1000202,iti,,null,img/motor_3.png,68,motor,,,,,,,
538,,371595,HierDydm17mqow,yg51qpjgem,ms1000202,motor,,75,img/motor_7.png,75,motor,7,224,1,0,0,,
45,,371707,HierDydm17mqow,yg51qpjgem,ms1000202,iti,,74,img/motor_7.png,75,motor,,,,,,,
825,,372544,HierDydm17mqow,yg51qpjgem,ms1000202,motor,,76,img/motor_8.png,76,motor,8,225,1,0,0,,
null,,372655,HierDydm17mqow,yg51qpjgem,ms1000202,iti,,null,img/motor_8.png,76,motor,,,,,,,
564,,373231,HierDydm17mqow,yg51qpjgem,ms1000202,motor,,75,img/motor_7.png,75,motor,7,226,1,0,0,,
null,,373343,HierDydm17mqow,yg51qpjgem,ms1000202,iti,,null,img/motor_7.png,75,motor,,,,,,,
450,,373803,HierDydm17mqow,yg51qpjgem,ms1000202,motor,,75,img/motor_7.png,75,motor,7,227,1,0,0,,
null,,373914,HierDydm17mqow,yg51qpjgem,ms1000202,iti,,null,img/motor_7.png,75,motor,,,,,,,
531,,374455,HierDydm17mqow,yg51qpjgem,ms1000202,motor,,74,img/motor_6.png,74,motor,6,228,1,0,0,,
null,,374567,HierDydm17mqow,yg51qpjgem,ms1000202,iti,,null,img/motor_6.png,74,motor,,,,,,,
489,,375067,HierDydm17mqow,yg51qpjgem,ms1000202,motor,,74,img/motor_6.png,74,motor,6,229,1,0,0,,
null,,375179,HierDydm17mqow,yg51qpjgem,ms1000202,iti,,null,img/motor_6.png,74,motor,,,,,,,
712,,375902,HierDydm17mqow,yg51qpjgem,ms1000202,motor,,65,img/motor_1.png,65,motor,1,230,1,0,0,,
null,,376014,HierDydm17mqow,yg51qpjgem,ms1000202,iti,,null,img/motor_1.png,65,motor,,,,,,,
580,,376606,HierDydm17mqow,yg51qpjgem,ms1000202,motor,,74,img/motor_6.png,74,motor,6,231,1,0,0,,
null,,376717,HierDydm17mqow,yg51qpjgem,ms1000202,iti,,null,img/motor_6.png,74,motor,,,,,,,
1110,,377839,HierDydm17mqow,yg51qpjgem,ms1000202,motor,,68,img/motor_3.png,68,motor,3,232,1,0,0,,
null,,377951,HierDydm17mqow,yg51qpjgem,ms1000202,iti,,null,img/motor_3.png,68,motor,,,,,,,
866,,378827,HierDydm17mqow,yg51qpjgem,ms1000202,motor,,72,img/motor_5.png,72,motor,5,233,1,0,0,,
null,,378939,HierDydm17mqow,yg51qpjgem,ms1000202,iti,,null,img/motor_5.png,72,motor,,,,,,,
519,,379468,HierDydm17mqow,yg51qpjgem,ms1000202,motor,,70,img/motor_4.png,70,motor,4,234,1,0,0,,
null,,379581,HierDydm17mqow,yg51qpjgem,ms1000202,iti,,null,img/motor_4.png,70,motor,,,,,,,
986,,380577,HierDydm17mqow,yg51qpjgem,ms1000202,motor,,76,img/motor_8.png,76,motor,8,235,1,0,0,,
null,,380689,HierDydm17mqow,yg51qpjgem,ms1000202,iti,,null,img/motor_8.png,76,motor,,,,,,,
948,,381647,HierDydm17mqow,yg51qpjgem,ms1000202,motor,,68,img/motor_3.png,68,motor,3,236,1,0,0,,
null,,381758,HierDydm17mqow,yg51qpjgem,ms1000202,iti,,null,img/motor_3.png,68,motor,,,,,,,
670,,382439,HierDydm17mqow,yg51qpjgem,ms1000202,motor,,72,img/motor_5.png,72,motor,5,237,1,0,0,,
null,,382551,HierDydm17mqow,yg51qpjgem,ms1000202,iti,,null,img/motor_5.png,72,motor,,,,,,,
491,,383053,HierDydm17mqow,yg51qpjgem,ms1000202,motor,,74,img/motor_6.png,74,motor,6,238,1,0,0,,
null,,383165,HierDydm17mqow,yg51qpjgem,ms1000202,iti,,null,img/motor_6.png,74,motor,,,,,,,
777,,383954,HierDydm17mqow,yg51qpjgem,ms1000202,motor,,68,img/motor_3.png,68,motor,3,239,1,0,0,,
null,,384064,HierDydm17mqow,yg51qpjgem,ms1000202,iti,,null,img/motor_3.png,68,motor,,,,,,,
608,,384684,HierDydm17mqow,yg51qpjgem,ms1000202,motor,,74,img/motor_6.png,74,motor,6,240,1,0,0,,
null,,384795,HierDydm17mqow,yg51qpjgem,ms1000202,iti,,null,img/motor_6.png,74,motor,,,,,,,
608,,385415,HierDydm17mqow,yg51qpjgem,ms1000202,motor,,83,img/motor_2.png,83,motor,2,241,1,0,0,,
null,,385527,HierDydm17mqow,yg51qpjgem,ms1000202,iti,,null,img/motor_2.png,83,motor,,,,,,,
762,,386299,HierDydm17mqow,yg51qpjgem,ms1000202,motor,,70,img/motor_4.png,70,motor,4,242,1,0,0,,
null,,386411,HierDydm17mqow,yg51qpjgem,ms1000202,iti,,null,img/motor_4.png,70,motor,,,,,,,
425,,386847,HierDydm17mqow,yg51qpjgem,ms1000202,motor,,70,img/motor_4.png,70,motor,4,243,1,0,0,,
null,,386958,HierDydm17mqow,yg51qpjgem,ms1000202,iti,,null,img/motor_4.png,70,motor,,,,,,,
619,,387587,HierDydm17mqow,yg51qpjgem,ms1000202,motor,,68,img/motor_3.png,68,motor,3,244,1,0,0,,
null,,387700,HierDydm17mqow,yg51qpjgem,ms1000202,iti,,null,img/motor_3.png,68,motor,,,,,,,
637,,388347,HierDydm17mqow,yg51qpjgem,ms1000202,motor,,70,img/motor_4.png,70,motor,4,245,1,0,0,,
null,,388459,HierDydm17mqow,yg51qpjgem,ms1000202,iti,,null,img/motor_4.png,70,motor,,,,,,,
528,,388998,HierDydm17mqow,yg51qpjgem,ms1000202,motor,,74,img/motor_6.png,74,motor,6,246,1,0,0,,
null,,389110,HierDydm17mqow,yg51qpjgem,ms1000202,iti,,null,img/motor_6.png,74,motor,,,,,,,
644,,389765,HierDydm17mqow,yg51qpjgem,ms1000202,motor,,65,img/motor_1.png,65,motor,1,247,1,0,0,,
null,,389877,HierDydm17mqow,yg51qpjgem,ms1000202,iti,,null,img/motor_1.png,65,motor,,,,,,,
536,,390424,HierDydm17mqow,yg51qpjgem,ms1000202,motor,,76,img/motor_8.png,76,motor,8,248,1,0,0,,
null,,390535,HierDydm17mqow,yg51qpjgem,ms1000202,iti,,null,img/motor_8.png,76,motor,,,,,,,
682,,391228,HierDydm17mqow,yg51qpjgem,ms1000202,motor,,68,img/motor_3.png,68,motor,3,249,1,0,0,,
null,,391339,HierDydm17mqow,yg51qpjgem,ms1000202,iti,,null,img/motor_3.png,68,motor,,,,,,,
754,,392104,HierDydm17mqow,yg51qpjgem,ms1000202,motor,,75,img/motor_7.png,75,motor,7,250,1,0,0,,
null,,392217,HierDydm17mqow,yg51qpjgem,ms1000202,iti,,null,img/motor_7.png,75,motor,,,,,,,
937,,393163,HierDydm17mqow,yg51qpjgem,ms1000202,motor,,68,img/motor_3.png,68,motor,3,251,1,0,0,,
null,,393275,HierDydm17mqow,yg51qpjgem,ms1000202,iti,,null,img/motor_3.png,68,motor,,,,,,,
800,,394087,HierDydm17mqow,yg51qpjgem,ms1000202,motor,,83,img/motor_2.png,83,motor,2,252,1,0,0,,
null,,394199,HierDydm17mqow,yg51qpjgem,ms1000202,iti,,null,img/motor_2.png,83,motor,,,,,,,
1329,,395538,HierDydm17mqow,yg51qpjgem,ms1000202,motor,,75,img/motor_7.png,75,motor,7,253,1,0,0,,
null,,395650,HierDydm17mqow,yg51qpjgem,ms1000202,iti,,null,img/motor_7.png,75,motor,,,,,,,
686,,396346,HierDydm17mqow,yg51qpjgem,ms1000202,motor,,83,img/motor_2.png,83,motor,2,254,1,0,0,,
null,,396458,HierDydm17mqow,yg51qpjgem,ms1000202,iti,,null,img/motor_2.png,83,motor,,,,,,,
674,,397142,HierDydm17mqow,yg51qpjgem,ms1000202,motor,,75,img/motor_7.png,75,motor,7,255,1,0,0,,
null,,397254,HierDydm17mqow,yg51qpjgem,ms1000202,iti,,null,img/motor_7.png,75,motor,,,,,,,
707,,397972,HierDydm17mqow,yg51qpjgem,ms1000202,motor,,76,img/motor_8.png,76,motor,8,256,1,0,0,,
null,,398083,HierDydm17mqow,yg51qpjgem,ms1000202,iti,,null,img/motor_8.png,76,motor,,,,,,,
565,,398659,HierDydm17mqow,yg51qpjgem,ms1000202,motor,,65,img/motor_1.png,65,motor,1,257,1,0,0,,
null,,398771,HierDydm17mqow,yg51qpjgem,ms1000202,iti,,null,img/motor_1.png,65,motor,,,,,,,
900,,399682,HierDydm17mqow,yg51qpjgem,ms1000202,motor,,76,img/motor_8.png,76,motor,8,258,1,0,0,,
null,,399793,HierDydm17mqow,yg51qpjgem,ms1000202,iti,,null,img/motor_8.png,76,motor,,,,,,,
652,,400457,HierDydm17mqow,yg51qpjgem,ms1000202,motor,,70,img/motor_4.png,70,motor,4,259,1,0,0,,
null,,400568,HierDydm17mqow,yg51qpjgem,ms1000202,iti,,null,img/motor_4.png,70,motor,,,,,,,
633,,401213,HierDydm17mqow,yg51qpjgem,ms1000202,motor,,83,img/motor_2.png,83,motor,2,260,1,0,0,,
null,,401325,HierDydm17mqow,yg51qpjgem,ms1000202,iti,,null,img/motor_2.png,83,motor,,,,,,,
604,,401939,HierDydm17mqow,yg51qpjgem,ms1000202,motor,,74,img/motor_6.png,74,motor,6,261,1,0,0,,
null,,402051,HierDydm17mqow,yg51qpjgem,ms1000202,iti,,null,img/motor_6.png,74,motor,,,,,,,
620,,402683,HierDydm17mqow,yg51qpjgem,ms1000202,motor,,65,img/motor_1.png,65,motor,1,262,1,0,0,,
null,,402793,HierDydm17mqow,yg51qpjgem,ms1000202,iti,,null,img/motor_1.png,65,motor,,,,,,,
781,,403586,HierDydm17mqow,yg51qpjgem,ms1000202,motor,,75,img/motor_7.png,75,motor,7,263,1,0,0,,
null,,403698,HierDydm17mqow,yg51qpjgem,ms1000202,iti,,null,img/motor_7.png,75,motor,,,,,,,
499,,404208,HierDydm17mqow,yg51qpjgem,ms1000202,motor,,76,img/motor_8.png,76,motor,8,264,1,0,0,,
null,,404320,HierDydm17mqow,yg51qpjgem,ms1000202,iti,,null,img/motor_8.png,76,motor,,,,,,,
940,,405272,HierDydm17mqow,yg51qpjgem,ms1000202,motor,,76,img/motor_8.png,76,motor,8,265,1,0,0,,
null,,405383,HierDydm17mqow,yg51qpjgem,ms1000202,iti,,null,img/motor_8.png,76,motor,,,,,,,
556,,405949,HierDydm17mqow,yg51qpjgem,ms1000202,motor,,70,img/motor_4.png,70,motor,4,266,1,0,0,,
null,,406060,HierDydm17mqow,yg51qpjgem,ms1000202,iti,,null,img/motor_4.png,70,motor,,,,,,,
736,,406807,HierDydm17mqow,yg51qpjgem,ms1000202,motor,,76,img/motor_7.png,75,motor,7,267,0,1,0,,
391,,407208,HierDydm17mqow,yg51qpjgem,ms1000202,motorRepeat,,75,img/motor_7.png,75,motor,7,267,1,0,0,,
null,,407320,HierDydm17mqow,yg51qpjgem,ms1000202,iti,,null,img/motor_7.png,75,motor,,,,,,,
571,,407902,HierDydm17mqow,yg51qpjgem,ms1000202,motor,,65,img/motor_1.png,65,motor,1,268,1,0,0,,
null,,408013,HierDydm17mqow,yg51qpjgem,ms1000202,iti,,null,img/motor_1.png,65,motor,,,,,,,
1057,,409081,HierDydm17mqow,yg51qpjgem,ms1000202,motor,,72,img/motor_5.png,72,motor,5,269,1,0,0,,
null,,409192,HierDydm17mqow,yg51qpjgem,ms1000202,iti,,null,img/motor_5.png,72,motor,,,,,,,
581,,409783,HierDydm17mqow,yg51qpjgem,ms1000202,motor,,75,img/motor_7.png,75,motor,7,270,1,0,0,,
null,,409895,HierDydm17mqow,yg51qpjgem,ms1000202,iti,,null,img/motor_7.png,75,motor,,,,,,,
655,,410561,HierDydm17mqow,yg51qpjgem,ms1000202,motor,,72,img/motor_5.png,72,motor,5,271,1,0,0,,
null,,410672,HierDydm17mqow,yg51qpjgem,ms1000202,iti,,null,img/motor_5.png,72,motor,,,,,,,
754,,411436,HierDydm17mqow,yg51qpjgem,ms1000202,motor,,68,img/motor_3.png,68,motor,3,272,1,0,0,,
null,,411549,HierDydm17mqow,yg51qpjgem,ms1000202,iti,,null,img/motor_3.png,68,motor,,,,,,,
813,,412372,HierDydm17mqow,yg51qpjgem,ms1000202,motor,,68,img/motor_3.png,68,motor,3,273,1,0,0,,
null,,412484,HierDydm17mqow,yg51qpjgem,ms1000202,iti,,null,img/motor_3.png,68,motor,,,,,,,
1038,,413533,HierDydm17mqow,yg51qpjgem,ms1000202,motor,,76,img/motor_8.png,76,motor,8,274,1,0,0,,
null,,413644,HierDydm17mqow,yg51qpjgem,ms1000202,iti,,null,img/motor_8.png,76,motor,,,,,,,
554,,414210,HierDydm17mqow,yg51qpjgem,ms1000202,motor,,74,img/motor_6.png,74,motor,6,275,1,0,0,,
null,,414321,HierDydm17mqow,yg51qpjgem,ms1000202,iti,,null,img/motor_6.png,74,motor,,,,,,,
606,,414938,HierDydm17mqow,yg51qpjgem,ms1000202,motor,,75,img/motor_7.png,75,motor,7,276,1,0,0,,
null,,415051,HierDydm17mqow,yg51qpjgem,ms1000202,iti,,null,img/motor_7.png,75,motor,,,,,,,
555,,415616,HierDydm17mqow,yg51qpjgem,ms1000202,motor,,65,img/motor_1.png,65,motor,1,277,1,0,0,,
null,,415728,HierDydm17mqow,yg51qpjgem,ms1000202,iti,,null,img/motor_1.png,65,motor,,,,,,,
690,,416427,HierDydm17mqow,yg51qpjgem,ms1000202,motor,,70,img/motor_4.png,70,motor,4,278,1,0,0,,
null,,416539,HierDydm17mqow,yg51qpjgem,ms1000202,iti,,null,img/motor_4.png,70,motor,,,,,,,
556,,417106,HierDydm17mqow,yg51qpjgem,ms1000202,motor,,68,img/motor_3.png,68,motor,3,279,1,0,0,,
null,,417218,HierDydm17mqow,yg51qpjgem,ms1000202,iti,,null,img/motor_3.png,68,motor,,,,,,,
555,,417783,HierDydm17mqow,yg51qpjgem,ms1000202,motor,,70,img/motor_4.png,70,motor,4,280,1,0,0,,
null,,417895,HierDydm17mqow,yg51qpjgem,ms1000202,iti,,null,img/motor_4.png,70,motor,,,,,,,
631,,418535,HierDydm17mqow,yg51qpjgem,ms1000202,motor,,65,img/motor_1.png,65,motor,1,281,1,0,0,,
null,,418648,HierDydm17mqow,yg51qpjgem,ms1000202,iti,,null,img/motor_1.png,65,motor,,,,,,,
1362,,420020,HierDydm17mqow,yg51qpjgem,ms1000202,motor,,68,img/motor_3.png,68,motor,3,282,1,0,0,,
null,,420133,HierDydm17mqow,yg51qpjgem,ms1000202,iti,,null,img/motor_3.png,68,motor,,,,,,,
648,,420792,HierDydm17mqow,yg51qpjgem,ms1000202,motor,,74,img/motor_6.png,74,motor,6,283,1,0,0,,
null,,420905,HierDydm17mqow,yg51qpjgem,ms1000202,iti,,null,img/motor_6.png,74,motor,,,,,,,
621,,421537,HierDydm17mqow,yg51qpjgem,ms1000202,motor,,75,img/motor_7.png,75,motor,7,284,1,0,0,,
null,,421648,HierDydm17mqow,yg51qpjgem,ms1000202,iti,,null,img/motor_7.png,75,motor,,,,,,,
659,,422322,HierDydm17mqow,yg51qpjgem,ms1000202,motor,,70,img/motor_4.png,70,motor,4,285,1,0,0,,
null,,422433,HierDydm17mqow,yg51qpjgem,ms1000202,iti,,null,img/motor_4.png,70,motor,,,,,,,
1266,,423709,HierDydm17mqow,yg51qpjgem,ms1000202,motor,,75,img/motor_7.png,75,motor,7,286,1,0,0,,
null,,423820,HierDydm17mqow,yg51qpjgem,ms1000202,iti,,null,img/motor_7.png,75,motor,,,,,,,
750,,424582,HierDydm17mqow,yg51qpjgem,ms1000202,motor,,65,img/motor_1.png,65,motor,1,287,1,0,0,,
null,,424694,HierDydm17mqow,yg51qpjgem,ms1000202,iti,,null,img/motor_1.png,65,motor,,,,,,,
80,,424784,HierDydm17mqow,yg51qpjgem,ms1000202,motor,,65,img/motor_2.png,83,motor,2,288,0,1,0,,
600,,425396,HierDydm17mqow,yg51qpjgem,ms1000202,motorRepeat,,83,img/motor_2.png,83,motor,2,288,1,0,0,,
null,,425508,HierDydm17mqow,yg51qpjgem,ms1000202,iti,,null,img/motor_2.png,83,motor,,,,,,,
987,,426507,HierDydm17mqow,yg51qpjgem,ms1000202,motor,,83,img/motor_2.png,83,motor,2,289,1,0,0,,
null,,426619,HierDydm17mqow,yg51qpjgem,ms1000202,iti,,null,img/motor_2.png,83,motor,,,,,,,
820,,427450,HierDydm17mqow,yg51qpjgem,ms1000202,motor,,72,img/motor_5.png,72,motor,5,290,1,0,0,,
null,,427561,HierDydm17mqow,yg51qpjgem,ms1000202,iti,,null,img/motor_5.png,72,motor,,,,,,,
965,,428537,HierDydm17mqow,yg51qpjgem,ms1000202,motor,,83,img/motor_2.png,83,motor,2,291,1,0,0,,
null,,428649,HierDydm17mqow,yg51qpjgem,ms1000202,iti,,null,img/motor_2.png,83,motor,,,,,,,
640,,429301,HierDydm17mqow,yg51qpjgem,ms1000202,motor,,65,img/motor_1.png,65,motor,1,292,1,0,0,,
null,,429413,HierDydm17mqow,yg51qpjgem,ms1000202,iti,,null,img/motor_1.png,65,motor,,,,,,,
695,,430119,HierDydm17mqow,yg51qpjgem,ms1000202,motor,,68,img/motor_3.png,68,motor,3,293,1,0,0,,
null,,430232,HierDydm17mqow,yg51qpjgem,ms1000202,iti,,null,img/motor_3.png,68,motor,,,,,,,
568,,430812,HierDydm17mqow,yg51qpjgem,ms1000202,motor,,76,img/motor_8.png,76,motor,8,294,1,0,0,,
null,,430923,HierDydm17mqow,yg51qpjgem,ms1000202,iti,,null,img/motor_8.png,76,motor,,,,,,,
604,,431539,HierDydm17mqow,yg51qpjgem,ms1000202,motor,,65,img/motor_1.png,65,motor,1,295,1,0,0,,
null,,431650,HierDydm17mqow,yg51qpjgem,ms1000202,iti,,null,img/motor_1.png,65,motor,,,,,,,
535,,432198,HierDydm17mqow,yg51qpjgem,ms1000202,motor,,68,img/motor_2.png,83,motor,2,296,0,1,0,,
378,,432588,HierDydm17mqow,yg51qpjgem,ms1000202,motorRepeat,,83,img/motor_2.png,83,motor,2,296,1,0,0,,
null,,432699,HierDydm17mqow,yg51qpjgem,ms1000202,iti,,null,img/motor_2.png,83,motor,,,,,,,
585,,433295,HierDydm17mqow,yg51qpjgem,ms1000202,motor,,65,img/motor_1.png,65,motor,1,297,1,0,0,,
null,,433406,HierDydm17mqow,yg51qpjgem,ms1000202,iti,,null,img/motor_1.png,65,motor,,,,,,,
721,,434138,HierDydm17mqow,yg51qpjgem,ms1000202,motor,,72,img/motor_5.png,72,motor,5,298,1,0,0,,
null,,434251,HierDydm17mqow,yg51qpjgem,ms1000202,iti,,null,img/motor_5.png,72,motor,,,,,,,
615,,434877,HierDydm17mqow,yg51qpjgem,ms1000202,motor,,65,img/motor_1.png,65,motor,1,299,1,0,0,,
null,,434990,HierDydm17mqow,yg51qpjgem,ms1000202,iti,,null,img/motor_1.png,65,motor,,,,,,,
495,,435494,HierDydm17mqow,yg51qpjgem,ms1000202,motor,,76,img/motor_8.png,76,motor,8,300,1,0,0,,
null,,435606,HierDydm17mqow,yg51qpjgem,ms1000202,iti,,null,img/motor_8.png,76,motor,,,,,,,
475,,436092,HierDydm17mqow,yg51qpjgem,ms1000202,motor,,65,img/motor_1.png,65,motor,1,301,1,0,0,,
null,,436205,HierDydm17mqow,yg51qpjgem,ms1000202,iti,,null,img/motor_1.png,65,motor,,,,,,,
632,,436847,HierDydm17mqow,yg51qpjgem,ms1000202,motor,,83,img/motor_2.png,83,motor,2,302,1,0,0,,
null,,436960,HierDydm17mqow,yg51qpjgem,ms1000202,iti,,null,img/motor_2.png,83,motor,,,,,,,
837,,437808,HierDydm17mqow,yg51qpjgem,ms1000202,motor,,70,img/motor_4.png,70,motor,4,303,1,0,0,,
null,,437919,HierDydm17mqow,yg51qpjgem,ms1000202,iti,,null,img/motor_4.png,70,motor,,,,,,,
571,,438499,HierDydm17mqow,yg51qpjgem,ms1000202,motor,,68,img/motor_3.png,68,motor,3,304,1,0,0,,
null,,438611,HierDydm17mqow,yg51qpjgem,ms1000202,iti,,null,img/motor_3.png,68,motor,,,,,,,
479,,439102,HierDydm17mqow,yg51qpjgem,ms1000202,motor,,68,img/motor_3.png,68,motor,3,305,1,0,0,,
null,,439215,HierDydm17mqow,yg51qpjgem,ms1000202,iti,,null,img/motor_3.png,68,motor,,,,,,,
588,,439814,HierDydm17mqow,yg51qpjgem,ms1000202,motor,,83,img/motor_2.png,83,motor,2,306,1,0,0,,
null,,439924,HierDydm17mqow,yg51qpjgem,ms1000202,iti,,null,img/motor_2.png,83,motor,,,,,,,
705,,440641,HierDydm17mqow,yg51qpjgem,ms1000202,motor,,75,img/motor_7.png,75,motor,7,307,1,0,0,,
null,,440753,HierDydm17mqow,yg51qpjgem,ms1000202,iti,,null,img/motor_7.png,75,motor,,,,,,,
631,,441396,HierDydm17mqow,yg51qpjgem,ms1000202,motor,,76,img/motor_8.png,76,motor,8,308,1,0,0,,
null,,441507,HierDydm17mqow,yg51qpjgem,ms1000202,iti,,null,img/motor_8.png,76,motor,,,,,,,
790,,442308,HierDydm17mqow,yg51qpjgem,ms1000202,motor,,70,img/motor_4.png,70,motor,4,309,1,0,0,,
null,,442420,HierDydm17mqow,yg51qpjgem,ms1000202,iti,,null,img/motor_4.png,70,motor,,,,,,,
535,,442966,HierDydm17mqow,yg51qpjgem,ms1000202,motor,,68,img/motor_3.png,68,motor,3,310,1,0,0,,
null,,443077,HierDydm17mqow,yg51qpjgem,ms1000202,iti,,null,img/motor_3.png,68,motor,,,,,,,
651,,443740,HierDydm17mqow,yg51qpjgem,ms1000202,motor,,74,img/motor_6.png,74,motor,6,311,1,0,0,,
null,,443852,HierDydm17mqow,yg51qpjgem,ms1000202,iti,,null,img/motor_6.png,74,motor,,,,,,,
543,,444405,HierDydm17mqow,yg51qpjgem,ms1000202,motor,,76,img/motor_8.png,76,motor,8,312,1,0,0,,
null,,444516,HierDydm17mqow,yg51qpjgem,ms1000202,iti,,null,img/motor_8.png,76,motor,,,,,,,
681,,445210,HierDydm17mqow,yg51qpjgem,ms1000202,motor,,68,img/motor_2.png,83,motor,2,313,0,1,0,,
390,,445611,HierDydm17mqow,yg51qpjgem,ms1000202,motorRepeat,,83,img/motor_2.png,83,motor,2,313,1,0,0,,
null,,445723,HierDydm17mqow,yg51qpjgem,ms1000202,iti,,null,img/motor_2.png,83,motor,,,,,,,
669,,446402,HierDydm17mqow,yg51qpjgem,ms1000202,motor,,65,img/motor_1.png,65,motor,1,314,1,0,0,,
null,,446513,HierDydm17mqow,yg51qpjgem,ms1000202,iti,,null,img/motor_1.png,65,motor,,,,,,,
526,,447049,HierDydm17mqow,yg51qpjgem,ms1000202,motor,,68,img/motor_3.png,68,motor,3,315,1,0,0,,
null,,447160,HierDydm17mqow,yg51qpjgem,ms1000202,iti,,null,img/motor_3.png,68,motor,,,,,,,
602,,447774,HierDydm17mqow,yg51qpjgem,ms1000202,motor,,76,img/motor_8.png,76,motor,8,316,1,0,0,,
null,,447886,HierDydm17mqow,yg51qpjgem,ms1000202,iti,,null,img/motor_8.png,76,motor,,,,,,,
729,,448625,HierDydm17mqow,yg51qpjgem,ms1000202,motor,,70,img/motor_4.png,70,motor,4,317,1,0,0,,
null,,448736,HierDydm17mqow,yg51qpjgem,ms1000202,iti,,null,img/motor_4.png,70,motor,,,,,,,
857,,449604,HierDydm17mqow,yg51qpjgem,ms1000202,motor,,74,img/motor_6.png,74,motor,6,318,1,0,0,,
null,,449716,HierDydm17mqow,yg51qpjgem,ms1000202,iti,,null,img/motor_6.png,74,motor,,,,,,,
455,,450181,HierDydm17mqow,yg51qpjgem,ms1000202,motor,,76,img/motor_8.png,76,motor,8,319,1,0,0,,
null,,450294,HierDydm17mqow,yg51qpjgem,ms1000202,iti,,null,img/motor_8.png,76,motor,,,,,,,
655,,450959,HierDydm17mqow,yg51qpjgem,ms1000202,motor,,75,img/motor_7.png,75,motor,7,320,1,0,0,,
null,,451071,HierDydm17mqow,yg51qpjgem,ms1000202,iti,,null,img/motor_7.png,75,motor,,,,,,,
645,,451729,HierDydm17mqow,yg51qpjgem,ms1000202,motor,,72,img/motor_5.png,72,motor,5,321,1,0,0,,
null,,451839,HierDydm17mqow,yg51qpjgem,ms1000202,iti,,null,img/motor_5.png,72,motor,,,,,,,
555,,452405,HierDydm17mqow,yg51qpjgem,ms1000202,motor,,75,img/motor_7.png,75,motor,7,322,1,0,0,,
null,,452517,HierDydm17mqow,yg51qpjgem,ms1000202,iti,,null,img/motor_7.png,75,motor,,,,,,,
512,,453041,HierDydm17mqow,yg51qpjgem,ms1000202,motor,,65,img/motor_1.png,65,motor,1,323,1,0,0,,
null,,453153,HierDydm17mqow,yg51qpjgem,ms1000202,iti,,null,img/motor_1.png,65,motor,,,,,,,
826,,453990,HierDydm17mqow,yg51qpjgem,ms1000202,motor,,70,img/motor_4.png,70,motor,4,324,1,0,0,,
null,,454100,HierDydm17mqow,yg51qpjgem,ms1000202,iti,,null,img/motor_4.png,70,motor,,,,,,,
553,,454665,HierDydm17mqow,yg51qpjgem,ms1000202,motor,,65,img/motor_1.png,65,motor,1,325,1,0,0,,
null,,454777,HierDydm17mqow,yg51qpjgem,ms1000202,iti,,null,img/motor_1.png,65,motor,,,,,,,
426,,455214,HierDydm17mqow,yg51qpjgem,ms1000202,motor,,70,img/motor_4.png,70,motor,4,326,1,0,0,,
null,,455326,HierDydm17mqow,yg51qpjgem,ms1000202,iti,,null,img/motor_4.png,70,motor,,,,,,,
465,,455801,HierDydm17mqow,yg51qpjgem,ms1000202,motor,,76,img/motor_8.png,76,motor,8,327,1,0,0,,
null,,455912,HierDydm17mqow,yg51qpjgem,ms1000202,iti,,null,img/motor_8.png,76,motor,,,,,,,
492,,456415,HierDydm17mqow,yg51qpjgem,ms1000202,motor,,65,img/motor_1.png,65,motor,1,328,1,0,0,,
null,,456526,HierDydm17mqow,yg51qpjgem,ms1000202,iti,,null,img/motor_1.png,65,motor,,,,,,,
714,,457253,HierDydm17mqow,yg51qpjgem,ms1000202,motor,,83,img/motor_2.png,83,motor,2,329,1,0,0,,
null,,457364,HierDydm17mqow,yg51qpjgem,ms1000202,iti,,null,img/motor_2.png,83,motor,,,,,,,
395,,457769,HierDydm17mqow,yg51qpjgem,ms1000202,motor,,76,img/motor_8.png,76,motor,8,330,1,0,0,,
null,,457882,HierDydm17mqow,yg51qpjgem,ms1000202,iti,,null,img/motor_8.png,76,motor,,,,,,,
554,,458447,HierDydm17mqow,yg51qpjgem,ms1000202,motor,,76,img/motor_8.png,76,motor,8,331,1,0,0,,
null,,458558,HierDydm17mqow,yg51qpjgem,ms1000202,iti,,null,img/motor_8.png,76,motor,,,,,,,
520,,459091,HierDydm17mqow,yg51qpjgem,ms1000202,motor,,74,img/motor_6.png,74,motor,6,332,1,0,0,,
null,,459203,HierDydm17mqow,yg51qpjgem,ms1000202,iti,,null,img/motor_6.png,74,motor,,,,,,,
815,,460031,HierDydm17mqow,yg51qpjgem,ms1000202,motor,,75,img/motor_7.png,75,motor,7,333,1,0,0,,
null,,460142,HierDydm17mqow,yg51qpjgem,ms1000202,iti,,null,img/motor_7.png,75,motor,,,,,,,
667,,460820,HierDydm17mqow,yg51qpjgem,ms1000202,motor,,72,img/motor_5.png,72,motor,5,334,1,0,0,,
null,,460932,HierDydm17mqow,yg51qpjgem,ms1000202,iti,,null,img/motor_5.png,72,motor,,,,,,,
530,,461472,HierDydm17mqow,yg51qpjgem,ms1000202,motor,,74,img/motor_6.png,74,motor,6,335,1,0,0,,
null,,461585,HierDydm17mqow,yg51qpjgem,ms1000202,iti,,null,img/motor_6.png,74,motor,,,,,,,
634,,462230,HierDydm17mqow,yg51qpjgem,ms1000202,motor,,70,img/motor_4.png,70,motor,4,336,1,0,0,,
null,,462342,HierDydm17mqow,yg51qpjgem,ms1000202,iti,,null,img/motor_4.png,70,motor,,,,,,,
542,,462895,HierDydm17mqow,yg51qpjgem,ms1000202,motor,,76,img/motor_8.png,76,motor,8,337,1,0,0,,
null,,463007,HierDydm17mqow,yg51qpjgem,ms1000202,iti,,null,img/motor_8.png,76,motor,,,,,,,
744,,463761,HierDydm17mqow,yg51qpjgem,ms1000202,motor,,68,img/motor_3.png,68,motor,3,338,1,0,0,,
null,,463873,HierDydm17mqow,yg51qpjgem,ms1000202,iti,,null,img/motor_3.png,68,motor,,,,,,,
481,,464364,HierDydm17mqow,yg51qpjgem,ms1000202,motor,,83,img/motor_2.png,83,motor,2,339,1,0,0,,
null,,464477,HierDydm17mqow,yg51qpjgem,ms1000202,iti,,null,img/motor_2.png,83,motor,,,,,,,
804,,465292,HierDydm17mqow,yg51qpjgem,ms1000202,motor,,74,img/motor_6.png,74,motor,6,340,1,0,0,,
null,,465403,HierDydm17mqow,yg51qpjgem,ms1000202,iti,,null,img/motor_6.png,74,motor,,,,,,,
651,,466066,HierDydm17mqow,yg51qpjgem,ms1000202,motor,,75,img/motor_7.png,75,motor,7,341,1,0,0,,
null,,466180,HierDydm17mqow,yg51qpjgem,ms1000202,iti,,null,img/motor_7.png,75,motor,,,,,,,
691,,466880,HierDydm17mqow,yg51qpjgem,ms1000202,motor,,83,img/motor_2.png,83,motor,2,342,1,0,0,,
null,,466992,HierDydm17mqow,yg51qpjgem,ms1000202,iti,,null,img/motor_2.png,83,motor,,,,,,,
783,,467787,HierDydm17mqow,yg51qpjgem,ms1000202,motor,,75,img/motor_7.png,75,motor,7,343,1,0,0,,
null,,467899,HierDydm17mqow,yg51qpjgem,ms1000202,iti,,null,img/motor_7.png,75,motor,,,,,,,
811,,468720,HierDydm17mqow,yg51qpjgem,ms1000202,motor,,75,img/motor_7.png,75,motor,7,344,1,0,0,,
null,,468832,HierDydm17mqow,yg51qpjgem,ms1000202,iti,,null,img/motor_7.png,75,motor,,,,,,,
836,,469680,HierDydm17mqow,yg51qpjgem,ms1000202,motor,,72,img/motor_5.png,72,motor,5,345,1,0,0,,
null,,469791,HierDydm17mqow,yg51qpjgem,ms1000202,iti,,null,img/motor_5.png,72,motor,,,,,,,
415,,470216,HierDydm17mqow,yg51qpjgem,ms1000202,motor,,75,img/motor_7.png,75,motor,7,346,1,0,0,,
null,,470327,HierDydm17mqow,yg51qpjgem,ms1000202,iti,,null,img/motor_7.png,75,motor,,,,,,,
771,,471110,HierDydm17mqow,yg51qpjgem,ms1000202,motor,,72,img/motor_5.png,72,motor,5,347,1,0,0,,
null,,471222,HierDydm17mqow,yg51qpjgem,ms1000202,iti,,null,img/motor_5.png,72,motor,,,,,,,
473,,471705,HierDydm17mqow,yg51qpjgem,ms1000202,motor,,72,img/motor_5.png,72,motor,5,348,1,0,0,,
null,,471817,HierDydm17mqow,yg51qpjgem,ms1000202,iti,,null,img/motor_5.png,72,motor,,,,,,,
620,,472449,HierDydm17mqow,yg51qpjgem,ms1000202,motor,,76,img/motor_8.png,76,motor,8,349,1,0,0,,
null,,472560,HierDydm17mqow,yg51qpjgem,ms1000202,iti,,null,img/motor_8.png,76,motor,,,,,,,
464,,473037,HierDydm17mqow,yg51qpjgem,ms1000202,motor,,74,img/motor_6.png,74,motor,6,350,1,0,0,,
null,,473149,HierDydm17mqow,yg51qpjgem,ms1000202,iti,,null,img/motor_6.png,74,motor,,,,,,,
1023,,474181,HierDydm17mqow,yg51qpjgem,ms1000202,motor,,83,img/motor_2.png,83,motor,2,351,1,0,0,,
null,,474294,HierDydm17mqow,yg51qpjgem,ms1000202,iti,,null,img/motor_2.png,83,motor,,,,,,,
674,,474979,HierDydm17mqow,yg51qpjgem,ms1000202,motor,,72,img/motor_5.png,72,motor,5,352,1,0,0,,
null,,475091,HierDydm17mqow,yg51qpjgem,ms1000202,iti,,null,img/motor_5.png,72,motor,,,,,,,
698,,475801,HierDydm17mqow,yg51qpjgem,ms1000202,motor,,70,img/motor_4.png,70,motor,4,353,1,0,0,,
null,,475913,HierDydm17mqow,yg51qpjgem,ms1000202,iti,,null,img/motor_4.png,70,motor,,,,,,,
631,,476556,HierDydm17mqow,yg51qpjgem,ms1000202,motor,,72,img/motor_5.png,72,motor,5,354,1,0,0,,
null,,476667,HierDydm17mqow,yg51qpjgem,ms1000202,iti,,null,img/motor_5.png,72,motor,,,,,,,
528,,477206,HierDydm17mqow,yg51qpjgem,ms1000202,motor,,74,img/motor_6.png,74,motor,6,355,1,0,0,,
null,,477317,HierDydm17mqow,yg51qpjgem,ms1000202,iti,,null,img/motor_6.png,74,motor,,,,,,,
701,,478029,HierDydm17mqow,yg51qpjgem,ms1000202,motor,,76,img/motor_8.png,76,motor,8,356,1,0,0,,
null,,478140,HierDydm17mqow,yg51qpjgem,ms1000202,iti,,null,img/motor_8.png,76,motor,,,,,,,
666,,478818,HierDydm17mqow,yg51qpjgem,ms1000202,motor,,75,img/motor_7.png,75,motor,7,357,1,0,0,,
null,,478930,HierDydm17mqow,yg51qpjgem,ms1000202,iti,,null,img/motor_7.png,75,motor,,,,,,,
545,,479486,HierDydm17mqow,yg51qpjgem,ms1000202,motor,,74,img/motor_6.png,74,motor,6,358,1,0,0,,
null,,479598,HierDydm17mqow,yg51qpjgem,ms1000202,iti,,null,img/motor_6.png,74,motor,,,,,,,
645,,480254,HierDydm17mqow,yg51qpjgem,ms1000202,motor,,83,img/motor_2.png,83,motor,2,359,1,0,0,,
null,,480366,HierDydm17mqow,yg51qpjgem,ms1000202,iti,,null,img/motor_2.png,83,motor,,,,,,,
702,,481080,HierDydm17mqow,yg51qpjgem,ms1000202,motor,,75,img/motor_7.png,75,motor,7,360,1,0,0,,
null,,481193,HierDydm17mqow,yg51qpjgem,ms1000202,iti,,null,img/motor_7.png,75,motor,,,,,,,
1208,,482411,HierDydm17mqow,yg51qpjgem,ms1000202,motor,,68,img/motor_3.png,68,motor,3,361,1,0,0,,
null,,482523,HierDydm17mqow,yg51qpjgem,ms1000202,iti,,null,img/motor_3.png,68,motor,,,,,,,
845,,483379,HierDydm17mqow,yg51qpjgem,ms1000202,motor,,74,img/motor_6.png,74,motor,6,362,1,0,0,,
null,,483491,HierDydm17mqow,yg51qpjgem,ms1000202,iti,,null,img/motor_6.png,74,motor,,,,,,,
666,,484168,HierDydm17mqow,yg51qpjgem,ms1000202,motor,,72,img/motor_5.png,72,motor,5,363,1,0,0,,
null,,484279,HierDydm17mqow,yg51qpjgem,ms1000202,iti,,null,img/motor_5.png,72,motor,,,,,,,
554,,484844,HierDydm17mqow,yg51qpjgem,ms1000202,motor,,68,img/motor_3.png,68,motor,3,364,1,0,0,,
null,,484957,HierDydm17mqow,yg51qpjgem,ms1000202,iti,,null,img/motor_3.png,68,motor,,,,,,,
881,,485851,HierDydm17mqow,yg51qpjgem,ms1000202,motor,,75,img/motor_8.png,76,motor,8,365,0,1,0,,
585,,486446,HierDydm17mqow,yg51qpjgem,ms1000202,motorRepeat,,76,img/motor_8.png,76,motor,8,365,1,0,0,,
null,,486558,HierDydm17mqow,yg51qpjgem,ms1000202,iti,,null,img/motor_8.png,76,motor,,,,,,,
574,,487142,HierDydm17mqow,yg51qpjgem,ms1000202,motor,,68,img/motor_3.png,68,motor,3,366,1,0,0,,
null,,487255,HierDydm17mqow,yg51qpjgem,ms1000202,iti,,null,img/motor_3.png,68,motor,,,,,,,
740,,488006,HierDydm17mqow,yg51qpjgem,ms1000202,motor,,72,img/motor_5.png,72,motor,5,367,1,0,0,,
null,,488118,HierDydm17mqow,yg51qpjgem,ms1000202,iti,,null,img/motor_5.png,72,motor,,,,,,,
530,,488659,HierDydm17mqow,yg51qpjgem,ms1000202,motor,,74,img/motor_6.png,74,motor,6,368,1,0,0,,
null,,488770,HierDydm17mqow,yg51qpjgem,ms1000202,iti,,null,img/motor_6.png,74,motor,,,,,,,
902,,489684,HierDydm17mqow,yg51qpjgem,ms1000202,motor,,70,img/motor_4.png,70,motor,4,369,1,0,0,,
null,,489797,HierDydm17mqow,yg51qpjgem,ms1000202,iti,,null,img/motor_4.png,70,motor,,,,,,,
536,,490343,HierDydm17mqow,yg51qpjgem,ms1000202,motor,,74,img/motor_6.png,74,motor,6,370,1,0,0,,
null,,490455,HierDydm17mqow,yg51qpjgem,ms1000202,iti,,null,img/motor_6.png,74,motor,,,,,,,
629,,491094,HierDydm17mqow,yg51qpjgem,ms1000202,motor,,72,img/motor_5.png,72,motor,5,371,1,0,0,,
null,,491207,HierDydm17mqow,yg51qpjgem,ms1000202,iti,,null,img/motor_5.png,72,motor,,,,,,,
648,,491866,HierDydm17mqow,yg51qpjgem,ms1000202,motor,,83,img/motor_2.png,83,motor,2,372,1,0,0,,
null,,491977,HierDydm17mqow,yg51qpjgem,ms1000202,iti,,null,img/motor_2.png,83,motor,,,,,,,
531,,492520,HierDydm17mqow,yg51qpjgem,ms1000202,motor,,83,img/motor_2.png,83,motor,2,373,1,0,0,,
null,,492631,HierDydm17mqow,yg51qpjgem,ms1000202,iti,,null,img/motor_2.png,83,motor,,,,,,,
636,,493279,HierDydm17mqow,yg51qpjgem,ms1000202,motor,,68,img/motor_3.png,68,motor,3,374,1,0,0,,
null,,493391,HierDydm17mqow,yg51qpjgem,ms1000202,iti,,null,img/motor_3.png,68,motor,,,,,,,
713,,494115,HierDydm17mqow,yg51qpjgem,ms1000202,motor,,65,img/motor_1.png,65,motor,1,375,1,0,0,,
null,,494228,HierDydm17mqow,yg51qpjgem,ms1000202,iti,,null,img/motor_1.png,65,motor,,,,,,,
734,,494972,HierDydm17mqow,yg51qpjgem,ms1000202,motor,,75,img/motor_7.png,75,motor,7,376,1,0,0,,
null,,495085,HierDydm17mqow,yg51qpjgem,ms1000202,iti,,null,img/motor_7.png,75,motor,,,,,,,
594,,495690,HierDydm17mqow,yg51qpjgem,ms1000202,motor,,72,img/motor_5.png,72,motor,5,377,1,0,0,,
null,,495802,HierDydm17mqow,yg51qpjgem,ms1000202,iti,,null,img/motor_5.png,72,motor,,,,,,,
1066,,496879,HierDydm17mqow,yg51qpjgem,ms1000202,motor,,70,img/motor_3.png,68,motor,3,378,0,1,0,,
763,,497652,HierDydm17mqow,yg51qpjgem,ms1000202,motorRepeat,,72,img/motor_3.png,68,motor,3,378,0,1,0,,
636,,498300,HierDydm17mqow,yg51qpjgem,ms1000202,motorRepeat,,68,img/motor_3.png,68,motor,3,378,1,0,0,,
null,,498411,HierDydm17mqow,yg51qpjgem,ms1000202,iti,,null,img/motor_3.png,68,motor,,,,,,,
515,,498938,HierDydm17mqow,yg51qpjgem,ms1000202,motor,,83,img/motor_2.png,83,motor,2,379,1,0,0,,
null,,499049,HierDydm17mqow,yg51qpjgem,ms1000202,iti,,null,img/motor_2.png,83,motor,,,,,,,
519,,499579,HierDydm17mqow,yg51qpjgem,ms1000202,motor,,83,img/motor_2.png,83,motor,2,380,1,0,0,,
null,,499691,HierDydm17mqow,yg51qpjgem,ms1000202,iti,,null,img/motor_2.png,83,motor,,,,,,,
546,,500247,HierDydm17mqow,yg51qpjgem,ms1000202,motor,,65,img/motor_1.png,65,motor,1,381,1,0,0,,
null,,500359,HierDydm17mqow,yg51qpjgem,ms1000202,iti,,null,img/motor_1.png,65,motor,,,,,,,
590,,500960,HierDydm17mqow,yg51qpjgem,ms1000202,motor,,75,img/motor_7.png,75,motor,7,382,1,0,0,,
null,,501072,HierDydm17mqow,yg51qpjgem,ms1000202,iti,,null,img/motor_7.png,75,motor,,,,,,,
559,,501643,HierDydm17mqow,yg51qpjgem,ms1000202,motor,,68,img/motor_3.png,68,motor,3,383,1,0,0,,
null,,501754,HierDydm17mqow,yg51qpjgem,ms1000202,iti,,null,img/motor_3.png,68,motor,,,,,,,
646,,502412,HierDydm17mqow,yg51qpjgem,ms1000202,motor,,70,img/motor_4.png,70,motor,4,384,1,0,0,,
null,,502523,HierDydm17mqow,yg51qpjgem,ms1000202,iti,,null,img/motor_4.png,70,motor,,,,,,,
692,,503227,HierDydm17mqow,yg51qpjgem,ms1000202,motor,,76,img/motor_8.png,76,motor,8,385,1,0,0,,
null,,503339,HierDydm17mqow,yg51qpjgem,ms1000202,iti,,null,img/motor_8.png,76,motor,,,,,,,
470,,503821,HierDydm17mqow,yg51qpjgem,ms1000202,motor,,74,img/motor_6.png,74,motor,6,386,1,0,0,,
null,,503932,HierDydm17mqow,yg51qpjgem,ms1000202,iti,,null,img/motor_6.png,74,motor,,,,,,,
490,,504433,HierDydm17mqow,yg51qpjgem,ms1000202,motor,,74,img/motor_6.png,74,motor,6,387,1,0,0,,
null,,504544,HierDydm17mqow,yg51qpjgem,ms1000202,iti,,null,img/motor_6.png,74,motor,,,,,,,
530,,505085,HierDydm17mqow,yg51qpjgem,ms1000202,motor,,72,img/motor_5.png,72,motor,5,388,1,0,0,,
null,,505196,HierDydm17mqow,yg51qpjgem,ms1000202,iti,,null,img/motor_5.png,72,motor,,,,,,,
401,,505607,HierDydm17mqow,yg51qpjgem,ms1000202,motor,,72,img/motor_5.png,72,motor,5,389,1,0,0,,
null,,505720,HierDydm17mqow,yg51qpjgem,ms1000202,iti,,null,img/motor_5.png,72,motor,,,,,,,
534,,506264,HierDydm17mqow,yg51qpjgem,ms1000202,motor,,70,img/motor_4.png,70,motor,4,390,1,0,0,,
null,,506377,HierDydm17mqow,yg51qpjgem,ms1000202,iti,,null,img/motor_4.png,70,motor,,,,,,,
585,,506973,HierDydm17mqow,yg51qpjgem,ms1000202,motor,,65,img/motor_1.png,65,motor,1,391,1,0,0,,
null,,507085,HierDydm17mqow,yg51qpjgem,ms1000202,iti,,null,img/motor_1.png,65,motor,,,,,,,
721,,507817,HierDydm17mqow,yg51qpjgem,ms1000202,motor,,72,img/motor_5.png,72,motor,5,392,1,0,0,,
null,,507928,HierDydm17mqow,yg51qpjgem,ms1000202,iti,,null,img/motor_5.png,72,motor,,,,,,,
558,,508497,HierDydm17mqow,yg51qpjgem,ms1000202,motor,,76,img/motor_8.png,76,motor,8,393,1,0,0,,
null,,508609,HierDydm17mqow,yg51qpjgem,ms1000202,iti,,null,img/motor_8.png,76,motor,,,,,,,
546,,509166,HierDydm17mqow,yg51qpjgem,ms1000202,motor,,72,img/motor_5.png,72,motor,5,394,1,0,0,,
null,,509278,HierDydm17mqow,yg51qpjgem,ms1000202,iti,,null,img/motor_5.png,72,motor,,,,,,,
820,,510109,HierDydm17mqow,yg51qpjgem,ms1000202,motor,,74,img/motor_7.png,75,motor,7,395,0,1,0,,
291,,510412,HierDydm17mqow,yg51qpjgem,ms1000202,motorRepeat,,75,img/motor_7.png,75,motor,7,395,1,0,0,,
null,,510525,HierDydm17mqow,yg51qpjgem,ms1000202,iti,,null,img/motor_7.png,75,motor,,,,,,,
448,,510981,HierDydm17mqow,yg51qpjgem,ms1000202,motor,,72,img/motor_6.png,74,motor,6,396,0,1,0,,
464,,511455,HierDydm17mqow,yg51qpjgem,ms1000202,motorRepeat,,74,img/motor_6.png,74,motor,6,396,1,0,0,,
null,,511567,HierDydm17mqow,yg51qpjgem,ms1000202,iti,,null,img/motor_6.png,74,motor,,,,,,,
690,,512269,HierDydm17mqow,yg51qpjgem,ms1000202,motor,,70,img/motor_4.png,70,motor,4,397,1,0,0,,
null,,512380,HierDydm17mqow,yg51qpjgem,ms1000202,iti,,null,img/motor_4.png,70,motor,,,,,,,
573,,512964,HierDydm17mqow,yg51qpjgem,ms1000202,motor,,83,img/motor_2.png,83,motor,2,398,1,0,0,,
null,,513076,HierDydm17mqow,yg51qpjgem,ms1000202,iti,,null,img/motor_2.png,83,motor,,,,,,,
372,,513459,HierDydm17mqow,yg51qpjgem,ms1000202,motor,,83,img/motor_2.png,83,motor,2,399,1,0,0,,
null,,513572,HierDydm17mqow,yg51qpjgem,ms1000202,iti,,null,img/motor_2.png,83,motor,,,,,,,
711,,514294,HierDydm17mqow,yg51qpjgem,ms1000202,motor,,74,img/motor_6.png,74,motor,6,400,1,0,0,,
null,,514407,HierDydm17mqow,yg51qpjgem,ms1000202,iti,,null,img/motor_6.png,74,motor,,,,,,,
533,,514952,HierDydm17mqow,yg51qpjgem,ms1000202,motor,,72,img/motor_5.png,72,motor,5,401,1,0,0,,
null,,515063,HierDydm17mqow,yg51qpjgem,ms1000202,iti,,null,img/motor_5.png,72,motor,,,,,,,
686,,515760,HierDydm17mqow,yg51qpjgem,ms1000202,motor,,65,img/motor_1.png,65,motor,1,402,1,0,0,,
null,,515872,HierDydm17mqow,yg51qpjgem,ms1000202,iti,,null,img/motor_1.png,65,motor,,,,,,,
494,,516377,HierDydm17mqow,yg51qpjgem,ms1000202,motor,,70,img/motor_4.png,70,motor,4,403,1,0,0,,
null,,516490,HierDydm17mqow,yg51qpjgem,ms1000202,iti,,null,img/motor_4.png,70,motor,,,,,,,
682,,517181,HierDydm17mqow,yg51qpjgem,ms1000202,motor,,72,img/motor_5.png,72,motor,5,404,1,0,0,,
null,,517294,HierDydm17mqow,yg51qpjgem,ms1000202,iti,,null,img/motor_5.png,72,motor,,,,,,,
540,,517844,HierDydm17mqow,yg51qpjgem,ms1000202,motor,,70,img/motor_4.png,70,motor,4,405,1,0,0,,
null,,517956,HierDydm17mqow,yg51qpjgem,ms1000202,iti,,null,img/motor_4.png,70,motor,,,,,,,
663,,518630,HierDydm17mqow,yg51qpjgem,ms1000202,motor,,83,img/motor_2.png,83,motor,2,406,1,0,0,,
null,,518742,HierDydm17mqow,yg51qpjgem,ms1000202,iti,,null,img/motor_2.png,83,motor,,,,,,,
635,,519389,HierDydm17mqow,yg51qpjgem,ms1000202,motor,,68,img/motor_3.png,68,motor,3,407,1,0,0,,
null,,519502,HierDydm17mqow,yg51qpjgem,ms1000202,iti,,null,img/motor_3.png,68,motor,,,,,,,
619,,520132,HierDydm17mqow,yg51qpjgem,ms1000202,motor,,68,img/motor_3.png,68,motor,3,408,1,0,0,,
null,,520245,HierDydm17mqow,yg51qpjgem,ms1000202,iti,,null,img/motor_3.png,68,motor,,,,,,,
664,,520919,HierDydm17mqow,yg51qpjgem,ms1000202,motor,,74,img/motor_6.png,74,motor,6,409,1,0,0,,
null,,521031,HierDydm17mqow,yg51qpjgem,ms1000202,iti,,null,img/motor_6.png,74,motor,,,,,,,
824,,521865,HierDydm17mqow,yg51qpjgem,ms1000202,motor,,76,img/motor_8.png,76,motor,8,410,1,0,0,,
null,,521976,HierDydm17mqow,yg51qpjgem,ms1000202,iti,,null,img/motor_8.png,76,motor,,,,,,,
861,,522848,HierDydm17mqow,yg51qpjgem,ms1000202,motor,,68,img/motor_2.png,83,motor,2,411,0,1,0,,
378,,523240,HierDydm17mqow,yg51qpjgem,ms1000202,motorRepeat,,83,img/motor_2.png,83,motor,2,411,1,0,0,,
null,,523351,HierDydm17mqow,yg51qpjgem,ms1000202,iti,,null,img/motor_2.png,83,motor,,,,,,,
579,,523940,HierDydm17mqow,yg51qpjgem,ms1000202,motor,,68,img/motor_3.png,68,motor,3,412,1,0,0,,
null,,524052,HierDydm17mqow,yg51qpjgem,ms1000202,iti,,null,img/motor_3.png,68,motor,,,,,,,
602,,524665,HierDydm17mqow,yg51qpjgem,ms1000202,motor,,65,img/motor_1.png,65,motor,1,413,1,0,0,,
null,,524778,HierDydm17mqow,yg51qpjgem,ms1000202,iti,,null,img/motor_1.png,65,motor,,,,,,,
1330,,526117,HierDydm17mqow,yg51qpjgem,ms1000202,motor,,72,img/motor_5.png,72,motor,5,414,1,0,0,,
null,,526230,HierDydm17mqow,yg51qpjgem,ms1000202,iti,,null,img/motor_5.png,72,motor,,,,,,,
525,,526768,HierDydm17mqow,yg51qpjgem,ms1000202,motor,,74,img/motor_6.png,74,motor,6,415,1,0,0,,
null,,526879,HierDydm17mqow,yg51qpjgem,ms1000202,iti,,null,img/motor_6.png,74,motor,,,,,,,
2856,,529746,HierDydm17mqow,yg51qpjgem,ms1000202,motor,,68,img/motor_3.png,68,motor,3,416,1,0,0,,
null,,529859,HierDydm17mqow,yg51qpjgem,ms1000202,iti,,null,img/motor_3.png,68,motor,,,,,,,
790,,530659,HierDydm17mqow,yg51qpjgem,ms1000202,motor,,72,img/motor_5.png,72,motor,5,417,1,0,0,,
null,,530771,HierDydm17mqow,yg51qpjgem,ms1000202,iti,,null,img/motor_5.png,72,motor,,,,,,,
476,,531260,HierDydm17mqow,yg51qpjgem,ms1000202,motor,,74,img/motor_6.png,74,motor,6,418,1,0,0,,
null,,531372,HierDydm17mqow,yg51qpjgem,ms1000202,iti,,null,img/motor_6.png,74,motor,,,,,,,
577,,531961,HierDydm17mqow,yg51qpjgem,ms1000202,motor,,70,img/motor_4.png,70,motor,4,419,1,0,0,,
null,,532073,HierDydm17mqow,yg51qpjgem,ms1000202,iti,,null,img/motor_4.png,70,motor,,,,,,,
666,,532749,HierDydm17mqow,yg51qpjgem,ms1000202,motor,,76,img/motor_8.png,76,motor,8,420,1,0,0,,
null,,532862,HierDydm17mqow,yg51qpjgem,ms1000202,iti,,null,img/motor_8.png,76,motor,,,,,,,
643,,533515,HierDydm17mqow,yg51qpjgem,ms1000202,motor,,74,img/motor_6.png,74,motor,6,421,1,0,0,,
null,,533628,HierDydm17mqow,yg51qpjgem,ms1000202,iti,,null,img/motor_6.png,74,motor,,,,,,,
469,,534109,HierDydm17mqow,yg51qpjgem,ms1000202,motor,,76,img/motor_8.png,76,motor,8,422,1,0,0,,
null,,534220,HierDydm17mqow,yg51qpjgem,ms1000202,iti,,null,img/motor_8.png,76,motor,,,,,,,
744,,534977,HierDydm17mqow,yg51qpjgem,ms1000202,motor,,68,img/motor_3.png,68,motor,3,423,1,0,0,,
null,,535089,HierDydm17mqow,yg51qpjgem,ms1000202,iti,,null,img/motor_3.png,68,motor,,,,,,,
745,,535845,HierDydm17mqow,yg51qpjgem,ms1000202,motor,,65,img/motor_1.png,65,motor,1,424,1,0,0,,
null,,535958,HierDydm17mqow,yg51qpjgem,ms1000202,iti,,null,img/motor_1.png,65,motor,,,,,,,
613,,536582,HierDydm17mqow,yg51qpjgem,ms1000202,motor,,72,img/motor_5.png,72,motor,5,425,1,0,0,,
null,,536695,HierDydm17mqow,yg51qpjgem,ms1000202,iti,,null,img/motor_5.png,72,motor,,,,,,,
578,,537285,HierDydm17mqow,yg51qpjgem,ms1000202,motor,,65,img/motor_1.png,65,motor,1,426,1,0,0,,
null,,537397,HierDydm17mqow,yg51qpjgem,ms1000202,iti,,null,img/motor_1.png,65,motor,,,,,,,
1061,,538471,HierDydm17mqow,yg51qpjgem,ms1000202,motor,,74,img/motor_7.png,75,motor,7,427,0,1,0,,
406,,538888,HierDydm17mqow,yg51qpjgem,ms1000202,motorRepeat,,75,img/motor_7.png,75,motor,7,427,1,0,0,,
null,,538999,HierDydm17mqow,yg51qpjgem,ms1000202,iti,,null,img/motor_7.png,75,motor,,,,,,,
603,,539613,HierDydm17mqow,yg51qpjgem,ms1000202,motor,,70,img/motor_4.png,70,motor,4,428,1,0,0,,
null,,539726,HierDydm17mqow,yg51qpjgem,ms1000202,iti,,null,img/motor_4.png,70,motor,,,,,,,
636,,540372,HierDydm17mqow,yg51qpjgem,ms1000202,motor,,83,img/motor_2.png,83,motor,2,429,1,0,0,,
null,,540483,HierDydm17mqow,yg51qpjgem,ms1000202,iti,,null,img/motor_2.png,83,motor,,,,,,,
752,,541248,HierDydm17mqow,yg51qpjgem,ms1000202,motor,,76,img/motor_8.png,76,motor,8,430,1,0,0,,
null,,541359,HierDydm17mqow,yg51qpjgem,ms1000202,iti,,null,img/motor_8.png,76,motor,,,,,,,
533,,541904,HierDydm17mqow,yg51qpjgem,ms1000202,motor,,68,img/motor_3.png,68,motor,3,431,1,0,0,,
null,,542015,HierDydm17mqow,yg51qpjgem,ms1000202,iti,,null,img/motor_3.png,68,motor,,,,,,,
1081,,543107,HierDydm17mqow,yg51qpjgem,ms1000202,motor,,70,img/motor_4.png,70,motor,4,432,1,0,0,,
null,,543220,HierDydm17mqow,yg51qpjgem,ms1000202,iti,,null,img/motor_4.png,70,motor,,,,,,,
544,,543775,HierDydm17mqow,yg51qpjgem,ms1000202,motor,,65,img/motor_1.png,65,motor,1,433,1,0,0,,
null,,543887,HierDydm17mqow,yg51qpjgem,ms1000202,iti,,null,img/motor_1.png,65,motor,,,,,,,
709,,544607,HierDydm17mqow,yg51qpjgem,ms1000202,motor,,70,img/motor_4.png,70,motor,4,434,1,0,0,,
null,,544719,HierDydm17mqow,yg51qpjgem,ms1000202,iti,,null,img/motor_4.png,70,motor,,,,,,,
675,,545405,HierDydm17mqow,yg51qpjgem,ms1000202,motor,,68,img/motor_3.png,68,motor,3,435,1,0,0,,
null,,545517,HierDydm17mqow,yg51qpjgem,ms1000202,iti,,null,img/motor_3.png,68,motor,,,,,,,
594,,546124,HierDydm17mqow,yg51qpjgem,ms1000202,motor,,68,img/motor_3.png,68,motor,3,436,1,0,0,,
null,,546236,HierDydm17mqow,yg51qpjgem,ms1000202,iti,,null,img/motor_3.png,68,motor,,,,,,,
518,,546765,HierDydm17mqow,yg51qpjgem,ms1000202,motor,,74,img/motor_7.png,75,motor,7,437,0,1,0,,
476,,547252,HierDydm17mqow,yg51qpjgem,ms1000202,motorRepeat,,75,img/motor_7.png,75,motor,7,437,1,0,0,,
null,,547364,HierDydm17mqow,yg51qpjgem,ms1000202,iti,,null,img/motor_7.png,75,motor,,,,,,,
22,,547399,HierDydm17mqow,yg51qpjgem,ms1000202,motor,,75,img/motor_6.png,74,motor,6,438,0,1,0,,
477,,547888,HierDydm17mqow,yg51qpjgem,ms1000202,motorRepeat,,74,img/motor_6.png,74,motor,6,438,1,0,0,,
null,,548000,HierDydm17mqow,yg51qpjgem,ms1000202,iti,,null,img/motor_6.png,74,motor,,,,,,,
737,,548748,HierDydm17mqow,yg51qpjgem,ms1000202,motor,,83,img/motor_2.png,83,motor,2,439,1,0,0,,
null,,548860,HierDydm17mqow,yg51qpjgem,ms1000202,iti,,null,img/motor_2.png,83,motor,,,,,,,
582,,549454,HierDydm17mqow,yg51qpjgem,ms1000202,motor,,72,img/motor_5.png,72,motor,5,440,1,0,0,,
null,,549565,HierDydm17mqow,yg51qpjgem,ms1000202,iti,,null,img/motor_5.png,72,motor,,,,,,,
528,,550105,HierDydm17mqow,yg51qpjgem,ms1000202,motor,,83,img/motor_2.png,83,motor,2,441,1,0,0,,
null,,550217,HierDydm17mqow,yg51qpjgem,ms1000202,iti,,null,img/motor_2.png,83,motor,,,,,,,
974,,551204,HierDydm17mqow,yg51qpjgem,ms1000202,motor,,72,img/motor_5.png,72,motor,5,442,1,0,0,,
null,,551316,HierDydm17mqow,yg51qpjgem,ms1000202,iti,,null,img/motor_5.png,72,motor,,,,,,,
614,,551940,HierDydm17mqow,yg51qpjgem,ms1000202,motor,,72,img/motor_5.png,72,motor,5,443,1,0,0,,
null,,552052,HierDydm17mqow,yg51qpjgem,ms1000202,iti,,null,img/motor_5.png,72,motor,,,,,,,
712,,552776,HierDydm17mqow,yg51qpjgem,ms1000202,motor,,68,img/motor_3.png,68,motor,3,444,1,0,0,,
null,,552888,HierDydm17mqow,yg51qpjgem,ms1000202,iti,,null,img/motor_3.png,68,motor,,,,,,,
442,,553341,HierDydm17mqow,yg51qpjgem,ms1000202,motor,,83,img/motor_2.png,83,motor,2,445,1,0,0,,
null,,553453,HierDydm17mqow,yg51qpjgem,ms1000202,iti,,null,img/motor_2.png,83,motor,,,,,,,
651,,554114,HierDydm17mqow,yg51qpjgem,ms1000202,motor,,74,img/motor_8.png,76,motor,8,446,0,1,0,,
464,,554590,HierDydm17mqow,yg51qpjgem,ms1000202,motorRepeat,,76,img/motor_8.png,76,motor,8,446,1,0,0,,
null,,554702,HierDydm17mqow,yg51qpjgem,ms1000202,iti,,null,img/motor_8.png,76,motor,,,,,,,
660,,555374,HierDydm17mqow,yg51qpjgem,ms1000202,motor,,70,img/motor_4.png,70,motor,4,447,1,0,0,,
null,,555486,HierDydm17mqow,yg51qpjgem,ms1000202,iti,,null,img/motor_4.png,70,motor,,,,,,,
645,,556141,HierDydm17mqow,yg51qpjgem,ms1000202,motor,,74,img/motor_6.png,74,motor,6,448,1,0,0,,
null,,556253,HierDydm17mqow,yg51qpjgem,ms1000202,iti,,null,img/motor_6.png,74,motor,,,,,,,
1151,,557416,HierDydm17mqow,yg51qpjgem,ms1000202,motor,,68,img/motor_3.png,68,motor,3,449,1,0,0,,
null,,557527,HierDydm17mqow,yg51qpjgem,ms1000202,iti,,null,img/motor_3.png,68,motor,,,,,,,
658,,558196,HierDydm17mqow,yg51qpjgem,ms1000202,motor,,65,img/motor_1.png,65,motor,1,450,1,0,0,,
null,,558308,HierDydm17mqow,yg51qpjgem,ms1000202,iti,,null,img/motor_1.png,65,motor,,,,,,,
598,,558917,HierDydm17mqow,yg51qpjgem,ms1000202,motor,,83,img/motor_2.png,83,motor,2,451,1,0,0,,
null,,559030,HierDydm17mqow,yg51qpjgem,ms1000202,iti,,null,img/motor_2.png,83,motor,,,,,,,
735,,559776,HierDydm17mqow,yg51qpjgem,ms1000202,motor,,65,img/motor_1.png,65,motor,1,452,1,0,0,,
null,,559889,HierDydm17mqow,yg51qpjgem,ms1000202,iti,,null,img/motor_1.png,65,motor,,,,,,,
382,,560282,HierDydm17mqow,yg51qpjgem,ms1000202,motor,,83,img/motor_2.png,83,motor,2,453,1,0,0,,
null,,560394,HierDydm17mqow,yg51qpjgem,ms1000202,iti,,null,img/motor_2.png,83,motor,,,,,,,
682,,561087,HierDydm17mqow,yg51qpjgem,ms1000202,motor,,68,img/motor_3.png,68,motor,3,454,1,0,0,,
null,,561198,HierDydm17mqow,yg51qpjgem,ms1000202,iti,,null,img/motor_3.png,68,motor,,,,,,,
764,,561974,HierDydm17mqow,yg51qpjgem,ms1000202,motor,,75,img/motor_7.png,75,motor,7,455,1,0,0,,
76,,562085,HierDydm17mqow,yg51qpjgem,ms1000202,iti,,75,img/motor_7.png,75,motor,,,,,,,
565,,562661,HierDydm17mqow,yg51qpjgem,ms1000202,motor,,65,img/motor_1.png,65,motor,1,456,1,0,0,,
null,,562773,HierDydm17mqow,yg51qpjgem,ms1000202,iti,,null,img/motor_1.png,65,motor,,,,,,,
832,,563616,HierDydm17mqow,yg51qpjgem,ms1000202,motor,,70,img/motor_4.png,70,motor,4,457,1,0,0,,
null,,563727,HierDydm17mqow,yg51qpjgem,ms1000202,iti,,null,img/motor_4.png,70,motor,,,,,,,
570,,564308,HierDydm17mqow,yg51qpjgem,ms1000202,motor,,72,img/motor_5.png,72,motor,5,458,1,0,0,,
null,,564421,HierDydm17mqow,yg51qpjgem,ms1000202,iti,,null,img/motor_5.png,72,motor,,,,,,,
575,,565006,HierDydm17mqow,yg51qpjgem,ms1000202,motor,,65,img/motor_1.png,65,motor,1,459,1,0,0,,
null,,565117,HierDydm17mqow,yg51qpjgem,ms1000202,iti,,null,img/motor_1.png,65,motor,,,,,,,
497,,565626,HierDydm17mqow,yg51qpjgem,ms1000202,motor,,65,img/motor_1.png,65,motor,1,460,1,0,0,,
null,,565738,HierDydm17mqow,yg51qpjgem,ms1000202,iti,,null,img/motor_1.png,65,motor,,,,,,,
628,,566376,HierDydm17mqow,yg51qpjgem,ms1000202,motor,,74,img/motor_6.png,74,motor,6,461,1,0,0,,
null,,566488,HierDydm17mqow,yg51qpjgem,ms1000202,iti,,null,img/motor_6.png,74,motor,,,,,,,
775,,567273,HierDydm17mqow,yg51qpjgem,ms1000202,motor,,83,img/motor_2.png,83,motor,2,462,1,0,0,,
null,,567386,HierDydm17mqow,yg51qpjgem,ms1000202,iti,,null,img/motor_2.png,83,motor,,,,,,,
709,,568108,HierDydm17mqow,yg51qpjgem,ms1000202,motor,,76,img/motor_8.png,76,motor,8,463,1,0,0,,
null,,568221,HierDydm17mqow,yg51qpjgem,ms1000202,iti,,null,img/motor_8.png,76,motor,,,,,,,
533,,568764,HierDydm17mqow,yg51qpjgem,ms1000202,motor,,65,img/motor_1.png,65,motor,1,464,1,0,0,,
null,,568877,HierDydm17mqow,yg51qpjgem,ms1000202,iti,,null,img/motor_1.png,65,motor,,,,,,,
503,,569391,HierDydm17mqow,yg51qpjgem,ms1000202,motor,,65,img/motor_1.png,65,motor,1,465,1,0,0,,
null,,569503,HierDydm17mqow,yg51qpjgem,ms1000202,iti,,null,img/motor_1.png,65,motor,,,,,,,
805,,570320,HierDydm17mqow,yg51qpjgem,ms1000202,motor,,75,img/motor_7.png,75,motor,7,466,1,0,0,,
null,,570431,HierDydm17mqow,yg51qpjgem,ms1000202,iti,,null,img/motor_7.png,75,motor,,,,,,,
593,,571037,HierDydm17mqow,yg51qpjgem,ms1000202,motor,,68,img/motor_3.png,68,motor,3,467,1,0,0,,
null,,571149,HierDydm17mqow,yg51qpjgem,ms1000202,iti,,null,img/motor_3.png,68,motor,,,,,,,
741,,571901,HierDydm17mqow,yg51qpjgem,ms1000202,motor,,75,img/motor_7.png,75,motor,7,468,1,0,0,,
null,,572014,HierDydm17mqow,yg51qpjgem,ms1000202,iti,,null,img/motor_7.png,75,motor,,,,,,,
1161,,573186,HierDydm17mqow,yg51qpjgem,ms1000202,motor,,83,img/motor_2.png,83,motor,2,469,1,0,0,,
null,,573298,HierDydm17mqow,yg51qpjgem,ms1000202,iti,,null,img/motor_2.png,83,motor,,,,,,,
750,,574060,HierDydm17mqow,yg51qpjgem,ms1000202,motor,,75,img/motor_6.png,74,motor,6,470,0,1,0,,
852,,574923,HierDydm17mqow,yg51qpjgem,ms1000202,motorRepeat,,74,img/motor_6.png,74,motor,6,470,1,0,0,,
null,,575036,HierDydm17mqow,yg51qpjgem,ms1000202,iti,,null,img/motor_6.png,74,motor,,,,,,,
610,,575656,HierDydm17mqow,yg51qpjgem,ms1000202,motor,,72,img/motor_5.png,72,motor,5,471,1,0,0,,
null,,575767,HierDydm17mqow,yg51qpjgem,ms1000202,iti,,null,img/motor_5.png,72,motor,,,,,,,
548,,576327,HierDydm17mqow,yg51qpjgem,ms1000202,motor,,75,img/motor_7.png,75,motor,7,472,1,0,0,,
null,,576438,HierDydm17mqow,yg51qpjgem,ms1000202,iti,,null,img/motor_7.png,75,motor,,,,,,,
879,,577330,HierDydm17mqow,yg51qpjgem,ms1000202,motor,,68,img/motor_3.png,68,motor,3,473,1,0,0,,
null,,577443,HierDydm17mqow,yg51qpjgem,ms1000202,iti,,null,img/motor_3.png,68,motor,,,,,,,
861,,578315,HierDydm17mqow,yg51qpjgem,ms1000202,motor,,76,img/motor_8.png,76,motor,8,474,1,0,0,,
null,,578426,HierDydm17mqow,yg51qpjgem,ms1000202,iti,,null,img/motor_8.png,76,motor,,,,,,,
1172,,579610,HierDydm17mqow,yg51qpjgem,ms1000202,motor,,83,img/motor_2.png,83,motor,2,475,1,0,0,,
null,,579722,HierDydm17mqow,yg51qpjgem,ms1000202,iti,,null,img/motor_2.png,83,motor,,,,,,,
565,,580298,HierDydm17mqow,yg51qpjgem,ms1000202,motor,,68,img/motor_3.png,68,motor,3,476,1,0,0,,
null,,580409,HierDydm17mqow,yg51qpjgem,ms1000202,iti,,null,img/motor_3.png,68,motor,,,,,,,
554,,580975,HierDydm17mqow,yg51qpjgem,ms1000202,motor,,83,img/motor_2.png,83,motor,2,477,1,0,0,,
null,,581087,HierDydm17mqow,yg51qpjgem,ms1000202,iti,,null,img/motor_2.png,83,motor,,,,,,,
697,,581795,HierDydm17mqow,yg51qpjgem,ms1000202,motor,,65,img/motor_1.png,65,motor,1,478,1,0,0,,
null,,581907,HierDydm17mqow,yg51qpjgem,ms1000202,iti,,null,img/motor_1.png,65,motor,,,,,,,
633,,582552,HierDydm17mqow,yg51qpjgem,ms1000202,motor,,76,img/motor_8.png,76,motor,8,479,1,0,0,,
null,,582663,HierDydm17mqow,yg51qpjgem,ms1000202,iti,,null,img/motor_8.png,76,motor,,,,,,,
818,,583493,HierDydm17mqow,yg51qpjgem,ms1000202,motor,,70,img/motor_4.png,70,motor,4,480,1,0,0,,
null,,583605,HierDydm17mqow,yg51qpjgem,ms1000202,iti,,null,img/motor_4.png,70,motor,,,,,,,
460,,584077,HierDydm17mqow,yg51qpjgem,ms1000202,motor,,70,img/motor_4.png,70,motor,4,481,1,0,0,,
null,,584190,HierDydm17mqow,yg51qpjgem,ms1000202,iti,,null,img/motor_4.png,70,motor,,,,,,,
534,,584736,HierDydm17mqow,yg51qpjgem,ms1000202,motor,,68,img/motor_3.png,68,motor,3,482,1,0,0,,
null,,584848,HierDydm17mqow,yg51qpjgem,ms1000202,iti,,null,img/motor_3.png,68,motor,,,,,,,
680,,585538,HierDydm17mqow,yg51qpjgem,ms1000202,motor,,70,img/motor_4.png,70,motor,4,483,1,0,0,,
23,,585650,HierDydm17mqow,yg51qpjgem,ms1000202,iti,,74,img/motor_4.png,70,motor,,,,,,,
669,,586330,HierDydm17mqow,yg51qpjgem,ms1000202,motor,,74,img/motor_6.png,74,motor,6,484,1,0,0,,
null,,586442,HierDydm17mqow,yg51qpjgem,ms1000202,iti,,null,img/motor_6.png,74,motor,,,,,,,
441,,586893,HierDydm17mqow,yg51qpjgem,ms1000202,motor,,74,img/motor_6.png,74,motor,6,485,1,0,0,,
null,,587005,HierDydm17mqow,yg51qpjgem,ms1000202,iti,,null,img/motor_6.png,74,motor,,,,,,,
725,,587742,HierDydm17mqow,yg51qpjgem,ms1000202,motor,,65,img/motor_1.png,65,motor,1,486,1,0,0,,
null,,587854,HierDydm17mqow,yg51qpjgem,ms1000202,iti,,null,img/motor_1.png,65,motor,,,,,,,
652,,588519,HierDydm17mqow,yg51qpjgem,ms1000202,motor,,76,img/motor_8.png,76,motor,8,487,1,0,0,,
null,,588630,HierDydm17mqow,yg51qpjgem,ms1000202,iti,,null,img/motor_8.png,76,motor,,,,,,,
57177,,645817,HierDydm17mqow,yg51qpjgem,ms1000202,,,,,,,,,,,,,
891,,646718,HierDydm17mqow,yg51qpjgem,ms1000202,prac,,74,img/image3.bmp,74,prac,,,1,,,0,
null,,647481,HierDydm17mqow,yg51qpjgem,ms1000202,feedback,,null,,na,prac,,,,,,,
1271,,648763,HierDydm17mqow,yg51qpjgem,ms1000202,prac,,72,img/image4.bmp,75,prac,,,0,,,1,
null,,649526,HierDydm17mqow,yg51qpjgem,ms1000202,feedback,,null,,na,prac,,,,,,,
1186,,650724,HierDydm17mqow,yg51qpjgem,ms1000202,prac,,75,img/image5.bmp,72,prac,,,0,,,2,
null,,651485,HierDydm17mqow,yg51qpjgem,ms1000202,feedback,,null,,na,prac,,,,,,,
997,,652495,HierDydm17mqow,yg51qpjgem,ms1000202,prac,,75,img/image4.bmp,75,prac,,,1,,,2,
null,,653257,HierDydm17mqow,yg51qpjgem,ms1000202,feedback,,null,,na,prac,,,,,,,
643,,653911,HierDydm17mqow,yg51qpjgem,ms1000202,prac,,75,img/image4.bmp,75,prac,,,1,,,2,
null,,654673,HierDydm17mqow,yg51qpjgem,ms1000202,feedback,,null,,na,prac,,,,,,,
1195,,655879,HierDydm17mqow,yg51qpjgem,ms1000202,prac,,72,img/image3.bmp,74,prac,,,0,,,3,
null,,656641,HierDydm17mqow,yg51qpjgem,ms1000202,feedback,,null,,na,prac,,,,,,,
1072,,657725,HierDydm17mqow,yg51qpjgem,ms1000202,prac,,75,img/image5.bmp,72,prac,,,0,,,4,
null,,658488,HierDydm17mqow,yg51qpjgem,ms1000202,feedback,,null,,na,prac,,,,,,,
1281,,659779,HierDydm17mqow,yg51qpjgem,ms1000202,prac,,74,img/image4.bmp,75,prac,,,0,,,5,
null,,660541,HierDydm17mqow,yg51qpjgem,ms1000202,feedback,,null,,na,prac,,,,,,,
34040,,694592,HierDydm17mqow,yg51qpjgem,ms1000202,,,,,,prac,,,,,,,
9613,,704218,HierDydm17mqow,yg51qpjgem,ms1000202,,,32,,,,,,,,,,
6593,,710821,HierDydm17mqow,yg51qpjgem,ms1000202,,,,,,prac,,,,,,,
920,,711751,HierDydm17mqow,yg51qpjgem,ms1000202,rl,,70,img/r_s_stripes.png,72,test,5,1,0,,,,shape;pattern;color
null,,712764,HierDydm17mqow,yg51qpjgem,ms1000202,feedback,,null,,na,test,,,,,,,
716,,713490,HierDydm17mqow,yg51qpjgem,ms1000202,rl,,68,img/r_c_diag.png,68,test,3,NaN,1,,,,shape;pattern;color
null,,714503,HierDydm17mqow,yg51qpjgem,ms1000202,feedback,,null,,na,test,,,,,,,
460,,714974,HierDydm17mqow,yg51qpjgem,ms1000202,rl,,68,img/r_c_stripes.png,65,test,1,NaN,0,,,,shape;pattern;color
null,,715987,HierDydm17mqow,yg51qpjgem,ms1000202,feedback,,null,,na,test,,,,,,,
998,,716996,HierDydm17mqow,yg51qpjgem,ms1000202,rl,,70,img/b_s_stripes.png,74,test,6,NaN,0,,,,shape;pattern;color
null,,718008,HierDydm17mqow,yg51qpjgem,ms1000202,feedback,,null,,na,test,,,,,,,
1224,,719242,HierDydm17mqow,yg51qpjgem,ms1000202,rl,,72,img/b_s_diag.png,76,test,8,NaN,0,,,,shape;pattern;color
null,,720255,HierDydm17mqow,yg51qpjgem,ms1000202,feedback,,null,,na,test,,,,,,,
563,,720828,HierDydm17mqow,yg51qpjgem,ms1000202,rl,,74,img/b_c_stripes.png,83,test,2,NaN,0,,,,shape;pattern;color
null,,721843,HierDydm17mqow,yg51qpjgem,ms1000202,feedback,,null,,na,test,,,,,,,
1013,,722869,HierDydm17mqow,yg51qpjgem,ms1000202,rl,,75,img/r_s_diag.png,75,test,7,NaN,1,,,,shape;pattern;color
null,,723881,HierDydm17mqow,yg51qpjgem,ms1000202,feedback,,null,,na,test,,,,,,,
916,,724809,HierDydm17mqow,yg51qpjgem,ms1000202,rl,,75,img/r_s_diag.png,75,test,7,NaN,1,,,,shape;pattern;color
null,,725822,HierDydm17mqow,yg51qpjgem,ms1000202,feedback,,null,,na,test,,,,,,,
1602,,727437,HierDydm17mqow,yg51qpjgem,ms1000202,rl,,68,img/b_c_diag.png,70,test,4,NaN,0,,,,shape;pattern;color
null,,728448,HierDydm17mqow,yg51qpjgem,ms1000202,feedback,,null,,na,test,,,,,,,
