"rt","responses","time_elapsed","subject","prolificID","demoID","trialType","question_order","key_press","stim","corrresp","phase","stimNum","trialNum","corr","repeatTrial","motorSwitch","pracCounter","hierarchy"
"106207","{""Q0"":""ms1000405""}","107006","HierDyu6st8fl4","eezvm9yczb","ms1000405","","","","","","","","","","","","",""
"1267","","108287","HierDyu6st8fl4","eezvm9yczb","ms1000405","","","","","","","","","","","","",""
"","","110579","HierDyu6st8fl4","eezvm9yczb","ms1000405","fullscreen","","","","","","","","","","","",""
"15046","{""Vision"":""Yes"",""Handedness"":""Right"",""Gender"":""female""}","125638","HierDyu6st8fl4","eezvm9yczb","ms1000405","","[0,1,2]","","","","","","","","","","",""
"5380","{""Q0"":""19""}","131036","HierDyu6st8fl4","eezvm9yczb","ms1000405","","","","","","","","","","","","",""
"108636","","239685","HierDyu6st8fl4","eezvm9yczb","ms1000405","","","","","","","","","","","","",""
"1254","","240949","HierDyu6st8fl4","eezvm9yczb","ms1000405","motor","","76","img/motor_8.png","76","motor","8","1","1","0","0","",""
"null","","241065","HierDyu6st8fl4","eezvm9yczb","ms1000405","iti","","null","img/motor_8.png","76","motor","","","","","","",""
"1115","","242188","HierDyu6st8fl4","eezvm9yczb","ms1000405","motor","","75","img/motor_7.png","75","motor","7","2","1","0","0","",""
"null","","242297","HierDyu6st8fl4","eezvm9yczb","ms1000405","iti","","null","img/motor_7.png","75","motor","","","","","","",""
"604","","242908","HierDyu6st8fl4","eezvm9yczb","ms1000405","motor","","72","img/motor_5.png","72","motor","5","3","1","0","0","",""
"null","","243016","HierDyu6st8fl4","eezvm9yczb","ms1000405","iti","","null","img/motor_5.png","72","motor","","","","","","",""
"468","","243492","HierDyu6st8fl4","eezvm9yczb","ms1000405","motor","","76","img/motor_8.png","76","motor","8","4","1","0","0","",""
"null","","243600","HierDyu6st8fl4","eezvm9yczb","ms1000405","iti","","null","img/motor_8.png","76","motor","","","","","","",""
"396","","244003","HierDyu6st8fl4","eezvm9yczb","ms1000405","motor","","72","img/motor_5.png","72","motor","5","5","1","0","0","",""
"null","","244112","HierDyu6st8fl4","eezvm9yczb","ms1000405","iti","","null","img/motor_5.png","72","motor","","","","","","",""
"796","","244915","HierDyu6st8fl4","eezvm9yczb","ms1000405","motor","","83","img/motor_3.png","68","motor","3","6","0","1","0","",""
"392","","245316","HierDyu6st8fl4","eezvm9yczb","ms1000405","motorRepeat","","68","img/motor_3.png","68","motor","3","6","1","0","0","",""
"null","","245430","HierDyu6st8fl4","eezvm9yczb","ms1000405","iti","","null","img/motor_3.png","68","motor","","","","","","",""
"628","","246068","HierDyu6st8fl4","eezvm9yczb","ms1000405","motor","","68","img/motor_3.png","68","motor","3","7","1","0","0","",""
"null","","246182","HierDyu6st8fl4","eezvm9yczb","ms1000405","iti","","null","img/motor_3.png","68","motor","","","","","","",""
"597","","246787","HierDyu6st8fl4","eezvm9yczb","ms1000405","motor","","76","img/motor_8.png","76","motor","8","8","1","0","0","",""
"null","","246895","HierDyu6st8fl4","eezvm9yczb","ms1000405","iti","","null","img/motor_8.png","76","motor","","","","","","",""
"565","","247468","HierDyu6st8fl4","eezvm9yczb","ms1000405","motor","","75","img/motor_7.png","75","motor","7","9","1","0","0","",""
"null","","247583","HierDyu6st8fl4","eezvm9yczb","ms1000405","iti","","null","img/motor_7.png","75","motor","","","","","","",""
"692","","248284","HierDyu6st8fl4","eezvm9yczb","ms1000405","motor","","83","img/motor_2.png","83","motor","2","10","1","0","0","",""
"null","","248398","HierDyu6st8fl4","eezvm9yczb","ms1000405","iti","","null","img/motor_2.png","83","motor","","","","","","",""
"549","","248957","HierDyu6st8fl4","eezvm9yczb","ms1000405","motor","","70","img/motor_4.png","70","motor","4","11","1","0","0","",""
"null","","249065","HierDyu6st8fl4","eezvm9yczb","ms1000405","iti","","null","img/motor_4.png","70","motor","","","","","","",""
"612","","249685","HierDyu6st8fl4","eezvm9yczb","ms1000405","motor","","83","img/motor_2.png","83","motor","2","12","1","0","0","",""
"null","","249792","HierDyu6st8fl4","eezvm9yczb","ms1000405","iti","","null","img/motor_2.png","83","motor","","","","","","",""
"595","","250396","HierDyu6st8fl4","eezvm9yczb","ms1000405","motor","","65","img/motor_1.png","65","motor","1","13","1","0","0","",""
"null","","250504","HierDyu6st8fl4","eezvm9yczb","ms1000405","iti","","null","img/motor_1.png","65","motor","","","","","","",""
"636","","251148","HierDyu6st8fl4","eezvm9yczb","ms1000405","motor","","83","img/motor_2.png","83","motor","2","14","1","0","0","",""
"null","","251262","HierDyu6st8fl4","eezvm9yczb","ms1000405","iti","","null","img/motor_2.png","83","motor","","","","","","",""
"644","","251916","HierDyu6st8fl4","eezvm9yczb","ms1000405","motor","","75","img/motor_6.png","74","motor","6","15","0","1","0","",""
"303","","252228","HierDyu6st8fl4","eezvm9yczb","ms1000405","motorRepeat","","74","img/motor_6.png","74","motor","6","15","1","0","0","",""
"null","","252336","HierDyu6st8fl4","eezvm9yczb","ms1000405","iti","","null","img/motor_6.png","74","motor","","","","","","",""
"532","","252876","HierDyu6st8fl4","eezvm9yczb","ms1000405","motor","","75","img/motor_7.png","75","motor","7","16","1","0","0","",""
"null","","252984","HierDyu6st8fl4","eezvm9yczb","ms1000405","iti","","null","img/motor_7.png","75","motor","","","","","","",""
"460","","253452","HierDyu6st8fl4","eezvm9yczb","ms1000405","motor","","76","img/motor_8.png","76","motor","8","17","1","0","0","",""
"null","","253566","HierDyu6st8fl4","eezvm9yczb","ms1000405","iti","","null","img/motor_8.png","76","motor","","","","","","",""
"581","","254162","HierDyu6st8fl4","eezvm9yczb","ms1000405","motor","","65","img/motor_1.png","65","motor","1","18","1","0","0","",""
"null","","254277","HierDyu6st8fl4","eezvm9yczb","ms1000405","iti","","null","img/motor_1.png","65","motor","","","","","","",""
"495","","254786","HierDyu6st8fl4","eezvm9yczb","ms1000405","motor","","76","img/motor_8.png","76","motor","8","19","1","0","0","",""
"null","","254902","HierDyu6st8fl4","eezvm9yczb","ms1000405","iti","","null","img/motor_8.png","76","motor","","","","","","",""
"718","","255627","HierDyu6st8fl4","eezvm9yczb","ms1000405","motor","","83","img/motor_3.png","68","motor","3","20","0","1","0","",""
"305","","255946","HierDyu6st8fl4","eezvm9yczb","ms1000405","motorRepeat","","68","img/motor_3.png","68","motor","3","20","1","0","0","",""
"null","","256055","HierDyu6st8fl4","eezvm9yczb","ms1000405","iti","","null","img/motor_3.png","68","motor","","","","","","",""
"461","","256530","HierDyu6st8fl4","eezvm9yczb","ms1000405","motor","","76","img/motor_8.png","76","motor","8","21","1","0","0","",""
"null","","256638","HierDyu6st8fl4","eezvm9yczb","ms1000405","iti","","null","img/motor_8.png","76","motor","","","","","","",""
"646","","257298","HierDyu6st8fl4","eezvm9yczb","ms1000405","motor","","74","img/motor_6.png","74","motor","6","22","1","0","0","",""
"null","","257408","HierDyu6st8fl4","eezvm9yczb","ms1000405","iti","","null","img/motor_6.png","74","motor","","","","","","",""
"509","","257931","HierDyu6st8fl4","eezvm9yczb","ms1000405","motor","","72","img/motor_5.png","72","motor","5","23","1","0","0","",""
"null","","258040","HierDyu6st8fl4","eezvm9yczb","ms1000405","iti","","null","img/motor_5.png","72","motor","","","","","","",""
"805","","258853","HierDyu6st8fl4","eezvm9yczb","ms1000405","motor","","74","img/motor_6.png","74","motor","6","24","1","0","0","",""
"null","","258960","HierDyu6st8fl4","eezvm9yczb","ms1000405","iti","","null","img/motor_6.png","74","motor","","","","","","",""
"756","","259731","HierDyu6st8fl4","eezvm9yczb","ms1000405","motor","","70","img/motor_4.png","70","motor","4","25","1","0","0","",""
"null","","259839","HierDyu6st8fl4","eezvm9yczb","ms1000405","iti","","null","img/motor_4.png","70","motor","","","","","","",""
"645","","260492","HierDyu6st8fl4","eezvm9yczb","ms1000405","motor","","74","img/motor_6.png","74","motor","6","26","1","0","0","",""
"null","","260600","HierDyu6st8fl4","eezvm9yczb","ms1000405","iti","","null","img/motor_6.png","74","motor","","","","","","",""
"668","","261276","HierDyu6st8fl4","eezvm9yczb","ms1000405","motor","","74","img/motor_6.png","74","motor","6","27","1","0","0","",""
"null","","261385","HierDyu6st8fl4","eezvm9yczb","ms1000405","iti","","null","img/motor_6.png","74","motor","","","","","","",""
"748","","262142","HierDyu6st8fl4","eezvm9yczb","ms1000405","motor","","68","img/motor_2.png","83","motor","2","28","0","1","0","",""
"263","","262418","HierDyu6st8fl4","eezvm9yczb","ms1000405","motorRepeat","","83","img/motor_2.png","83","motor","2","28","1","0","0","",""
"null","","262528","HierDyu6st8fl4","eezvm9yczb","ms1000405","iti","","null","img/motor_2.png","83","motor","","","","","","",""
"636","","263173","HierDyu6st8fl4","eezvm9yczb","ms1000405","motor","","72","img/motor_5.png","72","motor","5","29","1","0","0","",""
"null","","263281","HierDyu6st8fl4","eezvm9yczb","ms1000405","iti","","null","img/motor_5.png","72","motor","","","","","","",""
"484","","263773","HierDyu6st8fl4","eezvm9yczb","ms1000405","motor","","75","img/motor_7.png","75","motor","7","30","1","0","0","",""
"null","","263888","HierDyu6st8fl4","eezvm9yczb","ms1000405","iti","","null","img/motor_7.png","75","motor","","","","","","",""
"627","","264525","HierDyu6st8fl4","eezvm9yczb","ms1000405","motor","","75","img/motor_7.png","75","motor","7","31","1","0","0","",""
"null","","264633","HierDyu6st8fl4","eezvm9yczb","ms1000405","iti","","null","img/motor_7.png","75","motor","","","","","","",""
"963","","265604","HierDyu6st8fl4","eezvm9yczb","ms1000405","motor","","70","img/motor_3.png","68","motor","3","32","0","1","0","",""
"358","","265966","HierDyu6st8fl4","eezvm9yczb","ms1000405","motorRepeat","","68","img/motor_3.png","68","motor","3","32","1","0","0","",""
"null","","266082","HierDyu6st8fl4","eezvm9yczb","ms1000405","iti","","null","img/motor_3.png","68","motor","","","","","","",""
"585","","266682","HierDyu6st8fl4","eezvm9yczb","ms1000405","motor","","72","img/motor_5.png","72","motor","5","33","1","0","0","",""
"null","","266791","HierDyu6st8fl4","eezvm9yczb","ms1000405","iti","","null","img/motor_5.png","72","motor","","","","","","",""
"717","","267517","HierDyu6st8fl4","eezvm9yczb","ms1000405","motor","","70","img/motor_4.png","70","motor","4","34","1","0","0","",""
"null","","267631","HierDyu6st8fl4","eezvm9yczb","ms1000405","iti","","null","img/motor_4.png","70","motor","","","","","","",""
"532","","268171","HierDyu6st8fl4","eezvm9yczb","ms1000405","motor","","65","img/motor_1.png","65","motor","1","35","1","0","0","",""
"null","","268279","HierDyu6st8fl4","eezvm9yczb","ms1000405","iti","","null","img/motor_1.png","65","motor","","","","","","",""
"573","","268860","HierDyu6st8fl4","eezvm9yczb","ms1000405","motor","","65","img/motor_1.png","65","motor","1","36","1","0","0","",""
"null","","268968","HierDyu6st8fl4","eezvm9yczb","ms1000405","iti","","null","img/motor_1.png","65","motor","","","","","","",""
"739","","269717","HierDyu6st8fl4","eezvm9yczb","ms1000405","motor","","83","img/motor_2.png","83","motor","2","37","1","0","0","",""
"null","","269825","HierDyu6st8fl4","eezvm9yczb","ms1000405","iti","","null","img/motor_2.png","83","motor","","","","","","",""
"571","","270404","HierDyu6st8fl4","eezvm9yczb","ms1000405","motor","","65","img/motor_1.png","65","motor","1","38","1","0","0","",""
"null","","270513","HierDyu6st8fl4","eezvm9yczb","ms1000405","iti","","null","img/motor_1.png","65","motor","","","","","","",""
"556","","271076","HierDyu6st8fl4","eezvm9yczb","ms1000405","motor","","65","img/motor_1.png","65","motor","1","39","1","0","0","",""
"null","","271184","HierDyu6st8fl4","eezvm9yczb","ms1000405","iti","","null","img/motor_1.png","65","motor","","","","","","",""
"1052","","272244","HierDyu6st8fl4","eezvm9yczb","ms1000405","motor","","74","img/motor_6.png","74","motor","6","40","1","0","0","",""
"null","","272358","HierDyu6st8fl4","eezvm9yczb","ms1000405","iti","","null","img/motor_6.png","74","motor","","","","","","",""
"493","","272860","HierDyu6st8fl4","eezvm9yczb","ms1000405","motor","","76","img/motor_8.png","76","motor","8","41","1","0","0","",""
"null","","272974","HierDyu6st8fl4","eezvm9yczb","ms1000405","iti","","null","img/motor_8.png","76","motor","","","","","","",""
"557","","273540","HierDyu6st8fl4","eezvm9yczb","ms1000405","motor","","70","img/motor_4.png","70","motor","4","42","1","0","0","",""
"null","","273648","HierDyu6st8fl4","eezvm9yczb","ms1000405","iti","","null","img/motor_4.png","70","motor","","","","","","",""
"459","","274116","HierDyu6st8fl4","eezvm9yczb","ms1000405","motor","","70","img/motor_4.png","70","motor","4","43","1","0","0","",""
"null","","274229","HierDyu6st8fl4","eezvm9yczb","ms1000405","iti","","null","img/motor_4.png","70","motor","","","","","","",""
"710","","274948","HierDyu6st8fl4","eezvm9yczb","ms1000405","motor","","72","img/motor_5.png","72","motor","5","44","1","0","0","",""
"null","","275055","HierDyu6st8fl4","eezvm9yczb","ms1000405","iti","","null","img/motor_5.png","72","motor","","","","","","",""
"540","","275604","HierDyu6st8fl4","eezvm9yczb","ms1000405","motor","","83","img/motor_2.png","83","motor","2","45","1","0","0","",""
"null","","275719","HierDyu6st8fl4","eezvm9yczb","ms1000405","iti","","null","img/motor_2.png","83","motor","","","","","","",""
"566","","276292","HierDyu6st8fl4","eezvm9yczb","ms1000405","motor","","75","img/motor_7.png","75","motor","7","46","1","0","0","",""
"null","","276400","HierDyu6st8fl4","eezvm9yczb","ms1000405","iti","","null","img/motor_7.png","75","motor","","","","","","",""
"573","","276980","HierDyu6st8fl4","eezvm9yczb","ms1000405","motor","","83","img/motor_2.png","83","motor","2","47","1","0","0","",""
"null","","277088","HierDyu6st8fl4","eezvm9yczb","ms1000405","iti","","null","img/motor_2.png","83","motor","","","","","","",""
"572","","277668","HierDyu6st8fl4","eezvm9yczb","ms1000405","motor","","72","img/motor_5.png","72","motor","5","48","1","0","0","",""
"null","","277777","HierDyu6st8fl4","eezvm9yczb","ms1000405","iti","","null","img/motor_5.png","72","motor","","","","","","",""
"435","","278226","HierDyu6st8fl4","eezvm9yczb","ms1000405","motor","","76","img/motor_8.png","76","motor","8","49","1","0","0","",""
"null","","278332","HierDyu6st8fl4","eezvm9yczb","ms1000405","iti","","null","img/motor_8.png","76","motor","","","","","","",""
"344","","278689","HierDyu6st8fl4","eezvm9yczb","ms1000405","motor","","65","img/motor_1.png","65","motor","1","50","1","0","0","",""
"12","","278797","HierDyu6st8fl4","eezvm9yczb","ms1000405","iti","","83","img/motor_1.png","65","motor","","","","","","",""
"431","","279236","HierDyu6st8fl4","eezvm9yczb","ms1000405","motor","","76","img/motor_8.png","76","motor","8","51","1","0","0","",""
"null","","279344","HierDyu6st8fl4","eezvm9yczb","ms1000405","iti","","null","img/motor_8.png","76","motor","","","","","","",""
"779","","280133","HierDyu6st8fl4","eezvm9yczb","ms1000405","motor","","72","img/motor_5.png","72","motor","5","52","1","0","0","",""
"null","","280241","HierDyu6st8fl4","eezvm9yczb","ms1000405","iti","","null","img/motor_5.png","72","motor","","","","","","",""
"796","","281050","HierDyu6st8fl4","eezvm9yczb","ms1000405","motor","","70","img/motor_4.png","70","motor","4","53","1","0","0","",""
"null","","281159","HierDyu6st8fl4","eezvm9yczb","ms1000405","iti","","null","img/motor_4.png","70","motor","","","","","","",""
"396","","281570","HierDyu6st8fl4","eezvm9yczb","ms1000405","motor","","76","img/motor_8.png","76","motor","8","54","1","0","0","",""
"null","","281680","HierDyu6st8fl4","eezvm9yczb","ms1000405","iti","","null","img/motor_8.png","76","motor","","","","","","",""
"574","","282260","HierDyu6st8fl4","eezvm9yczb","ms1000405","motor","","83","img/motor_2.png","83","motor","2","55","1","0","0","",""
"null","","282375","HierDyu6st8fl4","eezvm9yczb","ms1000405","iti","","null","img/motor_2.png","83","motor","","","","","","",""
"596","","282986","HierDyu6st8fl4","eezvm9yczb","ms1000405","motor","","68","img/motor_3.png","68","motor","3","56","1","0","0","",""
"null","","283096","HierDyu6st8fl4","eezvm9yczb","ms1000405","iti","","null","img/motor_3.png","68","motor","","","","","","",""
"540","","283644","HierDyu6st8fl4","eezvm9yczb","ms1000405","motor","","76","img/motor_8.png","76","motor","8","57","1","0","0","",""
"null","","283752","HierDyu6st8fl4","eezvm9yczb","ms1000405","iti","","null","img/motor_8.png","76","motor","","","","","","",""
"541","","284300","HierDyu6st8fl4","eezvm9yczb","ms1000405","motor","","75","img/motor_7.png","75","motor","7","58","1","0","0","",""
"null","","284408","HierDyu6st8fl4","eezvm9yczb","ms1000405","iti","","null","img/motor_7.png","75","motor","","","","","","",""
"668","","285084","HierDyu6st8fl4","eezvm9yczb","ms1000405","motor","","70","img/motor_4.png","70","motor","4","59","1","0","0","",""
"null","","285193","HierDyu6st8fl4","eezvm9yczb","ms1000405","iti","","null","img/motor_4.png","70","motor","","","","","","",""
"532","","285732","HierDyu6st8fl4","eezvm9yczb","ms1000405","motor","","68","img/motor_3.png","68","motor","3","60","1","0","0","",""
"null","","285846","HierDyu6st8fl4","eezvm9yczb","ms1000405","iti","","null","img/motor_3.png","68","motor","","","","","","",""
"557","","286412","HierDyu6st8fl4","eezvm9yczb","ms1000405","motor","","65","img/motor_1.png","65","motor","1","61","1","0","0","",""
"null","","286521","HierDyu6st8fl4","eezvm9yczb","ms1000405","iti","","null","img/motor_1.png","65","motor","","","","","","",""
"556","","287084","HierDyu6st8fl4","eezvm9yczb","ms1000405","motor","","83","img/motor_2.png","83","motor","2","62","1","0","0","",""
"null","","287199","HierDyu6st8fl4","eezvm9yczb","ms1000405","iti","","null","img/motor_2.png","83","motor","","","","","","",""
"629","","287836","HierDyu6st8fl4","eezvm9yczb","ms1000405","motor","","75","img/motor_7.png","75","motor","7","63","1","0","0","",""
"null","","287943","HierDyu6st8fl4","eezvm9yczb","ms1000405","iti","","null","img/motor_7.png","75","motor","","","","","","",""
"532","","288484","HierDyu6st8fl4","eezvm9yczb","ms1000405","motor","","83","img/motor_2.png","83","motor","2","64","1","0","0","",""
"null","","288598","HierDyu6st8fl4","eezvm9yczb","ms1000405","iti","","null","img/motor_2.png","83","motor","","","","","","",""
"478","","289085","HierDyu6st8fl4","eezvm9yczb","ms1000405","motor","","65","img/motor_1.png","65","motor","1","65","1","0","0","",""
"null","","289193","HierDyu6st8fl4","eezvm9yczb","ms1000405","iti","","null","img/motor_1.png","65","motor","","","","","","",""
"541","","289747","HierDyu6st8fl4","eezvm9yczb","ms1000405","motor","","75","img/motor_7.png","75","motor","7","66","1","0","0","",""
"null","","289856","HierDyu6st8fl4","eezvm9yczb","ms1000405","iti","","null","img/motor_7.png","75","motor","","","","","","",""
"508","","290372","HierDyu6st8fl4","eezvm9yczb","ms1000405","motor","","83","img/motor_2.png","83","motor","2","67","1","0","0","",""
"null","","290480","HierDyu6st8fl4","eezvm9yczb","ms1000405","iti","","null","img/motor_2.png","83","motor","","","","","","",""
"556","","291045","HierDyu6st8fl4","eezvm9yczb","ms1000405","motor","","75","img/motor_6.png","74","motor","6","68","0","1","0","",""
"265","","291323","HierDyu6st8fl4","eezvm9yczb","ms1000405","motorRepeat","","74","img/motor_6.png","74","motor","6","68","1","0","0","",""
"null","","291431","HierDyu6st8fl4","eezvm9yczb","ms1000405","iti","","null","img/motor_6.png","74","motor","","","","","","",""
"605","","292044","HierDyu6st8fl4","eezvm9yczb","ms1000405","motor","","70","img/motor_4.png","70","motor","4","69","1","0","0","",""
"null","","292159","HierDyu6st8fl4","eezvm9yczb","ms1000405","iti","","null","img/motor_4.png","70","motor","","","","","","",""
"485","","292653","HierDyu6st8fl4","eezvm9yczb","ms1000405","motor","","83","img/motor_2.png","83","motor","2","70","1","0","0","",""
"null","","292759","HierDyu6st8fl4","eezvm9yczb","ms1000405","iti","","null","img/motor_2.png","83","motor","","","","","","",""
"572","","293346","HierDyu6st8fl4","eezvm9yczb","ms1000405","motor","","68","img/motor_3.png","68","motor","3","71","1","0","0","",""
"null","","293462","HierDyu6st8fl4","eezvm9yczb","ms1000405","iti","","null","img/motor_3.png","68","motor","","","","","","",""
"775","","294245","HierDyu6st8fl4","eezvm9yczb","ms1000405","motor","","74","img/motor_6.png","74","motor","6","72","1","0","0","",""
"null","","294353","HierDyu6st8fl4","eezvm9yczb","ms1000405","iti","","null","img/motor_6.png","74","motor","","","","","","",""
"523","","294885","HierDyu6st8fl4","eezvm9yczb","ms1000405","motor","","70","img/motor_4.png","70","motor","4","73","1","0","0","",""
"null","","294993","HierDyu6st8fl4","eezvm9yczb","ms1000405","iti","","null","img/motor_4.png","70","motor","","","","","","",""
"461","","295467","HierDyu6st8fl4","eezvm9yczb","ms1000405","motor","","83","img/motor_2.png","83","motor","2","74","1","0","0","",""
"null","","295577","HierDyu6st8fl4","eezvm9yczb","ms1000405","iti","","null","img/motor_2.png","83","motor","","","","","","",""
"468","","296052","HierDyu6st8fl4","eezvm9yczb","ms1000405","motor","","70","img/motor_4.png","70","motor","4","75","1","0","0","",""
"null","","296167","HierDyu6st8fl4","eezvm9yczb","ms1000405","iti","","null","img/motor_4.png","70","motor","","","","","","",""
"420","","296596","HierDyu6st8fl4","eezvm9yczb","ms1000405","motor","","75","img/motor_7.png","75","motor","7","76","1","0","0","",""
"null","","296704","HierDyu6st8fl4","eezvm9yczb","ms1000405","iti","","null","img/motor_7.png","75","motor","","","","","","",""
"396","","297108","HierDyu6st8fl4","eezvm9yczb","ms1000405","motor","","76","img/motor_8.png","76","motor","8","77","1","0","0","",""
"null","","297216","HierDyu6st8fl4","eezvm9yczb","ms1000405","iti","","null","img/motor_8.png","76","motor","","","","","","",""
"676","","297900","HierDyu6st8fl4","eezvm9yczb","ms1000405","motor","","83","img/motor_2.png","83","motor","2","78","1","0","0","",""
"null","","298009","HierDyu6st8fl4","eezvm9yczb","ms1000405","iti","","null","img/motor_2.png","83","motor","","","","","","",""
"452","","298469","HierDyu6st8fl4","eezvm9yczb","ms1000405","motor","","76","img/motor_8.png","76","motor","8","79","1","0","0","",""
"null","","298577","HierDyu6st8fl4","eezvm9yczb","ms1000405","iti","","null","img/motor_8.png","76","motor","","","","","","",""
"627","","299213","HierDyu6st8fl4","eezvm9yczb","ms1000405","motor","","74","img/motor_6.png","74","motor","6","80","1","0","0","",""
"null","","299328","HierDyu6st8fl4","eezvm9yczb","ms1000405","iti","","null","img/motor_6.png","74","motor","","","","","","",""
"515","","299859","HierDyu6st8fl4","eezvm9yczb","ms1000405","motor","","74","img/motor_6.png","74","motor","6","81","1","0","0","",""
"null","","299968","HierDyu6st8fl4","eezvm9yczb","ms1000405","iti","","null","img/motor_6.png","74","motor","","","","","","",""
"566","","300547","HierDyu6st8fl4","eezvm9yczb","ms1000405","motor","","70","img/motor_4.png","70","motor","4","82","1","0","0","",""
"null","","300663","HierDyu6st8fl4","eezvm9yczb","ms1000405","iti","","null","img/motor_4.png","70","motor","","","","","","",""
"517","","301194","HierDyu6st8fl4","eezvm9yczb","ms1000405","motor","","74","img/motor_6.png","74","motor","6","83","1","0","0","",""
"null","","301310","HierDyu6st8fl4","eezvm9yczb","ms1000405","iti","","null","img/motor_6.png","74","motor","","","","","","",""
"574","","301893","HierDyu6st8fl4","eezvm9yczb","ms1000405","motor","","70","img/motor_5.png","72","motor","5","84","0","1","0","",""
"0","","301897","HierDyu6st8fl4","eezvm9yczb","ms1000405","motorRepeat","","72","img/motor_5.png","72","motor","5","84","1","0","0","",""
"null","","302011","HierDyu6st8fl4","eezvm9yczb","ms1000405","iti","","null","img/motor_5.png","72","motor","","","","","","",""
"504","","302524","HierDyu6st8fl4","eezvm9yczb","ms1000405","motor","","74","img/motor_6.png","74","motor","6","85","1","0","0","",""
"null","","302639","HierDyu6st8fl4","eezvm9yczb","ms1000405","iti","","null","img/motor_6.png","74","motor","","","","","","",""
"398","","303045","HierDyu6st8fl4","eezvm9yczb","ms1000405","motor","","72","img/motor_5.png","72","motor","5","86","1","0","0","",""
"null","","303159","HierDyu6st8fl4","eezvm9yczb","ms1000405","iti","","null","img/motor_5.png","72","motor","","","","","","",""
"502","","303669","HierDyu6st8fl4","eezvm9yczb","ms1000405","motor","","68","img/motor_3.png","68","motor","3","87","1","0","0","",""
"null","","303777","HierDyu6st8fl4","eezvm9yczb","ms1000405","iti","","null","img/motor_3.png","68","motor","","","","","","",""
"437","","304221","HierDyu6st8fl4","eezvm9yczb","ms1000405","motor","","76","img/motor_8.png","76","motor","8","88","1","0","0","",""
"null","","304330","HierDyu6st8fl4","eezvm9yczb","ms1000405","iti","","null","img/motor_8.png","76","motor","","","","","","",""
"507","","304845","HierDyu6st8fl4","eezvm9yczb","ms1000405","motor","","70","img/motor_4.png","70","motor","4","89","1","0","0","",""
"null","","304953","HierDyu6st8fl4","eezvm9yczb","ms1000405","iti","","null","img/motor_4.png","70","motor","","","","","","",""
"556","","305517","HierDyu6st8fl4","eezvm9yczb","ms1000405","motor","","74","img/motor_6.png","74","motor","6","90","1","0","0","",""
"null","","305625","HierDyu6st8fl4","eezvm9yczb","ms1000405","iti","","null","img/motor_6.png","74","motor","","","","","","",""
"356","","305988","HierDyu6st8fl4","eezvm9yczb","ms1000405","motor","","75","img/motor_7.png","75","motor","7","91","1","0","0","",""
"null","","306096","HierDyu6st8fl4","eezvm9yczb","ms1000405","iti","","null","img/motor_7.png","75","motor","","","","","","",""
"470","","306573","HierDyu6st8fl4","eezvm9yczb","ms1000405","motor","","72","img/motor_5.png","72","motor","5","92","1","0","0","",""
"null","","306681","HierDyu6st8fl4","eezvm9yczb","ms1000405","iti","","null","img/motor_5.png","72","motor","","","","","","",""
"755","","307444","HierDyu6st8fl4","eezvm9yczb","ms1000405","motor","","68","img/motor_3.png","68","motor","3","93","1","0","0","",""
"null","","307559","HierDyu6st8fl4","eezvm9yczb","ms1000405","iti","","null","img/motor_3.png","68","motor","","","","","","",""
"597","","308164","HierDyu6st8fl4","eezvm9yczb","ms1000405","motor","","75","img/motor_6.png","74","motor","6","94","0","1","0","",""
"281","","308459","HierDyu6st8fl4","eezvm9yczb","ms1000405","motorRepeat","","74","img/motor_6.png","74","motor","6","94","1","0","0","",""
"null","","308567","HierDyu6st8fl4","eezvm9yczb","ms1000405","iti","","null","img/motor_6.png","74","motor","","","","","","",""
"540","","309122","HierDyu6st8fl4","eezvm9yczb","ms1000405","motor","","65","img/motor_1.png","65","motor","1","95","1","0","0","",""
"16","","309232","HierDyu6st8fl4","eezvm9yczb","ms1000405","iti","","83","img/motor_1.png","65","motor","","","","","","",""
"805","","310051","HierDyu6st8fl4","eezvm9yczb","ms1000405","motor","","72","img/motor_5.png","72","motor","5","96","1","0","0","",""
"null","","310167","HierDyu6st8fl4","eezvm9yczb","ms1000405","iti","","null","img/motor_5.png","72","motor","","","","","","",""
"469","","310645","HierDyu6st8fl4","eezvm9yczb","ms1000405","motor","","65","img/motor_1.png","65","motor","1","97","1","0","0","",""
"40","","310759","HierDyu6st8fl4","eezvm9yczb","ms1000405","iti","","83","img/motor_1.png","65","motor","","","","","","",""
"460","","311229","HierDyu6st8fl4","eezvm9yczb","ms1000405","motor","","70","img/motor_4.png","70","motor","4","98","1","0","0","",""
"null","","311337","HierDyu6st8fl4","eezvm9yczb","ms1000405","iti","","null","img/motor_4.png","70","motor","","","","","","",""
"540","","311891","HierDyu6st8fl4","eezvm9yczb","ms1000405","motor","","83","img/motor_2.png","83","motor","2","99","1","0","0","",""
"null","","312000","HierDyu6st8fl4","eezvm9yczb","ms1000405","iti","","null","img/motor_2.png","83","motor","","","","","","",""
"693","","312708","HierDyu6st8fl4","eezvm9yczb","ms1000405","motor","","74","img/motor_6.png","74","motor","6","100","1","0","0","",""
"null","","312816","HierDyu6st8fl4","eezvm9yczb","ms1000405","iti","","null","img/motor_6.png","74","motor","","","","","","",""
"444","","313275","HierDyu6st8fl4","eezvm9yczb","ms1000405","motor","","74","img/motor_6.png","74","motor","6","101","1","0","0","",""
"null","","313390","HierDyu6st8fl4","eezvm9yczb","ms1000405","iti","","null","img/motor_6.png","74","motor","","","","","","",""
"486","","313891","HierDyu6st8fl4","eezvm9yczb","ms1000405","motor","","76","img/motor_8.png","76","motor","8","102","1","0","0","",""
"null","","314007","HierDyu6st8fl4","eezvm9yczb","ms1000405","iti","","null","img/motor_8.png","76","motor","","","","","","",""
"509","","314525","HierDyu6st8fl4","eezvm9yczb","ms1000405","motor","","68","img/motor_3.png","68","motor","3","103","1","0","0","",""
"null","","314639","HierDyu6st8fl4","eezvm9yczb","ms1000405","iti","","null","img/motor_3.png","68","motor","","","","","","",""
"453","","315107","HierDyu6st8fl4","eezvm9yczb","ms1000405","motor","","76","img/motor_8.png","76","motor","8","104","1","0","0","",""
"null","","315222","HierDyu6st8fl4","eezvm9yczb","ms1000405","iti","","null","img/motor_8.png","76","motor","","","","","","",""
"557","","315794","HierDyu6st8fl4","eezvm9yczb","ms1000405","motor","","83","img/motor_2.png","83","motor","2","105","1","0","0","",""
"null","","315904","HierDyu6st8fl4","eezvm9yczb","ms1000405","iti","","null","img/motor_2.png","83","motor","","","","","","",""
"557","","316468","HierDyu6st8fl4","eezvm9yczb","ms1000405","motor","","68","img/motor_3.png","68","motor","3","106","1","0","0","",""
"null","","316576","HierDyu6st8fl4","eezvm9yczb","ms1000405","iti","","null","img/motor_3.png","68","motor","","","","","","",""
"501","","317083","HierDyu6st8fl4","eezvm9yczb","ms1000405","motor","","72","img/motor_5.png","72","motor","5","107","1","0","0","",""
"null","","317191","HierDyu6st8fl4","eezvm9yczb","ms1000405","iti","","null","img/motor_5.png","72","motor","","","","","","",""
"517","","317716","HierDyu6st8fl4","eezvm9yczb","ms1000405","motor","","65","img/motor_1.png","65","motor","1","108","1","0","0","",""
"null","","317824","HierDyu6st8fl4","eezvm9yczb","ms1000405","iti","","null","img/motor_1.png","65","motor","","","","","","",""
"556","","318389","HierDyu6st8fl4","eezvm9yczb","ms1000405","motor","","74","img/motor_7.png","75","motor","7","109","0","1","0","",""
"272","","318668","HierDyu6st8fl4","eezvm9yczb","ms1000405","motorRepeat","","75","img/motor_7.png","75","motor","7","109","1","0","0","",""
"null","","318777","HierDyu6st8fl4","eezvm9yczb","ms1000405","iti","","null","img/motor_7.png","75","motor","","","","","","",""
"549","","319332","HierDyu6st8fl4","eezvm9yczb","ms1000405","motor","","70","img/motor_4.png","70","motor","4","110","1","0","0","",""
"null","","319440","HierDyu6st8fl4","eezvm9yczb","ms1000405","iti","","null","img/motor_4.png","70","motor","","","","","","",""
"518","","319965","HierDyu6st8fl4","eezvm9yczb","ms1000405","motor","","75","img/motor_7.png","75","motor","7","111","1","0","0","",""
"null","","320073","HierDyu6st8fl4","eezvm9yczb","ms1000405","iti","","null","img/motor_7.png","75","motor","","","","","","",""
"428","","320515","HierDyu6st8fl4","eezvm9yczb","ms1000405","motor","","75","img/motor_7.png","75","motor","7","112","1","0","0","",""
"null","","320630","HierDyu6st8fl4","eezvm9yczb","ms1000405","iti","","null","img/motor_7.png","75","motor","","","","","","",""
"693","","321333","HierDyu6st8fl4","eezvm9yczb","ms1000405","motor","","65","img/motor_1.png","65","motor","1","113","1","0","0","",""
"null","","321447","HierDyu6st8fl4","eezvm9yczb","ms1000405","iti","","null","img/motor_1.png","65","motor","","","","","","",""
"532","","321995","HierDyu6st8fl4","eezvm9yczb","ms1000405","motor","","70","img/motor_4.png","70","motor","4","114","1","0","0","",""
"null","","322110","HierDyu6st8fl4","eezvm9yczb","ms1000405","iti","","null","img/motor_4.png","70","motor","","","","","","",""
"470","","322595","HierDyu6st8fl4","eezvm9yczb","ms1000405","motor","","76","img/motor_8.png","76","motor","8","115","1","0","0","",""
"null","","322704","HierDyu6st8fl4","eezvm9yczb","ms1000405","iti","","null","img/motor_8.png","76","motor","","","","","","",""
"558","","323269","HierDyu6st8fl4","eezvm9yczb","ms1000405","motor","","83","img/motor_3.png","68","motor","3","116","0","1","0","",""
"287","","323564","HierDyu6st8fl4","eezvm9yczb","ms1000405","motorRepeat","","68","img/motor_3.png","68","motor","3","116","1","0","0","",""
"null","","323673","HierDyu6st8fl4","eezvm9yczb","ms1000405","iti","","null","img/motor_3.png","68","motor","","","","","","",""
"556","","324236","HierDyu6st8fl4","eezvm9yczb","ms1000405","motor","","83","img/motor_2.png","83","motor","2","117","1","0","0","",""
"null","","324346","HierDyu6st8fl4","eezvm9yczb","ms1000405","iti","","null","img/motor_2.png","83","motor","","","","","","",""
"452","","324804","HierDyu6st8fl4","eezvm9yczb","ms1000405","motor","","83","img/motor_2.png","83","motor","2","118","1","0","0","",""
"null","","324912","HierDyu6st8fl4","eezvm9yczb","ms1000405","iti","","null","img/motor_2.png","83","motor","","","","","","",""
"533","","325452","HierDyu6st8fl4","eezvm9yczb","ms1000405","motor","","70","img/motor_4.png","70","motor","4","119","1","0","0","",""
"null","","325561","HierDyu6st8fl4","eezvm9yczb","ms1000405","iti","","null","img/motor_4.png","70","motor","","","","","","",""
"635","","326209","HierDyu6st8fl4","eezvm9yczb","ms1000405","motor","","68","img/motor_3.png","68","motor","3","120","1","0","0","",""
"null","","326318","HierDyu6st8fl4","eezvm9yczb","ms1000405","iti","","null","img/motor_3.png","68","motor","","","","","","",""
"526","","326852","HierDyu6st8fl4","eezvm9yczb","ms1000405","motor","","70","img/motor_4.png","70","motor","4","121","1","0","0","",""
"null","","326961","HierDyu6st8fl4","eezvm9yczb","ms1000405","iti","","null","img/motor_4.png","70","motor","","","","","","",""
"477","","327445","HierDyu6st8fl4","eezvm9yczb","ms1000405","motor","","65","img/motor_1.png","65","motor","1","122","1","0","0","",""
"null","","327554","HierDyu6st8fl4","eezvm9yczb","ms1000405","iti","","null","img/motor_1.png","65","motor","","","","","","",""
"555","","328123","HierDyu6st8fl4","eezvm9yczb","ms1000405","motor","","76","img/motor_8.png","76","motor","8","123","1","0","0","",""
"null","","328233","HierDyu6st8fl4","eezvm9yczb","ms1000405","iti","","null","img/motor_8.png","76","motor","","","","","","",""
"476","","328717","HierDyu6st8fl4","eezvm9yczb","ms1000405","motor","","65","img/motor_1.png","65","motor","1","124","1","0","0","",""
"null","","328832","HierDyu6st8fl4","eezvm9yczb","ms1000405","iti","","null","img/motor_1.png","65","motor","","","","","","",""
"597","","329443","HierDyu6st8fl4","eezvm9yczb","ms1000405","motor","","74","img/motor_6.png","74","motor","6","125","1","0","0","",""
"null","","329553","HierDyu6st8fl4","eezvm9yczb","ms1000405","iti","","null","img/motor_6.png","74","motor","","","","","","",""
"820","","330386","HierDyu6st8fl4","eezvm9yczb","ms1000405","motor","","70","img/motor_4.png","70","motor","4","126","1","0","0","",""
"null","","330496","HierDyu6st8fl4","eezvm9yczb","ms1000405","iti","","null","img/motor_4.png","70","motor","","","","","","",""
"421","","330923","HierDyu6st8fl4","eezvm9yczb","ms1000405","motor","","76","img/motor_8.png","76","motor","8","127","1","0","0","",""
"null","","331038","HierDyu6st8fl4","eezvm9yczb","ms1000405","iti","","null","img/motor_8.png","76","motor","","","","","","",""
"566","","331612","HierDyu6st8fl4","eezvm9yczb","ms1000405","motor","","68","img/motor_3.png","68","motor","3","128","1","0","0","",""
"null","","331721","HierDyu6st8fl4","eezvm9yczb","ms1000405","iti","","null","img/motor_3.png","68","motor","","","","","","",""
"524","","332253","HierDyu6st8fl4","eezvm9yczb","ms1000405","motor","","83","img/motor_2.png","83","motor","2","129","1","0","0","",""
"null","","332361","HierDyu6st8fl4","eezvm9yczb","ms1000405","iti","","null","img/motor_2.png","83","motor","","","","","","",""
"595","","332971","HierDyu6st8fl4","eezvm9yczb","ms1000405","motor","","72","img/motor_5.png","72","motor","5","130","1","0","0","",""
"null","","333087","HierDyu6st8fl4","eezvm9yczb","ms1000405","iti","","null","img/motor_5.png","72","motor","","","","","","",""
"341","","333437","HierDyu6st8fl4","eezvm9yczb","ms1000405","motor","","75","img/motor_7.png","75","motor","7","131","1","0","0","",""
"null","","333546","HierDyu6st8fl4","eezvm9yczb","ms1000405","iti","","null","img/motor_7.png","75","motor","","","","","","",""
"1020","","334580","HierDyu6st8fl4","eezvm9yczb","ms1000405","motor","","72","img/motor_6.png","74","motor","6","132","0","1","0","",""
"49","","334636","HierDyu6st8fl4","eezvm9yczb","ms1000405","motorRepeat","","74","img/motor_6.png","74","motor","6","132","1","0","0","",""
"null","","334744","HierDyu6st8fl4","eezvm9yczb","ms1000405","iti","","null","img/motor_6.png","74","motor","","","","","","",""
"117","","334868","HierDyu6st8fl4","eezvm9yczb","ms1000405","motor","","74","img/motor_1.png","65","motor","1","133","0","1","0","",""
"368","","335243","HierDyu6st8fl4","eezvm9yczb","ms1000405","motorRepeat","","65","img/motor_1.png","65","motor","1","133","1","0","0","",""
"16","","335358","HierDyu6st8fl4","eezvm9yczb","ms1000405","iti","","83","img/motor_1.png","65","motor","","","","","","",""
"470","","335837","HierDyu6st8fl4","eezvm9yczb","ms1000405","motor","","72","img/motor_6.png","74","motor","6","134","0","1","0","",""
"343","","336188","HierDyu6st8fl4","eezvm9yczb","ms1000405","motorRepeat","","74","img/motor_6.png","74","motor","6","134","1","0","0","",""
"null","","336297","HierDyu6st8fl4","eezvm9yczb","ms1000405","iti","","null","img/motor_6.png","74","motor","","","","","","",""
"668","","336973","HierDyu6st8fl4","eezvm9yczb","ms1000405","motor","","68","img/motor_3.png","68","motor","3","135","1","0","0","",""
"null","","337082","HierDyu6st8fl4","eezvm9yczb","ms1000405","iti","","null","img/motor_3.png","68","motor","","","","","","",""
"300","","337389","HierDyu6st8fl4","eezvm9yczb","ms1000405","motor","","68","img/motor_3.png","68","motor","3","136","1","0","0","",""
"null","","337498","HierDyu6st8fl4","eezvm9yczb","ms1000405","iti","","null","img/motor_3.png","68","motor","","","","","","",""
"522","","338029","HierDyu6st8fl4","eezvm9yczb","ms1000405","motor","","72","img/motor_5.png","72","motor","5","137","1","0","0","",""
"null","","338137","HierDyu6st8fl4","eezvm9yczb","ms1000405","iti","","null","img/motor_5.png","72","motor","","","","","","",""
"556","","338707","HierDyu6st8fl4","eezvm9yczb","ms1000405","motor","","68","img/motor_3.png","68","motor","3","138","1","0","0","",""
"null","","338816","HierDyu6st8fl4","eezvm9yczb","ms1000405","iti","","null","img/motor_3.png","68","motor","","","","","","",""
"333","","339157","HierDyu6st8fl4","eezvm9yczb","ms1000405","motor","","68","img/motor_2.png","83","motor","2","139","0","1","0","",""
"311","","339483","HierDyu6st8fl4","eezvm9yczb","ms1000405","motorRepeat","","83","img/motor_2.png","83","motor","2","139","1","0","0","",""
"null","","339598","HierDyu6st8fl4","eezvm9yczb","ms1000405","iti","","null","img/motor_2.png","83","motor","","","","","","",""
"582","","340189","HierDyu6st8fl4","eezvm9yczb","ms1000405","motor","","68","img/motor_3.png","68","motor","3","140","1","0","0","",""
"null","","340297","HierDyu6st8fl4","eezvm9yczb","ms1000405","iti","","null","img/motor_3.png","68","motor","","","","","","",""
"452","","340757","HierDyu6st8fl4","eezvm9yczb","ms1000405","motor","","68","img/motor_3.png","68","motor","3","141","1","0","0","",""
"null","","340865","HierDyu6st8fl4","eezvm9yczb","ms1000405","iti","","null","img/motor_3.png","68","motor","","","","","","",""
"1204","","342077","HierDyu6st8fl4","eezvm9yczb","ms1000405","motor","","70","img/motor_4.png","70","motor","4","142","1","0","0","",""
"null","","342192","HierDyu6st8fl4","eezvm9yczb","ms1000405","iti","","null","img/motor_4.png","70","motor","","","","","","",""
"733","","342933","HierDyu6st8fl4","eezvm9yczb","ms1000405","motor","","83","img/motor_2.png","83","motor","2","143","1","0","0","",""
"null","","343048","HierDyu6st8fl4","eezvm9yczb","ms1000405","iti","","null","img/motor_2.png","83","motor","","","","","","",""
"877","","343939","HierDyu6st8fl4","eezvm9yczb","ms1000405","motor","","70","img/motor_4.png","70","motor","4","144","1","0","0","",""
"null","","344055","HierDyu6st8fl4","eezvm9yczb","ms1000405","iti","","null","img/motor_4.png","70","motor","","","","","","",""
"542","","344603","HierDyu6st8fl4","eezvm9yczb","ms1000405","motor","","75","img/motor_7.png","75","motor","7","145","1","0","0","",""
"null","","344718","HierDyu6st8fl4","eezvm9yczb","ms1000405","iti","","null","img/motor_7.png","75","motor","","","","","","",""
"661","","345389","HierDyu6st8fl4","eezvm9yczb","ms1000405","motor","","83","img/motor_2.png","83","motor","2","146","1","0","0","",""
"null","","345504","HierDyu6st8fl4","eezvm9yczb","ms1000405","iti","","null","img/motor_2.png","83","motor","","","","","","",""
"492","","346005","HierDyu6st8fl4","eezvm9yczb","ms1000405","motor","","76","img/motor_8.png","76","motor","8","147","1","0","0","",""
"null","","346120","HierDyu6st8fl4","eezvm9yczb","ms1000405","iti","","null","img/motor_8.png","76","motor","","","","","","",""
"581","","346716","HierDyu6st8fl4","eezvm9yczb","ms1000405","motor","","74","img/motor_6.png","74","motor","6","148","1","0","0","",""
"null","","346824","HierDyu6st8fl4","eezvm9yczb","ms1000405","iti","","null","img/motor_6.png","74","motor","","","","","","",""
"395","","347235","HierDyu6st8fl4","eezvm9yczb","ms1000405","motor","","76","img/motor_8.png","76","motor","8","149","1","0","0","",""
"null","","347343","HierDyu6st8fl4","eezvm9yczb","ms1000405","iti","","null","img/motor_8.png","76","motor","","","","","","",""
"325","","347677","HierDyu6st8fl4","eezvm9yczb","ms1000405","motor","","76","img/motor_7.png","75","motor","7","150","0","1","0","",""
"216","","347901","HierDyu6st8fl4","eezvm9yczb","ms1000405","motorRepeat","","74","img/motor_7.png","75","motor","7","150","0","1","0","",""
"409","","348316","HierDyu6st8fl4","eezvm9yczb","ms1000405","motorRepeat","","75","img/motor_7.png","75","motor","7","150","1","0","0","",""
"null","","348424","HierDyu6st8fl4","eezvm9yczb","ms1000405","iti","","null","img/motor_7.png","75","motor","","","","","","",""
"373","","348805","HierDyu6st8fl4","eezvm9yczb","ms1000405","motor","","76","img/motor_8.png","76","motor","8","151","1","0","0","",""
"null","","348914","HierDyu6st8fl4","eezvm9yczb","ms1000405","iti","","null","img/motor_8.png","76","motor","","","","","","",""
"579","","349507","HierDyu6st8fl4","eezvm9yczb","ms1000405","motor","","65","img/motor_1.png","65","motor","1","152","1","0","0","",""
"null","","349616","HierDyu6st8fl4","eezvm9yczb","ms1000405","iti","","null","img/motor_1.png","65","motor","","","","","","",""
"468","","350093","HierDyu6st8fl4","eezvm9yczb","ms1000405","motor","","76","img/motor_8.png","76","motor","8","153","1","0","0","",""
"null","","350209","HierDyu6st8fl4","eezvm9yczb","ms1000405","iti","","null","img/motor_8.png","76","motor","","","","","","",""
"597","","350820","HierDyu6st8fl4","eezvm9yczb","ms1000405","motor","","83","img/motor_2.png","83","motor","2","154","1","0","0","",""
"null","","350934","HierDyu6st8fl4","eezvm9yczb","ms1000405","iti","","null","img/motor_2.png","83","motor","","","","","","",""
"549","","351491","HierDyu6st8fl4","eezvm9yczb","ms1000405","motor","","74","img/motor_6.png","74","motor","6","155","1","0","0","",""
"null","","351606","HierDyu6st8fl4","eezvm9yczb","ms1000405","iti","","null","img/motor_6.png","74","motor","","","","","","",""
"438","","352060","HierDyu6st8fl4","eezvm9yczb","ms1000405","motor","","68","img/motor_2.png","83","motor","2","156","0","1","0","",""
"312","","352381","HierDyu6st8fl4","eezvm9yczb","ms1000405","motorRepeat","","83","img/motor_2.png","83","motor","2","156","1","0","0","",""
"null","","352489","HierDyu6st8fl4","eezvm9yczb","ms1000405","iti","","null","img/motor_2.png","83","motor","","","","","","",""
"668","","353165","HierDyu6st8fl4","eezvm9yczb","ms1000405","motor","","75","img/motor_7.png","75","motor","7","157","1","0","0","",""
"null","","353280","HierDyu6st8fl4","eezvm9yczb","ms1000405","iti","","null","img/motor_7.png","75","motor","","","","","","",""
"565","","353853","HierDyu6st8fl4","eezvm9yczb","ms1000405","motor","","83","img/motor_2.png","83","motor","2","158","1","0","0","",""
"null","","353961","HierDyu6st8fl4","eezvm9yczb","ms1000405","iti","","null","img/motor_2.png","83","motor","","","","","","",""
"468","","354437","HierDyu6st8fl4","eezvm9yczb","ms1000405","motor","","68","img/motor_3.png","68","motor","3","159","1","0","0","",""
"null","","354545","HierDyu6st8fl4","eezvm9yczb","ms1000405","iti","","null","img/motor_3.png","68","motor","","","","","","",""
"475","","355029","HierDyu6st8fl4","eezvm9yczb","ms1000405","motor","","72","img/motor_5.png","72","motor","5","160","1","0","0","",""
"null","","355138","HierDyu6st8fl4","eezvm9yczb","ms1000405","iti","","null","img/motor_5.png","72","motor","","","","","","",""
"524","","355669","HierDyu6st8fl4","eezvm9yczb","ms1000405","motor","","83","img/motor_2.png","83","motor","2","161","1","0","0","",""
"null","","355777","HierDyu6st8fl4","eezvm9yczb","ms1000405","iti","","null","img/motor_2.png","83","motor","","","","","","",""
"500","","356284","HierDyu6st8fl4","eezvm9yczb","ms1000405","motor","","68","img/motor_3.png","68","motor","3","162","1","0","0","",""
"null","","356399","HierDyu6st8fl4","eezvm9yczb","ms1000405","iti","","null","img/motor_3.png","68","motor","","","","","","",""
"469","","356883","HierDyu6st8fl4","eezvm9yczb","ms1000405","motor","","74","img/motor_6.png","74","motor","6","163","1","0","0","",""
"null","","356992","HierDyu6st8fl4","eezvm9yczb","ms1000405","iti","","null","img/motor_6.png","74","motor","","","","","","",""
"205","","357211","HierDyu6st8fl4","eezvm9yczb","ms1000405","motor","","75","img/motor_5.png","72","motor","5","164","0","1","0","",""
"360","","357580","HierDyu6st8fl4","eezvm9yczb","ms1000405","motorRepeat","","74","img/motor_5.png","72","motor","5","164","0","1","0","",""
"265","","357853","HierDyu6st8fl4","eezvm9yczb","ms1000405","motorRepeat","","72","img/motor_5.png","72","motor","5","164","1","0","0","",""
"null","","357968","HierDyu6st8fl4","eezvm9yczb","ms1000405","iti","","null","img/motor_5.png","72","motor","","","","","","",""
"540","","358524","HierDyu6st8fl4","eezvm9yczb","ms1000405","motor","","65","img/motor_1.png","65","motor","1","165","1","0","0","",""
"null","","358634","HierDyu6st8fl4","eezvm9yczb","ms1000405","iti","","null","img/motor_1.png","65","motor","","","","","","",""
"963","","359605","HierDyu6st8fl4","eezvm9yczb","ms1000405","motor","","68","img/motor_3.png","68","motor","3","166","1","0","0","",""
"null","","359719","HierDyu6st8fl4","eezvm9yczb","ms1000405","iti","","null","img/motor_3.png","68","motor","","","","","","",""
"678","","360404","HierDyu6st8fl4","eezvm9yczb","ms1000405","motor","","83","img/motor_2.png","83","motor","2","167","1","0","0","",""
"null","","360512","HierDyu6st8fl4","eezvm9yczb","ms1000405","iti","","null","img/motor_2.png","83","motor","","","","","","",""
"556","","361077","HierDyu6st8fl4","eezvm9yczb","ms1000405","motor","","65","img/motor_1.png","65","motor","1","168","1","0","0","",""
"null","","361185","HierDyu6st8fl4","eezvm9yczb","ms1000405","iti","","null","img/motor_1.png","65","motor","","","","","","",""
"596","","361796","HierDyu6st8fl4","eezvm9yczb","ms1000405","motor","","70","img/motor_4.png","70","motor","4","169","1","0","0","",""
"null","","361904","HierDyu6st8fl4","eezvm9yczb","ms1000405","iti","","null","img/motor_4.png","70","motor","","","","","","",""
"493","","362405","HierDyu6st8fl4","eezvm9yczb","ms1000405","motor","","72","img/motor_5.png","72","motor","5","170","1","0","0","",""
"null","","362513","HierDyu6st8fl4","eezvm9yczb","ms1000405","iti","","null","img/motor_5.png","72","motor","","","","","","",""
"708","","363235","HierDyu6st8fl4","eezvm9yczb","ms1000405","motor","","74","img/motor_6.png","74","motor","6","171","1","0","0","",""
"null","","363344","HierDyu6st8fl4","eezvm9yczb","ms1000405","iti","","null","img/motor_6.png","74","motor","","","","","","",""
"365","","363724","HierDyu6st8fl4","eezvm9yczb","ms1000405","motor","","76","img/motor_8.png","76","motor","8","172","1","0","0","",""
"null","","363838","HierDyu6st8fl4","eezvm9yczb","ms1000405","iti","","null","img/motor_8.png","76","motor","","","","","","",""
"798","","364651","HierDyu6st8fl4","eezvm9yczb","ms1000405","motor","","83","img/motor_2.png","83","motor","2","173","1","0","0","",""
"null","","364766","HierDyu6st8fl4","eezvm9yczb","ms1000405","iti","","null","img/motor_2.png","83","motor","","","","","","",""
"598","","365373","HierDyu6st8fl4","eezvm9yczb","ms1000405","motor","","74","img/motor_6.png","74","motor","6","174","1","0","0","",""
"null","","365481","HierDyu6st8fl4","eezvm9yczb","ms1000405","iti","","null","img/motor_6.png","74","motor","","","","","","",""
"588","","366076","HierDyu6st8fl4","eezvm9yczb","ms1000405","motor","","75","img/motor_7.png","75","motor","7","175","1","0","0","",""
"null","","366191","HierDyu6st8fl4","eezvm9yczb","ms1000405","iti","","null","img/motor_7.png","75","motor","","","","","","",""
"493","","366699","HierDyu6st8fl4","eezvm9yczb","ms1000405","motor","","70","img/motor_4.png","70","motor","4","176","1","0","0","",""
"null","","366808","HierDyu6st8fl4","eezvm9yczb","ms1000405","iti","","null","img/motor_4.png","70","motor","","","","","","",""
"397","","367212","HierDyu6st8fl4","eezvm9yczb","ms1000405","motor","","74","img/motor_6.png","74","motor","6","177","1","0","0","",""
"null","","367327","HierDyu6st8fl4","eezvm9yczb","ms1000405","iti","","null","img/motor_6.png","74","motor","","","","","","",""
"429","","367765","HierDyu6st8fl4","eezvm9yczb","ms1000405","motor","","72","img/motor_5.png","72","motor","5","178","1","0","0","",""
"null","","367873","HierDyu6st8fl4","eezvm9yczb","ms1000405","iti","","null","img/motor_5.png","72","motor","","","","","","",""
"324","","368212","HierDyu6st8fl4","eezvm9yczb","ms1000405","motor","","70","img/motor_4.png","70","motor","4","179","1","0","0","",""
"null","","368321","HierDyu6st8fl4","eezvm9yczb","ms1000405","iti","","null","img/motor_4.png","70","motor","","","","","","",""
"388","","368717","HierDyu6st8fl4","eezvm9yczb","ms1000405","motor","","76","img/motor_7.png","75","motor","7","180","0","1","0","",""
"312","","369043","HierDyu6st8fl4","eezvm9yczb","ms1000405","motorRepeat","","75","img/motor_7.png","75","motor","7","180","1","0","0","",""
"null","","369152","HierDyu6st8fl4","eezvm9yczb","ms1000405","iti","","null","img/motor_7.png","75","motor","","","","","","",""
"501","","369667","HierDyu6st8fl4","eezvm9yczb","ms1000405","motor","","74","img/motor_6.png","74","motor","6","181","1","0","0","",""
"null","","369782","HierDyu6st8fl4","eezvm9yczb","ms1000405","iti","","null","img/motor_6.png","74","motor","","","","","","",""
"462","","370253","HierDyu6st8fl4","eezvm9yczb","ms1000405","motor","","65","img/motor_1.png","65","motor","1","182","1","0","0","",""
"null","","370361","HierDyu6st8fl4","eezvm9yczb","ms1000405","iti","","null","img/motor_1.png","65","motor","","","","","","",""
"692","","371067","HierDyu6st8fl4","eezvm9yczb","ms1000405","motor","","68","img/motor_3.png","68","motor","3","183","1","0","0","",""
"null","","371177","HierDyu6st8fl4","eezvm9yczb","ms1000405","iti","","null","img/motor_3.png","68","motor","","","","","","",""
"419","","371605","HierDyu6st8fl4","eezvm9yczb","ms1000405","motor","","83","img/motor_2.png","83","motor","2","184","1","0","0","",""
"null","","371713","HierDyu6st8fl4","eezvm9yczb","ms1000405","iti","","null","img/motor_2.png","83","motor","","","","","","",""
"410","","372133","HierDyu6st8fl4","eezvm9yczb","ms1000405","motor","","83","img/motor_2.png","83","motor","2","185","1","0","0","",""
"null","","372247","HierDyu6st8fl4","eezvm9yczb","ms1000405","iti","","null","img/motor_2.png","83","motor","","","","","","",""
"516","","372773","HierDyu6st8fl4","eezvm9yczb","ms1000405","motor","","72","img/motor_5.png","72","motor","5","186","1","0","0","",""
"null","","372881","HierDyu6st8fl4","eezvm9yczb","ms1000405","iti","","null","img/motor_5.png","72","motor","","","","","","",""
"524","","373413","HierDyu6st8fl4","eezvm9yczb","ms1000405","motor","","76","img/motor_8.png","76","motor","8","187","1","0","0","",""
"null","","373521","HierDyu6st8fl4","eezvm9yczb","ms1000405","iti","","null","img/motor_8.png","76","motor","","","","","","",""
"484","","374013","HierDyu6st8fl4","eezvm9yczb","ms1000405","motor","","83","img/motor_3.png","68","motor","3","188","0","1","0","",""
"248","","374267","HierDyu6st8fl4","eezvm9yczb","ms1000405","motorRepeat","","68","img/motor_3.png","68","motor","3","188","1","0","0","",""
"null","","374376","HierDyu6st8fl4","eezvm9yczb","ms1000405","iti","","null","img/motor_3.png","68","motor","","","","","","",""
"470","","374852","HierDyu6st8fl4","eezvm9yczb","ms1000405","motor","","70","img/motor_4.png","70","motor","4","189","1","0","0","",""
"null","","374961","HierDyu6st8fl4","eezvm9yczb","ms1000405","iti","","null","img/motor_4.png","70","motor","","","","","","",""
"500","","375476","HierDyu6st8fl4","eezvm9yczb","ms1000405","motor","","70","img/motor_4.png","70","motor","4","190","1","0","0","",""
"null","","375591","HierDyu6st8fl4","eezvm9yczb","ms1000405","iti","","null","img/motor_4.png","70","motor","","","","","","",""
"485","","376091","HierDyu6st8fl4","eezvm9yczb","ms1000405","motor","","76","img/motor_8.png","76","motor","8","191","1","0","0","",""
"null","","376207","HierDyu6st8fl4","eezvm9yczb","ms1000405","iti","","null","img/motor_8.png","76","motor","","","","","","",""
"557","","376772","HierDyu6st8fl4","eezvm9yczb","ms1000405","motor","","74","img/motor_6.png","74","motor","6","192","1","0","0","",""
"null","","376888","HierDyu6st8fl4","eezvm9yczb","ms1000405","iti","","null","img/motor_6.png","74","motor","","","","","","",""
"501","","377404","HierDyu6st8fl4","eezvm9yczb","ms1000405","motor","","72","img/motor_5.png","72","motor","5","193","1","0","0","",""
"null","","377519","HierDyu6st8fl4","eezvm9yczb","ms1000405","iti","","null","img/motor_5.png","72","motor","","","","","","",""
"436","","377972","HierDyu6st8fl4","eezvm9yczb","ms1000405","motor","","74","img/motor_6.png","74","motor","6","194","1","0","0","",""
"null","","378080","HierDyu6st8fl4","eezvm9yczb","ms1000405","iti","","null","img/motor_6.png","74","motor","","","","","","",""
"389","","378483","HierDyu6st8fl4","eezvm9yczb","ms1000405","motor","","76","img/motor_8.png","76","motor","8","195","1","0","0","",""
"null","","378593","HierDyu6st8fl4","eezvm9yczb","ms1000405","iti","","null","img/motor_8.png","76","motor","","","","","","",""
"573","","379174","HierDyu6st8fl4","eezvm9yczb","ms1000405","motor","","70","img/motor_4.png","70","motor","4","196","1","0","0","",""
"null","","379281","HierDyu6st8fl4","eezvm9yczb","ms1000405","iti","","null","img/motor_4.png","70","motor","","","","","","",""
"347","","379637","HierDyu6st8fl4","eezvm9yczb","ms1000405","motor","","83","img/motor_3.png","68","motor","3","197","0","1","0","",""
"16","","379664","HierDyu6st8fl4","eezvm9yczb","ms1000405","motorRepeat","","68","img/motor_3.png","68","motor","3","197","1","0","0","",""
"null","","379779","HierDyu6st8fl4","eezvm9yczb","ms1000405","iti","","null","img/motor_3.png","68","motor","","","","","","",""
"426","","380213","HierDyu6st8fl4","eezvm9yczb","ms1000405","motor","","74","img/motor_5.png","72","motor","5","198","0","1","0","",""
"288","","380509","HierDyu6st8fl4","eezvm9yczb","ms1000405","motorRepeat","","72","img/motor_5.png","72","motor","5","198","1","0","0","",""
"null","","380617","HierDyu6st8fl4","eezvm9yczb","ms1000405","iti","","null","img/motor_5.png","72","motor","","","","","","",""
"611","","381244","HierDyu6st8fl4","eezvm9yczb","ms1000405","motor","","83","img/motor_2.png","83","motor","2","199","1","0","0","",""
"null","","381359","HierDyu6st8fl4","eezvm9yczb","ms1000405","iti","","null","img/motor_2.png","83","motor","","","","","","",""
"525","","381899","HierDyu6st8fl4","eezvm9yczb","ms1000405","motor","","75","img/motor_7.png","75","motor","7","200","1","0","0","",""
"null","","382008","HierDyu6st8fl4","eezvm9yczb","ms1000405","iti","","null","img/motor_7.png","75","motor","","","","","","",""
"357","","382372","HierDyu6st8fl4","eezvm9yczb","ms1000405","motor","","83","img/motor_1.png","65","motor","1","201","0","1","0","",""
"32","","382418","HierDyu6st8fl4","eezvm9yczb","ms1000405","motorRepeat","","65","img/motor_1.png","65","motor","1","201","1","0","0","",""
"null","","382527","HierDyu6st8fl4","eezvm9yczb","ms1000405","iti","","null","img/motor_1.png","65","motor","","","","","","",""
"597","","383139","HierDyu6st8fl4","eezvm9yczb","ms1000405","motor","","75","img/motor_7.png","75","motor","7","202","1","0","0","",""
"null","","383256","HierDyu6st8fl4","eezvm9yczb","ms1000405","iti","","null","img/motor_7.png","75","motor","","","","","","",""
"380","","383644","HierDyu6st8fl4","eezvm9yczb","ms1000405","motor","","76","img/motor_8.png","76","motor","8","203","1","0","0","",""
"null","","383759","HierDyu6st8fl4","eezvm9yczb","ms1000405","iti","","null","img/motor_8.png","76","motor","","","","","","",""
"533","","384308","HierDyu6st8fl4","eezvm9yczb","ms1000405","motor","","70","img/motor_4.png","70","motor","4","204","1","0","0","",""
"null","","384424","HierDyu6st8fl4","eezvm9yczb","ms1000405","iti","","null","img/motor_4.png","70","motor","","","","","","",""
"404","","384836","HierDyu6st8fl4","eezvm9yczb","ms1000405","motor","","76","img/motor_8.png","76","motor","8","205","1","0","0","",""
"null","","384945","HierDyu6st8fl4","eezvm9yczb","ms1000405","iti","","null","img/motor_8.png","76","motor","","","","","","",""
"516","","385468","HierDyu6st8fl4","eezvm9yczb","ms1000405","motor","","74","img/motor_7.png","75","motor","7","206","0","1","0","",""
"496","","385979","HierDyu6st8fl4","eezvm9yczb","ms1000405","motorRepeat","","74","img/motor_7.png","75","motor","7","206","0","1","0","",""
"56","","386051","HierDyu6st8fl4","eezvm9yczb","ms1000405","motorRepeat","","75","img/motor_7.png","75","motor","7","206","1","0","0","",""
"null","","386160","HierDyu6st8fl4","eezvm9yczb","ms1000405","iti","","null","img/motor_7.png","75","motor","","","","","","",""
"532","","386701","HierDyu6st8fl4","eezvm9yczb","ms1000405","motor","","68","img/motor_4.png","70","motor","4","207","0","1","0","",""
"1","","386705","HierDyu6st8fl4","eezvm9yczb","ms1000405","motorRepeat","","70","img/motor_4.png","70","motor","4","207","1","0","0","",""
"null","","386821","HierDyu6st8fl4","eezvm9yczb","ms1000405","iti","","null","img/motor_4.png","70","motor","","","","","","",""
"583","","387413","HierDyu6st8fl4","eezvm9yczb","ms1000405","motor","","72","img/motor_5.png","72","motor","5","208","1","0","0","",""
"null","","387522","HierDyu6st8fl4","eezvm9yczb","ms1000405","iti","","null","img/motor_5.png","72","motor","","","","","","",""
"419","","387955","HierDyu6st8fl4","eezvm9yczb","ms1000405","motor","","70","img/motor_4.png","70","motor","4","209","1","0","0","",""
"null","","388071","HierDyu6st8fl4","eezvm9yczb","ms1000405","iti","","null","img/motor_4.png","70","motor","","","","","","",""
"605","","388685","HierDyu6st8fl4","eezvm9yczb","ms1000405","motor","","74","img/motor_7.png","75","motor","7","210","0","1","0","",""
"15","","388712","HierDyu6st8fl4","eezvm9yczb","ms1000405","motorRepeat","","75","img/motor_7.png","75","motor","7","210","1","0","0","",""
"null","","388820","HierDyu6st8fl4","eezvm9yczb","ms1000405","iti","","null","img/motor_7.png","75","motor","","","","","","",""
"450","","389284","HierDyu6st8fl4","eezvm9yczb","ms1000405","motor","","70","img/motor_3.png","68","motor","3","211","0","1","0","",""
"305","","389604","HierDyu6st8fl4","eezvm9yczb","ms1000405","motorRepeat","","68","img/motor_3.png","68","motor","3","211","1","0","0","",""
"null","","389719","HierDyu6st8fl4","eezvm9yczb","ms1000405","iti","","null","img/motor_3.png","68","motor","","","","","","",""
"725","","390452","HierDyu6st8fl4","eezvm9yczb","ms1000405","motor","","83","img/motor_2.png","83","motor","2","212","1","0","0","",""
"null","","390568","HierDyu6st8fl4","eezvm9yczb","ms1000405","iti","","null","img/motor_2.png","83","motor","","","","","","",""
"570","","391156","HierDyu6st8fl4","eezvm9yczb","ms1000405","motor","","76","img/motor_8.png","76","motor","8","213","1","0","0","",""
"null","","391266","HierDyu6st8fl4","eezvm9yczb","ms1000405","iti","","null","img/motor_8.png","76","motor","","","","","","",""
"435","","391709","HierDyu6st8fl4","eezvm9yczb","ms1000405","motor","","76","img/motor_8.png","76","motor","8","214","1","0","0","",""
"null","","391818","HierDyu6st8fl4","eezvm9yczb","ms1000405","iti","","null","img/motor_8.png","76","motor","","","","","","",""
"660","","392484","HierDyu6st8fl4","eezvm9yczb","ms1000405","motor","","74","img/motor_6.png","74","motor","6","215","1","0","0","",""
"null","","392600","HierDyu6st8fl4","eezvm9yczb","ms1000405","iti","","null","img/motor_6.png","74","motor","","","","","","",""
"667","","393277","HierDyu6st8fl4","eezvm9yczb","ms1000405","motor","","72","img/motor_4.png","70","motor","4","216","0","1","0","",""
"384","","393669","HierDyu6st8fl4","eezvm9yczb","ms1000405","motorRepeat","","83","img/motor_4.png","70","motor","4","216","0","1","0","",""
"6","","393684","HierDyu6st8fl4","eezvm9yczb","ms1000405","motorRepeat","","68","img/motor_4.png","70","motor","4","216","0","1","0","",""
"264","","393956","HierDyu6st8fl4","eezvm9yczb","ms1000405","motorRepeat","","70","img/motor_4.png","70","motor","4","216","1","0","0","",""
"null","","394065","HierDyu6st8fl4","eezvm9yczb","ms1000405","iti","","null","img/motor_4.png","70","motor","","","","","","",""
"490","","394560","HierDyu6st8fl4","eezvm9yczb","ms1000405","motor","","70","img/motor_4.png","70","motor","4","217","1","0","0","",""
"null","","394668","HierDyu6st8fl4","eezvm9yczb","ms1000405","iti","","null","img/motor_4.png","70","motor","","","","","","",""
"513","","395188","HierDyu6st8fl4","eezvm9yczb","ms1000405","motor","","76","img/motor_8.png","76","motor","8","218","1","0","0","",""
"null","","395297","HierDyu6st8fl4","eezvm9yczb","ms1000405","iti","","null","img/motor_8.png","76","motor","","","","","","",""
"332","","395638","HierDyu6st8fl4","eezvm9yczb","ms1000405","motor","","76","img/motor_8.png","76","motor","8","219","1","0","0","",""
"null","","395745","HierDyu6st8fl4","eezvm9yczb","ms1000405","iti","","null","img/motor_8.png","76","motor","","","","","","",""
"595","","396350","HierDyu6st8fl4","eezvm9yczb","ms1000405","motor","","72","img/motor_5.png","72","motor","5","220","1","0","0","",""
"null","","396458","HierDyu6st8fl4","eezvm9yczb","ms1000405","iti","","null","img/motor_5.png","72","motor","","","","","","",""
"427","","396894","HierDyu6st8fl4","eezvm9yczb","ms1000405","motor","","72","img/motor_5.png","72","motor","5","221","1","0","0","",""
"null","","397001","HierDyu6st8fl4","eezvm9yczb","ms1000405","iti","","null","img/motor_5.png","72","motor","","","","","","",""
"629","","397637","HierDyu6st8fl4","eezvm9yczb","ms1000405","motor","","83","img/motor_2.png","83","motor","2","222","1","0","0","",""
"null","","397746","HierDyu6st8fl4","eezvm9yczb","ms1000405","iti","","null","img/motor_2.png","83","motor","","","","","","",""
"372","","398126","HierDyu6st8fl4","eezvm9yczb","ms1000405","motor","","83","img/motor_2.png","83","motor","2","223","1","0","0","",""
"null","","398233","HierDyu6st8fl4","eezvm9yczb","ms1000405","iti","","null","img/motor_2.png","83","motor","","","","","","",""
"572","","398813","HierDyu6st8fl4","eezvm9yczb","ms1000405","motor","","70","img/motor_4.png","70","motor","4","224","1","0","0","",""
"null","","398922","HierDyu6st8fl4","eezvm9yczb","ms1000405","iti","","null","img/motor_4.png","70","motor","","","","","","",""
"620","","399548","HierDyu6st8fl4","eezvm9yczb","ms1000405","motor","","72","img/motor_5.png","72","motor","5","225","1","0","0","",""
"null","","399658","HierDyu6st8fl4","eezvm9yczb","ms1000405","iti","","null","img/motor_5.png","72","motor","","","","","","",""
"620","","400285","HierDyu6st8fl4","eezvm9yczb","ms1000405","motor","","70","img/motor_4.png","70","motor","4","226","1","0","0","",""
"null","","400399","HierDyu6st8fl4","eezvm9yczb","ms1000405","iti","","null","img/motor_4.png","70","motor","","","","","","",""
"621","","401037","HierDyu6st8fl4","eezvm9yczb","ms1000405","motor","","68","img/motor_3.png","68","motor","3","227","1","0","0","",""
"null","","401146","HierDyu6st8fl4","eezvm9yczb","ms1000405","iti","","null","img/motor_3.png","68","motor","","","","","","",""
"499","","401660","HierDyu6st8fl4","eezvm9yczb","ms1000405","motor","","76","img/motor_8.png","76","motor","8","228","1","0","0","",""
"null","","401775","HierDyu6st8fl4","eezvm9yczb","ms1000405","iti","","null","img/motor_8.png","76","motor","","","","","","",""
"453","","402244","HierDyu6st8fl4","eezvm9yczb","ms1000405","motor","","72","img/motor_5.png","72","motor","5","229","1","0","0","",""
"null","","402352","HierDyu6st8fl4","eezvm9yczb","ms1000405","iti","","null","img/motor_5.png","72","motor","","","","","","",""
"532","","402893","HierDyu6st8fl4","eezvm9yczb","ms1000405","motor","","70","img/motor_4.png","70","motor","4","230","1","0","0","",""
"null","","403002","HierDyu6st8fl4","eezvm9yczb","ms1000405","iti","","null","img/motor_4.png","70","motor","","","","","","",""
"621","","403629","HierDyu6st8fl4","eezvm9yczb","ms1000405","motor","","75","img/motor_7.png","75","motor","7","231","1","0","0","",""
"null","","403737","HierDyu6st8fl4","eezvm9yczb","ms1000405","iti","","null","img/motor_7.png","75","motor","","","","","","",""
"788","","404533","HierDyu6st8fl4","eezvm9yczb","ms1000405","motor","","83","img/motor_2.png","83","motor","2","232","1","0","0","",""
"null","","404648","HierDyu6st8fl4","eezvm9yczb","ms1000405","iti","","null","img/motor_2.png","83","motor","","","","","","",""
"604","","405262","HierDyu6st8fl4","eezvm9yczb","ms1000405","motor","","75","img/motor_7.png","75","motor","7","233","1","0","0","",""
"null","","405370","HierDyu6st8fl4","eezvm9yczb","ms1000405","iti","","null","img/motor_7.png","75","motor","","","","","","",""
"564","","405941","HierDyu6st8fl4","eezvm9yczb","ms1000405","motor","","70","img/motor_4.png","70","motor","4","234","1","0","0","",""
"null","","406049","HierDyu6st8fl4","eezvm9yczb","ms1000405","iti","","null","img/motor_4.png","70","motor","","","","","","",""
"476","","406540","HierDyu6st8fl4","eezvm9yczb","ms1000405","motor","","76","img/motor_8.png","76","motor","8","235","1","0","0","",""
"null","","406649","HierDyu6st8fl4","eezvm9yczb","ms1000405","iti","","null","img/motor_8.png","76","motor","","","","","","",""
"987","","407645","HierDyu6st8fl4","eezvm9yczb","ms1000405","motor","","68","img/motor_3.png","68","motor","3","236","1","0","0","",""
"null","","407754","HierDyu6st8fl4","eezvm9yczb","ms1000405","iti","","null","img/motor_3.png","68","motor","","","","","","",""
"571","","408333","HierDyu6st8fl4","eezvm9yczb","ms1000405","motor","","74","img/motor_6.png","74","motor","6","237","1","0","0","",""
"null","","408442","HierDyu6st8fl4","eezvm9yczb","ms1000405","iti","","null","img/motor_6.png","74","motor","","","","","","",""
"371","","408821","HierDyu6st8fl4","eezvm9yczb","ms1000405","motor","","74","img/motor_6.png","74","motor","6","238","1","0","0","",""
"null","","408930","HierDyu6st8fl4","eezvm9yczb","ms1000405","iti","","null","img/motor_6.png","74","motor","","","","","","",""
"515","","409453","HierDyu6st8fl4","eezvm9yczb","ms1000405","motor","","75","img/motor_7.png","75","motor","7","239","1","0","0","",""
"null","","409568","HierDyu6st8fl4","eezvm9yczb","ms1000405","iti","","null","img/motor_7.png","75","motor","","","","","","",""
"428","","410005","HierDyu6st8fl4","eezvm9yczb","ms1000405","motor","","74","img/motor_6.png","74","motor","6","240","1","0","0","",""
"null","","410113","HierDyu6st8fl4","eezvm9yczb","ms1000405","iti","","null","img/motor_6.png","74","motor","","","","","","",""
"531","","410654","HierDyu6st8fl4","eezvm9yczb","ms1000405","motor","","70","img/motor_3.png","68","motor","3","241","0","1","0","",""
"304","","410965","HierDyu6st8fl4","eezvm9yczb","ms1000405","motorRepeat","","68","img/motor_3.png","68","motor","3","241","1","0","0","",""
"null","","411081","HierDyu6st8fl4","eezvm9yczb","ms1000405","iti","","null","img/motor_3.png","68","motor","","","","","","",""
"580","","411676","HierDyu6st8fl4","eezvm9yczb","ms1000405","motor","","75","img/motor_7.png","75","motor","7","242","1","0","0","",""
"null","","411791","HierDyu6st8fl4","eezvm9yczb","ms1000405","iti","","null","img/motor_7.png","75","motor","","","","","","",""
"733","","412533","HierDyu6st8fl4","eezvm9yczb","ms1000405","motor","","68","img/motor_3.png","68","motor","3","243","1","0","0","",""
"null","","412647","HierDyu6st8fl4","eezvm9yczb","ms1000405","iti","","null","img/motor_3.png","68","motor","","","","","","",""
"589","","413246","HierDyu6st8fl4","eezvm9yczb","ms1000405","motor","","75","img/motor_7.png","75","motor","7","244","1","0","0","",""
"null","","413360","HierDyu6st8fl4","eezvm9yczb","ms1000405","iti","","null","img/motor_7.png","75","motor","","","","","","",""
"652","","414021","HierDyu6st8fl4","eezvm9yczb","ms1000405","motor","","70","img/motor_4.png","70","motor","4","245","1","0","0","",""
"null","","414130","HierDyu6st8fl4","eezvm9yczb","ms1000405","iti","","null","img/motor_4.png","70","motor","","","","","","",""
"571","","414709","HierDyu6st8fl4","eezvm9yczb","ms1000405","motor","","74","img/motor_5.png","72","motor","5","246","0","1","0","",""
"311","","415028","HierDyu6st8fl4","eezvm9yczb","ms1000405","motorRepeat","","72","img/motor_5.png","72","motor","5","246","1","0","0","",""
"null","","415137","HierDyu6st8fl4","eezvm9yczb","ms1000405","iti","","null","img/motor_5.png","72","motor","","","","","","",""
"731","","415878","HierDyu6st8fl4","eezvm9yczb","ms1000405","motor","","70","img/motor_4.png","70","motor","4","247","1","0","0","",""
"null","","415986","HierDyu6st8fl4","eezvm9yczb","ms1000405","iti","","null","img/motor_4.png","70","motor","","","","","","",""
"539","","416532","HierDyu6st8fl4","eezvm9yczb","ms1000405","motor","","74","img/motor_6.png","74","motor","6","248","1","0","0","",""
"null","","416647","HierDyu6st8fl4","eezvm9yczb","ms1000405","iti","","null","img/motor_6.png","74","motor","","","","","","",""
"565","","417220","HierDyu6st8fl4","eezvm9yczb","ms1000405","motor","","75","img/motor_7.png","75","motor","7","249","1","0","0","",""
"null","","417335","HierDyu6st8fl4","eezvm9yczb","ms1000405","iti","","null","img/motor_7.png","75","motor","","","","","","",""
"517","","417861","HierDyu6st8fl4","eezvm9yczb","ms1000405","motor","","83","img/motor_3.png","68","motor","3","250","0","1","0","",""
"280","","418149","HierDyu6st8fl4","eezvm9yczb","ms1000405","motorRepeat","","68","img/motor_3.png","68","motor","3","250","1","0","0","",""
"null","","418257","HierDyu6st8fl4","eezvm9yczb","ms1000405","iti","","null","img/motor_3.png","68","motor","","","","","","",""
"500","","418765","HierDyu6st8fl4","eezvm9yczb","ms1000405","motor","","65","img/motor_1.png","65","motor","1","251","1","0","0","",""
"null","","418880","HierDyu6st8fl4","eezvm9yczb","ms1000405","iti","","null","img/motor_1.png","65","motor","","","","","","",""
"500","","419390","HierDyu6st8fl4","eezvm9yczb","ms1000405","motor","","70","img/motor_4.png","70","motor","4","252","1","0","0","",""
"null","","419498","HierDyu6st8fl4","eezvm9yczb","ms1000405","iti","","null","img/motor_4.png","70","motor","","","","","","",""
"612","","420123","HierDyu6st8fl4","eezvm9yczb","ms1000405","motor","","83","img/motor_2.png","83","motor","2","253","1","0","0","",""
"null","","420231","HierDyu6st8fl4","eezvm9yczb","ms1000405","iti","","null","img/motor_2.png","83","motor","","","","","","",""
"406","","420645","HierDyu6st8fl4","eezvm9yczb","ms1000405","motor","","70","img/motor_4.png","70","motor","4","254","1","0","0","",""
"null","","420753","HierDyu6st8fl4","eezvm9yczb","ms1000405","iti","","null","img/motor_4.png","70","motor","","","","","","",""
"716","","421476","HierDyu6st8fl4","eezvm9yczb","ms1000405","motor","","68","img/motor_3.png","68","motor","3","255","1","0","0","",""
"null","","421585","HierDyu6st8fl4","eezvm9yczb","ms1000405","iti","","null","img/motor_3.png","68","motor","","","","","","",""
"411","","422005","HierDyu6st8fl4","eezvm9yczb","ms1000405","motor","","70","img/motor_4.png","70","motor","4","256","1","0","0","",""
"null","","422120","HierDyu6st8fl4","eezvm9yczb","ms1000405","iti","","null","img/motor_4.png","70","motor","","","","","","",""
"484","","422620","HierDyu6st8fl4","eezvm9yczb","ms1000405","motor","","75","img/motor_6.png","74","motor","6","257","0","1","0","",""
"335","","422965","HierDyu6st8fl4","eezvm9yczb","ms1000405","motorRepeat","","74","img/motor_6.png","74","motor","6","257","1","0","0","",""
"null","","423074","HierDyu6st8fl4","eezvm9yczb","ms1000405","iti","","null","img/motor_6.png","74","motor","","","","","","",""
"546","","423629","HierDyu6st8fl4","eezvm9yczb","ms1000405","motor","","68","img/motor_3.png","68","motor","3","258","1","0","0","",""
"null","","423738","HierDyu6st8fl4","eezvm9yczb","ms1000405","iti","","null","img/motor_3.png","68","motor","","","","","","",""
"475","","424227","HierDyu6st8fl4","eezvm9yczb","ms1000405","motor","","76","img/motor_8.png","76","motor","8","259","1","0","0","",""
"null","","424337","HierDyu6st8fl4","eezvm9yczb","ms1000405","iti","","null","img/motor_8.png","76","motor","","","","","","",""
"444","","424789","HierDyu6st8fl4","eezvm9yczb","ms1000405","motor","","74","img/motor_7.png","75","motor","7","260","0","1","0","",""
"191","","424990","HierDyu6st8fl4","eezvm9yczb","ms1000405","motorRepeat","","75","img/motor_7.png","75","motor","7","260","1","0","0","",""
"null","","425098","HierDyu6st8fl4","eezvm9yczb","ms1000405","iti","","null","img/motor_7.png","75","motor","","","","","","",""
"523","","425629","HierDyu6st8fl4","eezvm9yczb","ms1000405","motor","","72","img/motor_5.png","72","motor","5","261","1","0","0","",""
"null","","425737","HierDyu6st8fl4","eezvm9yczb","ms1000405","iti","","null","img/motor_5.png","72","motor","","","","","","",""
"404","","426149","HierDyu6st8fl4","eezvm9yczb","ms1000405","motor","","72","img/motor_5.png","72","motor","5","262","1","0","0","",""
"null","","426264","HierDyu6st8fl4","eezvm9yczb","ms1000405","iti","","null","img/motor_5.png","72","motor","","","","","","",""
"477","","426749","HierDyu6st8fl4","eezvm9yczb","ms1000405","motor","","65","img/motor_1.png","65","motor","1","263","1","0","0","",""
"null","","426857","HierDyu6st8fl4","eezvm9yczb","ms1000405","iti","","null","img/motor_1.png","65","motor","","","","","","",""
"572","","427437","HierDyu6st8fl4","eezvm9yczb","ms1000405","motor","","75","img/motor_7.png","75","motor","7","264","1","0","0","",""
"null","","427551","HierDyu6st8fl4","eezvm9yczb","ms1000405","iti","","null","img/motor_7.png","75","motor","","","","","","",""
"421","","427981","HierDyu6st8fl4","eezvm9yczb","ms1000405","motor","","76","img/motor_8.png","76","motor","8","265","1","0","0","",""
"null","","428096","HierDyu6st8fl4","eezvm9yczb","ms1000405","iti","","null","img/motor_8.png","76","motor","","","","","","",""
"429","","428540","HierDyu6st8fl4","eezvm9yczb","ms1000405","motor","","65","img/motor_1.png","65","motor","1","266","1","0","0","",""
"null","","428656","HierDyu6st8fl4","eezvm9yczb","ms1000405","iti","","null","img/motor_1.png","65","motor","","","","","","",""
"573","","429238","HierDyu6st8fl4","eezvm9yczb","ms1000405","motor","","68","img/motor_3.png","68","motor","3","267","1","0","0","",""
"null","","429352","HierDyu6st8fl4","eezvm9yczb","ms1000405","iti","","null","img/motor_3.png","68","motor","","","","","","",""
"780","","430142","HierDyu6st8fl4","eezvm9yczb","ms1000405","motor","","75","img/motor_7.png","75","motor","7","268","1","0","0","",""
"null","","430257","HierDyu6st8fl4","eezvm9yczb","ms1000405","iti","","null","img/motor_7.png","75","motor","","","","","","",""
"652","","430917","HierDyu6st8fl4","eezvm9yczb","ms1000405","motor","","74","img/motor_6.png","74","motor","6","269","1","0","0","",""
"null","","431026","HierDyu6st8fl4","eezvm9yczb","ms1000405","iti","","null","img/motor_6.png","74","motor","","","","","","",""
"476","","431509","HierDyu6st8fl4","eezvm9yczb","ms1000405","motor","","75","img/motor_7.png","75","motor","7","270","1","0","0","",""
"null","","431617","HierDyu6st8fl4","eezvm9yczb","ms1000405","iti","","null","img/motor_7.png","75","motor","","","","","","",""
"419","","432052","HierDyu6st8fl4","eezvm9yczb","ms1000405","motor","","74","img/motor_6.png","74","motor","6","271","1","0","0","",""
"null","","432160","HierDyu6st8fl4","eezvm9yczb","ms1000405","iti","","null","img/motor_6.png","74","motor","","","","","","",""
"628","","432797","HierDyu6st8fl4","eezvm9yczb","ms1000405","motor","","83","img/motor_2.png","83","motor","2","272","1","0","0","",""
"null","","432905","HierDyu6st8fl4","eezvm9yczb","ms1000405","iti","","null","img/motor_2.png","83","motor","","","","","","",""
"459","","433379","HierDyu6st8fl4","eezvm9yczb","ms1000405","motor","","76","img/motor_8.png","76","motor","8","273","1","0","0","",""
"null","","433495","HierDyu6st8fl4","eezvm9yczb","ms1000405","iti","","null","img/motor_8.png","76","motor","","","","","","",""
"573","","434077","HierDyu6st8fl4","eezvm9yczb","ms1000405","motor","","70","img/motor_4.png","70","motor","4","274","1","0","0","",""
"null","","434186","HierDyu6st8fl4","eezvm9yczb","ms1000405","iti","","null","img/motor_4.png","70","motor","","","","","","",""
"635","","434836","HierDyu6st8fl4","eezvm9yczb","ms1000405","motor","","65","img/motor_1.png","65","motor","1","275","1","0","0","",""
"null","","434946","HierDyu6st8fl4","eezvm9yczb","ms1000405","iti","","null","img/motor_1.png","65","motor","","","","","","",""
"524","","435477","HierDyu6st8fl4","eezvm9yczb","ms1000405","motor","","72","img/motor_5.png","72","motor","5","276","1","0","0","",""
"null","","435585","HierDyu6st8fl4","eezvm9yczb","ms1000405","iti","","null","img/motor_5.png","72","motor","","","","","","",""
"604","","436204","HierDyu6st8fl4","eezvm9yczb","ms1000405","motor","","83","img/motor_2.png","83","motor","2","277","1","0","0","",""
"null","","436314","HierDyu6st8fl4","eezvm9yczb","ms1000405","iti","","null","img/motor_2.png","83","motor","","","","","","",""
"588","","436909","HierDyu6st8fl4","eezvm9yczb","ms1000405","motor","","65","img/motor_1.png","65","motor","1","278","1","0","0","",""
"null","","437018","HierDyu6st8fl4","eezvm9yczb","ms1000405","iti","","null","img/motor_1.png","65","motor","","","","","","",""
"427","","437453","HierDyu6st8fl4","eezvm9yczb","ms1000405","motor","","76","img/motor_8.png","76","motor","8","279","1","0","0","",""
"null","","437562","HierDyu6st8fl4","eezvm9yczb","ms1000405","iti","","null","img/motor_8.png","76","motor","","","","","","",""
"571","","438140","HierDyu6st8fl4","eezvm9yczb","ms1000405","motor","","83","img/motor_2.png","83","motor","2","280","1","0","0","",""
"null","","438256","HierDyu6st8fl4","eezvm9yczb","ms1000405","iti","","null","img/motor_2.png","83","motor","","","","","","",""
"412","","438684","HierDyu6st8fl4","eezvm9yczb","ms1000405","motor","","83","img/motor_1.png","65","motor","1","281","0","1","0","",""
"49","","438742","HierDyu6st8fl4","eezvm9yczb","ms1000405","motorRepeat","","65","img/motor_1.png","65","motor","1","281","1","0","0","",""
"null","","438857","HierDyu6st8fl4","eezvm9yczb","ms1000405","iti","","null","img/motor_1.png","65","motor","","","","","","",""
"1180","","440046","HierDyu6st8fl4","eezvm9yczb","ms1000405","motor","","72","img/motor_5.png","72","motor","5","282","1","0","0","",""
"null","","440154","HierDyu6st8fl4","eezvm9yczb","ms1000405","iti","","null","img/motor_5.png","72","motor","","","","","","",""
"339","","440508","HierDyu6st8fl4","eezvm9yczb","ms1000405","motor","","83","img/motor_4.png","70","motor","4","283","0","1","0","",""
"312","","440836","HierDyu6st8fl4","eezvm9yczb","ms1000405","motorRepeat","","70","img/motor_4.png","70","motor","4","283","1","0","0","",""
"null","","440945","HierDyu6st8fl4","eezvm9yczb","ms1000405","iti","","null","img/motor_4.png","70","motor","","","","","","",""
"548","","441502","HierDyu6st8fl4","eezvm9yczb","ms1000405","motor","","83","img/motor_2.png","83","motor","2","284","1","0","0","",""
"null","","441611","HierDyu6st8fl4","eezvm9yczb","ms1000405","iti","","null","img/motor_2.png","83","motor","","","","","","",""
"586","","442205","HierDyu6st8fl4","eezvm9yczb","ms1000405","motor","","75","img/motor_7.png","75","motor","7","285","1","0","0","",""
"null","","442314","HierDyu6st8fl4","eezvm9yczb","ms1000405","iti","","null","img/motor_7.png","75","motor","","","","","","",""
"363","","442692","HierDyu6st8fl4","eezvm9yczb","ms1000405","motor","","83","img/motor_3.png","68","motor","3","286","0","1","0","",""
"280","","442980","HierDyu6st8fl4","eezvm9yczb","ms1000405","motorRepeat","","68","img/motor_3.png","68","motor","3","286","1","0","0","",""
"null","","443095","HierDyu6st8fl4","eezvm9yczb","ms1000405","iti","","null","img/motor_3.png","68","motor","","","","","","",""
"742","","443846","HierDyu6st8fl4","eezvm9yczb","ms1000405","motor","","74","img/motor_6.png","74","motor","6","287","1","0","0","",""
"null","","443954","HierDyu6st8fl4","eezvm9yczb","ms1000405","iti","","null","img/motor_6.png","74","motor","","","","","","",""
"532","","444493","HierDyu6st8fl4","eezvm9yczb","ms1000405","motor","","72","img/motor_5.png","72","motor","5","288","1","0","0","",""
"null","","444601","HierDyu6st8fl4","eezvm9yczb","ms1000405","iti","","null","img/motor_5.png","72","motor","","","","","","",""
"475","","445085","HierDyu6st8fl4","eezvm9yczb","ms1000405","motor","","74","img/motor_6.png","74","motor","6","289","1","0","0","",""
"null","","445194","HierDyu6st8fl4","eezvm9yczb","ms1000405","iti","","null","img/motor_6.png","74","motor","","","","","","",""
"516","","445724","HierDyu6st8fl4","eezvm9yczb","ms1000405","motor","","65","img/motor_1.png","65","motor","1","290","1","0","0","",""
"null","","445832","HierDyu6st8fl4","eezvm9yczb","ms1000405","iti","","null","img/motor_1.png","65","motor","","","","","","",""
"541","","446388","HierDyu6st8fl4","eezvm9yczb","ms1000405","motor","","76","img/motor_8.png","76","motor","8","291","1","0","0","",""
"null","","446497","HierDyu6st8fl4","eezvm9yczb","ms1000405","iti","","null","img/motor_8.png","76","motor","","","","","","",""
"557","","447062","HierDyu6st8fl4","eezvm9yczb","ms1000405","motor","","68","img/motor_3.png","68","motor","3","292","1","0","0","",""
"null","","447177","HierDyu6st8fl4","eezvm9yczb","ms1000405","iti","","null","img/motor_3.png","68","motor","","","","","","",""
"627","","447813","HierDyu6st8fl4","eezvm9yczb","ms1000405","motor","","74","img/motor_6.png","74","motor","6","293","1","0","0","",""
"null","","447928","HierDyu6st8fl4","eezvm9yczb","ms1000405","iti","","null","img/motor_6.png","74","motor","","","","","","",""
"604","","448541","HierDyu6st8fl4","eezvm9yczb","ms1000405","motor","","83","img/motor_3.png","68","motor","3","294","0","1","0","",""
"311","","448862","HierDyu6st8fl4","eezvm9yczb","ms1000405","motorRepeat","","68","img/motor_3.png","68","motor","3","294","1","0","0","",""
"null","","448970","HierDyu6st8fl4","eezvm9yczb","ms1000405","iti","","null","img/motor_3.png","68","motor","","","","","","",""
"379","","449357","HierDyu6st8fl4","eezvm9yczb","ms1000405","motor","","68","img/motor_3.png","68","motor","3","295","1","0","0","",""
"null","","449472","HierDyu6st8fl4","eezvm9yczb","ms1000405","iti","","null","img/motor_3.png","68","motor","","","","","","",""
"604","","450085","HierDyu6st8fl4","eezvm9yczb","ms1000405","motor","","74","img/motor_6.png","74","motor","6","296","1","0","0","",""
"null","","450194","HierDyu6st8fl4","eezvm9yczb","ms1000405","iti","","null","img/motor_6.png","74","motor","","","","","","",""
"483","","450685","HierDyu6st8fl4","eezvm9yczb","ms1000405","motor","","75","img/motor_7.png","75","motor","7","297","1","0","0","",""
"null","","450793","HierDyu6st8fl4","eezvm9yczb","ms1000405","iti","","null","img/motor_7.png","75","motor","","","","","","",""
"587","","451396","HierDyu6st8fl4","eezvm9yczb","ms1000405","motor","","83","img/motor_2.png","83","motor","2","298","1","0","0","",""
"null","","451505","HierDyu6st8fl4","eezvm9yczb","ms1000405","iti","","null","img/motor_2.png","83","motor","","","","","","",""
"452","","451965","HierDyu6st8fl4","eezvm9yczb","ms1000405","motor","","65","img/motor_1.png","65","motor","1","299","1","0","0","",""
"null","","452074","HierDyu6st8fl4","eezvm9yczb","ms1000405","iti","","null","img/motor_1.png","65","motor","","","","","","",""
"491","","452572","HierDyu6st8fl4","eezvm9yczb","ms1000405","motor","","72","img/motor_5.png","72","motor","5","300","1","0","0","",""
"null","","452688","HierDyu6st8fl4","eezvm9yczb","ms1000405","iti","","null","img/motor_5.png","72","motor","","","","","","",""
"741","","453437","HierDyu6st8fl4","eezvm9yczb","ms1000405","motor","","74","img/motor_6.png","74","motor","6","301","1","0","0","",""
"null","","453547","HierDyu6st8fl4","eezvm9yczb","ms1000405","iti","","null","img/motor_6.png","74","motor","","","","","","",""
"548","","454102","HierDyu6st8fl4","eezvm9yczb","ms1000405","motor","","70","img/motor_4.png","70","motor","4","302","1","0","0","",""
"null","","454210","HierDyu6st8fl4","eezvm9yczb","ms1000405","iti","","null","img/motor_4.png","70","motor","","","","","","",""
"516","","454743","HierDyu6st8fl4","eezvm9yczb","ms1000405","motor","","65","img/motor_1.png","65","motor","1","303","1","0","0","",""
"null","","454860","HierDyu6st8fl4","eezvm9yczb","ms1000405","iti","","null","img/motor_1.png","65","motor","","","","","","",""
"918","","455790","HierDyu6st8fl4","eezvm9yczb","ms1000405","motor","","68","img/motor_3.png","68","motor","3","304","1","0","0","",""
"null","","455899","HierDyu6st8fl4","eezvm9yczb","ms1000405","iti","","null","img/motor_3.png","68","motor","","","","","","",""
"507","","456413","HierDyu6st8fl4","eezvm9yczb","ms1000405","motor","","72","img/motor_5.png","72","motor","5","305","1","0","0","",""
"null","","456522","HierDyu6st8fl4","eezvm9yczb","ms1000405","iti","","null","img/motor_5.png","72","motor","","","","","","",""
"482","","457014","HierDyu6st8fl4","eezvm9yczb","ms1000405","motor","","75","img/motor_7.png","75","motor","7","306","1","0","0","",""
"null","","457122","HierDyu6st8fl4","eezvm9yczb","ms1000405","iti","","null","img/motor_7.png","75","motor","","","","","","",""
"475","","457605","HierDyu6st8fl4","eezvm9yczb","ms1000405","motor","","75","img/motor_7.png","75","motor","7","307","1","0","0","",""
"null","","457714","HierDyu6st8fl4","eezvm9yczb","ms1000405","iti","","null","img/motor_7.png","75","motor","","","","","","",""
"499","","458222","HierDyu6st8fl4","eezvm9yczb","ms1000405","motor","","74","img/motor_6.png","74","motor","6","308","1","0","0","",""
"null","","458331","HierDyu6st8fl4","eezvm9yczb","ms1000405","iti","","null","img/motor_6.png","74","motor","","","","","","",""
"643","","458981","HierDyu6st8fl4","eezvm9yczb","ms1000405","motor","","83","img/motor_2.png","83","motor","2","309","1","0","0","",""
"null","","459089","HierDyu6st8fl4","eezvm9yczb","ms1000405","iti","","null","img/motor_2.png","83","motor","","","","","","",""
"467","","459565","HierDyu6st8fl4","eezvm9yczb","ms1000405","motor","","76","img/motor_8.png","76","motor","8","310","1","0","0","",""
"null","","459673","HierDyu6st8fl4","eezvm9yczb","ms1000405","iti","","null","img/motor_8.png","76","motor","","","","","","",""
"508","","460189","HierDyu6st8fl4","eezvm9yczb","ms1000405","motor","","72","img/motor_5.png","72","motor","5","311","1","0","0","",""
"null","","460298","HierDyu6st8fl4","eezvm9yczb","ms1000405","iti","","null","img/motor_5.png","72","motor","","","","","","",""
"500","","460806","HierDyu6st8fl4","eezvm9yczb","ms1000405","motor","","76","img/motor_8.png","76","motor","8","312","1","0","0","",""
"null","","460919","HierDyu6st8fl4","eezvm9yczb","ms1000405","iti","","null","img/motor_8.png","76","motor","","","","","","",""
"557","","461492","HierDyu6st8fl4","eezvm9yczb","ms1000405","motor","","74","img/motor_6.png","74","motor","6","313","1","0","0","",""
"null","","461609","HierDyu6st8fl4","eezvm9yczb","ms1000405","iti","","null","img/motor_6.png","74","motor","","","","","","",""
"668","","462292","HierDyu6st8fl4","eezvm9yczb","ms1000405","motor","","83","img/motor_2.png","83","motor","2","314","1","0","0","",""
"null","","462408","HierDyu6st8fl4","eezvm9yczb","ms1000405","iti","","null","img/motor_2.png","83","motor","","","","","","",""
"500","","462923","HierDyu6st8fl4","eezvm9yczb","ms1000405","motor","","72","img/motor_5.png","72","motor","5","315","1","0","0","",""
"null","","463040","HierDyu6st8fl4","eezvm9yczb","ms1000405","iti","","null","img/motor_5.png","72","motor","","","","","","",""
"445","","463494","HierDyu6st8fl4","eezvm9yczb","ms1000405","motor","","76","img/motor_8.png","76","motor","8","316","1","0","0","",""
"null","","463609","HierDyu6st8fl4","eezvm9yczb","ms1000405","iti","","null","img/motor_8.png","76","motor","","","","","","",""
"547","","464166","HierDyu6st8fl4","eezvm9yczb","ms1000405","motor","","70","img/motor_4.png","70","motor","4","317","1","0","0","",""
"null","","464280","HierDyu6st8fl4","eezvm9yczb","ms1000405","iti","","null","img/motor_4.png","70","motor","","","","","","",""
"780","","465076","HierDyu6st8fl4","eezvm9yczb","ms1000405","motor","","83","img/motor_1.png","65","motor","1","318","0","1","0","",""
"393","","465476","HierDyu6st8fl4","eezvm9yczb","ms1000405","motorRepeat","","65","img/motor_1.png","65","motor","1","318","1","0","0","",""
"null","","465585","HierDyu6st8fl4","eezvm9yczb","ms1000405","iti","","null","img/motor_1.png","65","motor","","","","","","",""
"493","","466086","HierDyu6st8fl4","eezvm9yczb","ms1000405","motor","","70","img/motor_4.png","70","motor","4","319","1","0","0","",""
"null","","466194","HierDyu6st8fl4","eezvm9yczb","ms1000405","iti","","null","img/motor_4.png","70","motor","","","","","","",""
"444","","466646","HierDyu6st8fl4","eezvm9yczb","ms1000405","motor","","65","img/motor_1.png","65","motor","1","320","1","0","0","",""
"null","","466754","HierDyu6st8fl4","eezvm9yczb","ms1000405","iti","","null","img/motor_1.png","65","motor","","","","","","",""
"348","","467116","HierDyu6st8fl4","eezvm9yczb","ms1000405","motor","","70","img/motor_4.png","70","motor","4","321","1","0","0","",""
"null","","467226","HierDyu6st8fl4","eezvm9yczb","ms1000405","iti","","null","img/motor_4.png","70","motor","","","","","","",""
"501","","467734","HierDyu6st8fl4","eezvm9yczb","ms1000405","motor","","75","img/motor_7.png","75","motor","7","322","1","0","0","",""
"null","","467842","HierDyu6st8fl4","eezvm9yczb","ms1000405","iti","","null","img/motor_7.png","75","motor","","","","","","",""
"467","","468318","HierDyu6st8fl4","eezvm9yczb","ms1000405","motor","","72","img/motor_5.png","72","motor","5","323","1","0","0","",""
"null","","468425","HierDyu6st8fl4","eezvm9yczb","ms1000405","iti","","null","img/motor_5.png","72","motor","","","","","","",""
"652","","469085","HierDyu6st8fl4","eezvm9yczb","ms1000405","motor","","65","img/motor_1.png","65","motor","1","324","1","0","0","",""
"null","","469200","HierDyu6st8fl4","eezvm9yczb","ms1000405","iti","","null","img/motor_1.png","65","motor","","","","","","",""
"716","","469925","HierDyu6st8fl4","eezvm9yczb","ms1000405","motor","","74","img/motor_6.png","74","motor","6","325","1","0","0","",""
"null","","470033","HierDyu6st8fl4","eezvm9yczb","ms1000405","iti","","null","img/motor_6.png","74","motor","","","","","","",""
"837","","470884","HierDyu6st8fl4","eezvm9yczb","ms1000405","motor","","68","img/motor_3.png","68","motor","3","326","1","0","0","",""
"null","","471000","HierDyu6st8fl4","eezvm9yczb","ms1000405","iti","","null","img/motor_3.png","68","motor","","","","","","",""
"404","","471420","HierDyu6st8fl4","eezvm9yczb","ms1000405","motor","","65","img/motor_1.png","65","motor","1","327","1","0","0","",""
"null","","471529","HierDyu6st8fl4","eezvm9yczb","ms1000405","iti","","null","img/motor_1.png","65","motor","","","","","","",""
"532","","472068","HierDyu6st8fl4","eezvm9yczb","ms1000405","motor","","72","img/motor_5.png","72","motor","5","328","1","0","0","",""
"null","","472177","HierDyu6st8fl4","eezvm9yczb","ms1000405","iti","","null","img/motor_5.png","72","motor","","","","","","",""
"333","","472524","HierDyu6st8fl4","eezvm9yczb","ms1000405","motor","","65","img/motor_3.png","68","motor","3","329","0","1","0","",""
"281","","472813","HierDyu6st8fl4","eezvm9yczb","ms1000405","motorRepeat","","83","img/motor_3.png","68","motor","3","329","0","1","0","",""
"0","","472818","HierDyu6st8fl4","eezvm9yczb","ms1000405","motorRepeat","","68","img/motor_3.png","68","motor","3","329","1","0","0","",""
"null","","472932","HierDyu6st8fl4","eezvm9yczb","ms1000405","iti","","null","img/motor_3.png","68","motor","","","","","","",""
"463","","473406","HierDyu6st8fl4","eezvm9yczb","ms1000405","motor","","75","img/motor_7.png","75","motor","7","330","1","0","0","",""
"null","","473514","HierDyu6st8fl4","eezvm9yczb","ms1000405","iti","","null","img/motor_7.png","75","motor","","","","","","",""
"482","","474005","HierDyu6st8fl4","eezvm9yczb","ms1000405","motor","","65","img/motor_1.png","65","motor","1","331","1","0","0","",""
"null","","474114","HierDyu6st8fl4","eezvm9yczb","ms1000405","iti","","null","img/motor_1.png","65","motor","","","","","","",""
"659","","474789","HierDyu6st8fl4","eezvm9yczb","ms1000405","motor","","75","img/motor_7.png","75","motor","7","332","1","0","0","",""
"null","","474898","HierDyu6st8fl4","eezvm9yczb","ms1000405","iti","","null","img/motor_7.png","75","motor","","","","","","",""
"548","","475460","HierDyu6st8fl4","eezvm9yczb","ms1000405","motor","","76","img/motor_8.png","76","motor","8","333","1","0","0","",""
"null","","475576","HierDyu6st8fl4","eezvm9yczb","ms1000405","iti","","null","img/motor_8.png","76","motor","","","","","","",""
"412","","475997","HierDyu6st8fl4","eezvm9yczb","ms1000405","motor","","76","img/motor_8.png","76","motor","8","334","1","0","0","",""
"null","","476112","HierDyu6st8fl4","eezvm9yczb","ms1000405","iti","","null","img/motor_8.png","76","motor","","","","","","",""
"534","","476660","HierDyu6st8fl4","eezvm9yczb","ms1000405","motor","","70","img/motor_4.png","70","motor","4","335","1","0","0","",""
"null","","476769","HierDyu6st8fl4","eezvm9yczb","ms1000405","iti","","null","img/motor_4.png","70","motor","","","","","","",""
"508","","477286","HierDyu6st8fl4","eezvm9yczb","ms1000405","motor","","68","img/motor_3.png","68","motor","3","336","1","0","0","",""
"null","","477395","HierDyu6st8fl4","eezvm9yczb","ms1000405","iti","","null","img/motor_3.png","68","motor","","","","","","",""
"498","","477901","HierDyu6st8fl4","eezvm9yczb","ms1000405","motor","","65","img/motor_1.png","65","motor","1","337","1","0","0","",""
"null","","478016","HierDyu6st8fl4","eezvm9yczb","ms1000405","iti","","null","img/motor_1.png","65","motor","","","","","","",""
"715","","478742","HierDyu6st8fl4","eezvm9yczb","ms1000405","motor","","83","img/motor_2.png","83","motor","2","338","1","0","0","",""
"null","","478850","HierDyu6st8fl4","eezvm9yczb","ms1000405","iti","","null","img/motor_2.png","83","motor","","","","","","",""
"443","","479308","HierDyu6st8fl4","eezvm9yczb","ms1000405","motor","","83","img/motor_2.png","83","motor","2","339","1","0","0","",""
"null","","479424","HierDyu6st8fl4","eezvm9yczb","ms1000405","iti","","null","img/motor_2.png","83","motor","","","","","","",""
"532","","479966","HierDyu6st8fl4","eezvm9yczb","ms1000405","motor","","72","img/motor_5.png","72","motor","5","340","1","0","0","",""
"null","","480081","HierDyu6st8fl4","eezvm9yczb","ms1000405","iti","","null","img/motor_5.png","72","motor","","","","","","",""
"716","","480813","HierDyu6st8fl4","eezvm9yczb","ms1000405","motor","","83","img/motor_2.png","83","motor","2","341","1","0","0","",""
"null","","480922","HierDyu6st8fl4","eezvm9yczb","ms1000405","iti","","null","img/motor_2.png","83","motor","","","","","","",""
"501","","481436","HierDyu6st8fl4","eezvm9yczb","ms1000405","motor","","68","img/motor_3.png","68","motor","3","342","1","0","0","",""
"55","","481546","HierDyu6st8fl4","eezvm9yczb","ms1000405","iti","","70","img/motor_3.png","68","motor","","","","","","",""
"482","","482038","HierDyu6st8fl4","eezvm9yczb","ms1000405","motor","","70","img/motor_4.png","70","motor","4","343","1","0","0","",""
"null","","482146","HierDyu6st8fl4","eezvm9yczb","ms1000405","iti","","null","img/motor_4.png","70","motor","","","","","","",""
"379","","482541","HierDyu6st8fl4","eezvm9yczb","ms1000405","motor","","70","img/motor_4.png","70","motor","4","344","1","0","0","",""
"null","","482656","HierDyu6st8fl4","eezvm9yczb","ms1000405","iti","","null","img/motor_4.png","70","motor","","","","","","",""
"524","","483196","HierDyu6st8fl4","eezvm9yczb","ms1000405","motor","","76","img/motor_8.png","76","motor","8","345","1","0","0","",""
"null","","483313","HierDyu6st8fl4","eezvm9yczb","ms1000405","iti","","null","img/motor_8.png","76","motor","","","","","","",""
"556","","483884","HierDyu6st8fl4","eezvm9yczb","ms1000405","motor","","65","img/motor_1.png","65","motor","1","346","1","0","0","",""
"null","","484000","HierDyu6st8fl4","eezvm9yczb","ms1000405","iti","","null","img/motor_1.png","65","motor","","","","","","",""
"516","","484532","HierDyu6st8fl4","eezvm9yczb","ms1000405","motor","","72","img/motor_6.png","74","motor","6","347","0","1","0","",""
"40","","484588","HierDyu6st8fl4","eezvm9yczb","ms1000405","motorRepeat","","74","img/motor_6.png","74","motor","6","347","1","0","0","",""
"null","","484703","HierDyu6st8fl4","eezvm9yczb","ms1000405","iti","","null","img/motor_6.png","74","motor","","","","","","",""
"463","","485173","HierDyu6st8fl4","eezvm9yczb","ms1000405","motor","","70","img/motor_2.png","83","motor","2","348","0","1","0","",""
"80","","485269","HierDyu6st8fl4","eezvm9yczb","ms1000405","motorRepeat","","68","img/motor_2.png","83","motor","2","348","0","1","0","",""
"254","","485534","HierDyu6st8fl4","eezvm9yczb","ms1000405","motorRepeat","","83","img/motor_2.png","83","motor","2","348","1","0","0","",""
