"rt","responses","time_elapsed","subject","prolificID","demoID","trialType","question_order","key_press","stim","corrresp","phase","stimNum","trialNum","corr","repeatTrial","motorSwitch","pracCounter","hierarchy"
"1578101","{""Q0"":""msl000312""}","1578133","HierDy3qb8vkb2","efn0v9b0so","msl000312","","","","","","","","","","","","",""
"2283","","1580430","HierDy3qb8vkb2","efn0v9b0so","msl000312","","","","","","","","","","","","",""
"","","1582153","HierDy3qb8vkb2","efn0v9b0so","msl000312","fullscreen","","","","","","","","","","","",""
"20403","{""Vision"":""Yes"",""Handedness"":""Right"",""Gender"":""male""}","1602572","HierDy3qb8vkb2","efn0v9b0so","msl000312","","[0,1,2]","","","","","","","","","","",""
"4553","{""Q0"":""21""}","1607144","HierDy3qb8vkb2","efn0v9b0so","msl000312","","","","","","","","","","","","",""
"164986","","1772138","HierDy3qb8vkb2","efn0v9b0so","msl000312","","","","","","","","","","","","",""
"943","","1773090","HierDy3qb8vkb2","efn0v9b0so","msl000312","motor","","83","img/motor_2.png","83","motor","2","1","1","0","0","",""
"null","","1773198","HierDy3qb8vkb2","efn0v9b0so","msl000312","iti","","null","img/motor_2.png","83","motor","","","","","","",""
"908","","1774114","HierDy3qb8vkb2","efn0v9b0so","msl000312","motor","","74","img/motor_6.png","74","motor","6","2","1","0","0","",""
"null","","1774221","HierDy3qb8vkb2","efn0v9b0so","msl000312","iti","","null","img/motor_6.png","74","motor","","","","","","",""
"852","","1775088","HierDy3qb8vkb2","efn0v9b0so","msl000312","motor","","70","img/motor_4.png","70","motor","4","3","1","0","0","",""
"null","","1775197","HierDy3qb8vkb2","efn0v9b0so","msl000312","iti","","null","img/motor_4.png","70","motor","","","","","","",""
"1741","","1776952","HierDy3qb8vkb2","efn0v9b0so","msl000312","motor","","70","img/motor_4.png","70","motor","4","4","1","0","0","",""
"null","","1777061","HierDy3qb8vkb2","efn0v9b0so","msl000312","iti","","null","img/motor_4.png","70","motor","","","","","","",""
"837","","1777907","HierDy3qb8vkb2","efn0v9b0so","msl000312","motor","","72","img/motor_5.png","72","motor","5","5","1","0","0","",""
"null","","1778021","HierDy3qb8vkb2","efn0v9b0so","msl000312","iti","","null","img/motor_5.png","72","motor","","","","","","",""
"676","","1778706","HierDy3qb8vkb2","efn0v9b0so","msl000312","motor","","83","img/motor_2.png","83","motor","2","6","1","0","0","",""
"null","","1778821","HierDy3qb8vkb2","efn0v9b0so","msl000312","iti","","null","img/motor_2.png","83","motor","","","","","","",""
"619","","1779457","HierDy3qb8vkb2","efn0v9b0so","msl000312","motor","","65","img/motor_1.png","65","motor","1","7","1","0","0","",""
"null","","1779571","HierDy3qb8vkb2","efn0v9b0so","msl000312","iti","","null","img/motor_1.png","65","motor","","","","","","",""
"1013","","1780594","HierDy3qb8vkb2","efn0v9b0so","msl000312","motor","","68","img/motor_3.png","68","motor","3","8","1","0","0","",""
"null","","1780709","HierDy3qb8vkb2","efn0v9b0so","msl000312","iti","","null","img/motor_3.png","68","motor","","","","","","",""
"580","","1781298","HierDy3qb8vkb2","efn0v9b0so","msl000312","motor","","70","img/motor_4.png","70","motor","4","9","1","0","0","",""
"null","","1781412","HierDy3qb8vkb2","efn0v9b0so","msl000312","iti","","null","img/motor_4.png","70","motor","","","","","","",""
"590","","1782009","HierDy3qb8vkb2","efn0v9b0so","msl000312","motor","","65","img/motor_1.png","65","motor","1","10","1","0","0","",""
"null","","1782124","HierDy3qb8vkb2","efn0v9b0so","msl000312","iti","","null","img/motor_1.png","65","motor","","","","","","",""
"894","","1783033","HierDy3qb8vkb2","efn0v9b0so","msl000312","motor","","68","img/motor_3.png","68","motor","3","11","1","0","0","",""
"null","","1783141","HierDy3qb8vkb2","efn0v9b0so","msl000312","iti","","null","img/motor_3.png","68","motor","","","","","","",""
"718","","1783867","HierDy3qb8vkb2","efn0v9b0so","msl000312","motor","","74","img/motor_6.png","74","motor","6","12","1","0","0","",""
"null","","1783974","HierDy3qb8vkb2","efn0v9b0so","msl000312","iti","","null","img/motor_6.png","74","motor","","","","","","",""
"844","","1784825","HierDy3qb8vkb2","efn0v9b0so","msl000312","motor","","68","img/motor_3.png","68","motor","3","13","1","0","0","",""
"null","","1784940","HierDy3qb8vkb2","efn0v9b0so","msl000312","iti","","null","img/motor_3.png","68","motor","","","","","","",""
"685","","1785634","HierDy3qb8vkb2","efn0v9b0so","msl000312","motor","","76","img/motor_8.png","76","motor","8","14","1","0","0","",""
"null","","1785748","HierDy3qb8vkb2","efn0v9b0so","msl000312","iti","","null","img/motor_8.png","76","motor","","","","","","",""
"765","","1786528","HierDy3qb8vkb2","efn0v9b0so","msl000312","motor","","83","img/motor_2.png","83","motor","2","15","1","0","0","",""
"null","","1786644","HierDy3qb8vkb2","efn0v9b0so","msl000312","iti","","null","img/motor_2.png","83","motor","","","","","","",""
"471","","1787121","HierDy3qb8vkb2","efn0v9b0so","msl000312","motor","","76","img/motor_8.png","76","motor","8","16","1","0","0","",""
"null","","1787230","HierDy3qb8vkb2","efn0v9b0so","msl000312","iti","","null","img/motor_8.png","76","motor","","","","","","",""
"677","","1787920","HierDy3qb8vkb2","efn0v9b0so","msl000312","motor","","72","img/motor_5.png","72","motor","5","17","1","0","0","",""
"null","","1788035","HierDy3qb8vkb2","efn0v9b0so","msl000312","iti","","null","img/motor_5.png","72","motor","","","","","","",""
"446","","1788490","HierDy3qb8vkb2","efn0v9b0so","msl000312","motor","","76","img/motor_8.png","76","motor","8","18","1","0","0","",""
"null","","1788598","HierDy3qb8vkb2","efn0v9b0so","msl000312","iti","","null","img/motor_8.png","76","motor","","","","","","",""
"621","","1789232","HierDy3qb8vkb2","efn0v9b0so","msl000312","motor","","83","img/motor_2.png","83","motor","2","19","1","0","0","",""
"null","","1789341","HierDy3qb8vkb2","efn0v9b0so","msl000312","iti","","null","img/motor_2.png","83","motor","","","","","","",""
"902","","1790257","HierDy3qb8vkb2","efn0v9b0so","msl000312","motor","","72","img/motor_5.png","72","motor","5","20","1","0","0","",""
"null","","1790371","HierDy3qb8vkb2","efn0v9b0so","msl000312","iti","","null","img/motor_5.png","72","motor","","","","","","",""
"486","","1790866","HierDy3qb8vkb2","efn0v9b0so","msl000312","motor","","76","img/motor_8.png","76","motor","8","21","1","0","0","",""
"null","","1790980","HierDy3qb8vkb2","efn0v9b0so","msl000312","iti","","null","img/motor_8.png","76","motor","","","","","","",""
"622","","1791610","HierDy3qb8vkb2","efn0v9b0so","msl000312","motor","","72","img/motor_5.png","72","motor","5","22","1","0","0","",""
"null","","1791719","HierDy3qb8vkb2","efn0v9b0so","msl000312","iti","","null","img/motor_5.png","72","motor","","","","","","",""
"708","","1792434","HierDy3qb8vkb2","efn0v9b0so","msl000312","motor","","83","img/motor_2.png","83","motor","2","23","1","0","0","",""
"null","","1792550","HierDy3qb8vkb2","efn0v9b0so","msl000312","iti","","null","img/motor_2.png","83","motor","","","","","","",""
"549","","1793112","HierDy3qb8vkb2","efn0v9b0so","msl000312","motor","","76","img/motor_8.png","76","motor","8","24","1","0","0","",""
"null","","1793227","HierDy3qb8vkb2","efn0v9b0so","msl000312","iti","","null","img/motor_8.png","76","motor","","","","","","",""
"959","","1794201","HierDy3qb8vkb2","efn0v9b0so","msl000312","motor","","70","img/motor_4.png","70","motor","4","25","1","0","0","",""
"null","","1794316","HierDy3qb8vkb2","efn0v9b0so","msl000312","iti","","null","img/motor_4.png","70","motor","","","","","","",""
"799","","1795122","HierDy3qb8vkb2","efn0v9b0so","msl000312","motor","","75","img/motor_7.png","75","motor","7","26","1","0","0","",""
"null","","1795230","HierDy3qb8vkb2","efn0v9b0so","msl000312","iti","","null","img/motor_7.png","75","motor","","","","","","",""
"604","","1795843","HierDy3qb8vkb2","efn0v9b0so","msl000312","motor","","83","img/motor_2.png","83","motor","2","27","1","0","0","",""
"null","","1795958","HierDy3qb8vkb2","efn0v9b0so","msl000312","iti","","null","img/motor_2.png","83","motor","","","","","","",""
"780","","1796752","HierDy3qb8vkb2","efn0v9b0so","msl000312","motor","","74","img/motor_6.png","74","motor","6","28","1","0","0","",""
"null","","1796861","HierDy3qb8vkb2","efn0v9b0so","msl000312","iti","","null","img/motor_6.png","74","motor","","","","","","",""
"909","","1797779","HierDy3qb8vkb2","efn0v9b0so","msl000312","motor","","83","img/motor_2.png","83","motor","2","29","1","0","0","",""
"null","","1797893","HierDy3qb8vkb2","efn0v9b0so","msl000312","iti","","null","img/motor_2.png","83","motor","","","","","","",""
"661","","1798562","HierDy3qb8vkb2","efn0v9b0so","msl000312","motor","","76","img/motor_8.png","76","motor","8","30","1","0","0","",""
"null","","1798670","HierDy3qb8vkb2","efn0v9b0so","msl000312","iti","","null","img/motor_8.png","76","motor","","","","","","",""
"661","","1799339","HierDy3qb8vkb2","efn0v9b0so","msl000312","motor","","76","img/motor_8.png","76","motor","8","31","1","0","0","",""
"null","","1799453","HierDy3qb8vkb2","efn0v9b0so","msl000312","iti","","null","img/motor_8.png","76","motor","","","","","","",""
"781","","1800243","HierDy3qb8vkb2","efn0v9b0so","msl000312","motor","","65","img/motor_1.png","65","motor","1","32","1","0","0","",""
"null","","1800350","HierDy3qb8vkb2","efn0v9b0so","msl000312","iti","","null","img/motor_1.png","65","motor","","","","","","",""
"596","","1800954","HierDy3qb8vkb2","efn0v9b0so","msl000312","motor","","72","img/motor_5.png","72","motor","5","33","1","0","0","",""
"null","","1801069","HierDy3qb8vkb2","efn0v9b0so","msl000312","iti","","null","img/motor_5.png","72","motor","","","","","","",""
"823","","1801905","HierDy3qb8vkb2","efn0v9b0so","msl000312","motor","","70","img/motor_4.png","70","motor","4","34","1","0","0","",""
"null","","1802019","HierDy3qb8vkb2","efn0v9b0so","msl000312","iti","","null","img/motor_4.png","70","motor","","","","","","",""
"1272","","1803298","HierDy3qb8vkb2","efn0v9b0so","msl000312","motor","","74","img/motor_6.png","74","motor","6","35","1","0","0","",""
"null","","1803407","HierDy3qb8vkb2","efn0v9b0so","msl000312","iti","","null","img/motor_6.png","74","motor","","","","","","",""
"931","","1804346","HierDy3qb8vkb2","efn0v9b0so","msl000312","motor","","68","img/motor_3.png","68","motor","3","36","1","0","0","",""
"null","","1804454","HierDy3qb8vkb2","efn0v9b0so","msl000312","iti","","null","img/motor_3.png","68","motor","","","","","","",""
"644","","1805106","HierDy3qb8vkb2","efn0v9b0so","msl000312","motor","","72","img/motor_1.png","65","motor","1","37","0","1","0","",""
"425","","1805539","HierDy3qb8vkb2","efn0v9b0so","msl000312","motorRepeat","","65","img/motor_1.png","65","motor","1","37","1","0","0","",""
"null","","1805646","HierDy3qb8vkb2","efn0v9b0so","msl000312","iti","","null","img/motor_1.png","65","motor","","","","","","",""
"604","","1806259","HierDy3qb8vkb2","efn0v9b0so","msl000312","motor","","72","img/motor_5.png","72","motor","5","38","1","0","0","",""
"null","","1806374","HierDy3qb8vkb2","efn0v9b0so","msl000312","iti","","null","img/motor_5.png","72","motor","","","","","","",""
"708","","1807090","HierDy3qb8vkb2","efn0v9b0so","msl000312","motor","","76","img/motor_4.png","70","motor","4","39","0","1","0","",""
"320","","1807419","HierDy3qb8vkb2","efn0v9b0so","msl000312","motorRepeat","","70","img/motor_4.png","70","motor","4","39","1","0","0","",""
"null","","1807527","HierDy3qb8vkb2","efn0v9b0so","msl000312","iti","","null","img/motor_4.png","70","motor","","","","","","",""
"949","","1808489","HierDy3qb8vkb2","efn0v9b0so","msl000312","motor","","75","img/motor_7.png","75","motor","7","40","1","0","0","",""
"null","","1808604","HierDy3qb8vkb2","efn0v9b0so","msl000312","iti","","null","img/motor_7.png","75","motor","","","","","","",""
"710","","1809322","HierDy3qb8vkb2","efn0v9b0so","msl000312","motor","","72","img/motor_5.png","72","motor","5","41","1","0","0","",""
"null","","1809436","HierDy3qb8vkb2","efn0v9b0so","msl000312","iti","","null","img/motor_5.png","72","motor","","","","","","",""
"733","","1810178","HierDy3qb8vkb2","efn0v9b0so","msl000312","motor","","65","img/motor_1.png","65","motor","1","42","1","0","0","",""
"null","","1810287","HierDy3qb8vkb2","efn0v9b0so","msl000312","iti","","null","img/motor_1.png","65","motor","","","","","","",""
"891","","1811193","HierDy3qb8vkb2","efn0v9b0so","msl000312","motor","","68","img/motor_3.png","68","motor","3","43","1","0","0","",""
"null","","1811309","HierDy3qb8vkb2","efn0v9b0so","msl000312","iti","","null","img/motor_3.png","68","motor","","","","","","",""
"726","","1812043","HierDy3qb8vkb2","efn0v9b0so","msl000312","motor","","83","img/motor_2.png","83","motor","2","44","1","0","0","",""
"null","","1812151","HierDy3qb8vkb2","efn0v9b0so","msl000312","iti","","null","img/motor_2.png","83","motor","","","","","","",""
"523","","1812683","HierDy3qb8vkb2","efn0v9b0so","msl000312","motor","","68","img/motor_3.png","68","motor","3","45","1","0","0","",""
"null","","1812792","HierDy3qb8vkb2","efn0v9b0so","msl000312","iti","","null","img/motor_3.png","68","motor","","","","","","",""
"707","","1813508","HierDy3qb8vkb2","efn0v9b0so","msl000312","motor","","74","img/motor_6.png","74","motor","6","46","1","0","0","",""
"null","","1813616","HierDy3qb8vkb2","efn0v9b0so","msl000312","iti","","null","img/motor_6.png","74","motor","","","","","","",""
"714","","1814345","HierDy3qb8vkb2","efn0v9b0so","msl000312","motor","","72","img/motor_5.png","72","motor","5","47","1","0","0","",""
"null","","1814460","HierDy3qb8vkb2","efn0v9b0so","msl000312","iti","","null","img/motor_5.png","72","motor","","","","","","",""
"581","","1815058","HierDy3qb8vkb2","efn0v9b0so","msl000312","motor","","76","img/motor_8.png","76","motor","8","48","1","0","0","",""
"null","","1815172","HierDy3qb8vkb2","efn0v9b0so","msl000312","iti","","null","img/motor_8.png","76","motor","","","","","","",""
"445","","1815626","HierDy3qb8vkb2","efn0v9b0so","msl000312","motor","","72","img/motor_5.png","72","motor","5","49","1","0","0","",""
"null","","1815734","HierDy3qb8vkb2","efn0v9b0so","msl000312","iti","","null","img/motor_5.png","72","motor","","","","","","",""
"500","","1816243","HierDy3qb8vkb2","efn0v9b0so","msl000312","motor","","76","img/motor_8.png","76","motor","8","50","1","0","0","",""
"null","","1816351","HierDy3qb8vkb2","efn0v9b0so","msl000312","iti","","null","img/motor_8.png","76","motor","","","","","","",""
"644","","1817009","HierDy3qb8vkb2","efn0v9b0so","msl000312","motor","","70","img/motor_1.png","65","motor","1","51","0","1","0","",""
"401","","1817419","HierDy3qb8vkb2","efn0v9b0so","msl000312","motorRepeat","","65","img/motor_1.png","65","motor","1","51","1","0","0","",""
"null","","1817533","HierDy3qb8vkb2","efn0v9b0so","msl000312","iti","","null","img/motor_1.png","65","motor","","","","","","",""
"1030","","1818577","HierDy3qb8vkb2","efn0v9b0so","msl000312","motor","","76","img/motor_8.png","76","motor","8","52","1","0","0","",""
"null","","1818686","HierDy3qb8vkb2","efn0v9b0so","msl000312","iti","","null","img/motor_8.png","76","motor","","","","","","",""
"948","","1819643","HierDy3qb8vkb2","efn0v9b0so","msl000312","motor","","74","img/motor_6.png","74","motor","6","53","1","0","0","",""
"null","","1819751","HierDy3qb8vkb2","efn0v9b0so","msl000312","iti","","null","img/motor_6.png","74","motor","","","","","","",""
"916","","1820676","HierDy3qb8vkb2","efn0v9b0so","msl000312","motor","","70","img/motor_4.png","70","motor","4","54","1","0","0","",""
"null","","1820791","HierDy3qb8vkb2","efn0v9b0so","msl000312","iti","","null","img/motor_4.png","70","motor","","","","","","",""
"660","","1821459","HierDy3qb8vkb2","efn0v9b0so","msl000312","motor","","72","img/motor_5.png","72","motor","5","55","1","0","0","",""
"null","","1821574","HierDy3qb8vkb2","efn0v9b0so","msl000312","iti","","null","img/motor_5.png","72","motor","","","","","","",""
"564","","1822153","HierDy3qb8vkb2","efn0v9b0so","msl000312","motor","","76","img/motor_8.png","76","motor","8","56","1","0","0","",""
"null","","1822269","HierDy3qb8vkb2","efn0v9b0so","msl000312","iti","","null","img/motor_8.png","76","motor","","","","","","",""
"463","","1822739","HierDy3qb8vkb2","efn0v9b0so","msl000312","motor","","72","img/motor_5.png","72","motor","5","57","1","0","0","",""
"null","","1822847","HierDy3qb8vkb2","efn0v9b0so","msl000312","iti","","null","img/motor_5.png","72","motor","","","","","","",""
"1188","","1824050","HierDy3qb8vkb2","efn0v9b0so","msl000312","motor","","68","img/motor_3.png","68","motor","3","58","1","0","0","",""
"null","","1824158","HierDy3qb8vkb2","efn0v9b0so","msl000312","iti","","null","img/motor_3.png","68","motor","","","","","","",""
"798","","1824963","HierDy3qb8vkb2","efn0v9b0so","msl000312","motor","","70","img/motor_4.png","70","motor","4","59","1","0","0","",""
"null","","1825071","HierDy3qb8vkb2","efn0v9b0so","msl000312","iti","","null","img/motor_4.png","70","motor","","","","","","",""
"715","","1825796","HierDy3qb8vkb2","efn0v9b0so","msl000312","motor","","83","img/motor_2.png","83","motor","2","60","1","0","0","",""
"null","","1825903","HierDy3qb8vkb2","efn0v9b0so","msl000312","iti","","null","img/motor_2.png","83","motor","","","","","","",""
"516","","1826427","HierDy3qb8vkb2","efn0v9b0so","msl000312","motor","","76","img/motor_8.png","76","motor","8","61","1","0","0","",""
"null","","1826535","HierDy3qb8vkb2","efn0v9b0so","msl000312","iti","","null","img/motor_8.png","76","motor","","","","","","",""
"676","","1827220","HierDy3qb8vkb2","efn0v9b0so","msl000312","motor","","83","img/motor_2.png","83","motor","2","62","1","0","0","",""
"null","","1827328","HierDy3qb8vkb2","efn0v9b0so","msl000312","iti","","null","img/motor_2.png","83","motor","","","","","","",""
"1452","","1828795","HierDy3qb8vkb2","efn0v9b0so","msl000312","motor","","75","img/motor_6.png","74","motor","6","63","0","1","0","",""
"441","","1829242","HierDy3qb8vkb2","efn0v9b0so","msl000312","motorRepeat","","74","img/motor_6.png","74","motor","6","63","1","0","0","",""
"null","","1829351","HierDy3qb8vkb2","efn0v9b0so","msl000312","iti","","null","img/motor_6.png","74","motor","","","","","","",""
"717","","1830076","HierDy3qb8vkb2","efn0v9b0so","msl000312","motor","","65","img/motor_1.png","65","motor","1","64","1","0","0","",""
"null","","1830184","HierDy3qb8vkb2","efn0v9b0so","msl000312","iti","","null","img/motor_1.png","65","motor","","","","","","",""
"796","","1830988","HierDy3qb8vkb2","efn0v9b0so","msl000312","motor","","72","img/motor_5.png","72","motor","5","65","1","0","0","",""
"null","","1831102","HierDy3qb8vkb2","efn0v9b0so","msl000312","iti","","null","img/motor_5.png","72","motor","","","","","","",""
"726","","1831841","HierDy3qb8vkb2","efn0v9b0so","msl000312","motor","","83","img/motor_2.png","83","motor","2","66","1","0","0","",""
"null","","1831951","HierDy3qb8vkb2","efn0v9b0so","msl000312","iti","","null","img/motor_2.png","83","motor","","","","","","",""
"789","","1832754","HierDy3qb8vkb2","efn0v9b0so","msl000312","motor","","68","img/motor_3.png","68","motor","3","67","1","0","0","",""
"null","","1832863","HierDy3qb8vkb2","efn0v9b0so","msl000312","iti","","null","img/motor_3.png","68","motor","","","","","","",""
"548","","1833425","HierDy3qb8vkb2","efn0v9b0so","msl000312","motor","","72","img/motor_5.png","72","motor","5","68","1","0","0","",""
"null","","1833541","HierDy3qb8vkb2","efn0v9b0so","msl000312","iti","","null","img/motor_5.png","72","motor","","","","","","",""
"686","","1834236","HierDy3qb8vkb2","efn0v9b0so","msl000312","motor","","75","img/motor_7.png","75","motor","7","69","1","0","0","",""
"null","","1834345","HierDy3qb8vkb2","efn0v9b0so","msl000312","iti","","null","img/motor_7.png","75","motor","","","","","","",""
"828","","1835179","HierDy3qb8vkb2","efn0v9b0so","msl000312","motor","","68","img/motor_3.png","68","motor","3","70","1","0","0","",""
"null","","1835294","HierDy3qb8vkb2","efn0v9b0so","msl000312","iti","","null","img/motor_3.png","68","motor","","","","","","",""
"485","","1835788","HierDy3qb8vkb2","efn0v9b0so","msl000312","motor","","76","img/motor_8.png","76","motor","8","71","1","0","0","",""
"null","","1835896","HierDy3qb8vkb2","efn0v9b0so","msl000312","iti","","null","img/motor_8.png","76","motor","","","","","","",""
"812","","1836722","HierDy3qb8vkb2","efn0v9b0so","msl000312","motor","","75","img/motor_7.png","75","motor","7","72","1","0","0","",""
"null","","1836837","HierDy3qb8vkb2","efn0v9b0so","msl000312","iti","","null","img/motor_7.png","75","motor","","","","","","",""
"1086","","1837931","HierDy3qb8vkb2","efn0v9b0so","msl000312","motor","","68","img/motor_3.png","68","motor","3","73","1","0","0","",""
"null","","1838046","HierDy3qb8vkb2","efn0v9b0so","msl000312","iti","","null","img/motor_3.png","68","motor","","","","","","",""
"717","","1838770","HierDy3qb8vkb2","efn0v9b0so","msl000312","motor","","72","img/motor_5.png","72","motor","5","74","1","0","0","",""
"null","","1838885","HierDy3qb8vkb2","efn0v9b0so","msl000312","iti","","null","img/motor_5.png","72","motor","","","","","","",""
"694","","1839594","HierDy3qb8vkb2","efn0v9b0so","msl000312","motor","","68","img/motor_3.png","68","motor","3","75","1","0","0","",""
"null","","1839703","HierDy3qb8vkb2","efn0v9b0so","msl000312","iti","","null","img/motor_3.png","68","motor","","","","","","",""
"541","","1840258","HierDy3qb8vkb2","efn0v9b0so","msl000312","motor","","72","img/motor_5.png","72","motor","5","76","1","0","0","",""
"null","","1840373","HierDy3qb8vkb2","efn0v9b0so","msl000312","iti","","null","img/motor_5.png","72","motor","","","","","","",""
"590","","1840972","HierDy3qb8vkb2","efn0v9b0so","msl000312","motor","","68","img/motor_3.png","68","motor","3","77","1","0","0","",""
"null","","1841086","HierDy3qb8vkb2","efn0v9b0so","msl000312","iti","","null","img/motor_3.png","68","motor","","","","","","",""
"780","","1841875","HierDy3qb8vkb2","efn0v9b0so","msl000312","motor","","68","img/motor_3.png","68","motor","3","78","1","0","0","",""
"null","","1841989","HierDy3qb8vkb2","efn0v9b0so","msl000312","iti","","null","img/motor_3.png","68","motor","","","","","","",""
"774","","1842772","HierDy3qb8vkb2","efn0v9b0so","msl000312","motor","","70","img/motor_4.png","70","motor","4","79","1","0","0","",""
"null","","1842880","HierDy3qb8vkb2","efn0v9b0so","msl000312","iti","","null","img/motor_4.png","70","motor","","","","","","",""
"683","","1843571","HierDy3qb8vkb2","efn0v9b0so","msl000312","motor","","74","img/motor_6.png","74","motor","6","80","1","0","0","",""
"null","","1843679","HierDy3qb8vkb2","efn0v9b0so","msl000312","iti","","null","img/motor_6.png","74","motor","","","","","","",""
"629","","1844322","HierDy3qb8vkb2","efn0v9b0so","msl000312","motor","","70","img/motor_4.png","70","motor","4","81","1","0","0","",""
"null","","1844437","HierDy3qb8vkb2","efn0v9b0so","msl000312","iti","","null","img/motor_4.png","70","motor","","","","","","",""
"606","","1845059","HierDy3qb8vkb2","efn0v9b0so","msl000312","motor","","65","img/motor_1.png","65","motor","1","82","1","0","0","",""
"null","","1845173","HierDy3qb8vkb2","efn0v9b0so","msl000312","iti","","null","img/motor_1.png","65","motor","","","","","","",""
"710","","1845892","HierDy3qb8vkb2","efn0v9b0so","msl000312","motor","","75","img/motor_7.png","75","motor","7","83","1","0","0","",""
"null","","1846000","HierDy3qb8vkb2","efn0v9b0so","msl000312","iti","","null","img/motor_7.png","75","motor","","","","","","",""
"804","","1846818","HierDy3qb8vkb2","efn0v9b0so","msl000312","motor","","65","img/motor_1.png","65","motor","1","84","1","0","0","",""
"null","","1846927","HierDy3qb8vkb2","efn0v9b0so","msl000312","iti","","null","img/motor_1.png","65","motor","","","","","","",""
"661","","1847596","HierDy3qb8vkb2","efn0v9b0so","msl000312","motor","","65","img/motor_1.png","65","motor","1","85","1","0","0","",""
"null","","1847710","HierDy3qb8vkb2","efn0v9b0so","msl000312","iti","","null","img/motor_1.png","65","motor","","","","","","",""
"662","","1848380","HierDy3qb8vkb2","efn0v9b0so","msl000312","motor","","68","img/motor_3.png","68","motor","3","86","1","0","0","",""
"null","","1848494","HierDy3qb8vkb2","efn0v9b0so","msl000312","iti","","null","img/motor_3.png","68","motor","","","","","","",""
"685","","1849188","HierDy3qb8vkb2","efn0v9b0so","msl000312","motor","","75","img/motor_7.png","75","motor","7","87","1","0","0","",""
"null","","1849303","HierDy3qb8vkb2","efn0v9b0so","msl000312","iti","","null","img/motor_7.png","75","motor","","","","","","",""
"796","","1850115","HierDy3qb8vkb2","efn0v9b0so","msl000312","motor","","70","img/motor_4.png","70","motor","4","88","1","0","0","",""
"null","","1850223","HierDy3qb8vkb2","efn0v9b0so","msl000312","iti","","null","img/motor_4.png","70","motor","","","","","","",""
"685","","1850923","HierDy3qb8vkb2","efn0v9b0so","msl000312","motor","","72","img/motor_5.png","72","motor","5","89","1","0","0","",""
"null","","1851031","HierDy3qb8vkb2","efn0v9b0so","msl000312","iti","","null","img/motor_5.png","72","motor","","","","","","",""
"686","","1851723","HierDy3qb8vkb2","efn0v9b0so","msl000312","motor","","65","img/motor_1.png","65","motor","1","90","1","0","0","",""
"null","","1851831","HierDy3qb8vkb2","efn0v9b0so","msl000312","iti","","null","img/motor_1.png","65","motor","","","","","","",""
"589","","1852434","HierDy3qb8vkb2","efn0v9b0so","msl000312","motor","","76","img/motor_8.png","76","motor","8","91","1","0","0","",""
"null","","1852550","HierDy3qb8vkb2","efn0v9b0so","msl000312","iti","","null","img/motor_8.png","76","motor","","","","","","",""
"830","","1853394","HierDy3qb8vkb2","efn0v9b0so","msl000312","motor","","83","img/motor_3.png","68","motor","3","92","0","1","0","",""
"272","","1853676","HierDy3qb8vkb2","efn0v9b0so","msl000312","motorRepeat","","68","img/motor_3.png","68","motor","3","92","1","0","0","",""
"null","","1853784","HierDy3qb8vkb2","efn0v9b0so","msl000312","iti","","null","img/motor_3.png","68","motor","","","","","","",""
"1028","","1854820","HierDy3qb8vkb2","efn0v9b0so","msl000312","motor","","75","img/motor_7.png","75","motor","7","93","1","0","0","",""
"null","","1854927","HierDy3qb8vkb2","efn0v9b0so","msl000312","iti","","null","img/motor_7.png","75","motor","","","","","","",""
"734","","1855674","HierDy3qb8vkb2","efn0v9b0so","msl000312","motor","","70","img/motor_4.png","70","motor","4","94","1","0","0","",""
"null","","1855784","HierDy3qb8vkb2","efn0v9b0so","msl000312","iti","","null","img/motor_4.png","70","motor","","","","","","",""
"796","","1856587","HierDy3qb8vkb2","efn0v9b0so","msl000312","motor","","83","img/motor_2.png","83","motor","2","95","1","0","0","",""
"null","","1856702","HierDy3qb8vkb2","efn0v9b0so","msl000312","iti","","null","img/motor_2.png","83","motor","","","","","","",""
"670","","1857380","HierDy3qb8vkb2","efn0v9b0so","msl000312","motor","","68","img/motor_3.png","68","motor","3","96","1","0","0","",""
"null","","1857495","HierDy3qb8vkb2","efn0v9b0so","msl000312","iti","","null","img/motor_3.png","68","motor","","","","","","",""
"733","","1858237","HierDy3qb8vkb2","efn0v9b0so","msl000312","motor","","75","img/motor_7.png","75","motor","7","97","1","0","0","",""
"null","","1858344","HierDy3qb8vkb2","efn0v9b0so","msl000312","iti","","null","img/motor_7.png","75","motor","","","","","","",""
"452","","1858811","HierDy3qb8vkb2","efn0v9b0so","msl000312","motor","","76","img/motor_8.png","76","motor","8","98","1","0","0","",""
"null","","1858920","HierDy3qb8vkb2","efn0v9b0so","msl000312","iti","","null","img/motor_8.png","76","motor","","","","","","",""
"524","","1859452","HierDy3qb8vkb2","efn0v9b0so","msl000312","motor","","76","img/motor_8.png","76","motor","8","99","1","0","0","",""
"null","","1859561","HierDy3qb8vkb2","efn0v9b0so","msl000312","iti","","null","img/motor_8.png","76","motor","","","","","","",""
"572","","1860141","HierDy3qb8vkb2","efn0v9b0so","msl000312","motor","","68","img/motor_7.png","75","motor","7","100","0","1","0","",""
"304","","1860452","HierDy3qb8vkb2","efn0v9b0so","msl000312","motorRepeat","","75","img/motor_7.png","75","motor","7","100","1","0","0","",""
"null","","1860560","HierDy3qb8vkb2","efn0v9b0so","msl000312","iti","","null","img/motor_7.png","75","motor","","","","","","",""
"1316","","1861884","HierDy3qb8vkb2","efn0v9b0so","msl000312","motor","","70","img/motor_4.png","70","motor","4","101","1","0","0","",""
"null","","1861999","HierDy3qb8vkb2","efn0v9b0so","msl000312","iti","","null","img/motor_4.png","70","motor","","","","","","",""
"709","","1862717","HierDy3qb8vkb2","efn0v9b0so","msl000312","motor","","75","img/motor_8.png","76","motor","8","102","0","1","0","",""
"287","","1863012","HierDy3qb8vkb2","efn0v9b0so","msl000312","motorRepeat","","76","img/motor_8.png","76","motor","8","102","1","0","0","",""
"null","","1863126","HierDy3qb8vkb2","efn0v9b0so","msl000312","iti","","null","img/motor_8.png","76","motor","","","","","","",""
"1070","","1864211","HierDy3qb8vkb2","efn0v9b0so","msl000312","motor","","72","img/motor_5.png","72","motor","5","103","1","0","0","",""
"null","","1864320","HierDy3qb8vkb2","efn0v9b0so","msl000312","iti","","null","img/motor_5.png","72","motor","","","","","","",""
"821","","1865148","HierDy3qb8vkb2","efn0v9b0so","msl000312","motor","","70","img/motor_4.png","70","motor","4","104","1","0","0","",""
"null","","1865256","HierDy3qb8vkb2","efn0v9b0so","msl000312","iti","","null","img/motor_4.png","70","motor","","","","","","",""
"781","","1866051","HierDy3qb8vkb2","efn0v9b0so","msl000312","motor","","70","img/motor_4.png","70","motor","4","105","1","0","0","",""
"null","","1866160","HierDy3qb8vkb2","efn0v9b0so","msl000312","iti","","null","img/motor_4.png","70","motor","","","","","","",""
"1021","","1867187","HierDy3qb8vkb2","efn0v9b0so","msl000312","motor","","74","img/motor_6.png","74","motor","6","106","1","0","0","",""
"null","","1867296","HierDy3qb8vkb2","efn0v9b0so","msl000312","iti","","null","img/motor_6.png","74","motor","","","","","","",""
"685","","1867988","HierDy3qb8vkb2","efn0v9b0so","msl000312","motor","","65","img/motor_1.png","65","motor","1","107","1","0","0","",""
"null","","1868096","HierDy3qb8vkb2","efn0v9b0so","msl000312","iti","","null","img/motor_1.png","65","motor","","","","","","",""
"1252","","1869357","HierDy3qb8vkb2","efn0v9b0so","msl000312","motor","","68","img/motor_3.png","68","motor","3","108","1","0","0","",""
"72","","1869465","HierDy3qb8vkb2","efn0v9b0so","msl000312","iti","","70","img/motor_3.png","68","motor","","","","","","",""
"668","","1870140","HierDy3qb8vkb2","efn0v9b0so","msl000312","motor","","65","img/motor_1.png","65","motor","1","109","1","0","0","",""
"null","","1870255","HierDy3qb8vkb2","efn0v9b0so","msl000312","iti","","null","img/motor_1.png","65","motor","","","","","","",""
"845","","1871108","HierDy3qb8vkb2","efn0v9b0so","msl000312","motor","","76","img/motor_8.png","76","motor","8","110","1","0","0","",""
"null","","1871223","HierDy3qb8vkb2","efn0v9b0so","msl000312","iti","","null","img/motor_8.png","76","motor","","","","","","",""
"725","","1871957","HierDy3qb8vkb2","efn0v9b0so","msl000312","motor","","75","img/motor_7.png","75","motor","7","111","1","0","0","",""
"null","","1872065","HierDy3qb8vkb2","efn0v9b0so","msl000312","iti","","null","img/motor_7.png","75","motor","","","","","","",""
"1748","","1873827","HierDy3qb8vkb2","efn0v9b0so","msl000312","motor","","68","img/motor_3.png","68","motor","3","112","1","0","0","",""
"null","","1873936","HierDy3qb8vkb2","efn0v9b0so","msl000312","iti","","null","img/motor_3.png","68","motor","","","","","","",""
"710","","1874652","HierDy3qb8vkb2","efn0v9b0so","msl000312","motor","","70","img/motor_4.png","70","motor","4","113","1","0","0","",""
"null","","1874760","HierDy3qb8vkb2","efn0v9b0so","msl000312","iti","","null","img/motor_4.png","70","motor","","","","","","",""
"1012","","1875787","HierDy3qb8vkb2","efn0v9b0so","msl000312","motor","","83","img/motor_2.png","83","motor","2","114","1","0","0","",""
"null","","1875896","HierDy3qb8vkb2","efn0v9b0so","msl000312","iti","","null","img/motor_2.png","83","motor","","","","","","",""
"813","","1876716","HierDy3qb8vkb2","efn0v9b0so","msl000312","motor","","75","img/motor_7.png","75","motor","7","115","1","0","0","",""
"null","","1876824","HierDy3qb8vkb2","efn0v9b0so","msl000312","iti","","null","img/motor_7.png","75","motor","","","","","","",""
"548","","1877387","HierDy3qb8vkb2","efn0v9b0so","msl000312","motor","","75","img/motor_7.png","75","motor","7","116","1","0","0","",""
"null","","1877496","HierDy3qb8vkb2","efn0v9b0so","msl000312","iti","","null","img/motor_7.png","75","motor","","","","","","",""
"709","","1878213","HierDy3qb8vkb2","efn0v9b0so","msl000312","motor","","83","img/motor_2.png","83","motor","2","117","1","0","0","",""
"null","","1878327","HierDy3qb8vkb2","efn0v9b0so","msl000312","iti","","null","img/motor_2.png","83","motor","","","","","","",""
"756","","1879098","HierDy3qb8vkb2","efn0v9b0so","msl000312","motor","","72","img/motor_5.png","72","motor","5","118","1","0","0","",""
"null","","1879208","HierDy3qb8vkb2","efn0v9b0so","msl000312","iti","","null","img/motor_5.png","72","motor","","","","","","",""
"485","","1879701","HierDy3qb8vkb2","efn0v9b0so","msl000312","motor","","83","img/motor_2.png","83","motor","2","119","1","0","0","",""
"null","","1879809","HierDy3qb8vkb2","efn0v9b0so","msl000312","iti","","null","img/motor_2.png","83","motor","","","","","","",""
"755","","1880572","HierDy3qb8vkb2","efn0v9b0so","msl000312","motor","","70","img/motor_4.png","70","motor","4","120","1","0","0","",""
"null","","1880688","HierDy3qb8vkb2","efn0v9b0so","msl000312","iti","","null","img/motor_4.png","70","motor","","","","","","",""
"949","","1881652","HierDy3qb8vkb2","efn0v9b0so","msl000312","motor","","74","img/motor_6.png","74","motor","6","121","1","0","0","",""
"null","","1881760","HierDy3qb8vkb2","efn0v9b0so","msl000312","iti","","null","img/motor_6.png","74","motor","","","","","","",""
"605","","1882379","HierDy3qb8vkb2","efn0v9b0so","msl000312","motor","","83","img/motor_2.png","83","motor","2","122","1","0","0","",""
"null","","1882495","HierDy3qb8vkb2","efn0v9b0so","msl000312","iti","","null","img/motor_2.png","83","motor","","","","","","",""
"853","","1883363","HierDy3qb8vkb2","efn0v9b0so","msl000312","motor","","75","img/motor_7.png","75","motor","7","123","1","0","0","",""
"null","","1883473","HierDy3qb8vkb2","efn0v9b0so","msl000312","iti","","null","img/motor_7.png","75","motor","","","","","","",""
"764","","1884244","HierDy3qb8vkb2","efn0v9b0so","msl000312","motor","","70","img/motor_4.png","70","motor","4","124","1","0","0","",""
"null","","1884360","HierDy3qb8vkb2","efn0v9b0so","msl000312","iti","","null","img/motor_4.png","70","motor","","","","","","",""
"685","","1885053","HierDy3qb8vkb2","efn0v9b0so","msl000312","motor","","83","img/motor_2.png","83","motor","2","125","1","0","0","",""
"null","","1885162","HierDy3qb8vkb2","efn0v9b0so","msl000312","iti","","null","img/motor_2.png","83","motor","","","","","","",""
"620","","1885789","HierDy3qb8vkb2","efn0v9b0so","msl000312","motor","","72","img/motor_5.png","72","motor","5","126","1","0","0","",""
"null","","1885903","HierDy3qb8vkb2","efn0v9b0so","msl000312","iti","","null","img/motor_5.png","72","motor","","","","","","",""
"598","","1886509","HierDy3qb8vkb2","efn0v9b0so","msl000312","motor","","75","img/motor_7.png","75","motor","7","127","1","0","0","",""
"null","","1886617","HierDy3qb8vkb2","efn0v9b0so","msl000312","iti","","null","img/motor_7.png","75","motor","","","","","","",""
"516","","1887141","HierDy3qb8vkb2","efn0v9b0so","msl000312","motor","","76","img/motor_8.png","76","motor","8","128","1","0","0","",""
"null","","1887256","HierDy3qb8vkb2","efn0v9b0so","msl000312","iti","","null","img/motor_8.png","76","motor","","","","","","",""
"861","","1888131","HierDy3qb8vkb2","efn0v9b0so","msl000312","motor","","74","img/motor_6.png","74","motor","6","129","1","0","0","",""
"null","","1888240","HierDy3qb8vkb2","efn0v9b0so","msl000312","iti","","null","img/motor_6.png","74","motor","","","","","","",""
"444","","1888692","HierDy3qb8vkb2","efn0v9b0so","msl000312","motor","","74","img/motor_6.png","74","motor","6","130","1","0","0","",""
"null","","1888801","HierDy3qb8vkb2","efn0v9b0so","msl000312","iti","","null","img/motor_6.png","74","motor","","","","","","",""
"579","","1889389","HierDy3qb8vkb2","efn0v9b0so","msl000312","motor","","75","img/motor_7.png","75","motor","7","131","1","0","0","",""
"null","","1889497","HierDy3qb8vkb2","efn0v9b0so","msl000312","iti","","null","img/motor_7.png","75","motor","","","","","","",""
"980","","1890485","HierDy3qb8vkb2","efn0v9b0so","msl000312","motor","","83","img/motor_2.png","83","motor","2","132","1","0","0","",""
"null","","1890600","HierDy3qb8vkb2","efn0v9b0so","msl000312","iti","","null","img/motor_2.png","83","motor","","","","","","",""
"404","","1891012","HierDy3qb8vkb2","efn0v9b0so","msl000312","motor","","83","img/motor_2.png","83","motor","2","133","1","0","0","",""
"null","","1891127","HierDy3qb8vkb2","efn0v9b0so","msl000312","iti","","null","img/motor_2.png","83","motor","","","","","","",""
"638","","1891773","HierDy3qb8vkb2","efn0v9b0so","msl000312","motor","","70","img/motor_4.png","70","motor","4","134","1","0","0","",""
"null","","1891881","HierDy3qb8vkb2","efn0v9b0so","msl000312","iti","","null","img/motor_4.png","70","motor","","","","","","",""
"701","","1892589","HierDy3qb8vkb2","efn0v9b0so","msl000312","motor","","76","img/motor_8.png","76","motor","8","135","1","0","0","",""
"null","","1892705","HierDy3qb8vkb2","efn0v9b0so","msl000312","iti","","null","img/motor_8.png","76","motor","","","","","","",""
"917","","1893630","HierDy3qb8vkb2","efn0v9b0so","msl000312","motor","","83","img/motor_2.png","83","motor","2","136","1","0","0","",""
"null","","1893739","HierDy3qb8vkb2","efn0v9b0so","msl000312","iti","","null","img/motor_2.png","83","motor","","","","","","",""
"523","","1894270","HierDy3qb8vkb2","efn0v9b0so","msl000312","motor","","70","img/motor_4.png","70","motor","4","137","1","0","0","",""
"null","","1894378","HierDy3qb8vkb2","efn0v9b0so","msl000312","iti","","null","img/motor_4.png","70","motor","","","","","","",""
"675","","1895068","HierDy3qb8vkb2","efn0v9b0so","msl000312","motor","","75","img/motor_7.png","75","motor","7","138","1","0","0","",""
"null","","1895177","HierDy3qb8vkb2","efn0v9b0so","msl000312","iti","","null","img/motor_7.png","75","motor","","","","","","",""
"869","","1896054","HierDy3qb8vkb2","efn0v9b0so","msl000312","motor","","74","img/motor_6.png","74","motor","6","139","1","0","0","",""
"null","","1896162","HierDy3qb8vkb2","efn0v9b0so","msl000312","iti","","null","img/motor_6.png","74","motor","","","","","","",""
"1044","","1897213","HierDy3qb8vkb2","efn0v9b0so","msl000312","motor","","83","img/motor_2.png","83","motor","2","140","1","0","0","",""
"null","","1897322","HierDy3qb8vkb2","efn0v9b0so","msl000312","iti","","null","img/motor_2.png","83","motor","","","","","","",""
"660","","1897989","HierDy3qb8vkb2","efn0v9b0so","msl000312","motor","","72","img/motor_1.png","65","motor","1","141","0","1","0","",""
"200","","1898197","HierDy3qb8vkb2","efn0v9b0so","msl000312","motorRepeat","","65","img/motor_1.png","65","motor","1","141","1","0","0","",""
"null","","1898306","HierDy3qb8vkb2","efn0v9b0so","msl000312","iti","","null","img/motor_1.png","65","motor","","","","","","",""
"851","","1899166","HierDy3qb8vkb2","efn0v9b0so","msl000312","motor","","83","img/motor_2.png","83","motor","2","142","1","0","0","",""
"null","","1899273","HierDy3qb8vkb2","efn0v9b0so","msl000312","iti","","null","img/motor_2.png","83","motor","","","","","","",""
"724","","1900013","HierDy3qb8vkb2","efn0v9b0so","msl000312","motor","","70","img/motor_4.png","70","motor","4","143","1","0","0","",""
"null","","1900127","HierDy3qb8vkb2","efn0v9b0so","msl000312","iti","","null","img/motor_4.png","70","motor","","","","","","",""
"477","","1900613","HierDy3qb8vkb2","efn0v9b0so","msl000312","motor","","65","img/motor_1.png","65","motor","1","144","1","0","0","",""
"null","","1900728","HierDy3qb8vkb2","efn0v9b0so","msl000312","iti","","null","img/motor_1.png","65","motor","","","","","","",""
"813","","1901550","HierDy3qb8vkb2","efn0v9b0so","msl000312","motor","","74","img/motor_6.png","74","motor","6","145","1","0","0","",""
"null","","1901658","HierDy3qb8vkb2","efn0v9b0so","msl000312","iti","","null","img/motor_6.png","74","motor","","","","","","",""
"467","","1902133","HierDy3qb8vkb2","efn0v9b0so","msl000312","motor","","74","img/motor_6.png","74","motor","6","146","1","0","0","",""
"null","","1902241","HierDy3qb8vkb2","efn0v9b0so","msl000312","iti","","null","img/motor_6.png","74","motor","","","","","","",""
"613","","1902868","HierDy3qb8vkb2","efn0v9b0so","msl000312","motor","","65","img/motor_1.png","65","motor","1","147","1","0","0","",""
"null","","1902976","HierDy3qb8vkb2","efn0v9b0so","msl000312","iti","","null","img/motor_1.png","65","motor","","","","","","",""
"877","","1903868","HierDy3qb8vkb2","efn0v9b0so","msl000312","motor","","70","img/motor_4.png","70","motor","4","148","1","0","0","",""
"null","","1903984","HierDy3qb8vkb2","efn0v9b0so","msl000312","iti","","null","img/motor_4.png","70","motor","","","","","","",""
"590","","1904582","HierDy3qb8vkb2","efn0v9b0so","msl000312","motor","","76","img/motor_8.png","76","motor","8","149","1","0","0","",""
"null","","1904689","HierDy3qb8vkb2","efn0v9b0so","msl000312","iti","","null","img/motor_8.png","76","motor","","","","","","",""
"724","","1905421","HierDy3qb8vkb2","efn0v9b0so","msl000312","motor","","65","img/motor_4.png","70","motor","4","150","0","1","0","",""
"289","","1905717","HierDy3qb8vkb2","efn0v9b0so","msl000312","motorRepeat","","70","img/motor_4.png","70","motor","4","150","1","0","0","",""
"null","","1905826","HierDy3qb8vkb2","efn0v9b0so","msl000312","iti","","null","img/motor_4.png","70","motor","","","","","","",""
"788","","1906621","HierDy3qb8vkb2","efn0v9b0so","msl000312","motor","","68","img/motor_3.png","68","motor","3","151","1","0","0","",""
"null","","1906729","HierDy3qb8vkb2","efn0v9b0so","msl000312","iti","","null","img/motor_3.png","68","motor","","","","","","",""
"660","","1907398","HierDy3qb8vkb2","efn0v9b0so","msl000312","motor","","65","img/motor_1.png","65","motor","1","152","1","0","0","",""
"null","","1907513","HierDy3qb8vkb2","efn0v9b0so","msl000312","iti","","null","img/motor_1.png","65","motor","","","","","","",""
"692","","1908220","HierDy3qb8vkb2","efn0v9b0so","msl000312","motor","","74","img/motor_6.png","74","motor","6","153","1","0","0","",""
"null","","1908335","HierDy3qb8vkb2","efn0v9b0so","msl000312","iti","","null","img/motor_6.png","74","motor","","","","","","",""
"846","","1909196","HierDy3qb8vkb2","efn0v9b0so","msl000312","motor","","68","img/motor_3.png","68","motor","3","154","1","0","0","",""
"null","","1909312","HierDy3qb8vkb2","efn0v9b0so","msl000312","iti","","null","img/motor_3.png","68","motor","","","","","","",""
"582","","1909902","HierDy3qb8vkb2","efn0v9b0so","msl000312","motor","","65","img/motor_1.png","65","motor","1","155","1","0","0","",""
"null","","1910017","HierDy3qb8vkb2","efn0v9b0so","msl000312","iti","","null","img/motor_1.png","65","motor","","","","","","",""
"630","","1910661","HierDy3qb8vkb2","efn0v9b0so","msl000312","motor","","74","img/motor_6.png","74","motor","6","156","1","0","0","",""
"null","","1910776","HierDy3qb8vkb2","efn0v9b0so","msl000312","iti","","null","img/motor_6.png","74","motor","","","","","","",""
"757","","1911542","HierDy3qb8vkb2","efn0v9b0so","msl000312","motor","","68","img/motor_3.png","68","motor","3","157","1","0","0","",""
"null","","1911656","HierDy3qb8vkb2","efn0v9b0so","msl000312","iti","","null","img/motor_3.png","68","motor","","","","","","",""
"548","","1912213","HierDy3qb8vkb2","efn0v9b0so","msl000312","motor","","76","img/motor_8.png","76","motor","8","158","1","0","0","",""
"null","","1912323","HierDy3qb8vkb2","efn0v9b0so","msl000312","iti","","null","img/motor_8.png","76","motor","","","","","","",""
"540","","1912869","HierDy3qb8vkb2","efn0v9b0so","msl000312","motor","","74","img/motor_5.png","72","motor","5","159","0","1","0","",""
"752","","1913630","HierDy3qb8vkb2","efn0v9b0so","msl000312","motorRepeat","","72","img/motor_5.png","72","motor","5","159","1","0","0","",""
"null","","1913738","HierDy3qb8vkb2","efn0v9b0so","msl000312","iti","","null","img/motor_5.png","72","motor","","","","","","",""
"692","","1914438","HierDy3qb8vkb2","efn0v9b0so","msl000312","motor","","68","img/motor_3.png","68","motor","3","160","1","0","0","",""
"null","","1914546","HierDy3qb8vkb2","efn0v9b0so","msl000312","iti","","null","img/motor_3.png","68","motor","","","","","","",""
"851","","1915412","HierDy3qb8vkb2","efn0v9b0so","msl000312","motor","","72","img/motor_5.png","72","motor","5","161","1","0","0","",""
"null","","1915521","HierDy3qb8vkb2","efn0v9b0so","msl000312","iti","","null","img/motor_5.png","72","motor","","","","","","",""
"404","","1915933","HierDy3qb8vkb2","efn0v9b0so","msl000312","motor","","72","img/motor_5.png","72","motor","5","162","1","0","0","",""
"null","","1916042","HierDy3qb8vkb2","efn0v9b0so","msl000312","iti","","null","img/motor_5.png","72","motor","","","","","","",""
"556","","1916606","HierDy3qb8vkb2","efn0v9b0so","msl000312","motor","","74","img/motor_6.png","74","motor","6","163","1","0","0","",""
"null","","1916721","HierDy3qb8vkb2","efn0v9b0so","msl000312","iti","","null","img/motor_6.png","74","motor","","","","","","",""
"772","","1917509","HierDy3qb8vkb2","efn0v9b0so","msl000312","motor","","65","img/motor_1.png","65","motor","1","164","1","0","0","",""
"null","","1917617","HierDy3qb8vkb2","efn0v9b0so","msl000312","iti","","null","img/motor_1.png","65","motor","","","","","","",""
"909","","1918534","HierDy3qb8vkb2","efn0v9b0so","msl000312","motor","","83","img/motor_2.png","83","motor","2","165","1","0","0","",""
"null","","1918648","HierDy3qb8vkb2","efn0v9b0so","msl000312","iti","","null","img/motor_2.png","83","motor","","","","","","",""
"572","","1919237","HierDy3qb8vkb2","efn0v9b0so","msl000312","motor","","72","img/motor_5.png","72","motor","5","166","1","0","0","",""
"null","","1919352","HierDy3qb8vkb2","efn0v9b0so","msl000312","iti","","null","img/motor_5.png","72","motor","","","","","","",""
"727","","1920092","HierDy3qb8vkb2","efn0v9b0so","msl000312","motor","","65","img/motor_1.png","65","motor","1","167","1","0","0","",""
"null","","1920208","HierDy3qb8vkb2","efn0v9b0so","msl000312","iti","","null","img/motor_1.png","65","motor","","","","","","",""
"397","","1920614","HierDy3qb8vkb2","efn0v9b0so","msl000312","motor","","65","img/motor_1.png","65","motor","1","168","1","0","0","",""
"null","","1920729","HierDy3qb8vkb2","efn0v9b0so","msl000312","iti","","null","img/motor_1.png","65","motor","","","","","","",""
"668","","1921406","HierDy3qb8vkb2","efn0v9b0so","msl000312","motor","","70","img/motor_4.png","70","motor","4","169","1","0","0","",""
"null","","1921521","HierDy3qb8vkb2","efn0v9b0so","msl000312","iti","","null","img/motor_4.png","70","motor","","","","","","",""
"597","","1922126","HierDy3qb8vkb2","efn0v9b0so","msl000312","motor","","74","img/motor_7.png","75","motor","7","170","0","1","0","",""
"248","","1922382","HierDy3qb8vkb2","efn0v9b0so","msl000312","motorRepeat","","75","img/motor_7.png","75","motor","7","170","1","0","0","",""
"null","","1922491","HierDy3qb8vkb2","efn0v9b0so","msl000312","iti","","null","img/motor_7.png","75","motor","","","","","","",""
"708","","1923206","HierDy3qb8vkb2","efn0v9b0so","msl000312","motor","","74","img/motor_6.png","74","motor","6","171","1","0","0","",""
"null","","1923315","HierDy3qb8vkb2","efn0v9b0so","msl000312","iti","","null","img/motor_6.png","74","motor","","","","","","",""
"507","","1923830","HierDy3qb8vkb2","efn0v9b0so","msl000312","motor","","72","img/motor_5.png","72","motor","5","172","1","0","0","",""
"null","","1923945","HierDy3qb8vkb2","efn0v9b0so","msl000312","iti","","null","img/motor_5.png","72","motor","","","","","","",""
"877","","1924830","HierDy3qb8vkb2","efn0v9b0so","msl000312","motor","","83","img/motor_2.png","83","motor","2","173","1","0","0","",""
"null","","1924938","HierDy3qb8vkb2","efn0v9b0so","msl000312","iti","","null","img/motor_2.png","83","motor","","","","","","",""
"708","","1925654","HierDy3qb8vkb2","efn0v9b0so","msl000312","motor","","74","img/motor_6.png","74","motor","6","174","1","0","0","",""
"null","","1925762","HierDy3qb8vkb2","efn0v9b0so","msl000312","iti","","null","img/motor_6.png","74","motor","","","","","","",""
"453","","1926222","HierDy3qb8vkb2","efn0v9b0so","msl000312","motor","","75","img/motor_7.png","75","motor","7","175","1","0","0","",""
"null","","1926337","HierDy3qb8vkb2","efn0v9b0so","msl000312","iti","","null","img/motor_7.png","75","motor","","","","","","",""
"317","","1926662","HierDy3qb8vkb2","efn0v9b0so","msl000312","motor","","76","img/motor_8.png","76","motor","8","176","1","0","0","",""
"null","","1926777","HierDy3qb8vkb2","efn0v9b0so","msl000312","iti","","null","img/motor_8.png","76","motor","","","","","","",""
"613","","1927399","HierDy3qb8vkb2","efn0v9b0so","msl000312","motor","","75","img/motor_7.png","75","motor","7","177","1","0","0","",""
"null","","1927514","HierDy3qb8vkb2","efn0v9b0so","msl000312","iti","","null","img/motor_7.png","75","motor","","","","","","",""
"796","","1928325","HierDy3qb8vkb2","efn0v9b0so","msl000312","motor","","76","img/motor_4.png","70","motor","4","178","0","1","0","",""
"129","","1928461","HierDy3qb8vkb2","efn0v9b0so","msl000312","motorRepeat","","70","img/motor_4.png","70","motor","4","178","1","0","0","",""
"null","","1928576","HierDy3qb8vkb2","efn0v9b0so","msl000312","iti","","null","img/motor_4.png","70","motor","","","","","","",""
"614","","1929198","HierDy3qb8vkb2","efn0v9b0so","msl000312","motor","","72","img/motor_5.png","72","motor","5","179","1","0","0","",""
"null","","1929313","HierDy3qb8vkb2","efn0v9b0so","msl000312","iti","","null","img/motor_5.png","72","motor","","","","","","",""
"581","","1929902","HierDy3qb8vkb2","efn0v9b0so","msl000312","motor","","65","img/motor_1.png","65","motor","1","180","1","0","0","",""
"null","","1930011","HierDy3qb8vkb2","efn0v9b0so","msl000312","iti","","null","img/motor_1.png","65","motor","","","","","","",""
"796","","1930815","HierDy3qb8vkb2","efn0v9b0so","msl000312","motor","","75","img/motor_7.png","75","motor","7","181","1","0","0","",""
"null","","1930923","HierDy3qb8vkb2","efn0v9b0so","msl000312","iti","","null","img/motor_7.png","75","motor","","","","","","",""
"603","","1931534","HierDy3qb8vkb2","efn0v9b0so","msl000312","motor","","74","img/motor_6.png","74","motor","6","182","1","0","0","",""
"null","","1931648","HierDy3qb8vkb2","efn0v9b0so","msl000312","iti","","null","img/motor_6.png","74","motor","","","","","","",""
"589","","1932246","HierDy3qb8vkb2","efn0v9b0so","msl000312","motor","","75","img/motor_7.png","75","motor","7","183","1","0","0","",""
"null","","1932360","HierDy3qb8vkb2","efn0v9b0so","msl000312","iti","","null","img/motor_7.png","75","motor","","","","","","",""
"773","","1933149","HierDy3qb8vkb2","efn0v9b0so","msl000312","motor","","72","img/motor_5.png","72","motor","5","184","1","0","0","",""
"null","","1933264","HierDy3qb8vkb2","efn0v9b0so","msl000312","iti","","null","img/motor_5.png","72","motor","","","","","","",""
"517","","1933790","HierDy3qb8vkb2","efn0v9b0so","msl000312","motor","","76","img/motor_8.png","76","motor","8","185","1","0","0","",""
"null","","1933899","HierDy3qb8vkb2","efn0v9b0so","msl000312","iti","","null","img/motor_8.png","76","motor","","","","","","",""
"515","","1934423","HierDy3qb8vkb2","efn0v9b0so","msl000312","motor","","76","img/motor_8.png","76","motor","8","186","1","0","0","",""
"null","","1934531","HierDy3qb8vkb2","efn0v9b0so","msl000312","iti","","null","img/motor_8.png","76","motor","","","","","","",""
"771","","1935311","HierDy3qb8vkb2","efn0v9b0so","msl000312","motor","","83","img/motor_2.png","83","motor","2","187","1","0","0","",""
"null","","1935426","HierDy3qb8vkb2","efn0v9b0so","msl000312","iti","","null","img/motor_2.png","83","motor","","","","","","",""
"636","","1936077","HierDy3qb8vkb2","efn0v9b0so","msl000312","motor","","75","img/motor_7.png","75","motor","7","188","1","0","0","",""
"null","","1936192","HierDy3qb8vkb2","efn0v9b0so","msl000312","iti","","null","img/motor_7.png","75","motor","","","","","","",""
"949","","1937158","HierDy3qb8vkb2","efn0v9b0so","msl000312","motor","","83","img/motor_2.png","83","motor","2","189","1","0","0","",""
"null","","1937272","HierDy3qb8vkb2","efn0v9b0so","msl000312","iti","","null","img/motor_2.png","83","motor","","","","","","",""
"845","","1938127","HierDy3qb8vkb2","efn0v9b0so","msl000312","motor","","70","img/motor_4.png","70","motor","4","190","1","0","0","",""
"null","","1938235","HierDy3qb8vkb2","efn0v9b0so","msl000312","iti","","null","img/motor_4.png","70","motor","","","","","","",""
"603","","1938847","HierDy3qb8vkb2","efn0v9b0so","msl000312","motor","","65","img/motor_1.png","65","motor","1","191","1","0","0","",""
"null","","1938956","HierDy3qb8vkb2","efn0v9b0so","msl000312","iti","","null","img/motor_1.png","65","motor","","","","","","",""
"1275","","1940246","HierDy3qb8vkb2","efn0v9b0so","msl000312","motor","","83","img/motor_6.png","74","motor","6","192","0","1","0","",""
"480","","1940742","HierDy3qb8vkb2","efn0v9b0so","msl000312","motorRepeat","","75","img/motor_6.png","74","motor","6","192","0","1","0","",""
"257","","1941007","HierDy3qb8vkb2","efn0v9b0so","msl000312","motorRepeat","","72","img/motor_6.png","74","motor","6","192","0","1","0","",""
"545","","1941559","HierDy3qb8vkb2","efn0v9b0so","msl000312","motorRepeat","","74","img/motor_6.png","74","motor","6","192","1","0","0","",""
"null","","1941667","HierDy3qb8vkb2","efn0v9b0so","msl000312","iti","","null","img/motor_6.png","74","motor","","","","","","",""
"523","","1942199","HierDy3qb8vkb2","efn0v9b0so","msl000312","motor","","76","img/motor_8.png","76","motor","8","193","1","0","0","",""
"null","","1942308","HierDy3qb8vkb2","efn0v9b0so","msl000312","iti","","null","img/motor_8.png","76","motor","","","","","","",""
"1083","","1943398","HierDy3qb8vkb2","efn0v9b0so","msl000312","motor","","70","img/motor_3.png","68","motor","3","194","0","1","0","",""
"192","","1943605","HierDy3qb8vkb2","efn0v9b0so","msl000312","motorRepeat","","68","img/motor_3.png","68","motor","3","194","1","0","0","",""
"null","","1943721","HierDy3qb8vkb2","efn0v9b0so","msl000312","iti","","null","img/motor_3.png","68","motor","","","","","","",""
"749","","1944479","HierDy3qb8vkb2","efn0v9b0so","msl000312","motor","","74","img/motor_6.png","74","motor","6","195","1","0","0","",""
"null","","1944587","HierDy3qb8vkb2","efn0v9b0so","msl000312","iti","","null","img/motor_6.png","74","motor","","","","","","",""
"499","","1945095","HierDy3qb8vkb2","efn0v9b0so","msl000312","motor","","74","img/motor_5.png","72","motor","5","196","0","1","0","",""
"216","","1945319","HierDy3qb8vkb2","efn0v9b0so","msl000312","motorRepeat","","72","img/motor_5.png","72","motor","5","196","1","0","0","",""
"null","","1945427","HierDy3qb8vkb2","efn0v9b0so","msl000312","iti","","null","img/motor_5.png","72","motor","","","","","","",""
"396","","1945830","HierDy3qb8vkb2","efn0v9b0so","msl000312","motor","","74","img/motor_6.png","74","motor","6","197","1","0","0","",""
"null","","1945946","HierDy3qb8vkb2","efn0v9b0so","msl000312","iti","","null","img/motor_6.png","74","motor","","","","","","",""
"501","","1946455","HierDy3qb8vkb2","efn0v9b0so","msl000312","motor","","76","img/motor_8.png","76","motor","8","198","1","0","0","",""
"null","","1946570","HierDy3qb8vkb2","efn0v9b0so","msl000312","iti","","null","img/motor_8.png","76","motor","","","","","","",""
"676","","1947255","HierDy3qb8vkb2","efn0v9b0so","msl000312","motor","","65","img/motor_1.png","65","motor","1","199","1","0","0","",""
"null","","1947369","HierDy3qb8vkb2","efn0v9b0so","msl000312","iti","","null","img/motor_1.png","65","motor","","","","","","",""
"757","","1948135","HierDy3qb8vkb2","efn0v9b0so","msl000312","motor","","75","img/motor_7.png","75","motor","7","200","1","0","0","",""
"null","","1948243","HierDy3qb8vkb2","efn0v9b0so","msl000312","iti","","null","img/motor_7.png","75","motor","","","","","","",""
"611","","1948870","HierDy3qb8vkb2","efn0v9b0so","msl000312","motor","","76","img/motor_8.png","76","motor","8","201","1","0","0","",""
"null","","1948978","HierDy3qb8vkb2","efn0v9b0so","msl000312","iti","","null","img/motor_8.png","76","motor","","","","","","",""
"557","","1949543","HierDy3qb8vkb2","efn0v9b0so","msl000312","motor","","75","img/motor_7.png","75","motor","7","202","1","0","0","",""
"null","","1949652","HierDy3qb8vkb2","efn0v9b0so","msl000312","iti","","null","img/motor_7.png","75","motor","","","","","","",""
"452","","1950118","HierDy3qb8vkb2","efn0v9b0so","msl000312","motor","","76","img/motor_7.png","75","motor","7","203","0","1","0","",""
"48","","1950174","HierDy3qb8vkb2","efn0v9b0so","msl000312","motorRepeat","","75","img/motor_7.png","75","motor","7","203","1","0","0","",""
"null","","1950284","HierDy3qb8vkb2","efn0v9b0so","msl000312","iti","","null","img/motor_7.png","75","motor","","","","","","",""
"667","","1950959","HierDy3qb8vkb2","efn0v9b0so","msl000312","motor","","65","img/motor_1.png","65","motor","1","204","1","0","0","",""
"null","","1951067","HierDy3qb8vkb2","efn0v9b0so","msl000312","iti","","null","img/motor_1.png","65","motor","","","","","","",""
"387","","1951463","HierDy3qb8vkb2","efn0v9b0so","msl000312","motor","","65","img/motor_1.png","65","motor","1","205","1","0","0","",""
"null","","1951572","HierDy3qb8vkb2","efn0v9b0so","msl000312","iti","","null","img/motor_1.png","65","motor","","","","","","",""
"995","","1952576","HierDy3qb8vkb2","efn0v9b0so","msl000312","motor","","83","img/motor_6.png","74","motor","6","206","0","1","0","",""
"487","","1953071","HierDy3qb8vkb2","efn0v9b0so","msl000312","motorRepeat","","74","img/motor_6.png","74","motor","6","206","1","0","0","",""
"null","","1953180","HierDy3qb8vkb2","efn0v9b0so","msl000312","iti","","null","img/motor_6.png","74","motor","","","","","","",""
"691","","1953879","HierDy3qb8vkb2","efn0v9b0so","msl000312","motor","","76","img/motor_8.png","76","motor","8","207","1","0","0","",""
"null","","1953987","HierDy3qb8vkb2","efn0v9b0so","msl000312","iti","","null","img/motor_8.png","76","motor","","","","","","",""
"693","","1954688","HierDy3qb8vkb2","efn0v9b0so","msl000312","motor","","75","img/motor_6.png","74","motor","6","208","0","1","0","",""
"408","","1955104","HierDy3qb8vkb2","efn0v9b0so","msl000312","motorRepeat","","74","img/motor_6.png","74","motor","6","208","1","0","0","",""
"null","","1955211","HierDy3qb8vkb2","efn0v9b0so","msl000312","iti","","null","img/motor_6.png","74","motor","","","","","","",""
"707","","1955934","HierDy3qb8vkb2","efn0v9b0so","msl000312","motor","","75","img/motor_7.png","75","motor","7","209","1","0","0","",""
"null","","1956043","HierDy3qb8vkb2","efn0v9b0so","msl000312","iti","","null","img/motor_7.png","75","motor","","","","","","",""
"684","","1956735","HierDy3qb8vkb2","efn0v9b0so","msl000312","motor","","65","img/motor_1.png","65","motor","1","210","1","0","0","",""
"null","","1956844","HierDy3qb8vkb2","efn0v9b0so","msl000312","iti","","null","img/motor_1.png","65","motor","","","","","","",""
"963","","1957822","HierDy3qb8vkb2","efn0v9b0so","msl000312","motor","","74","img/motor_6.png","74","motor","6","211","1","0","0","",""
"null","","1957931","HierDy3qb8vkb2","efn0v9b0so","msl000312","iti","","null","img/motor_6.png","74","motor","","","","","","",""
"837","","1958782","HierDy3qb8vkb2","efn0v9b0so","msl000312","motor","","70","img/motor_4.png","70","motor","4","212","1","0","0","",""
"null","","1958891","HierDy3qb8vkb2","efn0v9b0so","msl000312","iti","","null","img/motor_4.png","70","motor","","","","","","",""
"635","","1959536","HierDy3qb8vkb2","efn0v9b0so","msl000312","motor","","72","img/motor_5.png","72","motor","5","213","1","0","0","",""
"null","","1959643","HierDy3qb8vkb2","efn0v9b0so","msl000312","iti","","null","img/motor_5.png","72","motor","","","","","","",""
"388","","1960040","HierDy3qb8vkb2","efn0v9b0so","msl000312","motor","","72","img/motor_5.png","72","motor","5","214","1","0","0","",""
"null","","1960155","HierDy3qb8vkb2","efn0v9b0so","msl000312","iti","","null","img/motor_5.png","72","motor","","","","","","",""
"669","","1960838","HierDy3qb8vkb2","efn0v9b0so","msl000312","motor","","70","img/motor_4.png","70","motor","4","215","1","0","0","",""
"null","","1960954","HierDy3qb8vkb2","efn0v9b0so","msl000312","iti","","null","img/motor_4.png","70","motor","","","","","","",""
"390","","1961359","HierDy3qb8vkb2","efn0v9b0so","msl000312","motor","","70","img/motor_4.png","70","motor","4","216","1","0","0","",""
"null","","1961467","HierDy3qb8vkb2","efn0v9b0so","msl000312","iti","","null","img/motor_4.png","70","motor","","","","","","",""
"716","","1962192","HierDy3qb8vkb2","efn0v9b0so","msl000312","motor","","75","img/motor_7.png","75","motor","7","217","1","0","0","",""
"null","","1962300","HierDy3qb8vkb2","efn0v9b0so","msl000312","iti","","null","img/motor_7.png","75","motor","","","","","","",""
"716","","1963024","HierDy3qb8vkb2","efn0v9b0so","msl000312","motor","","70","img/motor_4.png","70","motor","4","218","1","0","0","",""
"null","","1963132","HierDy3qb8vkb2","efn0v9b0so","msl000312","iti","","null","img/motor_4.png","70","motor","","","","","","",""
"420","","1963560","HierDy3qb8vkb2","efn0v9b0so","msl000312","motor","","75","img/motor_7.png","75","motor","7","219","1","0","0","",""
"null","","1963667","HierDy3qb8vkb2","efn0v9b0so","msl000312","iti","","null","img/motor_7.png","75","motor","","","","","","",""
"395","","1964078","HierDy3qb8vkb2","efn0v9b0so","msl000312","motor","","75","img/motor_7.png","75","motor","7","220","1","0","0","",""
"null","","1964188","HierDy3qb8vkb2","efn0v9b0so","msl000312","iti","","null","img/motor_7.png","75","motor","","","","","","",""
"708","","1964903","HierDy3qb8vkb2","efn0v9b0so","msl000312","motor","","83","img/motor_2.png","83","motor","2","221","1","0","0","",""
"null","","1965012","HierDy3qb8vkb2","efn0v9b0so","msl000312","iti","","null","img/motor_2.png","83","motor","","","","","","",""
"747","","1965766","HierDy3qb8vkb2","efn0v9b0so","msl000312","motor","","70","img/motor_4.png","70","motor","4","222","1","0","0","",""
"null","","1965874","HierDy3qb8vkb2","efn0v9b0so","msl000312","iti","","null","img/motor_4.png","70","motor","","","","","","",""
"845","","1966727","HierDy3qb8vkb2","efn0v9b0so","msl000312","motor","","68","img/motor_3.png","68","motor","3","223","1","0","0","",""
"null","","1966835","HierDy3qb8vkb2","efn0v9b0so","msl000312","iti","","null","img/motor_3.png","68","motor","","","","","","",""
"644","","1967488","HierDy3qb8vkb2","efn0v9b0so","msl000312","motor","","75","img/motor_7.png","75","motor","7","224","1","0","0","",""
"null","","1967596","HierDy3qb8vkb2","efn0v9b0so","msl000312","iti","","null","img/motor_7.png","75","motor","","","","","","",""
"419","","1968023","HierDy3qb8vkb2","efn0v9b0so","msl000312","motor","","76","img/motor_8.png","76","motor","8","225","1","0","0","",""
"null","","1968131","HierDy3qb8vkb2","efn0v9b0so","msl000312","iti","","null","img/motor_8.png","76","motor","","","","","","",""
"572","","1968718","HierDy3qb8vkb2","efn0v9b0so","msl000312","motor","","75","img/motor_7.png","75","motor","7","226","1","0","0","",""
"null","","1968827","HierDy3qb8vkb2","efn0v9b0so","msl000312","iti","","null","img/motor_7.png","75","motor","","","","","","",""
"501","","1969343","HierDy3qb8vkb2","efn0v9b0so","msl000312","motor","","75","img/motor_7.png","75","motor","7","227","1","0","0","",""
"null","","1969451","HierDy3qb8vkb2","efn0v9b0so","msl000312","iti","","null","img/motor_7.png","75","motor","","","","","","",""
"892","","1970358","HierDy3qb8vkb2","efn0v9b0so","msl000312","motor","","74","img/motor_6.png","74","motor","6","228","1","0","0","",""
"null","","1970474","HierDy3qb8vkb2","efn0v9b0so","msl000312","iti","","null","img/motor_6.png","74","motor","","","","","","",""
"469","","1970951","HierDy3qb8vkb2","efn0v9b0so","msl000312","motor","","74","img/motor_6.png","74","motor","6","229","1","0","0","",""
"null","","1971060","HierDy3qb8vkb2","efn0v9b0so","msl000312","iti","","null","img/motor_6.png","74","motor","","","","","","",""
"651","","1971727","HierDy3qb8vkb2","efn0v9b0so","msl000312","motor","","65","img/motor_1.png","65","motor","1","230","1","0","0","",""
"null","","1971835","HierDy3qb8vkb2","efn0v9b0so","msl000312","iti","","null","img/motor_1.png","65","motor","","","","","","",""
"749","","1972591","HierDy3qb8vkb2","efn0v9b0so","msl000312","motor","","74","img/motor_6.png","74","motor","6","231","1","0","0","",""
"null","","1972700","HierDy3qb8vkb2","efn0v9b0so","msl000312","iti","","null","img/motor_6.png","74","motor","","","","","","",""
"795","","1973511","HierDy3qb8vkb2","efn0v9b0so","msl000312","motor","","68","img/motor_3.png","68","motor","3","232","1","0","0","",""
"null","","1973620","HierDy3qb8vkb2","efn0v9b0so","msl000312","iti","","null","img/motor_3.png","68","motor","","","","","","",""
"813","","1974440","HierDy3qb8vkb2","efn0v9b0so","msl000312","motor","","72","img/motor_5.png","72","motor","5","233","1","0","0","",""
"null","","1974555","HierDy3qb8vkb2","efn0v9b0so","msl000312","iti","","null","img/motor_5.png","72","motor","","","","","","",""
"908","","1975472","HierDy3qb8vkb2","efn0v9b0so","msl000312","motor","","70","img/motor_4.png","70","motor","4","234","1","0","0","",""
"null","","1975587","HierDy3qb8vkb2","efn0v9b0so","msl000312","iti","","null","img/motor_4.png","70","motor","","","","","","",""
"532","","1976128","HierDy3qb8vkb2","efn0v9b0so","msl000312","motor","","76","img/motor_8.png","76","motor","8","235","1","0","0","",""
"null","","1976237","HierDy3qb8vkb2","efn0v9b0so","msl000312","iti","","null","img/motor_8.png","76","motor","","","","","","",""
"1340","","1977584","HierDy3qb8vkb2","efn0v9b0so","msl000312","motor","","68","img/motor_3.png","68","motor","3","236","1","0","0","",""
"null","","1977698","HierDy3qb8vkb2","efn0v9b0so","msl000312","iti","","null","img/motor_3.png","68","motor","","","","","","",""
"565","","1978272","HierDy3qb8vkb2","efn0v9b0so","msl000312","motor","","72","img/motor_5.png","72","motor","5","237","1","0","0","",""
"null","","1978381","HierDy3qb8vkb2","efn0v9b0so","msl000312","iti","","null","img/motor_5.png","72","motor","","","","","","",""
"411","","1978807","HierDy3qb8vkb2","efn0v9b0so","msl000312","motor","","74","img/motor_6.png","74","motor","6","238","1","0","0","",""
"null","","1978922","HierDy3qb8vkb2","efn0v9b0so","msl000312","iti","","null","img/motor_6.png","74","motor","","","","","","",""
"845","","1979783","HierDy3qb8vkb2","efn0v9b0so","msl000312","motor","","68","img/motor_3.png","68","motor","3","239","1","0","0","",""
"null","","1979899","HierDy3qb8vkb2","efn0v9b0so","msl000312","iti","","null","img/motor_3.png","68","motor","","","","","","",""
"580","","1980495","HierDy3qb8vkb2","efn0v9b0so","msl000312","motor","","74","img/motor_6.png","74","motor","6","240","1","0","0","",""
"null","","1980605","HierDy3qb8vkb2","efn0v9b0so","msl000312","iti","","null","img/motor_6.png","74","motor","","","","","","",""
"884","","1981503","HierDy3qb8vkb2","efn0v9b0so","msl000312","motor","","83","img/motor_2.png","83","motor","2","241","1","0","0","",""
"null","","1981619","HierDy3qb8vkb2","efn0v9b0so","msl000312","iti","","null","img/motor_2.png","83","motor","","","","","","",""
"1075","","1982711","HierDy3qb8vkb2","efn0v9b0so","msl000312","motor","","70","img/motor_4.png","70","motor","4","242","1","0","0","",""
"null","","1982821","HierDy3qb8vkb2","efn0v9b0so","msl000312","iti","","null","img/motor_4.png","70","motor","","","","","","",""
"428","","1983256","HierDy3qb8vkb2","efn0v9b0so","msl000312","motor","","70","img/motor_4.png","70","motor","4","243","1","0","0","",""
"null","","1983365","HierDy3qb8vkb2","efn0v9b0so","msl000312","iti","","null","img/motor_4.png","70","motor","","","","","","",""
"668","","1984046","HierDy3qb8vkb2","efn0v9b0so","msl000312","motor","","68","img/motor_3.png","68","motor","3","244","1","0","0","",""
"null","","1984155","HierDy3qb8vkb2","efn0v9b0so","msl000312","iti","","null","img/motor_3.png","68","motor","","","","","","",""
"596","","1984760","HierDy3qb8vkb2","efn0v9b0so","msl000312","motor","","70","img/motor_4.png","70","motor","4","245","1","0","0","",""
"null","","1984869","HierDy3qb8vkb2","efn0v9b0so","msl000312","iti","","null","img/motor_4.png","70","motor","","","","","","",""
"635","","1985512","HierDy3qb8vkb2","efn0v9b0so","msl000312","motor","","74","img/motor_6.png","74","motor","6","246","1","0","0","",""
"null","","1985620","HierDy3qb8vkb2","efn0v9b0so","msl000312","iti","","null","img/motor_6.png","74","motor","","","","","","",""
"659","","1986288","HierDy3qb8vkb2","efn0v9b0so","msl000312","motor","","65","img/motor_1.png","65","motor","1","247","1","0","0","",""
"null","","1986403","HierDy3qb8vkb2","efn0v9b0so","msl000312","iti","","null","img/motor_1.png","65","motor","","","","","","",""
"500","","1986919","HierDy3qb8vkb2","efn0v9b0so","msl000312","motor","","76","img/motor_8.png","76","motor","8","248","1","0","0","",""
"null","","1987035","HierDy3qb8vkb2","efn0v9b0so","msl000312","iti","","null","img/motor_8.png","76","motor","","","","","","",""
"972","","1988017","HierDy3qb8vkb2","efn0v9b0so","msl000312","motor","","68","img/motor_3.png","68","motor","3","249","1","0","0","",""
"null","","1988126","HierDy3qb8vkb2","efn0v9b0so","msl000312","iti","","null","img/motor_3.png","68","motor","","","","","","",""
"730","","1988864","HierDy3qb8vkb2","efn0v9b0so","msl000312","motor","","75","img/motor_7.png","75","motor","7","250","1","0","0","",""
"null","","1988979","HierDy3qb8vkb2","efn0v9b0so","msl000312","iti","","null","img/motor_7.png","75","motor","","","","","","",""
"797","","1989784","HierDy3qb8vkb2","efn0v9b0so","msl000312","motor","","68","img/motor_3.png","68","motor","3","251","1","0","0","",""
"null","","1989899","HierDy3qb8vkb2","efn0v9b0so","msl000312","iti","","null","img/motor_3.png","68","motor","","","","","","",""
"1179","","1991095","HierDy3qb8vkb2","efn0v9b0so","msl000312","motor","","83","img/motor_2.png","83","motor","2","252","1","0","0","",""
"null","","1991204","HierDy3qb8vkb2","efn0v9b0so","msl000312","iti","","null","img/motor_2.png","83","motor","","","","","","",""
"565","","1991776","HierDy3qb8vkb2","efn0v9b0so","msl000312","motor","","75","img/motor_7.png","75","motor","7","253","1","0","0","",""
"null","","1991885","HierDy3qb8vkb2","efn0v9b0so","msl000312","iti","","null","img/motor_7.png","75","motor","","","","","","",""
"716","","1992608","HierDy3qb8vkb2","efn0v9b0so","msl000312","motor","","83","img/motor_2.png","83","motor","2","254","1","0","0","",""
"null","","1992717","HierDy3qb8vkb2","efn0v9b0so","msl000312","iti","","null","img/motor_2.png","83","motor","","","","","","",""
"668","","1993392","HierDy3qb8vkb2","efn0v9b0so","msl000312","motor","","75","img/motor_7.png","75","motor","7","255","1","0","0","",""
"null","","1993501","HierDy3qb8vkb2","efn0v9b0so","msl000312","iti","","null","img/motor_7.png","75","motor","","","","","","",""
"524","","1994033","HierDy3qb8vkb2","efn0v9b0so","msl000312","motor","","76","img/motor_8.png","76","motor","8","256","1","0","0","",""
"null","","1994141","HierDy3qb8vkb2","efn0v9b0so","msl000312","iti","","null","img/motor_8.png","76","motor","","","","","","",""
"604","","1994759","HierDy3qb8vkb2","efn0v9b0so","msl000312","motor","","65","img/motor_1.png","65","motor","1","257","1","0","0","",""
"null","","1994867","HierDy3qb8vkb2","efn0v9b0so","msl000312","iti","","null","img/motor_1.png","65","motor","","","","","","",""
"453","","1995335","HierDy3qb8vkb2","efn0v9b0so","msl000312","motor","","76","img/motor_8.png","76","motor","8","258","1","0","0","",""
"null","","1995443","HierDy3qb8vkb2","efn0v9b0so","msl000312","iti","","null","img/motor_8.png","76","motor","","","","","","",""
"517","","1995975","HierDy3qb8vkb2","efn0v9b0so","msl000312","motor","","70","img/motor_4.png","70","motor","4","259","1","0","0","",""
"null","","1996085","HierDy3qb8vkb2","efn0v9b0so","msl000312","iti","","null","img/motor_4.png","70","motor","","","","","","",""
"692","","1996785","HierDy3qb8vkb2","efn0v9b0so","msl000312","motor","","83","img/motor_2.png","83","motor","2","260","1","0","0","",""
"null","","1996893","HierDy3qb8vkb2","efn0v9b0so","msl000312","iti","","null","img/motor_2.png","83","motor","","","","","","",""
"555","","1997456","HierDy3qb8vkb2","efn0v9b0so","msl000312","motor","","75","img/motor_6.png","74","motor","6","261","0","1","0","",""
"367","","1997832","HierDy3qb8vkb2","efn0v9b0so","msl000312","motorRepeat","","74","img/motor_6.png","74","motor","6","261","1","0","0","",""
"null","","1997940","HierDy3qb8vkb2","efn0v9b0so","msl000312","iti","","null","img/motor_6.png","74","motor","","","","","","",""
"588","","1998543","HierDy3qb8vkb2","efn0v9b0so","msl000312","motor","","65","img/motor_1.png","65","motor","1","262","1","0","0","",""
"null","","1998652","HierDy3qb8vkb2","efn0v9b0so","msl000312","iti","","null","img/motor_1.png","65","motor","","","","","","",""
"565","","1999232","HierDy3qb8vkb2","efn0v9b0so","msl000312","motor","","75","img/motor_7.png","75","motor","7","263","1","0","0","",""
"null","","1999340","HierDy3qb8vkb2","efn0v9b0so","msl000312","iti","","null","img/motor_7.png","75","motor","","","","","","",""
"573","","1999920","HierDy3qb8vkb2","efn0v9b0so","msl000312","motor","","76","img/motor_8.png","76","motor","8","264","1","0","0","",""
"null","","2000029","HierDy3qb8vkb2","efn0v9b0so","msl000312","iti","","null","img/motor_8.png","76","motor","","","","","","",""
"435","","2000480","HierDy3qb8vkb2","efn0v9b0so","msl000312","motor","","76","img/motor_8.png","76","motor","8","265","1","0","0","",""
"null","","2000595","HierDy3qb8vkb2","efn0v9b0so","msl000312","iti","","null","img/motor_8.png","76","motor","","","","","","",""
"733","","2001336","HierDy3qb8vkb2","efn0v9b0so","msl000312","motor","","70","img/motor_4.png","70","motor","4","266","1","0","0","",""
"null","","2001452","HierDy3qb8vkb2","efn0v9b0so","msl000312","iti","","null","img/motor_4.png","70","motor","","","","","","",""
"604","","2002066","HierDy3qb8vkb2","efn0v9b0so","msl000312","motor","","75","img/motor_7.png","75","motor","7","267","1","0","0","",""
"null","","2002180","HierDy3qb8vkb2","efn0v9b0so","msl000312","iti","","null","img/motor_7.png","75","motor","","","","","","",""
"604","","2002792","HierDy3qb8vkb2","efn0v9b0so","msl000312","motor","","65","img/motor_1.png","65","motor","1","268","1","0","0","",""
"null","","2002899","HierDy3qb8vkb2","efn0v9b0so","msl000312","iti","","null","img/motor_1.png","65","motor","","","","","","",""
"614","","2003527","HierDy3qb8vkb2","efn0v9b0so","msl000312","motor","","70","img/motor_5.png","72","motor","5","269","0","1","0","",""
"352","","2003888","HierDy3qb8vkb2","efn0v9b0so","msl000312","motorRepeat","","72","img/motor_5.png","72","motor","5","269","1","0","0","",""
"null","","2003995","HierDy3qb8vkb2","efn0v9b0so","msl000312","iti","","null","img/motor_5.png","72","motor","","","","","","",""
"549","","2004554","HierDy3qb8vkb2","efn0v9b0so","msl000312","motor","","75","img/motor_7.png","75","motor","7","270","1","0","0","",""
"null","","2004661","HierDy3qb8vkb2","efn0v9b0so","msl000312","iti","","null","img/motor_7.png","75","motor","","","","","","",""
"635","","2005305","HierDy3qb8vkb2","efn0v9b0so","msl000312","motor","","72","img/motor_5.png","72","motor","5","271","1","0","0","",""
"null","","2005421","HierDy3qb8vkb2","efn0v9b0so","msl000312","iti","","null","img/motor_5.png","72","motor","","","","","","",""
"691","","2006128","HierDy3qb8vkb2","efn0v9b0so","msl000312","motor","","68","img/motor_3.png","68","motor","3","272","1","0","0","",""
"null","","2006236","HierDy3qb8vkb2","efn0v9b0so","msl000312","iti","","null","img/motor_3.png","68","motor","","","","","","",""
"484","","2006728","HierDy3qb8vkb2","efn0v9b0so","msl000312","motor","","68","img/motor_3.png","68","motor","3","273","1","0","0","",""
"null","","2006844","HierDy3qb8vkb2","efn0v9b0so","msl000312","iti","","null","img/motor_3.png","68","motor","","","","","","",""
"501","","2007360","HierDy3qb8vkb2","efn0v9b0so","msl000312","motor","","76","img/motor_8.png","76","motor","8","274","1","0","0","",""
"null","","2007469","HierDy3qb8vkb2","efn0v9b0so","msl000312","iti","","null","img/motor_8.png","76","motor","","","","","","",""
"571","","2008048","HierDy3qb8vkb2","efn0v9b0so","msl000312","motor","","75","img/motor_6.png","74","motor","6","275","0","1","0","",""
"264","","2008321","HierDy3qb8vkb2","efn0v9b0so","msl000312","motorRepeat","","74","img/motor_6.png","74","motor","6","275","1","0","0","",""
"null","","2008430","HierDy3qb8vkb2","efn0v9b0so","msl000312","iti","","null","img/motor_6.png","74","motor","","","","","","",""
"651","","2009089","HierDy3qb8vkb2","efn0v9b0so","msl000312","motor","","75","img/motor_7.png","75","motor","7","276","1","0","0","",""
"null","","2009197","HierDy3qb8vkb2","efn0v9b0so","msl000312","iti","","null","img/motor_7.png","75","motor","","","","","","",""
"579","","2009785","HierDy3qb8vkb2","efn0v9b0so","msl000312","motor","","65","img/motor_1.png","65","motor","1","277","1","0","0","",""
"null","","2009894","HierDy3qb8vkb2","efn0v9b0so","msl000312","iti","","null","img/motor_1.png","65","motor","","","","","","",""
"620","","2010521","HierDy3qb8vkb2","efn0v9b0so","msl000312","motor","","70","img/motor_4.png","70","motor","4","278","1","0","0","",""
"null","","2010629","HierDy3qb8vkb2","efn0v9b0so","msl000312","iti","","null","img/motor_4.png","70","motor","","","","","","",""
"620","","2011257","HierDy3qb8vkb2","efn0v9b0so","msl000312","motor","","83","img/motor_3.png","68","motor","3","279","0","1","0","",""
"321","","2011585","HierDy3qb8vkb2","efn0v9b0so","msl000312","motorRepeat","","68","img/motor_3.png","68","motor","3","279","1","0","0","",""
"null","","2011701","HierDy3qb8vkb2","efn0v9b0so","msl000312","iti","","null","img/motor_3.png","68","motor","","","","","","",""
"403","","2012113","HierDy3qb8vkb2","efn0v9b0so","msl000312","motor","","70","img/motor_4.png","70","motor","4","280","1","0","0","",""
"null","","2012222","HierDy3qb8vkb2","efn0v9b0so","msl000312","iti","","null","img/motor_4.png","70","motor","","","","","","",""
"587","","2012817","HierDy3qb8vkb2","efn0v9b0so","msl000312","motor","","65","img/motor_1.png","65","motor","1","281","1","0","0","",""
"null","","2012931","HierDy3qb8vkb2","efn0v9b0so","msl000312","iti","","null","img/motor_1.png","65","motor","","","","","","",""
"700","","2013640","HierDy3qb8vkb2","efn0v9b0so","msl000312","motor","","68","img/motor_3.png","68","motor","3","282","1","0","0","",""
"null","","2013756","HierDy3qb8vkb2","efn0v9b0so","msl000312","iti","","null","img/motor_3.png","68","motor","","","","","","",""
"956","","2014721","HierDy3qb8vkb2","efn0v9b0so","msl000312","motor","","74","img/motor_6.png","74","motor","6","283","1","0","0","",""
"null","","2014829","HierDy3qb8vkb2","efn0v9b0so","msl000312","iti","","null","img/motor_6.png","74","motor","","","","","","",""
"691","","2015529","HierDy3qb8vkb2","efn0v9b0so","msl000312","motor","","75","img/motor_7.png","75","motor","7","284","1","0","0","",""
"null","","2015637","HierDy3qb8vkb2","efn0v9b0so","msl000312","iti","","null","img/motor_7.png","75","motor","","","","","","",""
"740","","2016385","HierDy3qb8vkb2","efn0v9b0so","msl000312","motor","","70","img/motor_4.png","70","motor","4","285","1","0","0","",""
"null","","2016493","HierDy3qb8vkb2","efn0v9b0so","msl000312","iti","","null","img/motor_4.png","70","motor","","","","","","",""
"532","","2017034","HierDy3qb8vkb2","efn0v9b0so","msl000312","motor","","75","img/motor_7.png","75","motor","7","286","1","0","0","",""
"null","","2017148","HierDy3qb8vkb2","efn0v9b0so","msl000312","iti","","null","img/motor_7.png","75","motor","","","","","","",""
"700","","2017858","HierDy3qb8vkb2","efn0v9b0so","msl000312","motor","","65","img/motor_1.png","65","motor","1","287","1","0","0","",""
"null","","2017974","HierDy3qb8vkb2","efn0v9b0so","msl000312","iti","","null","img/motor_1.png","65","motor","","","","","","",""
"923","","2018905","HierDy3qb8vkb2","efn0v9b0so","msl000312","motor","","83","img/motor_2.png","83","motor","2","288","1","0","0","",""
"null","","2019021","HierDy3qb8vkb2","efn0v9b0so","msl000312","iti","","null","img/motor_2.png","83","motor","","","","","","",""
"715","","2019752","HierDy3qb8vkb2","efn0v9b0so","msl000312","motor","","83","img/motor_2.png","83","motor","2","289","1","0","0","",""
"null","","2019867","HierDy3qb8vkb2","efn0v9b0so","msl000312","iti","","null","img/motor_2.png","83","motor","","","","","","",""
"668","","2020546","HierDy3qb8vkb2","efn0v9b0so","msl000312","motor","","72","img/motor_5.png","72","motor","5","290","1","0","0","",""
"null","","2020653","HierDy3qb8vkb2","efn0v9b0so","msl000312","iti","","null","img/motor_5.png","72","motor","","","","","","",""
"683","","2021346","HierDy3qb8vkb2","efn0v9b0so","msl000312","motor","","83","img/motor_2.png","83","motor","2","291","1","0","0","",""
"null","","2021455","HierDy3qb8vkb2","efn0v9b0so","msl000312","iti","","null","img/motor_2.png","83","motor","","","","","","",""
"715","","2022178","HierDy3qb8vkb2","efn0v9b0so","msl000312","motor","","72","img/motor_1.png","65","motor","1","292","0","1","0","",""
"175","","2022361","HierDy3qb8vkb2","efn0v9b0so","msl000312","motorRepeat","","65","img/motor_1.png","65","motor","1","292","1","0","0","",""
"null","","2022469","HierDy3qb8vkb2","efn0v9b0so","msl000312","iti","","null","img/motor_1.png","65","motor","","","","","","",""
"940","","2023424","HierDy3qb8vkb2","efn0v9b0so","msl000312","motor","","68","img/motor_3.png","68","motor","3","293","1","0","0","",""
"null","","2023533","HierDy3qb8vkb2","efn0v9b0so","msl000312","iti","","null","img/motor_3.png","68","motor","","","","","","",""
"611","","2024160","HierDy3qb8vkb2","efn0v9b0so","msl000312","motor","","76","img/motor_8.png","76","motor","8","294","1","0","0","",""
"null","","2024276","HierDy3qb8vkb2","efn0v9b0so","msl000312","iti","","null","img/motor_8.png","76","motor","","","","","","",""
"589","","2024880","HierDy3qb8vkb2","efn0v9b0so","msl000312","motor","","65","img/motor_1.png","65","motor","1","295","1","0","0","",""
"null","","2024990","HierDy3qb8vkb2","efn0v9b0so","msl000312","iti","","null","img/motor_1.png","65","motor","","","","","","",""
"579","","2025578","HierDy3qb8vkb2","efn0v9b0so","msl000312","motor","","83","img/motor_2.png","83","motor","2","296","1","0","0","",""
"null","","2025686","HierDy3qb8vkb2","efn0v9b0so","msl000312","iti","","null","img/motor_2.png","83","motor","","","","","","",""
"1899","","2027593","HierDy3qb8vkb2","efn0v9b0so","msl000312","motor","","65","img/motor_1.png","65","motor","1","297","1","0","0","",""
"null","","2027709","HierDy3qb8vkb2","efn0v9b0so","msl000312","iti","","null","img/motor_1.png","65","motor","","","","","","",""
"636","","2028360","HierDy3qb8vkb2","efn0v9b0so","msl000312","motor","","72","img/motor_5.png","72","motor","5","298","1","0","0","",""
"null","","2028469","HierDy3qb8vkb2","efn0v9b0so","msl000312","iti","","null","img/motor_5.png","72","motor","","","","","","",""
"860","","2029337","HierDy3qb8vkb2","efn0v9b0so","msl000312","motor","","65","img/motor_1.png","65","motor","1","299","1","0","0","",""
"null","","2029445","HierDy3qb8vkb2","efn0v9b0so","msl000312","iti","","null","img/motor_1.png","65","motor","","","","","","",""
"563","","2030017","HierDy3qb8vkb2","efn0v9b0so","msl000312","motor","","76","img/motor_8.png","76","motor","8","300","1","0","0","",""
"null","","2030132","HierDy3qb8vkb2","efn0v9b0so","msl000312","iti","","null","img/motor_8.png","76","motor","","","","","","",""
"1077","","2031217","HierDy3qb8vkb2","efn0v9b0so","msl000312","motor","","65","img/motor_1.png","65","motor","1","301","1","0","0","",""
"null","","2031326","HierDy3qb8vkb2","efn0v9b0so","msl000312","iti","","null","img/motor_1.png","65","motor","","","","","","",""
"891","","2032226","HierDy3qb8vkb2","efn0v9b0so","msl000312","motor","","83","img/motor_2.png","83","motor","2","302","1","0","0","",""
"null","","2032334","HierDy3qb8vkb2","efn0v9b0so","msl000312","iti","","null","img/motor_2.png","83","motor","","","","","","",""
"979","","2033320","HierDy3qb8vkb2","efn0v9b0so","msl000312","motor","","70","img/motor_4.png","70","motor","4","303","1","0","0","",""
"null","","2033429","HierDy3qb8vkb2","efn0v9b0so","msl000312","iti","","null","img/motor_4.png","70","motor","","","","","","",""
"860","","2034305","HierDy3qb8vkb2","efn0v9b0so","msl000312","motor","","68","img/motor_3.png","68","motor","3","304","1","0","0","",""
"null","","2034420","HierDy3qb8vkb2","efn0v9b0so","msl000312","iti","","null","img/motor_3.png","68","motor","","","","","","",""
"629","","2035058","HierDy3qb8vkb2","efn0v9b0so","msl000312","motor","","68","img/motor_3.png","68","motor","3","305","1","0","0","",""
"null","","2035173","HierDy3qb8vkb2","efn0v9b0so","msl000312","iti","","null","img/motor_3.png","68","motor","","","","","","",""
"764","","2035946","HierDy3qb8vkb2","efn0v9b0so","msl000312","motor","","83","img/motor_2.png","83","motor","2","306","1","0","0","",""
"null","","2036055","HierDy3qb8vkb2","efn0v9b0so","msl000312","iti","","null","img/motor_2.png","83","motor","","","","","","",""
"707","","2036769","HierDy3qb8vkb2","efn0v9b0so","msl000312","motor","","75","img/motor_7.png","75","motor","7","307","1","0","0","",""
"null","","2036877","HierDy3qb8vkb2","efn0v9b0so","msl000312","iti","","null","img/motor_7.png","75","motor","","","","","","",""
"419","","2037305","HierDy3qb8vkb2","efn0v9b0so","msl000312","motor","","76","img/motor_8.png","76","motor","8","308","1","0","0","",""
"null","","2037413","HierDy3qb8vkb2","efn0v9b0so","msl000312","iti","","null","img/motor_8.png","76","motor","","","","","","",""
"813","","2038233","HierDy3qb8vkb2","efn0v9b0so","msl000312","motor","","70","img/motor_4.png","70","motor","4","309","1","0","0","",""
"null","","2038341","HierDy3qb8vkb2","efn0v9b0so","msl000312","iti","","null","img/motor_4.png","70","motor","","","","","","",""
"717","","2039065","HierDy3qb8vkb2","efn0v9b0so","msl000312","motor","","68","img/motor_3.png","68","motor","3","310","1","0","0","",""
"null","","2039181","HierDy3qb8vkb2","efn0v9b0so","msl000312","iti","","null","img/motor_3.png","68","motor","","","","","","",""
"981","","2040169","HierDy3qb8vkb2","efn0v9b0so","msl000312","motor","","74","img/motor_6.png","74","motor","6","311","1","0","0","",""
"null","","2040278","HierDy3qb8vkb2","efn0v9b0so","msl000312","iti","","null","img/motor_6.png","74","motor","","","","","","",""
"612","","2040898","HierDy3qb8vkb2","efn0v9b0so","msl000312","motor","","76","img/motor_8.png","76","motor","8","312","1","0","0","",""
"null","","2041013","HierDy3qb8vkb2","efn0v9b0so","msl000312","iti","","null","img/motor_8.png","76","motor","","","","","","",""
"1036","","2042065","HierDy3qb8vkb2","efn0v9b0so","msl000312","motor","","83","img/motor_2.png","83","motor","2","313","1","0","0","",""
"null","","2042180","HierDy3qb8vkb2","efn0v9b0so","msl000312","iti","","null","img/motor_2.png","83","motor","","","","","","",""
"772","","2042961","HierDy3qb8vkb2","efn0v9b0so","msl000312","motor","","65","img/motor_1.png","65","motor","1","314","1","0","0","",""
"null","","2043077","HierDy3qb8vkb2","efn0v9b0so","msl000312","iti","","null","img/motor_1.png","65","motor","","","","","","",""
"780","","2043873","HierDy3qb8vkb2","efn0v9b0so","msl000312","motor","","68","img/motor_3.png","68","motor","3","315","1","0","0","",""
"null","","2043981","HierDy3qb8vkb2","efn0v9b0so","msl000312","iti","","null","img/motor_3.png","68","motor","","","","","","",""
"531","","2044521","HierDy3qb8vkb2","efn0v9b0so","msl000312","motor","","76","img/motor_8.png","76","motor","8","316","1","0","0","",""
"null","","2044630","HierDy3qb8vkb2","efn0v9b0so","msl000312","iti","","null","img/motor_8.png","76","motor","","","","","","",""
"860","","2045505","HierDy3qb8vkb2","efn0v9b0so","msl000312","motor","","70","img/motor_4.png","70","motor","4","317","1","0","0","",""
"null","","2045621","HierDy3qb8vkb2","efn0v9b0so","msl000312","iti","","null","img/motor_4.png","70","motor","","","","","","",""
"636","","2046265","HierDy3qb8vkb2","efn0v9b0so","msl000312","motor","","74","img/motor_6.png","74","motor","6","318","1","0","0","",""
"null","","2046373","HierDy3qb8vkb2","efn0v9b0so","msl000312","iti","","null","img/motor_6.png","74","motor","","","","","","",""
"540","","2046928","HierDy3qb8vkb2","efn0v9b0so","msl000312","motor","","76","img/motor_8.png","76","motor","8","319","1","0","0","",""
"null","","2047044","HierDy3qb8vkb2","efn0v9b0so","msl000312","iti","","null","img/motor_8.png","76","motor","","","","","","",""
"805","","2047864","HierDy3qb8vkb2","efn0v9b0so","msl000312","motor","","75","img/motor_7.png","75","motor","7","320","1","0","0","",""
"null","","2047973","HierDy3qb8vkb2","efn0v9b0so","msl000312","iti","","null","img/motor_7.png","75","motor","","","","","","",""
"763","","2048746","HierDy3qb8vkb2","efn0v9b0so","msl000312","motor","","72","img/motor_5.png","72","motor","5","321","1","0","0","",""
"null","","2048854","HierDy3qb8vkb2","efn0v9b0so","msl000312","iti","","null","img/motor_5.png","72","motor","","","","","","",""
"547","","2049409","HierDy3qb8vkb2","efn0v9b0so","msl000312","motor","","75","img/motor_7.png","75","motor","7","322","1","0","0","",""
"null","","2049525","HierDy3qb8vkb2","efn0v9b0so","msl000312","iti","","null","img/motor_7.png","75","motor","","","","","","",""
"732","","2050272","HierDy3qb8vkb2","efn0v9b0so","msl000312","motor","","65","img/motor_1.png","65","motor","1","323","1","0","0","",""
"null","","2050381","HierDy3qb8vkb2","efn0v9b0so","msl000312","iti","","null","img/motor_1.png","65","motor","","","","","","",""
"532","","2050921","HierDy3qb8vkb2","efn0v9b0so","msl000312","motor","","70","img/motor_4.png","70","motor","4","324","1","0","0","",""
"null","","2051030","HierDy3qb8vkb2","efn0v9b0so","msl000312","iti","","null","img/motor_4.png","70","motor","","","","","","",""
"564","","2051601","HierDy3qb8vkb2","efn0v9b0so","msl000312","motor","","65","img/motor_1.png","65","motor","1","325","1","0","0","",""
"null","","2051710","HierDy3qb8vkb2","efn0v9b0so","msl000312","iti","","null","img/motor_1.png","65","motor","","","","","","",""
"396","","2052120","HierDy3qb8vkb2","efn0v9b0so","msl000312","motor","","70","img/motor_4.png","70","motor","4","326","1","0","0","",""
"null","","2052229","HierDy3qb8vkb2","efn0v9b0so","msl000312","iti","","null","img/motor_4.png","70","motor","","","","","","",""
"548","","2052785","HierDy3qb8vkb2","efn0v9b0so","msl000312","motor","","76","img/motor_8.png","76","motor","8","327","1","0","0","",""
"null","","2052901","HierDy3qb8vkb2","efn0v9b0so","msl000312","iti","","null","img/motor_8.png","76","motor","","","","","","",""
"620","","2053529","HierDy3qb8vkb2","efn0v9b0so","msl000312","motor","","65","img/motor_1.png","65","motor","1","328","1","0","0","",""
"null","","2053637","HierDy3qb8vkb2","efn0v9b0so","msl000312","iti","","null","img/motor_1.png","65","motor","","","","","","",""
"604","","2054250","HierDy3qb8vkb2","efn0v9b0so","msl000312","motor","","83","img/motor_2.png","83","motor","2","329","1","0","0","",""
"null","","2054358","HierDy3qb8vkb2","efn0v9b0so","msl000312","iti","","null","img/motor_2.png","83","motor","","","","","","",""
"539","","2054904","HierDy3qb8vkb2","efn0v9b0so","msl000312","motor","","76","img/motor_8.png","76","motor","8","330","1","0","0","",""
"null","","2055013","HierDy3qb8vkb2","efn0v9b0so","msl000312","iti","","null","img/motor_8.png","76","motor","","","","","","",""
"476","","2055498","HierDy3qb8vkb2","efn0v9b0so","msl000312","motor","","76","img/motor_8.png","76","motor","8","331","1","0","0","",""
"null","","2055606","HierDy3qb8vkb2","efn0v9b0so","msl000312","iti","","null","img/motor_8.png","76","motor","","","","","","",""
"716","","2056335","HierDy3qb8vkb2","efn0v9b0so","msl000312","motor","","74","img/motor_6.png","74","motor","6","332","1","0","0","",""
"null","","2056446","HierDy3qb8vkb2","efn0v9b0so","msl000312","iti","","null","img/motor_6.png","74","motor","","","","","","",""
"611","","2057066","HierDy3qb8vkb2","efn0v9b0so","msl000312","motor","","75","img/motor_7.png","75","motor","7","333","1","0","0","",""
"null","","2057182","HierDy3qb8vkb2","efn0v9b0so","msl000312","iti","","null","img/motor_7.png","75","motor","","","","","","",""
"676","","2057872","HierDy3qb8vkb2","efn0v9b0so","msl000312","motor","","72","img/motor_5.png","72","motor","5","334","1","0","0","",""
"null","","2057988","HierDy3qb8vkb2","efn0v9b0so","msl000312","iti","","null","img/motor_5.png","72","motor","","","","","","",""
"574","","2058569","HierDy3qb8vkb2","efn0v9b0so","msl000312","motor","","74","img/motor_6.png","74","motor","6","335","1","0","0","",""
"null","","2058678","HierDy3qb8vkb2","efn0v9b0so","msl000312","iti","","null","img/motor_6.png","74","motor","","","","","","",""
"859","","2059546","HierDy3qb8vkb2","efn0v9b0so","msl000312","motor","","70","img/motor_4.png","70","motor","4","336","1","0","0","",""
"null","","2059661","HierDy3qb8vkb2","efn0v9b0so","msl000312","iti","","null","img/motor_4.png","70","motor","","","","","","",""
"451","","2060121","HierDy3qb8vkb2","efn0v9b0so","msl000312","motor","","76","img/motor_8.png","76","motor","8","337","1","0","0","",""
"null","","2060230","HierDy3qb8vkb2","efn0v9b0so","msl000312","iti","","null","img/motor_8.png","76","motor","","","","","","",""
"1578","","2061824","HierDy3qb8vkb2","efn0v9b0so","msl000312","motor","","68","img/motor_3.png","68","motor","3","338","1","0","0","",""
"null","","2061939","HierDy3qb8vkb2","efn0v9b0so","msl000312","iti","","null","img/motor_3.png","68","motor","","","","","","",""
"604","","2062553","HierDy3qb8vkb2","efn0v9b0so","msl000312","motor","","83","img/motor_2.png","83","motor","2","339","1","0","0","",""
"null","","2062662","HierDy3qb8vkb2","efn0v9b0so","msl000312","iti","","null","img/motor_2.png","83","motor","","","","","","",""
"1035","","2063712","HierDy3qb8vkb2","efn0v9b0so","msl000312","motor","","74","img/motor_6.png","74","motor","6","340","1","0","0","",""
"null","","2063827","HierDy3qb8vkb2","efn0v9b0so","msl000312","iti","","null","img/motor_6.png","74","motor","","","","","","",""
"428","","2064272","HierDy3qb8vkb2","efn0v9b0so","msl000312","motor","","75","img/motor_7.png","75","motor","7","341","1","0","0","",""
"null","","2064388","HierDy3qb8vkb2","efn0v9b0so","msl000312","iti","","null","img/motor_7.png","75","motor","","","","","","",""
"956","","2065353","HierDy3qb8vkb2","efn0v9b0so","msl000312","motor","","83","img/motor_2.png","83","motor","2","342","1","0","0","",""
"null","","2065469","HierDy3qb8vkb2","efn0v9b0so","msl000312","iti","","null","img/motor_2.png","83","motor","","","","","","",""
"603","","2066081","HierDy3qb8vkb2","efn0v9b0so","msl000312","motor","","75","img/motor_7.png","75","motor","7","343","1","0","0","",""
"null","","2066196","HierDy3qb8vkb2","efn0v9b0so","msl000312","iti","","null","img/motor_7.png","75","motor","","","","","","",""
"987","","2067193","HierDy3qb8vkb2","efn0v9b0so","msl000312","motor","","75","img/motor_7.png","75","motor","7","344","1","0","0","",""
"null","","2067302","HierDy3qb8vkb2","efn0v9b0so","msl000312","iti","","null","img/motor_7.png","75","motor","","","","","","",""
"836","","2068152","HierDy3qb8vkb2","efn0v9b0so","msl000312","motor","","72","img/motor_5.png","72","motor","5","345","1","0","0","",""
"null","","2068267","HierDy3qb8vkb2","efn0v9b0so","msl000312","iti","","null","img/motor_5.png","72","motor","","","","","","",""
"468","","2068752","HierDy3qb8vkb2","efn0v9b0so","msl000312","motor","","75","img/motor_7.png","75","motor","7","346","1","0","0","",""
"null","","2068868","HierDy3qb8vkb2","efn0v9b0so","msl000312","iti","","null","img/motor_7.png","75","motor","","","","","","",""
"428","","2069305","HierDy3qb8vkb2","efn0v9b0so","msl000312","motor","","72","img/motor_5.png","72","motor","5","347","1","0","0","",""
"null","","2069413","HierDy3qb8vkb2","efn0v9b0so","msl000312","iti","","null","img/motor_5.png","72","motor","","","","","","",""
"451","","2069872","HierDy3qb8vkb2","efn0v9b0so","msl000312","motor","","72","img/motor_5.png","72","motor","5","348","1","0","0","",""
"null","","2069982","HierDy3qb8vkb2","efn0v9b0so","msl000312","iti","","null","img/motor_5.png","72","motor","","","","","","",""
"420","","2070416","HierDy3qb8vkb2","efn0v9b0so","msl000312","motor","","75","img/motor_8.png","76","motor","8","349","0","1","0","",""
"360","","2070785","HierDy3qb8vkb2","efn0v9b0so","msl000312","motorRepeat","","76","img/motor_8.png","76","motor","8","349","1","0","0","",""
"null","","2070901","HierDy3qb8vkb2","efn0v9b0so","msl000312","iti","","null","img/motor_8.png","76","motor","","","","","","",""
"827","","2071737","HierDy3qb8vkb2","efn0v9b0so","msl000312","motor","","74","img/motor_6.png","74","motor","6","350","1","0","0","",""
"null","","2071846","HierDy3qb8vkb2","efn0v9b0so","msl000312","iti","","null","img/motor_6.png","74","motor","","","","","","",""
"763","","2072623","HierDy3qb8vkb2","efn0v9b0so","msl000312","motor","","83","img/motor_2.png","83","motor","2","351","1","0","0","",""
"null","","2072740","HierDy3qb8vkb2","efn0v9b0so","msl000312","iti","","null","img/motor_2.png","83","motor","","","","","","",""
"669","","2073417","HierDy3qb8vkb2","efn0v9b0so","msl000312","motor","","72","img/motor_5.png","72","motor","5","352","1","0","0","",""
"null","","2073532","HierDy3qb8vkb2","efn0v9b0so","msl000312","iti","","null","img/motor_5.png","72","motor","","","","","","",""
"787","","2074330","HierDy3qb8vkb2","efn0v9b0so","msl000312","motor","","70","img/motor_4.png","70","motor","4","353","1","0","0","",""
"null","","2074438","HierDy3qb8vkb2","efn0v9b0so","msl000312","iti","","null","img/motor_4.png","70","motor","","","","","","",""
"467","","2074913","HierDy3qb8vkb2","efn0v9b0so","msl000312","motor","","72","img/motor_5.png","72","motor","5","354","1","0","0","",""
"null","","2075028","HierDy3qb8vkb2","efn0v9b0so","msl000312","iti","","null","img/motor_5.png","72","motor","","","","","","",""
"516","","2075553","HierDy3qb8vkb2","efn0v9b0so","msl000312","motor","","74","img/motor_6.png","74","motor","6","355","1","0","0","",""
"null","","2075668","HierDy3qb8vkb2","efn0v9b0so","msl000312","iti","","null","img/motor_6.png","74","motor","","","","","","",""
"572","","2076247","HierDy3qb8vkb2","efn0v9b0so","msl000312","motor","","76","img/motor_8.png","76","motor","8","356","1","0","0","",""
"null","","2076356","HierDy3qb8vkb2","efn0v9b0so","msl000312","iti","","null","img/motor_8.png","76","motor","","","","","","",""
