"rt","responses","time_elapsed","subject","prolificID","demoID","trialType","question_order","key_press","stim","corrresp","phase","stimNum","trialNum","corr","repeatTrial","motorSwitch","pracCounter","hierarchy"
"6061771","{""Q0"":""msl000336""}","6061803","HierDy46hmugz2","rxwzcy7ck6","msl000336","","","","","","","","","","","","",""
"9410","","6071228","HierDy46hmugz2","rxwzcy7ck6","msl000336","","","","","","","","","","","","",""
"","","6073300","HierDy46hmugz2","rxwzcy7ck6","msl000336","fullscreen","","","","","","","","","","","",""
"9353","{""Vision"":""Yes"",""Handedness"":""Right"",""Gender"":""male""}","6082668","HierDy46hmugz2","rxwzcy7ck6","msl000336","","[0,1,2]","","","","","","","","","","",""
"43006","{""Q0"":""20""}","6125689","HierDy46hmugz2","rxwzcy7ck6","msl000336","","","","","","","","","","","","",""
"186553","","6312251","HierDy46hmugz2","rxwzcy7ck6","msl000336","","","","","","","","","","","","",""
"751","","6313009","HierDy46hmugz2","rxwzcy7ck6","msl000336","motor","","75","img/motor_7.png","75","motor","7","1","1","0","0","",""
"null","","6313124","HierDy46hmugz2","rxwzcy7ck6","msl000336","iti","","null","img/motor_7.png","75","motor","","","","","","",""
"461","","6313595","HierDy46hmugz2","rxwzcy7ck6","msl000336","motor","","75","img/motor_8.png","76","motor","8","2","0","1","0","",""
"256","","6313858","HierDy46hmugz2","rxwzcy7ck6","msl000336","motorRepeat","","76","img/motor_8.png","76","motor","8","2","1","0","0","",""
"null","","6313966","HierDy46hmugz2","rxwzcy7ck6","msl000336","iti","","null","img/motor_8.png","76","motor","","","","","","",""
"77","","6314056","HierDy46hmugz2","rxwzcy7ck6","msl000336","motor","","76","img/motor_5.png","72","motor","5","3","0","1","0","",""
"449","","6314521","HierDy46hmugz2","rxwzcy7ck6","msl000336","motorRepeat","","72","img/motor_5.png","72","motor","5","3","1","0","0","",""
"null","","6314629","HierDy46hmugz2","rxwzcy7ck6","msl000336","iti","","null","img/motor_5.png","72","motor","","","","","","",""
"437","","6315075","HierDy46hmugz2","rxwzcy7ck6","msl000336","motor","","74","img/motor_6.png","74","motor","6","4","1","0","0","",""
"null","","6315189","HierDy46hmugz2","rxwzcy7ck6","msl000336","iti","","null","img/motor_6.png","74","motor","","","","","","",""
"324","","6315529","HierDy46hmugz2","rxwzcy7ck6","msl000336","motor","","76","img/motor_8.png","76","motor","8","5","1","0","0","",""
"null","","6315644","HierDy46hmugz2","rxwzcy7ck6","msl000336","iti","","null","img/motor_8.png","76","motor","","","","","","",""
"374","","6316027","HierDy46hmugz2","rxwzcy7ck6","msl000336","motor","","74","img/motor_7.png","75","motor","7","6","0","1","0","",""
"296","","6316330","HierDy46hmugz2","rxwzcy7ck6","msl000336","motorRepeat","","75","img/motor_7.png","75","motor","7","6","1","0","0","",""
"null","","6316438","HierDy46hmugz2","rxwzcy7ck6","msl000336","iti","","null","img/motor_7.png","75","motor","","","","","","",""
"373","","6316825","HierDy46hmugz2","rxwzcy7ck6","msl000336","motor","","72","img/motor_5.png","72","motor","5","7","1","0","0","",""
"null","","6316934","HierDy46hmugz2","rxwzcy7ck6","msl000336","iti","","null","img/motor_5.png","72","motor","","","","","","",""
"340","","6317289","HierDy46hmugz2","rxwzcy7ck6","msl000336","motor","","74","img/motor_6.png","74","motor","6","8","1","0","0","",""
"null","","6317398","HierDy46hmugz2","rxwzcy7ck6","msl000336","iti","","null","img/motor_6.png","74","motor","","","","","","",""
"374","","6317779","HierDy46hmugz2","rxwzcy7ck6","msl000336","motor","","65","img/motor_1.png","65","motor","1","9","1","0","0","",""
"null","","6317887","HierDy46hmugz2","rxwzcy7ck6","msl000336","iti","","null","img/motor_1.png","65","motor","","","","","","",""
"1123","","6319018","HierDy46hmugz2","rxwzcy7ck6","msl000336","motor","","83","img/motor_2.png","83","motor","2","10","1","0","0","",""
"null","","6319126","HierDy46hmugz2","rxwzcy7ck6","msl000336","iti","","null","img/motor_2.png","83","motor","","","","","","",""
"636","","6319777","HierDy46hmugz2","rxwzcy7ck6","msl000336","motor","","72","img/motor_5.png","72","motor","5","11","1","0","0","",""
"null","","6319886","HierDy46hmugz2","rxwzcy7ck6","msl000336","iti","","null","img/motor_5.png","72","motor","","","","","","",""
"509","","6320409","HierDy46hmugz2","rxwzcy7ck6","msl000336","motor","","83","img/motor_2.png","83","motor","2","12","1","0","0","",""
"null","","6320517","HierDy46hmugz2","rxwzcy7ck6","msl000336","iti","","null","img/motor_2.png","83","motor","","","","","","",""
"510","","6321035","HierDy46hmugz2","rxwzcy7ck6","msl000336","motor","","75","img/motor_7.png","75","motor","7","13","1","0","0","",""
"null","","6321149","HierDy46hmugz2","rxwzcy7ck6","msl000336","iti","","null","img/motor_7.png","75","motor","","","","","","",""
"1284","","6322443","HierDy46hmugz2","rxwzcy7ck6","msl000336","motor","","68","img/motor_4.png","70","motor","4","14","0","1","0","",""
"529","","6322979","HierDy46hmugz2","rxwzcy7ck6","msl000336","motorRepeat","","68","img/motor_4.png","70","motor","4","14","0","1","0","",""
"824","","6323810","HierDy46hmugz2","rxwzcy7ck6","msl000336","motorRepeat","","68","img/motor_4.png","70","motor","4","14","0","1","0","",""
"160","","6323978","HierDy46hmugz2","rxwzcy7ck6","msl000336","motorRepeat","","68","img/motor_4.png","70","motor","4","14","0","1","0","",""
"153","","6324138","HierDy46hmugz2","rxwzcy7ck6","msl000336","motorRepeat","","68","img/motor_4.png","70","motor","4","14","0","1","0","",""
"624","","6324770","HierDy46hmugz2","rxwzcy7ck6","msl000336","motorRepeat","","83","img/motor_4.png","70","motor","4","14","0","1","0","",""
"616","","6325400","HierDy46hmugz2","rxwzcy7ck6","msl000336","motorRepeat","","65","img/motor_4.png","70","motor","4","14","0","1","0","",""
"177","","6325586","HierDy46hmugz2","rxwzcy7ck6","msl000336","motorRepeat","","68","img/motor_4.png","70","motor","4","14","0","1","0","",""
"681","","6326281","HierDy46hmugz2","rxwzcy7ck6","msl000336","motorRepeat","","70","img/motor_4.png","70","motor","4","14","1","0","0","",""
"41","","6326396","HierDy46hmugz2","rxwzcy7ck6","msl000336","iti","","68","img/motor_4.png","70","motor","","","","","","",""
"502","","6326907","HierDy46hmugz2","rxwzcy7ck6","msl000336","motor","","70","img/motor_4.png","70","motor","4","15","1","0","0","",""
"null","","6327021","HierDy46hmugz2","rxwzcy7ck6","msl000336","iti","","null","img/motor_4.png","70","motor","","","","","","",""
"437","","6327473","HierDy46hmugz2","rxwzcy7ck6","msl000336","motor","","65","img/motor_1.png","65","motor","1","16","1","0","0","",""
"null","","6327581","HierDy46hmugz2","rxwzcy7ck6","msl000336","iti","","null","img/motor_1.png","65","motor","","","","","","",""
"373","","6327969","HierDy46hmugz2","rxwzcy7ck6","msl000336","motor","","65","img/motor_1.png","65","motor","1","17","1","0","0","",""
"null","","6328078","HierDy46hmugz2","rxwzcy7ck6","msl000336","iti","","null","img/motor_1.png","65","motor","","","","","","",""
"548","","6328634","HierDy46hmugz2","rxwzcy7ck6","msl000336","motor","","74","img/motor_6.png","74","motor","6","18","1","0","0","",""
"null","","6328748","HierDy46hmugz2","rxwzcy7ck6","msl000336","iti","","null","img/motor_6.png","74","motor","","","","","","",""
"389","","6329145","HierDy46hmugz2","rxwzcy7ck6","msl000336","motor","","76","img/motor_8.png","76","motor","8","19","1","0","0","",""
"null","","6329254","HierDy46hmugz2","rxwzcy7ck6","msl000336","iti","","null","img/motor_8.png","76","motor","","","","","","",""
"516","","6329779","HierDy46hmugz2","rxwzcy7ck6","msl000336","motor","","83","img/motor_2.png","83","motor","2","20","1","0","0","",""
"null","","6329892","HierDy46hmugz2","rxwzcy7ck6","msl000336","iti","","null","img/motor_2.png","83","motor","","","","","","",""
"469","","6330377","HierDy46hmugz2","rxwzcy7ck6","msl000336","motor","","76","img/motor_8.png","76","motor","8","21","1","0","0","",""
"null","","6330487","HierDy46hmugz2","rxwzcy7ck6","msl000336","iti","","null","img/motor_8.png","76","motor","","","","","","",""
"356","","6330857","HierDy46hmugz2","rxwzcy7ck6","msl000336","motor","","76","img/motor_8.png","76","motor","8","22","1","0","0","",""
"null","","6330972","HierDy46hmugz2","rxwzcy7ck6","msl000336","iti","","null","img/motor_8.png","76","motor","","","","","","",""
"326","","6331307","HierDy46hmugz2","rxwzcy7ck6","msl000336","motor","","83","img/motor_5.png","72","motor","5","23","0","1","0","",""
"38","","6331360","HierDy46hmugz2","rxwzcy7ck6","msl000336","motorRepeat","","72","img/motor_5.png","72","motor","5","23","1","0","0","",""
"null","","6331474","HierDy46hmugz2","rxwzcy7ck6","msl000336","iti","","null","img/motor_5.png","72","motor","","","","","","",""
"255","","6331739","HierDy46hmugz2","rxwzcy7ck6","msl000336","motor","","83","img/motor_2.png","83","motor","2","24","1","0","0","",""
"null","","6331853","HierDy46hmugz2","rxwzcy7ck6","msl000336","iti","","null","img/motor_2.png","83","motor","","","","","","",""
"277","","6332139","HierDy46hmugz2","rxwzcy7ck6","msl000336","motor","","76","img/motor_7.png","75","motor","7","25","0","1","0","",""
"296","","6332442","HierDy46hmugz2","rxwzcy7ck6","msl000336","motorRepeat","","75","img/motor_7.png","75","motor","7","25","1","0","0","",""
"null","","6332552","HierDy46hmugz2","rxwzcy7ck6","msl000336","iti","","null","img/motor_7.png","75","motor","","","","","","",""
"467","","6333026","HierDy46hmugz2","rxwzcy7ck6","msl000336","motor","","74","img/motor_6.png","74","motor","6","26","1","0","0","",""
"null","","6333141","HierDy46hmugz2","rxwzcy7ck6","msl000336","iti","","null","img/motor_6.png","74","motor","","","","","","",""
"341","","6333491","HierDy46hmugz2","rxwzcy7ck6","msl000336","motor","","74","img/motor_6.png","74","motor","6","27","1","0","0","",""
"null","","6333599","HierDy46hmugz2","rxwzcy7ck6","msl000336","iti","","null","img/motor_6.png","74","motor","","","","","","",""
"340","","6333954","HierDy46hmugz2","rxwzcy7ck6","msl000336","motor","","72","img/motor_5.png","72","motor","5","28","1","0","0","",""
"null","","6334062","HierDy46hmugz2","rxwzcy7ck6","msl000336","iti","","null","img/motor_5.png","72","motor","","","","","","",""
"397","","6334473","HierDy46hmugz2","rxwzcy7ck6","msl000336","motor","","75","img/motor_7.png","75","motor","7","29","1","0","0","",""
"null","","6334582","HierDy46hmugz2","rxwzcy7ck6","msl000336","iti","","null","img/motor_7.png","75","motor","","","","","","",""
"429","","6335018","HierDy46hmugz2","rxwzcy7ck6","msl000336","motor","","83","img/motor_2.png","83","motor","2","30","1","0","0","",""
"null","","6335126","HierDy46hmugz2","rxwzcy7ck6","msl000336","iti","","null","img/motor_2.png","83","motor","","","","","","",""
"581","","6335721","HierDy46hmugz2","rxwzcy7ck6","msl000336","motor","","68","img/motor_4.png","70","motor","4","31","0","1","0","",""
"337","","6336067","HierDy46hmugz2","rxwzcy7ck6","msl000336","motorRepeat","","70","img/motor_4.png","70","motor","4","31","1","0","0","",""
"null","","6336174","HierDy46hmugz2","rxwzcy7ck6","msl000336","iti","","null","img/motor_4.png","70","motor","","","","","","",""
"555","","6336738","HierDy46hmugz2","rxwzcy7ck6","msl000336","motor","","83","img/motor_3.png","68","motor","3","32","0","1","0","",""
"248","","6336994","HierDy46hmugz2","rxwzcy7ck6","msl000336","motorRepeat","","68","img/motor_3.png","68","motor","3","32","1","0","0","",""
"null","","6337102","HierDy46hmugz2","rxwzcy7ck6","msl000336","iti","","null","img/motor_3.png","68","motor","","","","","","",""
"644","","6337755","HierDy46hmugz2","rxwzcy7ck6","msl000336","motor","","70","img/motor_5.png","72","motor","5","33","0","1","0","",""
"63","","6337833","HierDy46hmugz2","rxwzcy7ck6","msl000336","motorRepeat","","72","img/motor_5.png","72","motor","5","33","1","0","0","",""
"null","","6337948","HierDy46hmugz2","rxwzcy7ck6","msl000336","iti","","null","img/motor_5.png","72","motor","","","","","","",""
"509","","6338473","HierDy46hmugz2","rxwzcy7ck6","msl000336","motor","","83","img/motor_3.png","68","motor","3","34","0","1","0","",""
"313","","6338795","HierDy46hmugz2","rxwzcy7ck6","msl000336","motorRepeat","","68","img/motor_3.png","68","motor","3","34","1","0","0","",""
"null","","6338902","HierDy46hmugz2","rxwzcy7ck6","msl000336","iti","","null","img/motor_3.png","68","motor","","","","","","",""
"444","","6339355","HierDy46hmugz2","rxwzcy7ck6","msl000336","motor","","70","img/motor_4.png","70","motor","4","35","1","0","0","",""
"null","","6339469","HierDy46hmugz2","rxwzcy7ck6","msl000336","iti","","null","img/motor_4.png","70","motor","","","","","","",""
"422","","6339899","HierDy46hmugz2","rxwzcy7ck6","msl000336","motor","","68","img/motor_3.png","68","motor","3","36","1","0","0","",""
"null","","6340007","HierDy46hmugz2","rxwzcy7ck6","msl000336","iti","","null","img/motor_3.png","68","motor","","","","","","",""
"436","","6340457","HierDy46hmugz2","rxwzcy7ck6","msl000336","motor","","75","img/motor_6.png","74","motor","6","37","0","1","0","",""
"282","","6340746","HierDy46hmugz2","rxwzcy7ck6","msl000336","motorRepeat","","74","img/motor_6.png","74","motor","6","37","1","0","0","",""
"null","","6340862","HierDy46hmugz2","rxwzcy7ck6","msl000336","iti","","null","img/motor_6.png","74","motor","","","","","","",""
"388","","6341259","HierDy46hmugz2","rxwzcy7ck6","msl000336","motor","","76","img/motor_8.png","76","motor","8","38","1","0","0","",""
"null","","6341368","HierDy46hmugz2","rxwzcy7ck6","msl000336","iti","","null","img/motor_8.png","76","motor","","","","","","",""
"548","","6341923","HierDy46hmugz2","rxwzcy7ck6","msl000336","motor","","70","img/motor_4.png","70","motor","4","39","1","0","0","",""
"null","","6342030","HierDy46hmugz2","rxwzcy7ck6","msl000336","iti","","null","img/motor_4.png","70","motor","","","","","","",""
"364","","6342409","HierDy46hmugz2","rxwzcy7ck6","msl000336","motor","","76","img/motor_8.png","76","motor","8","40","1","0","0","",""
"null","","6342518","HierDy46hmugz2","rxwzcy7ck6","msl000336","iti","","null","img/motor_8.png","76","motor","","","","","","",""
"526","","6343051","HierDy46hmugz2","rxwzcy7ck6","msl000336","motor","","68","img/motor_3.png","68","motor","3","41","1","0","0","",""
"null","","6343160","HierDy46hmugz2","rxwzcy7ck6","msl000336","iti","","null","img/motor_3.png","68","motor","","","","","","",""
"363","","6343531","HierDy46hmugz2","rxwzcy7ck6","msl000336","motor","","83","img/motor_2.png","83","motor","2","42","1","0","0","",""
"null","","6343645","HierDy46hmugz2","rxwzcy7ck6","msl000336","iti","","null","img/motor_2.png","83","motor","","","","","","",""
"341","","6343996","HierDy46hmugz2","rxwzcy7ck6","msl000336","motor","","68","img/motor_3.png","68","motor","3","43","1","0","0","",""
"null","","6344111","HierDy46hmugz2","rxwzcy7ck6","msl000336","iti","","null","img/motor_3.png","68","motor","","","","","","",""
"284","","6344403","HierDy46hmugz2","rxwzcy7ck6","msl000336","motor","","83","img/motor_1.png","65","motor","1","44","0","1","0","",""
"281","","6344691","HierDy46hmugz2","rxwzcy7ck6","msl000336","motorRepeat","","65","img/motor_1.png","65","motor","1","44","1","0","0","",""
"null","","6344806","HierDy46hmugz2","rxwzcy7ck6","msl000336","iti","","null","img/motor_1.png","65","motor","","","","","","",""
"485","","6345305","HierDy46hmugz2","rxwzcy7ck6","msl000336","motor","","72","img/motor_5.png","72","motor","5","45","1","0","0","",""
"null","","6345414","HierDy46hmugz2","rxwzcy7ck6","msl000336","iti","","null","img/motor_5.png","72","motor","","","","","","",""
"428","","6345857","HierDy46hmugz2","rxwzcy7ck6","msl000336","motor","","68","img/motor_3.png","68","motor","3","46","1","0","0","",""
"null","","6345966","HierDy46hmugz2","rxwzcy7ck6","msl000336","iti","","null","img/motor_3.png","68","motor","","","","","","",""
"477","","6346458","HierDy46hmugz2","rxwzcy7ck6","msl000336","motor","","72","img/motor_5.png","72","motor","5","47","1","0","0","",""
"null","","6346566","HierDy46hmugz2","rxwzcy7ck6","msl000336","iti","","null","img/motor_5.png","72","motor","","","","","","",""
"413","","6346992","HierDy46hmugz2","rxwzcy7ck6","msl000336","motor","","75","img/motor_7.png","75","motor","7","48","1","0","0","",""
"null","","6347101","HierDy46hmugz2","rxwzcy7ck6","msl000336","iti","","null","img/motor_7.png","75","motor","","","","","","",""
"358","","6347467","HierDy46hmugz2","rxwzcy7ck6","msl000336","motor","","68","img/motor_4.png","70","motor","4","49","0","1","0","",""
"265","","6347746","HierDy46hmugz2","rxwzcy7ck6","msl000336","motorRepeat","","70","img/motor_4.png","70","motor","4","49","1","0","0","",""
"null","","6347854","HierDy46hmugz2","rxwzcy7ck6","msl000336","iti","","null","img/motor_4.png","70","motor","","","","","","",""
"485","","6348354","HierDy46hmugz2","rxwzcy7ck6","msl000336","motor","","72","img/motor_5.png","72","motor","5","50","1","0","0","",""
"null","","6348461","HierDy46hmugz2","rxwzcy7ck6","msl000336","iti","","null","img/motor_5.png","72","motor","","","","","","",""
"414","","6348883","HierDy46hmugz2","rxwzcy7ck6","msl000336","motor","","83","img/motor_3.png","68","motor","3","51","0","1","0","",""
"320","","6349211","HierDy46hmugz2","rxwzcy7ck6","msl000336","motorRepeat","","68","img/motor_3.png","68","motor","3","51","1","0","0","",""
"null","","6349320","HierDy46hmugz2","rxwzcy7ck6","msl000336","iti","","null","img/motor_3.png","68","motor","","","","","","",""
"435","","6349763","HierDy46hmugz2","rxwzcy7ck6","msl000336","motor","","70","img/motor_4.png","70","motor","4","52","1","0","0","",""
"null","","6349872","HierDy46hmugz2","rxwzcy7ck6","msl000336","iti","","null","img/motor_4.png","70","motor","","","","","","",""
"468","","6350346","HierDy46hmugz2","rxwzcy7ck6","msl000336","motor","","75","img/motor_7.png","75","motor","7","53","1","0","0","",""
"null","","6350461","HierDy46hmugz2","rxwzcy7ck6","msl000336","iti","","null","img/motor_7.png","75","motor","","","","","","",""
"286","","6350754","HierDy46hmugz2","rxwzcy7ck6","msl000336","motor","","75","img/motor_7.png","75","motor","7","54","1","0","0","",""
"null","","6350862","HierDy46hmugz2","rxwzcy7ck6","msl000336","iti","","null","img/motor_7.png","75","motor","","","","","","",""
"365","","6351241","HierDy46hmugz2","rxwzcy7ck6","msl000336","motor","","72","img/motor_6.png","74","motor","6","55","0","1","0","",""
"113","","6351363","HierDy46hmugz2","rxwzcy7ck6","msl000336","motorRepeat","","74","img/motor_6.png","74","motor","6","55","1","0","0","",""
"null","","6351471","HierDy46hmugz2","rxwzcy7ck6","msl000336","iti","","null","img/motor_6.png","74","motor","","","","","","",""
"339","","6351819","HierDy46hmugz2","rxwzcy7ck6","msl000336","motor","","74","img/motor_6.png","74","motor","6","56","1","0","0","",""
"null","","6351934","HierDy46hmugz2","rxwzcy7ck6","msl000336","iti","","null","img/motor_6.png","74","motor","","","","","","",""
"508","","6352451","HierDy46hmugz2","rxwzcy7ck6","msl000336","motor","","68","img/motor_3.png","68","motor","3","57","1","0","0","",""
"null","","6352559","HierDy46hmugz2","rxwzcy7ck6","msl000336","iti","","null","img/motor_3.png","68","motor","","","","","","",""
"371","","6352945","HierDy46hmugz2","rxwzcy7ck6","msl000336","motor","","65","img/motor_1.png","65","motor","1","58","1","0","0","",""
"null","","6353053","HierDy46hmugz2","rxwzcy7ck6","msl000336","iti","","null","img/motor_1.png","65","motor","","","","","","",""
"348","","6353411","HierDy46hmugz2","rxwzcy7ck6","msl000336","motor","","76","img/motor_8.png","76","motor","8","59","1","0","0","",""
"null","","6353525","HierDy46hmugz2","rxwzcy7ck6","msl000336","iti","","null","img/motor_8.png","76","motor","","","","","","",""
"462","","6354002","HierDy46hmugz2","rxwzcy7ck6","msl000336","motor","","68","img/motor_2.png","83","motor","2","60","0","1","0","",""
"169","","6354178","HierDy46hmugz2","rxwzcy7ck6","msl000336","motorRepeat","","83","img/motor_2.png","83","motor","2","60","1","0","0","",""
"null","","6354287","HierDy46hmugz2","rxwzcy7ck6","msl000336","iti","","null","img/motor_2.png","83","motor","","","","","","",""
"517","","6354818","HierDy46hmugz2","rxwzcy7ck6","msl000336","motor","","72","img/motor_5.png","72","motor","5","61","1","0","0","",""
"null","","6354927","HierDy46hmugz2","rxwzcy7ck6","msl000336","iti","","null","img/motor_5.png","72","motor","","","","","","",""
"421","","6355355","HierDy46hmugz2","rxwzcy7ck6","msl000336","motor","","83","img/motor_2.png","83","motor","2","62","1","0","0","",""
"null","","6355463","HierDy46hmugz2","rxwzcy7ck6","msl000336","iti","","null","img/motor_2.png","83","motor","","","","","","",""
"395","","6355868","HierDy46hmugz2","rxwzcy7ck6","msl000336","motor","","75","img/motor_6.png","74","motor","6","63","0","1","0","",""
"256","","6356137","HierDy46hmugz2","rxwzcy7ck6","msl000336","motorRepeat","","74","img/motor_6.png","74","motor","6","63","1","0","0","",""
"null","","6356252","HierDy46hmugz2","rxwzcy7ck6","msl000336","iti","","null","img/motor_6.png","74","motor","","","","","","",""
"454","","6356715","HierDy46hmugz2","rxwzcy7ck6","msl000336","motor","","72","img/motor_5.png","72","motor","5","64","1","0","0","",""
"null","","6356829","HierDy46hmugz2","rxwzcy7ck6","msl000336","iti","","null","img/motor_5.png","72","motor","","","","","","",""
"373","","6357211","HierDy46hmugz2","rxwzcy7ck6","msl000336","motor","","76","img/motor_8.png","76","motor","8","65","1","0","0","",""
"null","","6357320","HierDy46hmugz2","rxwzcy7ck6","msl000336","iti","","null","img/motor_8.png","76","motor","","","","","","",""
"332","","6357665","HierDy46hmugz2","rxwzcy7ck6","msl000336","motor","","76","img/motor_8.png","76","motor","8","66","1","0","0","",""
"null","","6357774","HierDy46hmugz2","rxwzcy7ck6","msl000336","iti","","null","img/motor_8.png","76","motor","","","","","","",""
"325","","6358113","HierDy46hmugz2","rxwzcy7ck6","msl000336","motor","","72","img/motor_5.png","72","motor","5","67","1","0","0","",""
"null","","6358223","HierDy46hmugz2","rxwzcy7ck6","msl000336","iti","","null","img/motor_5.png","72","motor","","","","","","",""
"372","","6358604","HierDy46hmugz2","rxwzcy7ck6","msl000336","motor","","68","img/motor_4.png","70","motor","4","68","0","1","0","",""
"232","","6358842","HierDy46hmugz2","rxwzcy7ck6","msl000336","motorRepeat","","70","img/motor_4.png","70","motor","4","68","1","0","0","",""
"null","","6358957","HierDy46hmugz2","rxwzcy7ck6","msl000336","iti","","null","img/motor_4.png","70","motor","","","","","","",""
"348","","6359316","HierDy46hmugz2","rxwzcy7ck6","msl000336","motor","","76","img/motor_8.png","76","motor","8","69","1","0","0","",""
"null","","6359424","HierDy46hmugz2","rxwzcy7ck6","msl000336","iti","","null","img/motor_8.png","76","motor","","","","","","",""
"387","","6359826","HierDy46hmugz2","rxwzcy7ck6","msl000336","motor","","65","img/motor_1.png","65","motor","1","70","1","0","0","",""
"null","","6359935","HierDy46hmugz2","rxwzcy7ck6","msl000336","iti","","null","img/motor_1.png","65","motor","","","","","","",""
"382","","6360329","HierDy46hmugz2","rxwzcy7ck6","msl000336","motor","","72","img/motor_5.png","72","motor","5","71","1","0","0","",""
"null","","6360438","HierDy46hmugz2","rxwzcy7ck6","msl000336","iti","","null","img/motor_5.png","72","motor","","","","","","",""
"262","","6360707","HierDy46hmugz2","rxwzcy7ck6","msl000336","motor","","76","img/motor_8.png","76","motor","8","72","1","0","0","",""
"null","","6360822","HierDy46hmugz2","rxwzcy7ck6","msl000336","iti","","null","img/motor_8.png","76","motor","","","","","","",""
"309","","6361139","HierDy46hmugz2","rxwzcy7ck6","msl000336","motor","","65","img/motor_1.png","65","motor","1","73","1","0","0","",""
"null","","6361254","HierDy46hmugz2","rxwzcy7ck6","msl000336","iti","","null","img/motor_1.png","65","motor","","","","","","",""
"260","","6361529","HierDy46hmugz2","rxwzcy7ck6","msl000336","motor","","76","img/motor_6.png","74","motor","6","74","0","1","0","",""
"272","","6361812","HierDy46hmugz2","rxwzcy7ck6","msl000336","motorRepeat","","74","img/motor_6.png","74","motor","6","74","1","0","0","",""
"null","","6361927","HierDy46hmugz2","rxwzcy7ck6","msl000336","iti","","null","img/motor_6.png","74","motor","","","","","","",""
"572","","6362514","HierDy46hmugz2","rxwzcy7ck6","msl000336","motor","","83","img/motor_2.png","83","motor","2","75","1","0","0","",""
"57","","6362622","HierDy46hmugz2","rxwzcy7ck6","msl000336","iti","","68","img/motor_2.png","83","motor","","","","","","",""
"516","","6363146","HierDy46hmugz2","rxwzcy7ck6","msl000336","motor","","65","img/motor_1.png","65","motor","1","76","1","0","0","",""
"null","","6363255","HierDy46hmugz2","rxwzcy7ck6","msl000336","iti","","null","img/motor_1.png","65","motor","","","","","","",""
"373","","6363635","HierDy46hmugz2","rxwzcy7ck6","msl000336","motor","","76","img/motor_8.png","76","motor","8","77","1","0","0","",""
"null","","6363750","HierDy46hmugz2","rxwzcy7ck6","msl000336","iti","","null","img/motor_8.png","76","motor","","","","","","",""
"565","","6364329","HierDy46hmugz2","rxwzcy7ck6","msl000336","motor","","68","img/motor_3.png","68","motor","3","78","1","0","0","",""
"null","","6364438","HierDy46hmugz2","rxwzcy7ck6","msl000336","iti","","null","img/motor_3.png","68","motor","","","","","","",""
"421","","6364874","HierDy46hmugz2","rxwzcy7ck6","msl000336","motor","","83","img/motor_2.png","83","motor","2","79","1","0","0","",""
"null","","6364982","HierDy46hmugz2","rxwzcy7ck6","msl000336","iti","","null","img/motor_2.png","83","motor","","","","","","",""
"581","","6365578","HierDy46hmugz2","rxwzcy7ck6","msl000336","motor","","75","img/motor_7.png","75","motor","7","80","1","0","0","",""
"null","","6365693","HierDy46hmugz2","rxwzcy7ck6","msl000336","iti","","null","img/motor_7.png","75","motor","","","","","","",""
"438","","6366140","HierDy46hmugz2","rxwzcy7ck6","msl000336","motor","","83","img/motor_2.png","83","motor","2","81","1","0","0","",""
"null","","6366254","HierDy46hmugz2","rxwzcy7ck6","msl000336","iti","","null","img/motor_2.png","83","motor","","","","","","",""
"437","","6366699","HierDy46hmugz2","rxwzcy7ck6","msl000336","motor","","68","img/motor_3.png","68","motor","3","82","1","0","0","",""
"null","","6366814","HierDy46hmugz2","rxwzcy7ck6","msl000336","iti","","null","img/motor_3.png","68","motor","","","","","","",""
"589","","6367411","HierDy46hmugz2","rxwzcy7ck6","msl000336","motor","","74","img/motor_6.png","74","motor","6","83","1","0","0","",""
"null","","6367520","HierDy46hmugz2","rxwzcy7ck6","msl000336","iti","","null","img/motor_6.png","74","motor","","","","","","",""
"572","","6368099","HierDy46hmugz2","rxwzcy7ck6","msl000336","motor","","83","img/motor_2.png","83","motor","2","84","1","0","0","",""
"null","","6368208","HierDy46hmugz2","rxwzcy7ck6","msl000336","iti","","null","img/motor_2.png","83","motor","","","","","","",""
"371","","6368586","HierDy46hmugz2","rxwzcy7ck6","msl000336","motor","","70","img/motor_4.png","70","motor","4","85","1","0","0","",""
"null","","6368700","HierDy46hmugz2","rxwzcy7ck6","msl000336","iti","","null","img/motor_4.png","70","motor","","","","","","",""
"357","","6369074","HierDy46hmugz2","rxwzcy7ck6","msl000336","motor","","65","img/motor_1.png","65","motor","1","86","1","0","0","",""
"null","","6369182","HierDy46hmugz2","rxwzcy7ck6","msl000336","iti","","null","img/motor_1.png","65","motor","","","","","","",""
"334","","6369523","HierDy46hmugz2","rxwzcy7ck6","msl000336","motor","","65","img/motor_1.png","65","motor","1","87","1","0","0","",""
"null","","6369638","HierDy46hmugz2","rxwzcy7ck6","msl000336","iti","","null","img/motor_1.png","65","motor","","","","","","",""
"333","","6369985","HierDy46hmugz2","rxwzcy7ck6","msl000336","motor","","76","img/motor_8.png","76","motor","8","88","1","0","0","",""
"null","","6370094","HierDy46hmugz2","rxwzcy7ck6","msl000336","iti","","null","img/motor_8.png","76","motor","","","","","","",""
"349","","6370457","HierDy46hmugz2","rxwzcy7ck6","msl000336","motor","","65","img/motor_1.png","65","motor","1","89","1","0","0","",""
"null","","6370566","HierDy46hmugz2","rxwzcy7ck6","msl000336","iti","","null","img/motor_1.png","65","motor","","","","","","",""
"446","","6371019","HierDy46hmugz2","rxwzcy7ck6","msl000336","motor","","83","img/motor_3.png","68","motor","3","90","0","1","0","",""
"297","","6371324","HierDy46hmugz2","rxwzcy7ck6","msl000336","motorRepeat","","68","img/motor_3.png","68","motor","3","90","1","0","0","",""
"null","","6371438","HierDy46hmugz2","rxwzcy7ck6","msl000336","iti","","null","img/motor_3.png","68","motor","","","","","","",""
"493","","6371939","HierDy46hmugz2","rxwzcy7ck6","msl000336","motor","","75","img/motor_7.png","75","motor","7","91","1","0","0","",""
"null","","6372048","HierDy46hmugz2","rxwzcy7ck6","msl000336","iti","","null","img/motor_7.png","75","motor","","","","","","",""
"396","","6372458","HierDy46hmugz2","rxwzcy7ck6","msl000336","motor","","68","img/motor_3.png","68","motor","3","92","1","0","0","",""
"null","","6372567","HierDy46hmugz2","rxwzcy7ck6","msl000336","iti","","null","img/motor_3.png","68","motor","","","","","","",""
"469","","6373043","HierDy46hmugz2","rxwzcy7ck6","msl000336","motor","","76","img/motor_5.png","72","motor","5","93","0","1","0","",""
"7","","6373058","HierDy46hmugz2","rxwzcy7ck6","msl000336","motorRepeat","","72","img/motor_5.png","72","motor","5","93","1","0","0","",""
"null","","6373173","HierDy46hmugz2","rxwzcy7ck6","msl000336","iti","","null","img/motor_5.png","72","motor","","","","","","",""
"317","","6373499","HierDy46hmugz2","rxwzcy7ck6","msl000336","motor","","76","img/motor_8.png","76","motor","8","94","1","0","0","",""
"null","","6373614","HierDy46hmugz2","rxwzcy7ck6","msl000336","iti","","null","img/motor_8.png","76","motor","","","","","","",""
"438","","6374060","HierDy46hmugz2","rxwzcy7ck6","msl000336","motor","","70","img/motor_4.png","70","motor","4","95","1","0","0","",""
"null","","6374174","HierDy46hmugz2","rxwzcy7ck6","msl000336","iti","","null","img/motor_4.png","70","motor","","","","","","",""
"453","","6374635","HierDy46hmugz2","rxwzcy7ck6","msl000336","motor","","83","img/motor_2.png","83","motor","2","96","1","0","0","",""
"null","","6374749","HierDy46hmugz2","rxwzcy7ck6","msl000336","iti","","null","img/motor_2.png","83","motor","","","","","","",""
"437","","6375196","HierDy46hmugz2","rxwzcy7ck6","msl000336","motor","","72","img/motor_5.png","72","motor","5","97","1","0","0","",""
"null","","6375309","HierDy46hmugz2","rxwzcy7ck6","msl000336","iti","","null","img/motor_5.png","72","motor","","","","","","",""
"318","","6375635","HierDy46hmugz2","rxwzcy7ck6","msl000336","motor","","72","img/motor_5.png","72","motor","5","98","1","0","0","",""
"null","","6375750","HierDy46hmugz2","rxwzcy7ck6","msl000336","iti","","null","img/motor_5.png","72","motor","","","","","","",""
"317","","6376082","HierDy46hmugz2","rxwzcy7ck6","msl000336","motor","","83","img/motor_4.png","70","motor","4","99","0","1","0","",""
"233","","6376323","HierDy46hmugz2","rxwzcy7ck6","msl000336","motorRepeat","","70","img/motor_4.png","70","motor","4","99","1","0","0","",""
"null","","6376432","HierDy46hmugz2","rxwzcy7ck6","msl000336","iti","","null","img/motor_4.png","70","motor","","","","","","",""
"379","","6376826","HierDy46hmugz2","rxwzcy7ck6","msl000336","motor","","72","img/motor_4.png","70","motor","4","100","0","1","0","",""
"304","","6377146","HierDy46hmugz2","rxwzcy7ck6","msl000336","motorRepeat","","70","img/motor_4.png","70","motor","4","100","1","0","0","",""
"null","","6377261","HierDy46hmugz2","rxwzcy7ck6","msl000336","iti","","null","img/motor_4.png","70","motor","","","","","","",""
"462","","6377731","HierDy46hmugz2","rxwzcy7ck6","msl000336","motor","","75","img/motor_7.png","75","motor","7","101","1","0","0","",""
"null","","6377845","HierDy46hmugz2","rxwzcy7ck6","msl000336","iti","","null","img/motor_7.png","75","motor","","","","","","",""
"454","","6378308","HierDy46hmugz2","rxwzcy7ck6","msl000336","motor","","65","img/motor_1.png","65","motor","1","102","1","0","0","",""
"null","","6378422","HierDy46hmugz2","rxwzcy7ck6","msl000336","iti","","null","img/motor_1.png","65","motor","","","","","","",""
"781","","6379212","HierDy46hmugz2","rxwzcy7ck6","msl000336","motor","","68","img/motor_3.png","68","motor","3","103","1","0","0","",""
"null","","6379320","HierDy46hmugz2","rxwzcy7ck6","msl000336","iti","","null","img/motor_3.png","68","motor","","","","","","",""
"299","","6379627","HierDy46hmugz2","rxwzcy7ck6","msl000336","motor","","68","img/motor_3.png","68","motor","3","104","1","0","0","",""
"null","","6379741","HierDy46hmugz2","rxwzcy7ck6","msl000336","iti","","null","img/motor_3.png","68","motor","","","","","","",""
"190","","6379939","HierDy46hmugz2","rxwzcy7ck6","msl000336","motor","","68","img/motor_2.png","83","motor","2","105","0","1","0","",""
"217","","6380162","HierDy46hmugz2","rxwzcy7ck6","msl000336","motorRepeat","","83","img/motor_2.png","83","motor","2","105","1","0","0","",""
"null","","6380270","HierDy46hmugz2","rxwzcy7ck6","msl000336","iti","","null","img/motor_2.png","83","motor","","","","","","",""
"366","","6380643","HierDy46hmugz2","rxwzcy7ck6","msl000336","motor","","75","img/motor_7.png","75","motor","7","106","1","0","0","",""
"null","","6380752","HierDy46hmugz2","rxwzcy7ck6","msl000336","iti","","null","img/motor_7.png","75","motor","","","","","","",""
"364","","6381124","HierDy46hmugz2","rxwzcy7ck6","msl000336","motor","","74","img/motor_6.png","74","motor","6","107","1","0","0","",""
"null","","6381232","HierDy46hmugz2","rxwzcy7ck6","msl000336","iti","","null","img/motor_6.png","74","motor","","","","","","",""
"347","","6381587","HierDy46hmugz2","rxwzcy7ck6","msl000336","motor","","76","img/motor_8.png","76","motor","8","108","1","0","0","",""
"null","","6381702","HierDy46hmugz2","rxwzcy7ck6","msl000336","iti","","null","img/motor_8.png","76","motor","","","","","","",""
"308","","6382019","HierDy46hmugz2","rxwzcy7ck6","msl000336","motor","","76","img/motor_7.png","75","motor","7","109","0","1","0","",""
"296","","6382324","HierDy46hmugz2","rxwzcy7ck6","msl000336","motorRepeat","","75","img/motor_7.png","75","motor","7","109","1","0","0","",""
"null","","6382432","HierDy46hmugz2","rxwzcy7ck6","msl000336","iti","","null","img/motor_7.png","75","motor","","","","","","",""
"412","","6382858","HierDy46hmugz2","rxwzcy7ck6","msl000336","motor","","76","img/motor_8.png","76","motor","8","110","1","0","0","",""
"null","","6382973","HierDy46hmugz2","rxwzcy7ck6","msl000336","iti","","null","img/motor_8.png","76","motor","","","","","","",""
"518","","6383500","HierDy46hmugz2","rxwzcy7ck6","msl000336","motor","","70","img/motor_4.png","70","motor","4","111","1","0","0","",""
"null","","6383608","HierDy46hmugz2","rxwzcy7ck6","msl000336","iti","","null","img/motor_4.png","70","motor","","","","","","",""
"500","","6384115","HierDy46hmugz2","rxwzcy7ck6","msl000336","motor","","74","img/motor_6.png","74","motor","6","112","1","0","0","",""
"null","","6384223","HierDy46hmugz2","rxwzcy7ck6","msl000336","iti","","null","img/motor_6.png","74","motor","","","","","","",""
"444","","6384682","HierDy46hmugz2","rxwzcy7ck6","msl000336","motor","","70","img/motor_4.png","70","motor","4","113","1","0","0","",""
"null","","6384790","HierDy46hmugz2","rxwzcy7ck6","msl000336","iti","","null","img/motor_4.png","70","motor","","","","","","",""
"389","","6385188","HierDy46hmugz2","rxwzcy7ck6","msl000336","motor","","83","img/motor_2.png","83","motor","2","114","1","0","0","",""
"null","","6385296","HierDy46hmugz2","rxwzcy7ck6","msl000336","iti","","null","img/motor_2.png","83","motor","","","","","","",""
"540","","6385851","HierDy46hmugz2","rxwzcy7ck6","msl000336","motor","","72","img/motor_5.png","72","motor","5","115","1","0","0","",""
"null","","6385966","HierDy46hmugz2","rxwzcy7ck6","msl000336","iti","","null","img/motor_5.png","72","motor","","","","","","",""
"445","","6386419","HierDy46hmugz2","rxwzcy7ck6","msl000336","motor","","83","img/motor_2.png","83","motor","2","116","1","0","0","",""
"null","","6386529","HierDy46hmugz2","rxwzcy7ck6","msl000336","iti","","null","img/motor_2.png","83","motor","","","","","","",""
"419","","6386962","HierDy46hmugz2","rxwzcy7ck6","msl000336","motor","","65","img/motor_1.png","65","motor","1","117","1","0","0","",""
"null","","6387071","HierDy46hmugz2","rxwzcy7ck6","msl000336","iti","","null","img/motor_1.png","65","motor","","","","","","",""
"445","","6387524","HierDy46hmugz2","rxwzcy7ck6","msl000336","motor","","72","img/motor_5.png","72","motor","5","118","1","0","0","",""
"null","","6387638","HierDy46hmugz2","rxwzcy7ck6","msl000336","iti","","null","img/motor_5.png","72","motor","","","","","","",""
"437","","6388083","HierDy46hmugz2","rxwzcy7ck6","msl000336","motor","","74","img/motor_6.png","74","motor","6","119","1","0","0","",""
"null","","6388198","HierDy46hmugz2","rxwzcy7ck6","msl000336","iti","","null","img/motor_6.png","74","motor","","","","","","",""
"509","","6388723","HierDy46hmugz2","rxwzcy7ck6","msl000336","motor","","70","img/motor_5.png","72","motor","5","120","0","1","0","",""
"1","","6388732","HierDy46hmugz2","rxwzcy7ck6","msl000336","motorRepeat","","72","img/motor_5.png","72","motor","5","120","1","0","0","",""
"null","","6388840","HierDy46hmugz2","rxwzcy7ck6","msl000336","iti","","null","img/motor_5.png","72","motor","","","","","","",""
"355","","6389210","HierDy46hmugz2","rxwzcy7ck6","msl000336","motor","","70","img/motor_4.png","70","motor","4","121","1","0","0","",""
"null","","6389318","HierDy46hmugz2","rxwzcy7ck6","msl000336","iti","","null","img/motor_4.png","70","motor","","","","","","",""
"365","","6389692","HierDy46hmugz2","rxwzcy7ck6","msl000336","motor","","68","img/motor_3.png","68","motor","3","122","1","0","0","",""
"null","","6389800","HierDy46hmugz2","rxwzcy7ck6","msl000336","iti","","null","img/motor_3.png","68","motor","","","","","","",""
"404","","6390211","HierDy46hmugz2","rxwzcy7ck6","msl000336","motor","","76","img/motor_8.png","76","motor","8","123","1","0","0","",""
"null","","6390325","HierDy46hmugz2","rxwzcy7ck6","msl000336","iti","","null","img/motor_8.png","76","motor","","","","","","",""
"373","","6390707","HierDy46hmugz2","rxwzcy7ck6","msl000336","motor","","65","img/motor_1.png","65","motor","1","124","1","0","0","",""
"null","","6390822","HierDy46hmugz2","rxwzcy7ck6","msl000336","iti","","null","img/motor_1.png","65","motor","","","","","","",""
"382","","6391219","HierDy46hmugz2","rxwzcy7ck6","msl000336","motor","","70","img/motor_4.png","70","motor","4","125","1","0","0","",""
"null","","6391328","HierDy46hmugz2","rxwzcy7ck6","msl000336","iti","","null","img/motor_4.png","70","motor","","","","","","",""
"316","","6391658","HierDy46hmugz2","rxwzcy7ck6","msl000336","motor","","72","img/motor_5.png","72","motor","5","126","1","0","0","",""
"null","","6391767","HierDy46hmugz2","rxwzcy7ck6","msl000336","iti","","null","img/motor_5.png","72","motor","","","","","","",""
"269","","6392044","HierDy46hmugz2","rxwzcy7ck6","msl000336","motor","","72","img/motor_5.png","72","motor","5","127","1","0","0","",""
"null","","6392152","HierDy46hmugz2","rxwzcy7ck6","msl000336","iti","","null","img/motor_5.png","72","motor","","","","","","",""
"355","","6392515","HierDy46hmugz2","rxwzcy7ck6","msl000336","motor","","76","img/motor_8.png","76","motor","8","128","1","0","0","",""
"null","","6392623","HierDy46hmugz2","rxwzcy7ck6","msl000336","iti","","null","img/motor_8.png","76","motor","","","","","","",""
"420","","6393058","HierDy46hmugz2","rxwzcy7ck6","msl000336","motor","","68","img/motor_2.png","83","motor","2","129","0","1","0","",""
"225","","6393298","HierDy46hmugz2","rxwzcy7ck6","msl000336","motorRepeat","","83","img/motor_2.png","83","motor","2","129","1","0","0","",""
"null","","6393407","HierDy46hmugz2","rxwzcy7ck6","msl000336","iti","","null","img/motor_2.png","83","motor","","","","","","",""
"445","","6393859","HierDy46hmugz2","rxwzcy7ck6","msl000336","motor","","65","img/motor_1.png","65","motor","1","130","1","0","0","",""
"null","","6393975","HierDy46hmugz2","rxwzcy7ck6","msl000336","iti","","null","img/motor_1.png","65","motor","","","","","","",""
"468","","6394452","HierDy46hmugz2","rxwzcy7ck6","msl000336","motor","","72","img/motor_6.png","74","motor","6","131","0","1","0","",""
"175","","6394642","HierDy46hmugz2","rxwzcy7ck6","msl000336","motorRepeat","","74","img/motor_6.png","74","motor","6","131","1","0","0","",""
"null","","6394751","HierDy46hmugz2","rxwzcy7ck6","msl000336","iti","","null","img/motor_6.png","74","motor","","","","","","",""
"572","","6395331","HierDy46hmugz2","rxwzcy7ck6","msl000336","motor","","68","img/motor_3.png","68","motor","3","132","1","0","0","",""
"null","","6395441","HierDy46hmugz2","rxwzcy7ck6","msl000336","iti","","null","img/motor_3.png","68","motor","","","","","","",""
"443","","6395892","HierDy46hmugz2","rxwzcy7ck6","msl000336","motor","","65","img/motor_1.png","65","motor","1","133","1","0","0","",""
"null","","6396000","HierDy46hmugz2","rxwzcy7ck6","msl000336","iti","","null","img/motor_1.png","65","motor","","","","","","",""
"420","","6396428","HierDy46hmugz2","rxwzcy7ck6","msl000336","motor","","70","img/motor_4.png","70","motor","4","134","1","0","0","",""
"null","","6396536","HierDy46hmugz2","rxwzcy7ck6","msl000336","iti","","null","img/motor_4.png","70","motor","","","","","","",""
"635","","6397180","HierDy46hmugz2","rxwzcy7ck6","msl000336","motor","","72","img/motor_6.png","74","motor","6","135","0","1","0","",""
"144","","6397331","HierDy46hmugz2","rxwzcy7ck6","msl000336","motorRepeat","","74","img/motor_6.png","74","motor","6","135","1","0","0","",""
"null","","6397447","HierDy46hmugz2","rxwzcy7ck6","msl000336","iti","","null","img/motor_6.png","74","motor","","","","","","",""
"670","","6398130","HierDy46hmugz2","rxwzcy7ck6","msl000336","motor","","76","img/motor_8.png","76","motor","8","136","1","0","0","",""
"null","","6398240","HierDy46hmugz2","rxwzcy7ck6","msl000336","iti","","null","img/motor_8.png","76","motor","","","","","","",""
"685","","6398933","HierDy46hmugz2","rxwzcy7ck6","msl000336","motor","","83","img/motor_2.png","83","motor","2","137","1","0","0","",""
"null","","6399040","HierDy46hmugz2","rxwzcy7ck6","msl000336","iti","","null","img/motor_2.png","83","motor","","","","","","",""
"347","","6399396","HierDy46hmugz2","rxwzcy7ck6","msl000336","motor","","76","img/motor_8.png","76","motor","8","138","1","0","0","",""
"null","","6399504","HierDy46hmugz2","rxwzcy7ck6","msl000336","iti","","null","img/motor_8.png","76","motor","","","","","","",""
"429","","6399946","HierDy46hmugz2","rxwzcy7ck6","msl000336","motor","","72","img/motor_5.png","72","motor","5","139","1","0","0","",""
"null","","6400055","HierDy46hmugz2","rxwzcy7ck6","msl000336","iti","","null","img/motor_5.png","72","motor","","","","","","",""
"509","","6400572","HierDy46hmugz2","rxwzcy7ck6","msl000336","motor","","65","img/motor_1.png","65","motor","1","140","1","0","0","",""
"null","","6400681","HierDy46hmugz2","rxwzcy7ck6","msl000336","iti","","null","img/motor_1.png","65","motor","","","","","","",""
"596","","6401283","HierDy46hmugz2","rxwzcy7ck6","msl000336","motor","","68","img/motor_3.png","68","motor","3","141","1","0","0","",""
"null","","6401398","HierDy46hmugz2","rxwzcy7ck6","msl000336","iti","","null","img/motor_3.png","68","motor","","","","","","",""
"477","","6401884","HierDy46hmugz2","rxwzcy7ck6","msl000336","motor","","74","img/motor_6.png","74","motor","6","142","1","0","0","",""
"null","","6401992","HierDy46hmugz2","rxwzcy7ck6","msl000336","iti","","null","img/motor_6.png","74","motor","","","","","","",""
"515","","6402515","HierDy46hmugz2","rxwzcy7ck6","msl000336","motor","","65","img/motor_1.png","65","motor","1","143","1","0","0","",""
"null","","6402624","HierDy46hmugz2","rxwzcy7ck6","msl000336","iti","","null","img/motor_1.png","65","motor","","","","","","",""
"348","","6402980","HierDy46hmugz2","rxwzcy7ck6","msl000336","motor","","65","img/motor_1.png","65","motor","1","144","1","0","0","",""
"null","","6403089","HierDy46hmugz2","rxwzcy7ck6","msl000336","iti","","null","img/motor_1.png","65","motor","","","","","","",""
"579","","6403676","HierDy46hmugz2","rxwzcy7ck6","msl000336","motor","","72","img/motor_5.png","72","motor","5","145","1","0","0","",""
"null","","6403784","HierDy46hmugz2","rxwzcy7ck6","msl000336","iti","","null","img/motor_5.png","72","motor","","","","","","",""
"660","","6404452","HierDy46hmugz2","rxwzcy7ck6","msl000336","motor","","72","img/motor_5.png","72","motor","5","146","1","0","0","",""
"null","","6404567","HierDy46hmugz2","rxwzcy7ck6","msl000336","iti","","null","img/motor_5.png","72","motor","","","","","","",""
"325","","6404900","HierDy46hmugz2","rxwzcy7ck6","msl000336","motor","","76","img/motor_7.png","75","motor","7","147","0","1","0","",""
"120","","6405028","HierDy46hmugz2","rxwzcy7ck6","msl000336","motorRepeat","","74","img/motor_7.png","75","motor","7","147","0","1","0","",""
"119","","6405162","HierDy46hmugz2","rxwzcy7ck6","msl000336","motorRepeat","","75","img/motor_7.png","75","motor","7","147","1","0","0","",""
"null","","6405278","HierDy46hmugz2","rxwzcy7ck6","msl000336","iti","","null","img/motor_7.png","75","motor","","","","","","",""
"455","","6405740","HierDy46hmugz2","rxwzcy7ck6","msl000336","motor","","76","img/motor_8.png","76","motor","8","148","1","0","0","",""
"null","","6405848","HierDy46hmugz2","rxwzcy7ck6","msl000336","iti","","null","img/motor_8.png","76","motor","","","","","","",""
"597","","6406452","HierDy46hmugz2","rxwzcy7ck6","msl000336","motor","","72","img/motor_5.png","72","motor","5","149","1","0","0","",""
"null","","6406567","HierDy46hmugz2","rxwzcy7ck6","msl000336","iti","","null","img/motor_5.png","72","motor","","","","","","",""
"1499","","6408076","HierDy46hmugz2","rxwzcy7ck6","msl000336","motor","","68","img/motor_3.png","68","motor","3","150","1","0","0","",""
"null","","6408184","HierDy46hmugz2","rxwzcy7ck6","msl000336","iti","","null","img/motor_3.png","68","motor","","","","","","",""
"516","","6408708","HierDy46hmugz2","rxwzcy7ck6","msl000336","motor","","68","img/motor_3.png","68","motor","3","151","1","0","0","",""
"null","","6408816","HierDy46hmugz2","rxwzcy7ck6","msl000336","iti","","null","img/motor_3.png","68","motor","","","","","","",""
"404","","6409228","HierDy46hmugz2","rxwzcy7ck6","msl000336","motor","","68","img/motor_2.png","83","motor","2","152","0","1","0","",""
"239","","6409476","HierDy46hmugz2","rxwzcy7ck6","msl000336","motorRepeat","","83","img/motor_2.png","83","motor","2","152","1","0","0","",""
"null","","6409584","HierDy46hmugz2","rxwzcy7ck6","msl000336","iti","","null","img/motor_2.png","83","motor","","","","","","",""
"572","","6410164","HierDy46hmugz2","rxwzcy7ck6","msl000336","motor","","72","img/motor_5.png","72","motor","5","153","1","0","0","",""
"null","","6410272","HierDy46hmugz2","rxwzcy7ck6","msl000336","iti","","null","img/motor_5.png","72","motor","","","","","","",""
"396","","6410676","HierDy46hmugz2","rxwzcy7ck6","msl000336","motor","","74","img/motor_7.png","75","motor","7","154","0","1","0","",""
"159","","6410851","HierDy46hmugz2","rxwzcy7ck6","msl000336","motorRepeat","","75","img/motor_7.png","75","motor","7","154","1","0","0","",""
"null","","6410966","HierDy46hmugz2","rxwzcy7ck6","msl000336","iti","","null","img/motor_7.png","75","motor","","","","","","",""
"541","","6411522","HierDy46hmugz2","rxwzcy7ck6","msl000336","motor","","68","img/motor_3.png","68","motor","3","155","1","0","0","",""
"null","","6411638","HierDy46hmugz2","rxwzcy7ck6","msl000336","iti","","null","img/motor_3.png","68","motor","","","","","","",""
"398","","6412051","HierDy46hmugz2","rxwzcy7ck6","msl000336","motor","","74","img/motor_6.png","74","motor","6","156","1","0","0","",""
"null","","6412167","HierDy46hmugz2","rxwzcy7ck6","msl000336","iti","","null","img/motor_6.png","74","motor","","","","","","",""
"590","","6412764","HierDy46hmugz2","rxwzcy7ck6","msl000336","motor","","83","img/motor_2.png","83","motor","2","157","1","0","0","",""
"null","","6412879","HierDy46hmugz2","rxwzcy7ck6","msl000336","iti","","null","img/motor_2.png","83","motor","","","","","","",""
"325","","6413219","HierDy46hmugz2","rxwzcy7ck6","msl000336","motor","","65","img/motor_1.png","65","motor","1","158","1","0","0","",""
"null","","6413328","HierDy46hmugz2","rxwzcy7ck6","msl000336","iti","","null","img/motor_1.png","65","motor","","","","","","",""
"300","","6413635","HierDy46hmugz2","rxwzcy7ck6","msl000336","motor","","65","img/motor_2.png","83","motor","2","159","0","1","0","",""
"352","","6413997","HierDy46hmugz2","rxwzcy7ck6","msl000336","motorRepeat","","83","img/motor_2.png","83","motor","2","159","1","0","0","",""
"null","","6414105","HierDy46hmugz2","rxwzcy7ck6","msl000336","iti","","null","img/motor_2.png","83","motor","","","","","","",""
"291","","6414410","HierDy46hmugz2","rxwzcy7ck6","msl000336","motor","","83","img/motor_3.png","68","motor","3","160","0","1","0","",""
"338","","6414762","HierDy46hmugz2","rxwzcy7ck6","msl000336","motorRepeat","","83","img/motor_3.png","68","motor","3","160","0","1","0","",""
"233","","6415003","HierDy46hmugz2","rxwzcy7ck6","msl000336","motorRepeat","","68","img/motor_3.png","68","motor","3","160","1","0","0","",""
"null","","6415111","HierDy46hmugz2","rxwzcy7ck6","msl000336","iti","","null","img/motor_3.png","68","motor","","","","","","",""
"732","","6415851","HierDy46hmugz2","rxwzcy7ck6","msl000336","motor","","75","img/motor_8.png","76","motor","8","161","0","1","0","",""
"440","","6416301","HierDy46hmugz2","rxwzcy7ck6","msl000336","motorRepeat","","76","img/motor_8.png","76","motor","8","161","1","0","0","",""
"null","","6416415","HierDy46hmugz2","rxwzcy7ck6","msl000336","iti","","null","img/motor_8.png","76","motor","","","","","","",""
"485","","6416908","HierDy46hmugz2","rxwzcy7ck6","msl000336","motor","","74","img/motor_6.png","74","motor","6","162","1","0","0","",""
"null","","6417016","HierDy46hmugz2","rxwzcy7ck6","msl000336","iti","","null","img/motor_6.png","74","motor","","","","","","",""
"412","","6417443","HierDy46hmugz2","rxwzcy7ck6","msl000336","motor","","72","img/motor_5.png","72","motor","5","163","1","0","0","",""
"null","","6417558","HierDy46hmugz2","rxwzcy7ck6","msl000336","iti","","null","img/motor_5.png","72","motor","","","","","","",""
"406","","6417978","HierDy46hmugz2","rxwzcy7ck6","msl000336","motor","","74","img/motor_7.png","75","motor","7","164","0","1","0","",""
"217","","6418210","HierDy46hmugz2","rxwzcy7ck6","msl000336","motorRepeat","","75","img/motor_7.png","75","motor","7","164","1","0","0","",""
"null","","6418326","HierDy46hmugz2","rxwzcy7ck6","msl000336","iti","","null","img/motor_7.png","75","motor","","","","","","",""
"422","","6418756","HierDy46hmugz2","rxwzcy7ck6","msl000336","motor","","70","img/motor_4.png","70","motor","4","165","1","0","0","",""
"null","","6418865","HierDy46hmugz2","rxwzcy7ck6","msl000336","iti","","null","img/motor_4.png","70","motor","","","","","","",""
"315","","6419194","HierDy46hmugz2","rxwzcy7ck6","msl000336","motor","","76","img/motor_8.png","76","motor","8","166","1","0","0","",""
"null","","6419304","HierDy46hmugz2","rxwzcy7ck6","msl000336","iti","","null","img/motor_8.png","76","motor","","","","","","",""
"420","","6419738","HierDy46hmugz2","rxwzcy7ck6","msl000336","motor","","75","img/motor_7.png","75","motor","7","167","1","0","0","",""
"null","","6419854","HierDy46hmugz2","rxwzcy7ck6","msl000336","iti","","null","img/motor_7.png","75","motor","","","","","","",""
"293","","6420162","HierDy46hmugz2","rxwzcy7ck6","msl000336","motor","","83","img/motor_2.png","83","motor","2","168","1","0","0","",""
"null","","6420278","HierDy46hmugz2","rxwzcy7ck6","msl000336","iti","","null","img/motor_2.png","83","motor","","","","","","",""
"374","","6420667","HierDy46hmugz2","rxwzcy7ck6","msl000336","motor","","75","img/motor_6.png","74","motor","6","169","0","1","0","",""
"128","","6420804","HierDy46hmugz2","rxwzcy7ck6","msl000336","motorRepeat","","74","img/motor_6.png","74","motor","6","169","1","0","0","",""
"null","","6420912","HierDy46hmugz2","rxwzcy7ck6","msl000336","iti","","null","img/motor_6.png","74","motor","","","","","","",""
"347","","6421275","HierDy46hmugz2","rxwzcy7ck6","msl000336","motor","","83","img/motor_2.png","83","motor","2","170","1","0","0","",""
"null","","6421383","HierDy46hmugz2","rxwzcy7ck6","msl000336","iti","","null","img/motor_2.png","83","motor","","","","","","",""
"381","","6421778","HierDy46hmugz2","rxwzcy7ck6","msl000336","motor","","75","img/motor_7.png","75","motor","7","171","1","0","0","",""
"null","","6421888","HierDy46hmugz2","rxwzcy7ck6","msl000336","iti","","null","img/motor_7.png","75","motor","","","","","","",""
"334","","6422228","HierDy46hmugz2","rxwzcy7ck6","msl000336","motor","","74","img/motor_5.png","72","motor","5","172","0","1","0","",""
"288","","6422531","HierDy46hmugz2","rxwzcy7ck6","msl000336","motorRepeat","","72","img/motor_5.png","72","motor","5","172","1","0","0","",""
"null","","6422639","HierDy46hmugz2","rxwzcy7ck6","msl000336","iti","","null","img/motor_5.png","72","motor","","","","","","",""
"388","","6423042","HierDy46hmugz2","rxwzcy7ck6","msl000336","motor","","65","img/motor_1.png","65","motor","1","173","1","0","0","",""
"null","","6423151","HierDy46hmugz2","rxwzcy7ck6","msl000336","iti","","null","img/motor_1.png","65","motor","","","","","","",""
"453","","6423611","HierDy46hmugz2","rxwzcy7ck6","msl000336","motor","","83","img/motor_2.png","83","motor","2","174","1","0","0","",""
"null","","6423720","HierDy46hmugz2","rxwzcy7ck6","msl000336","iti","","null","img/motor_2.png","83","motor","","","","","","",""
"396","","6424123","HierDy46hmugz2","rxwzcy7ck6","msl000336","motor","","72","img/motor_5.png","72","motor","5","175","1","0","0","",""
"null","","6424231","HierDy46hmugz2","rxwzcy7ck6","msl000336","iti","","null","img/motor_5.png","72","motor","","","","","","",""
"405","","6424644","HierDy46hmugz2","rxwzcy7ck6","msl000336","motor","","65","img/motor_1.png","65","motor","1","176","1","0","0","",""
"null","","6424753","HierDy46hmugz2","rxwzcy7ck6","msl000336","iti","","null","img/motor_1.png","65","motor","","","","","","",""
"411","","6425172","HierDy46hmugz2","rxwzcy7ck6","msl000336","motor","","83","img/motor_2.png","83","motor","2","177","1","0","0","",""
"null","","6425281","HierDy46hmugz2","rxwzcy7ck6","msl000336","iti","","null","img/motor_2.png","83","motor","","","","","","",""
"388","","6425676","HierDy46hmugz2","rxwzcy7ck6","msl000336","motor","","70","img/motor_4.png","70","motor","4","178","1","0","0","",""
"null","","6425784","HierDy46hmugz2","rxwzcy7ck6","msl000336","iti","","null","img/motor_4.png","70","motor","","","","","","",""
"340","","6426132","HierDy46hmugz2","rxwzcy7ck6","msl000336","motor","","65","img/motor_1.png","65","motor","1","179","1","0","0","",""
"null","","6426240","HierDy46hmugz2","rxwzcy7ck6","msl000336","iti","","null","img/motor_1.png","65","motor","","","","","","",""
"357","","6426604","HierDy46hmugz2","rxwzcy7ck6","msl000336","motor","","70","img/motor_3.png","68","motor","3","180","0","1","0","",""
"103","","6426716","HierDy46hmugz2","rxwzcy7ck6","msl000336","motorRepeat","","68","img/motor_3.png","68","motor","3","180","1","0","0","",""
"null","","6426825","HierDy46hmugz2","rxwzcy7ck6","msl000336","iti","","null","img/motor_3.png","68","motor","","","","","","",""
"371","","6427205","HierDy46hmugz2","rxwzcy7ck6","msl000336","motor","","68","img/motor_3.png","68","motor","3","181","1","0","0","",""
"null","","6427320","HierDy46hmugz2","rxwzcy7ck6","msl000336","iti","","null","img/motor_3.png","68","motor","","","","","","",""
"420","","6427754","HierDy46hmugz2","rxwzcy7ck6","msl000336","motor","","72","img/motor_5.png","72","motor","5","182","1","0","0","",""
"null","","6427864","HierDy46hmugz2","rxwzcy7ck6","msl000336","iti","","null","img/motor_5.png","72","motor","","","","","","",""
"405","","6428276","HierDy46hmugz2","rxwzcy7ck6","msl000336","motor","","74","img/motor_6.png","74","motor","6","183","1","0","0","",""
"null","","6428390","HierDy46hmugz2","rxwzcy7ck6","msl000336","iti","","null","img/motor_6.png","74","motor","","","","","","",""
"268","","6428668","HierDy46hmugz2","rxwzcy7ck6","msl000336","motor","","76","img/motor_7.png","75","motor","7","184","0","1","0","",""
"216","","6428898","HierDy46hmugz2","rxwzcy7ck6","msl000336","motorRepeat","","75","img/motor_7.png","75","motor","7","184","1","0","0","",""
"null","","6429008","HierDy46hmugz2","rxwzcy7ck6","msl000336","iti","","null","img/motor_7.png","75","motor","","","","","","",""
"380","","6429403","HierDy46hmugz2","rxwzcy7ck6","msl000336","motor","","74","img/motor_6.png","74","motor","6","185","1","0","0","",""
"null","","6429512","HierDy46hmugz2","rxwzcy7ck6","msl000336","iti","","null","img/motor_6.png","74","motor","","","","","","",""
"387","","6429908","HierDy46hmugz2","rxwzcy7ck6","msl000336","motor","","68","img/motor_4.png","70","motor","4","186","0","1","0","",""
"96","","6430012","HierDy46hmugz2","rxwzcy7ck6","msl000336","motorRepeat","","70","img/motor_4.png","70","motor","4","186","1","0","0","",""
"null","","6430121","HierDy46hmugz2","rxwzcy7ck6","msl000336","iti","","null","img/motor_4.png","70","motor","","","","","","",""
"451","","6430587","HierDy46hmugz2","rxwzcy7ck6","msl000336","motor","","83","img/motor_2.png","83","motor","2","187","1","0","0","",""
"null","","6430695","HierDy46hmugz2","rxwzcy7ck6","msl000336","iti","","null","img/motor_2.png","83","motor","","","","","","",""
"364","","6431068","HierDy46hmugz2","rxwzcy7ck6","msl000336","motor","","76","img/motor_8.png","76","motor","8","188","1","0","0","",""
"null","","6431182","HierDy46hmugz2","rxwzcy7ck6","msl000336","iti","","null","img/motor_8.png","76","motor","","","","","","",""
"373","","6431572","HierDy46hmugz2","rxwzcy7ck6","msl000336","motor","","70","img/motor_4.png","70","motor","4","189","1","0","0","",""
"null","","6431680","HierDy46hmugz2","rxwzcy7ck6","msl000336","iti","","null","img/motor_4.png","70","motor","","","","","","",""
"332","","6432020","HierDy46hmugz2","rxwzcy7ck6","msl000336","motor","","70","img/motor_4.png","70","motor","4","190","1","0","0","",""
"null","","6432135","HierDy46hmugz2","rxwzcy7ck6","msl000336","iti","","null","img/motor_4.png","70","motor","","","","","","",""
"468","","6432619","HierDy46hmugz2","rxwzcy7ck6","msl000336","motor","","74","img/motor_6.png","74","motor","6","191","1","0","0","",""
"null","","6432734","HierDy46hmugz2","rxwzcy7ck6","msl000336","iti","","null","img/motor_6.png","74","motor","","","","","","",""
"285","","6433028","HierDy46hmugz2","rxwzcy7ck6","msl000336","motor","","83","img/motor_2.png","83","motor","2","192","1","0","0","",""
"null","","6433137","HierDy46hmugz2","rxwzcy7ck6","msl000336","iti","","null","img/motor_2.png","83","motor","","","","","","",""
"514","","6433660","HierDy46hmugz2","rxwzcy7ck6","msl000336","motor","","74","img/motor_6.png","74","motor","6","193","1","0","0","",""
"null","","6433768","HierDy46hmugz2","rxwzcy7ck6","msl000336","iti","","null","img/motor_6.png","74","motor","","","","","","",""
"500","","6434282","HierDy46hmugz2","rxwzcy7ck6","msl000336","motor","","75","img/motor_7.png","75","motor","7","194","1","0","0","",""
"null","","6434391","HierDy46hmugz2","rxwzcy7ck6","msl000336","iti","","null","img/motor_7.png","75","motor","","","","","","",""
"381","","6434781","HierDy46hmugz2","rxwzcy7ck6","msl000336","motor","","72","img/motor_5.png","72","motor","5","195","1","0","0","",""
"null","","6434896","HierDy46hmugz2","rxwzcy7ck6","msl000336","iti","","null","img/motor_5.png","72","motor","","","","","","",""
"372","","6435276","HierDy46hmugz2","rxwzcy7ck6","msl000336","motor","","74","img/motor_6.png","74","motor","6","196","1","0","0","",""
"null","","6435392","HierDy46hmugz2","rxwzcy7ck6","msl000336","iti","","null","img/motor_6.png","74","motor","","","","","","",""
"316","","6435723","HierDy46hmugz2","rxwzcy7ck6","msl000336","motor","","83","img/motor_3.png","68","motor","3","197","0","1","0","",""
"201","","6435932","HierDy46hmugz2","rxwzcy7ck6","msl000336","motorRepeat","","68","img/motor_3.png","68","motor","3","197","1","0","0","",""
"null","","6436041","HierDy46hmugz2","rxwzcy7ck6","msl000336","iti","","null","img/motor_3.png","68","motor","","","","","","",""
"324","","6436379","HierDy46hmugz2","rxwzcy7ck6","msl000336","motor","","68","img/motor_3.png","68","motor","3","198","1","0","0","",""
"null","","6436488","HierDy46hmugz2","rxwzcy7ck6","msl000336","iti","","null","img/motor_3.png","68","motor","","","","","","",""
"549","","6437043","HierDy46hmugz2","rxwzcy7ck6","msl000336","motor","","75","img/motor_7.png","75","motor","7","199","1","0","0","",""
"null","","6437151","HierDy46hmugz2","rxwzcy7ck6","msl000336","iti","","null","img/motor_7.png","75","motor","","","","","","",""
"461","","6437620","HierDy46hmugz2","rxwzcy7ck6","msl000336","motor","","70","img/motor_4.png","70","motor","4","200","1","0","0","",""
"null","","6437729","HierDy46hmugz2","rxwzcy7ck6","msl000336","iti","","null","img/motor_4.png","70","motor","","","","","","",""
"355","","6438092","HierDy46hmugz2","rxwzcy7ck6","msl000336","motor","","75","img/motor_7.png","75","motor","7","201","1","0","0","",""
"null","","6438201","HierDy46hmugz2","rxwzcy7ck6","msl000336","iti","","null","img/motor_7.png","75","motor","","","","","","",""
"332","","6438541","HierDy46hmugz2","rxwzcy7ck6","msl000336","motor","","75","img/motor_6.png","74","motor","6","202","0","1","0","",""
"63","","6438618","HierDy46hmugz2","rxwzcy7ck6","msl000336","motorRepeat","","74","img/motor_6.png","74","motor","6","202","1","0","0","",""
"null","","6438734","HierDy46hmugz2","rxwzcy7ck6","msl000336","iti","","null","img/motor_6.png","74","motor","","","","","","",""
"334","","6439083","HierDy46hmugz2","rxwzcy7ck6","msl000336","motor","","75","img/motor_7.png","75","motor","7","203","1","0","0","",""
"null","","6439192","HierDy46hmugz2","rxwzcy7ck6","msl000336","iti","","null","img/motor_7.png","75","motor","","","","","","",""
"429","","6439629","HierDy46hmugz2","rxwzcy7ck6","msl000336","motor","","70","img/motor_3.png","68","motor","3","204","0","1","0","",""
"231","","6439869","HierDy46hmugz2","rxwzcy7ck6","msl000336","motorRepeat","","68","img/motor_3.png","68","motor","3","204","1","0","0","",""
"null","","6439984","HierDy46hmugz2","rxwzcy7ck6","msl000336","iti","","null","img/motor_3.png","68","motor","","","","","","",""
"484","","6440477","HierDy46hmugz2","rxwzcy7ck6","msl000336","motor","","72","img/motor_5.png","72","motor","5","205","1","0","0","",""
"null","","6440585","HierDy46hmugz2","rxwzcy7ck6","msl000336","iti","","null","img/motor_5.png","72","motor","","","","","","",""
"444","","6441036","HierDy46hmugz2","rxwzcy7ck6","msl000336","motor","","68","img/motor_3.png","68","motor","3","206","1","0","0","",""
"null","","6441145","HierDy46hmugz2","rxwzcy7ck6","msl000336","iti","","null","img/motor_3.png","68","motor","","","","","","",""
"435","","6441595","HierDy46hmugz2","rxwzcy7ck6","msl000336","motor","","75","img/motor_7.png","75","motor","7","207","1","0","0","",""
"null","","6441710","HierDy46hmugz2","rxwzcy7ck6","msl000336","iti","","null","img/motor_7.png","75","motor","","","","","","",""
"469","","6442188","HierDy46hmugz2","rxwzcy7ck6","msl000336","motor","","72","img/motor_5.png","72","motor","5","208","1","0","0","",""
"null","","6442296","HierDy46hmugz2","rxwzcy7ck6","msl000336","iti","","null","img/motor_5.png","72","motor","","","","","","",""
"364","","6442675","HierDy46hmugz2","rxwzcy7ck6","msl000336","motor","","76","img/motor_8.png","76","motor","8","209","1","0","0","",""
"null","","6442791","HierDy46hmugz2","rxwzcy7ck6","msl000336","iti","","null","img/motor_8.png","76","motor","","","","","","",""
"245","","6443045","HierDy46hmugz2","rxwzcy7ck6","msl000336","motor","","72","img/motor_4.png","70","motor","4","210","0","1","0","",""
"225","","6443276","HierDy46hmugz2","rxwzcy7ck6","msl000336","motorRepeat","","70","img/motor_4.png","70","motor","4","210","1","0","0","",""
"null","","6443385","HierDy46hmugz2","rxwzcy7ck6","msl000336","iti","","null","img/motor_4.png","70","motor","","","","","","",""
"363","","6443756","HierDy46hmugz2","rxwzcy7ck6","msl000336","motor","","74","img/motor_6.png","74","motor","6","211","1","0","0","",""
"null","","6443865","HierDy46hmugz2","rxwzcy7ck6","msl000336","iti","","null","img/motor_6.png","74","motor","","","","","","",""
"427","","6444300","HierDy46hmugz2","rxwzcy7ck6","msl000336","motor","","72","img/motor_5.png","72","motor","5","212","1","0","0","",""
"null","","6444407","HierDy46hmugz2","rxwzcy7ck6","msl000336","iti","","null","img/motor_5.png","72","motor","","","","","","",""
"349","","6444771","HierDy46hmugz2","rxwzcy7ck6","msl000336","motor","","72","img/motor_5.png","72","motor","5","213","1","0","0","",""
"null","","6444886","HierDy46hmugz2","rxwzcy7ck6","msl000336","iti","","null","img/motor_5.png","72","motor","","","","","","",""
"390","","6445285","HierDy46hmugz2","rxwzcy7ck6","msl000336","motor","","74","img/motor_6.png","74","motor","6","214","1","0","0","",""
"null","","6445393","HierDy46hmugz2","rxwzcy7ck6","msl000336","iti","","null","img/motor_6.png","74","motor","","","","","","",""
"508","","6445908","HierDy46hmugz2","rxwzcy7ck6","msl000336","motor","","68","img/motor_3.png","68","motor","3","215","1","0","0","",""
"null","","6446017","HierDy46hmugz2","rxwzcy7ck6","msl000336","iti","","null","img/motor_3.png","68","motor","","","","","","",""
"363","","6446396","HierDy46hmugz2","rxwzcy7ck6","msl000336","motor","","65","img/motor_1.png","65","motor","1","216","1","0","0","",""
"null","","6446504","HierDy46hmugz2","rxwzcy7ck6","msl000336","iti","","null","img/motor_1.png","65","motor","","","","","","",""
"556","","6447068","HierDy46hmugz2","rxwzcy7ck6","msl000336","motor","","75","img/motor_7.png","75","motor","7","217","1","0","0","",""
"null","","6447183","HierDy46hmugz2","rxwzcy7ck6","msl000336","iti","","null","img/motor_7.png","75","motor","","","","","","",""
"468","","6447668","HierDy46hmugz2","rxwzcy7ck6","msl000336","motor","","68","img/motor_3.png","68","motor","3","218","1","0","0","",""
"null","","6447776","HierDy46hmugz2","rxwzcy7ck6","msl000336","iti","","null","img/motor_3.png","68","motor","","","","","","",""
"348","","6448132","HierDy46hmugz2","rxwzcy7ck6","msl000336","motor","","68","img/motor_4.png","70","motor","4","219","0","1","0","",""
"64","","6448204","HierDy46hmugz2","rxwzcy7ck6","msl000336","motorRepeat","","70","img/motor_4.png","70","motor","4","219","1","0","0","",""
"null","","6448312","HierDy46hmugz2","rxwzcy7ck6","msl000336","iti","","null","img/motor_4.png","70","motor","","","","","","",""
"403","","6448731","HierDy46hmugz2","rxwzcy7ck6","msl000336","motor","","68","img/motor_3.png","68","motor","3","220","1","0","0","",""
"null","","6448846","HierDy46hmugz2","rxwzcy7ck6","msl000336","iti","","null","img/motor_3.png","68","motor","","","","","","",""
"309","","6449171","HierDy46hmugz2","rxwzcy7ck6","msl000336","motor","","70","img/motor_4.png","70","motor","4","221","1","0","0","",""
"null","","6449281","HierDy46hmugz2","rxwzcy7ck6","msl000336","iti","","null","img/motor_4.png","70","motor","","","","","","",""
"580","","6449869","HierDy46hmugz2","rxwzcy7ck6","msl000336","motor","","74","img/motor_6.png","74","motor","6","222","1","0","0","",""
"null","","6449984","HierDy46hmugz2","rxwzcy7ck6","msl000336","iti","","null","img/motor_6.png","74","motor","","","","","","",""
"331","","6450325","HierDy46hmugz2","rxwzcy7ck6","msl000336","motor","","75","img/motor_7.png","75","motor","7","223","1","0","0","",""
"null","","6450434","HierDy46hmugz2","rxwzcy7ck6","msl000336","iti","","null","img/motor_7.png","75","motor","","","","","","",""
"411","","6450852","HierDy46hmugz2","rxwzcy7ck6","msl000336","motor","","70","img/motor_4.png","70","motor","4","224","1","0","0","",""
"null","","6450961","HierDy46hmugz2","rxwzcy7ck6","msl000336","iti","","null","img/motor_4.png","70","motor","","","","","","",""
"524","","6451499","HierDy46hmugz2","rxwzcy7ck6","msl000336","motor","","68","img/motor_2.png","83","motor","2","225","0","1","0","",""
"264","","6451772","HierDy46hmugz2","rxwzcy7ck6","msl000336","motorRepeat","","83","img/motor_2.png","83","motor","2","225","1","0","0","",""
"null","","6451887","HierDy46hmugz2","rxwzcy7ck6","msl000336","iti","","null","img/motor_2.png","83","motor","","","","","","",""
"446","","6452341","HierDy46hmugz2","rxwzcy7ck6","msl000336","motor","","70","img/motor_4.png","70","motor","4","226","1","0","0","",""
"null","","6452456","HierDy46hmugz2","rxwzcy7ck6","msl000336","iti","","null","img/motor_4.png","70","motor","","","","","","",""
"397","","6452868","HierDy46hmugz2","rxwzcy7ck6","msl000336","motor","","72","img/motor_5.png","72","motor","5","227","1","0","0","",""
"null","","6452983","HierDy46hmugz2","rxwzcy7ck6","msl000336","iti","","null","img/motor_5.png","72","motor","","","","","","",""
"461","","6453459","HierDy46hmugz2","rxwzcy7ck6","msl000336","motor","","70","img/motor_4.png","70","motor","4","228","1","0","0","",""
"null","","6453568","HierDy46hmugz2","rxwzcy7ck6","msl000336","iti","","null","img/motor_4.png","70","motor","","","","","","",""
"308","","6453885","HierDy46hmugz2","rxwzcy7ck6","msl000336","motor","","72","img/motor_5.png","72","motor","5","229","1","0","0","",""
"null","","6453992","HierDy46hmugz2","rxwzcy7ck6","msl000336","iti","","null","img/motor_5.png","72","motor","","","","","","",""
"340","","6454347","HierDy46hmugz2","rxwzcy7ck6","msl000336","motor","","70","img/motor_4.png","70","motor","4","230","1","0","0","",""
"null","","6454464","HierDy46hmugz2","rxwzcy7ck6","msl000336","iti","","null","img/motor_4.png","70","motor","","","","","","",""
"428","","6454899","HierDy46hmugz2","rxwzcy7ck6","msl000336","motor","","76","img/motor_8.png","76","motor","8","231","1","0","0","",""
"null","","6455008","HierDy46hmugz2","rxwzcy7ck6","msl000336","iti","","null","img/motor_8.png","76","motor","","","","","","",""
"333","","6455348","HierDy46hmugz2","rxwzcy7ck6","msl000336","motor","","65","img/motor_1.png","65","motor","1","232","1","0","0","",""
"null","","6455457","HierDy46hmugz2","rxwzcy7ck6","msl000336","iti","","null","img/motor_1.png","65","motor","","","","","","",""
"660","","6456124","HierDy46hmugz2","rxwzcy7ck6","msl000336","motor","","74","img/motor_6.png","74","motor","6","233","1","0","0","",""
"null","","6456240","HierDy46hmugz2","rxwzcy7ck6","msl000336","iti","","null","img/motor_6.png","74","motor","","","","","","",""
"324","","6456572","HierDy46hmugz2","rxwzcy7ck6","msl000336","motor","","65","img/motor_1.png","65","motor","1","234","1","0","0","",""
"null","","6456681","HierDy46hmugz2","rxwzcy7ck6","msl000336","iti","","null","img/motor_1.png","65","motor","","","","","","",""
"372","","6457060","HierDy46hmugz2","rxwzcy7ck6","msl000336","motor","","70","img/motor_4.png","70","motor","4","235","1","0","0","",""
"null","","6457176","HierDy46hmugz2","rxwzcy7ck6","msl000336","iti","","null","img/motor_4.png","70","motor","","","","","","",""
"356","","6457540","HierDy46hmugz2","rxwzcy7ck6","msl000336","motor","","76","img/motor_8.png","76","motor","8","236","1","0","0","",""
"null","","6457654","HierDy46hmugz2","rxwzcy7ck6","msl000336","iti","","null","img/motor_8.png","76","motor","","","","","","",""
"397","","6458060","HierDy46hmugz2","rxwzcy7ck6","msl000336","motor","","65","img/motor_1.png","65","motor","1","237","1","0","0","",""
"null","","6458175","HierDy46hmugz2","rxwzcy7ck6","msl000336","iti","","null","img/motor_1.png","65","motor","","","","","","",""
"333","","6458517","HierDy46hmugz2","rxwzcy7ck6","msl000336","motor","","65","img/motor_1.png","65","motor","1","238","1","0","0","",""
"null","","6458625","HierDy46hmugz2","rxwzcy7ck6","msl000336","iti","","null","img/motor_1.png","65","motor","","","","","","",""
"228","","6458860","HierDy46hmugz2","rxwzcy7ck6","msl000336","motor","","65","img/motor_7.png","75","motor","7","239","0","1","0","",""
"223","","6459092","HierDy46hmugz2","rxwzcy7ck6","msl000336","motorRepeat","","74","img/motor_7.png","75","motor","7","239","0","1","0","",""
"64","","6459171","HierDy46hmugz2","rxwzcy7ck6","msl000336","motorRepeat","","75","img/motor_7.png","75","motor","7","239","1","0","0","",""
"null","","6459287","HierDy46hmugz2","rxwzcy7ck6","msl000336","iti","","null","img/motor_7.png","75","motor","","","","","","",""
"349","","6459652","HierDy46hmugz2","rxwzcy7ck6","msl000336","motor","","74","img/motor_6.png","74","motor","6","240","1","0","0","",""
"null","","6459760","HierDy46hmugz2","rxwzcy7ck6","msl000336","iti","","null","img/motor_6.png","74","motor","","","","","","",""
"371","","6460142","HierDy46hmugz2","rxwzcy7ck6","msl000336","motor","","76","img/motor_8.png","76","motor","8","241","1","0","0","",""
"null","","6460249","HierDy46hmugz2","rxwzcy7ck6","msl000336","iti","","null","img/motor_8.png","76","motor","","","","","","",""
"435","","6460699","HierDy46hmugz2","rxwzcy7ck6","msl000336","motor","","70","img/motor_4.png","70","motor","4","242","1","0","0","",""
"null","","6460815","HierDy46hmugz2","rxwzcy7ck6","msl000336","iti","","null","img/motor_4.png","70","motor","","","","","","",""
"445","","6461269","HierDy46hmugz2","rxwzcy7ck6","msl000336","motor","","68","img/motor_3.png","68","motor","3","243","1","0","0","",""
"null","","6461377","HierDy46hmugz2","rxwzcy7ck6","msl000336","iti","","null","img/motor_3.png","68","motor","","","","","","",""
"363","","6461748","HierDy46hmugz2","rxwzcy7ck6","msl000336","motor","","65","img/motor_1.png","65","motor","1","244","1","0","0","",""
"null","","6461857","HierDy46hmugz2","rxwzcy7ck6","msl000336","iti","","null","img/motor_1.png","65","motor","","","","","","",""
"357","","6462228","HierDy46hmugz2","rxwzcy7ck6","msl000336","motor","","76","img/motor_8.png","76","motor","8","245","1","0","0","",""
"null","","6462337","HierDy46hmugz2","rxwzcy7ck6","msl000336","iti","","null","img/motor_8.png","76","motor","","","","","","",""
"596","","6462941","HierDy46hmugz2","rxwzcy7ck6","msl000336","motor","","68","img/motor_3.png","68","motor","3","246","1","0","0","",""
"null","","6463049","HierDy46hmugz2","rxwzcy7ck6","msl000336","iti","","null","img/motor_3.png","68","motor","","","","","","",""
"435","","6463493","HierDy46hmugz2","rxwzcy7ck6","msl000336","motor","","72","img/motor_5.png","72","motor","5","247","1","0","0","",""
"null","","6463602","HierDy46hmugz2","rxwzcy7ck6","msl000336","iti","","null","img/motor_5.png","72","motor","","","","","","",""
"419","","6464028","HierDy46hmugz2","rxwzcy7ck6","msl000336","motor","","65","img/motor_1.png","65","motor","1","248","1","0","0","",""
"null","","6464137","HierDy46hmugz2","rxwzcy7ck6","msl000336","iti","","null","img/motor_1.png","65","motor","","","","","","",""
"388","","6464532","HierDy46hmugz2","rxwzcy7ck6","msl000336","motor","","68","img/motor_3.png","68","motor","3","249","1","0","0","",""
"null","","6464640","HierDy46hmugz2","rxwzcy7ck6","msl000336","iti","","null","img/motor_3.png","68","motor","","","","","","",""
"325","","6464979","HierDy46hmugz2","rxwzcy7ck6","msl000336","motor","","76","img/motor_8.png","76","motor","8","250","1","0","0","",""
"null","","6465089","HierDy46hmugz2","rxwzcy7ck6","msl000336","iti","","null","img/motor_8.png","76","motor","","","","","","",""
"364","","6465466","HierDy46hmugz2","rxwzcy7ck6","msl000336","motor","","70","img/motor_4.png","70","motor","4","251","1","0","0","",""
"null","","6465576","HierDy46hmugz2","rxwzcy7ck6","msl000336","iti","","null","img/motor_4.png","70","motor","","","","","","",""
"420","","6466005","HierDy46hmugz2","rxwzcy7ck6","msl000336","motor","","83","img/motor_2.png","83","motor","2","252","1","0","0","",""
"null","","6466113","HierDy46hmugz2","rxwzcy7ck6","msl000336","iti","","null","img/motor_2.png","83","motor","","","","","","",""
"411","","6466540","HierDy46hmugz2","rxwzcy7ck6","msl000336","motor","","65","img/motor_1.png","65","motor","1","253","1","0","0","",""
"null","","6466655","HierDy46hmugz2","rxwzcy7ck6","msl000336","iti","","null","img/motor_1.png","65","motor","","","","","","",""
"325","","6466988","HierDy46hmugz2","rxwzcy7ck6","msl000336","motor","","65","img/motor_1.png","65","motor","1","254","1","0","0","",""
"null","","6467104","HierDy46hmugz2","rxwzcy7ck6","msl000336","iti","","null","img/motor_1.png","65","motor","","","","","","",""
"349","","6467462","HierDy46hmugz2","rxwzcy7ck6","msl000336","motor","","68","img/motor_3.png","68","motor","3","255","1","0","0","",""
"null","","6467576","HierDy46hmugz2","rxwzcy7ck6","msl000336","iti","","null","img/motor_3.png","68","motor","","","","","","",""
"340","","6467925","HierDy46hmugz2","rxwzcy7ck6","msl000336","motor","","65","img/motor_1.png","65","motor","1","256","1","0","0","",""
"null","","6468040","HierDy46hmugz2","rxwzcy7ck6","msl000336","iti","","null","img/motor_1.png","65","motor","","","","","","",""
"356","","6468405","HierDy46hmugz2","rxwzcy7ck6","msl000336","motor","","76","img/motor_7.png","75","motor","7","257","0","1","0","",""
"152","","6468565","HierDy46hmugz2","rxwzcy7ck6","msl000336","motorRepeat","","74","img/motor_7.png","75","motor","7","257","0","1","0","",""
"287","","6468861","HierDy46hmugz2","rxwzcy7ck6","msl000336","motorRepeat","","75","img/motor_7.png","75","motor","7","257","1","0","0","",""
"null","","6468976","HierDy46hmugz2","rxwzcy7ck6","msl000336","iti","","null","img/motor_7.png","75","motor","","","","","","",""
"372","","6469356","HierDy46hmugz2","rxwzcy7ck6","msl000336","motor","","76","img/motor_8.png","76","motor","8","258","1","0","0","",""
"null","","6469464","HierDy46hmugz2","rxwzcy7ck6","msl000336","iti","","null","img/motor_8.png","76","motor","","","","","","",""
"308","","6469788","HierDy46hmugz2","rxwzcy7ck6","msl000336","motor","","76","img/motor_8.png","76","motor","8","259","1","0","0","",""
"null","","6469897","HierDy46hmugz2","rxwzcy7ck6","msl000336","iti","","null","img/motor_8.png","76","motor","","","","","","",""
"420","","6470325","HierDy46hmugz2","rxwzcy7ck6","msl000336","motor","","68","img/motor_2.png","83","motor","2","260","0","1","0","",""
"88","","6470420","HierDy46hmugz2","rxwzcy7ck6","msl000336","motorRepeat","","83","img/motor_2.png","83","motor","2","260","1","0","0","",""
"null","","6470528","HierDy46hmugz2","rxwzcy7ck6","msl000336","iti","","null","img/motor_2.png","83","motor","","","","","","",""
"468","","6471006","HierDy46hmugz2","rxwzcy7ck6","msl000336","motor","","65","img/motor_1.png","65","motor","1","261","1","0","0","",""
"null","","6471114","HierDy46hmugz2","rxwzcy7ck6","msl000336","iti","","null","img/motor_1.png","65","motor","","","","","","",""
"370","","6471500","HierDy46hmugz2","rxwzcy7ck6","msl000336","motor","","70","img/motor_5.png","72","motor","5","262","0","1","0","",""
"264","","6471779","HierDy46hmugz2","rxwzcy7ck6","msl000336","motorRepeat","","72","img/motor_5.png","72","motor","5","262","1","0","0","",""
"null","","6471889","HierDy46hmugz2","rxwzcy7ck6","msl000336","iti","","null","img/motor_5.png","72","motor","","","","","","",""
"363","","6472260","HierDy46hmugz2","rxwzcy7ck6","msl000336","motor","","76","img/motor_8.png","76","motor","8","263","1","0","0","",""
"null","","6472375","HierDy46hmugz2","rxwzcy7ck6","msl000336","iti","","null","img/motor_8.png","76","motor","","","","","","",""
"334","","6472724","HierDy46hmugz2","rxwzcy7ck6","msl000336","motor","","72","img/motor_5.png","72","motor","5","264","1","0","0","",""
"null","","6472839","HierDy46hmugz2","rxwzcy7ck6","msl000336","iti","","null","img/motor_5.png","72","motor","","","","","","",""
"366","","6473213","HierDy46hmugz2","rxwzcy7ck6","msl000336","motor","","65","img/motor_1.png","65","motor","1","265","1","0","0","",""
"null","","6473321","HierDy46hmugz2","rxwzcy7ck6","msl000336","iti","","null","img/motor_1.png","65","motor","","","","","","",""
"314","","6473644","HierDy46hmugz2","rxwzcy7ck6","msl000336","motor","","76","img/motor_8.png","76","motor","8","266","1","0","0","",""
"null","","6473752","HierDy46hmugz2","rxwzcy7ck6","msl000336","iti","","null","img/motor_8.png","76","motor","","","","","","",""
"477","","6474237","HierDy46hmugz2","rxwzcy7ck6","msl000336","motor","","74","img/motor_6.png","74","motor","6","267","1","0","0","",""
"null","","6474352","HierDy46hmugz2","rxwzcy7ck6","msl000336","iti","","null","img/motor_6.png","74","motor","","","","","","",""
"300","","6474661","HierDy46hmugz2","rxwzcy7ck6","msl000336","motor","","74","img/motor_6.png","74","motor","6","268","1","0","0","",""
"null","","6474776","HierDy46hmugz2","rxwzcy7ck6","msl000336","iti","","null","img/motor_6.png","74","motor","","","","","","",""
"444","","6475236","HierDy46hmugz2","rxwzcy7ck6","msl000336","motor","","68","img/motor_3.png","68","motor","3","269","1","0","0","",""
"null","","6475345","HierDy46hmugz2","rxwzcy7ck6","msl000336","iti","","null","img/motor_3.png","68","motor","","","","","","",""
"565","","6475918","HierDy46hmugz2","rxwzcy7ck6","msl000336","motor","","74","img/motor_6.png","74","motor","6","270","1","0","0","",""
"null","","6476026","HierDy46hmugz2","rxwzcy7ck6","msl000336","iti","","null","img/motor_6.png","74","motor","","","","","","",""
"411","","6476445","HierDy46hmugz2","rxwzcy7ck6","msl000336","motor","","74","img/motor_5.png","72","motor","5","271","0","1","0","",""
"87","","6476548","HierDy46hmugz2","rxwzcy7ck6","msl000336","motorRepeat","","72","img/motor_5.png","72","motor","5","271","1","0","0","",""
"null","","6476657","HierDy46hmugz2","rxwzcy7ck6","msl000336","iti","","null","img/motor_5.png","72","motor","","","","","","",""
"469","","6477133","HierDy46hmugz2","rxwzcy7ck6","msl000336","motor","","70","img/motor_4.png","70","motor","4","272","1","0","0","",""
"null","","6477241","HierDy46hmugz2","rxwzcy7ck6","msl000336","iti","","null","img/motor_4.png","70","motor","","","","","","",""
"436","","6477685","HierDy46hmugz2","rxwzcy7ck6","msl000336","motor","","83","img/motor_2.png","83","motor","2","273","1","0","0","",""
"null","","6477793","HierDy46hmugz2","rxwzcy7ck6","msl000336","iti","","null","img/motor_2.png","83","motor","","","","","","",""
"515","","6478317","HierDy46hmugz2","rxwzcy7ck6","msl000336","motor","","74","img/motor_6.png","74","motor","6","274","1","0","0","",""
"null","","6478426","HierDy46hmugz2","rxwzcy7ck6","msl000336","iti","","null","img/motor_6.png","74","motor","","","","","","",""
"348","","6478781","HierDy46hmugz2","rxwzcy7ck6","msl000336","motor","","72","img/motor_5.png","72","motor","5","275","1","0","0","",""
"null","","6478890","HierDy46hmugz2","rxwzcy7ck6","msl000336","iti","","null","img/motor_5.png","72","motor","","","","","","",""
"339","","6479238","HierDy46hmugz2","rxwzcy7ck6","msl000336","motor","","83","img/motor_2.png","83","motor","2","276","1","0","0","",""
"null","","6479345","HierDy46hmugz2","rxwzcy7ck6","msl000336","iti","","null","img/motor_2.png","83","motor","","","","","","",""
"475","","6479829","HierDy46hmugz2","rxwzcy7ck6","msl000336","motor","","75","img/motor_7.png","75","motor","7","277","1","0","0","",""
"null","","6479937","HierDy46hmugz2","rxwzcy7ck6","msl000336","iti","","null","img/motor_7.png","75","motor","","","","","","",""
"389","","6480333","HierDy46hmugz2","rxwzcy7ck6","msl000336","motor","","76","img/motor_8.png","76","motor","8","278","1","0","0","",""
"null","","6480448","HierDy46hmugz2","rxwzcy7ck6","msl000336","iti","","null","img/motor_8.png","76","motor","","","","","","",""
"459","","6480917","HierDy46hmugz2","rxwzcy7ck6","msl000336","motor","","75","img/motor_7.png","75","motor","7","279","1","0","0","",""
"null","","6481033","HierDy46hmugz2","rxwzcy7ck6","msl000336","iti","","null","img/motor_7.png","75","motor","","","","","","",""
"333","","6481373","HierDy46hmugz2","rxwzcy7ck6","msl000336","motor","","74","img/motor_6.png","74","motor","6","280","1","0","0","",""
"null","","6481481","HierDy46hmugz2","rxwzcy7ck6","msl000336","iti","","null","img/motor_6.png","74","motor","","","","","","",""
"396","","6481885","HierDy46hmugz2","rxwzcy7ck6","msl000336","motor","","70","img/motor_4.png","70","motor","4","281","1","0","0","",""
"null","","6482000","HierDy46hmugz2","rxwzcy7ck6","msl000336","iti","","null","img/motor_4.png","70","motor","","","","","","",""
"365","","6482380","HierDy46hmugz2","rxwzcy7ck6","msl000336","motor","","83","img/motor_2.png","83","motor","2","282","1","0","0","",""
"null","","6482495","HierDy46hmugz2","rxwzcy7ck6","msl000336","iti","","null","img/motor_2.png","83","motor","","","","","","",""
"293","","6482797","HierDy46hmugz2","rxwzcy7ck6","msl000336","motor","","76","img/motor_8.png","76","motor","8","283","1","0","0","",""
"null","","6482906","HierDy46hmugz2","rxwzcy7ck6","msl000336","iti","","null","img/motor_8.png","76","motor","","","","","","",""
"275","","6483189","HierDy46hmugz2","rxwzcy7ck6","msl000336","motor","","83","img/motor_2.png","83","motor","2","284","1","0","0","",""
"null","","6483298","HierDy46hmugz2","rxwzcy7ck6","msl000336","iti","","null","img/motor_2.png","83","motor","","","","","","",""
"330","","6483637","HierDy46hmugz2","rxwzcy7ck6","msl000336","motor","","70","img/motor_4.png","70","motor","4","285","1","0","0","",""
"null","","6483745","HierDy46hmugz2","rxwzcy7ck6","msl000336","iti","","null","img/motor_4.png","70","motor","","","","","","",""
"316","","6484069","HierDy46hmugz2","rxwzcy7ck6","msl000336","motor","","70","img/motor_4.png","70","motor","4","286","1","0","0","",""
"null","","6484178","HierDy46hmugz2","rxwzcy7ck6","msl000336","iti","","null","img/motor_4.png","70","motor","","","","","","",""
"348","","6484533","HierDy46hmugz2","rxwzcy7ck6","msl000336","motor","","83","img/motor_3.png","68","motor","3","287","0","1","0","",""
"231","","6484780","HierDy46hmugz2","rxwzcy7ck6","msl000336","motorRepeat","","68","img/motor_3.png","68","motor","3","287","1","0","0","",""
"null","","6484895","HierDy46hmugz2","rxwzcy7ck6","msl000336","iti","","null","img/motor_3.png","68","motor","","","","","","",""
"133","","6485044","HierDy46hmugz2","rxwzcy7ck6","msl000336","motor","","83","img/motor_4.png","70","motor","4","288","0","1","0","",""
"273","","6485325","HierDy46hmugz2","rxwzcy7ck6","msl000336","motorRepeat","","70","img/motor_4.png","70","motor","4","288","1","0","0","",""
"null","","6485440","HierDy46hmugz2","rxwzcy7ck6","msl000336","iti","","null","img/motor_4.png","70","motor","","","","","","",""
"453","","6485901","HierDy46hmugz2","rxwzcy7ck6","msl000336","motor","","75","img/motor_7.png","75","motor","7","289","1","0","0","",""
"null","","6486017","HierDy46hmugz2","rxwzcy7ck6","msl000336","iti","","null","img/motor_7.png","75","motor","","","","","","",""
"348","","6486374","HierDy46hmugz2","rxwzcy7ck6","msl000336","motor","","72","img/motor_5.png","72","motor","5","290","1","0","0","",""
"null","","6486489","HierDy46hmugz2","rxwzcy7ck6","msl000336","iti","","null","img/motor_5.png","72","motor","","","","","","",""
"443","","6486948","HierDy46hmugz2","rxwzcy7ck6","msl000336","motor","","68","img/motor_3.png","68","motor","3","291","1","0","0","",""
"null","","6487063","HierDy46hmugz2","rxwzcy7ck6","msl000336","iti","","null","img/motor_3.png","68","motor","","","","","","",""
"309","","6487388","HierDy46hmugz2","rxwzcy7ck6","msl000336","motor","","76","img/motor_8.png","76","motor","8","292","1","0","0","",""
"null","","6487504","HierDy46hmugz2","rxwzcy7ck6","msl000336","iti","","null","img/motor_8.png","76","motor","","","","","","",""
"365","","6487884","HierDy46hmugz2","rxwzcy7ck6","msl000336","motor","","68","img/motor_3.png","68","motor","3","293","1","0","0","",""
"null","","6487993","HierDy46hmugz2","rxwzcy7ck6","msl000336","iti","","null","img/motor_3.png","68","motor","","","","","","",""
"331","","6488333","HierDy46hmugz2","rxwzcy7ck6","msl000336","motor","","83","img/motor_2.png","83","motor","2","294","1","0","0","",""
"null","","6488449","HierDy46hmugz2","rxwzcy7ck6","msl000336","iti","","null","img/motor_2.png","83","motor","","","","","","",""
"469","","6488926","HierDy46hmugz2","rxwzcy7ck6","msl000336","motor","","75","img/motor_7.png","75","motor","7","295","1","0","0","",""
"null","","6489041","HierDy46hmugz2","rxwzcy7ck6","msl000336","iti","","null","img/motor_7.png","75","motor","","","","","","",""
"373","","6489421","HierDy46hmugz2","rxwzcy7ck6","msl000336","motor","","65","img/motor_1.png","65","motor","1","296","1","0","0","",""
"null","","6489536","HierDy46hmugz2","rxwzcy7ck6","msl000336","iti","","null","img/motor_1.png","65","motor","","","","","","",""
"333","","6489883","HierDy46hmugz2","rxwzcy7ck6","msl000336","motor","","70","img/motor_4.png","70","motor","4","297","1","0","0","",""
"null","","6489999","HierDy46hmugz2","rxwzcy7ck6","msl000336","iti","","null","img/motor_4.png","70","motor","","","","","","",""
"325","","6490340","HierDy46hmugz2","rxwzcy7ck6","msl000336","motor","","65","img/motor_1.png","65","motor","1","298","1","0","0","",""
"null","","6490456","HierDy46hmugz2","rxwzcy7ck6","msl000336","iti","","null","img/motor_1.png","65","motor","","","","","","",""
"453","","6490918","HierDy46hmugz2","rxwzcy7ck6","msl000336","motor","","72","img/motor_5.png","72","motor","5","299","1","0","0","",""
"null","","6491032","HierDy46hmugz2","rxwzcy7ck6","msl000336","iti","","null","img/motor_5.png","72","motor","","","","","","",""
"340","","6491388","HierDy46hmugz2","rxwzcy7ck6","msl000336","motor","","65","img/motor_1.png","65","motor","1","300","1","0","0","",""
"null","","6491497","HierDy46hmugz2","rxwzcy7ck6","msl000336","iti","","null","img/motor_1.png","65","motor","","","","","","",""
"524","","6492029","HierDy46hmugz2","rxwzcy7ck6","msl000336","motor","","83","img/motor_2.png","83","motor","2","301","1","0","0","",""
"null","","6492138","HierDy46hmugz2","rxwzcy7ck6","msl000336","iti","","null","img/motor_2.png","83","motor","","","","","","",""
"307","","6492453","HierDy46hmugz2","rxwzcy7ck6","msl000336","motor","","76","img/motor_8.png","76","motor","8","302","1","0","0","",""
"null","","6492569","HierDy46hmugz2","rxwzcy7ck6","msl000336","iti","","null","img/motor_8.png","76","motor","","","","","","",""
"395","","6492973","HierDy46hmugz2","rxwzcy7ck6","msl000336","motor","","70","img/motor_4.png","70","motor","4","303","1","0","0","",""
"null","","6493089","HierDy46hmugz2","rxwzcy7ck6","msl000336","iti","","null","img/motor_4.png","70","motor","","","","","","",""
"283","","6493381","HierDy46hmugz2","rxwzcy7ck6","msl000336","motor","","76","img/motor_8.png","76","motor","8","304","1","0","0","",""
"null","","6493490","HierDy46hmugz2","rxwzcy7ck6","msl000336","iti","","null","img/motor_8.png","76","motor","","","","","","",""
"427","","6493925","HierDy46hmugz2","rxwzcy7ck6","msl000336","motor","","74","img/motor_6.png","74","motor","6","305","1","0","0","",""
"null","","6494041","HierDy46hmugz2","rxwzcy7ck6","msl000336","iti","","null","img/motor_6.png","74","motor","","","","","","",""
"332","","6494382","HierDy46hmugz2","rxwzcy7ck6","msl000336","motor","","76","img/motor_8.png","76","motor","8","306","1","0","0","",""
"null","","6494496","HierDy46hmugz2","rxwzcy7ck6","msl000336","iti","","null","img/motor_8.png","76","motor","","","","","","",""
"325","","6494836","HierDy46hmugz2","rxwzcy7ck6","msl000336","motor","","74","img/motor_6.png","74","motor","6","307","1","0","0","",""
"null","","6494952","HierDy46hmugz2","rxwzcy7ck6","msl000336","iti","","null","img/motor_6.png","74","motor","","","","","","",""
"372","","6495333","HierDy46hmugz2","rxwzcy7ck6","msl000336","motor","","75","img/motor_7.png","75","motor","7","308","1","0","0","",""
"null","","6495442","HierDy46hmugz2","rxwzcy7ck6","msl000336","iti","","null","img/motor_7.png","75","motor","","","","","","",""
"324","","6495774","HierDy46hmugz2","rxwzcy7ck6","msl000336","motor","","83","img/motor_4.png","70","motor","4","309","0","1","0","",""
"88","","6495875","HierDy46hmugz2","rxwzcy7ck6","msl000336","motorRepeat","","68","img/motor_4.png","70","motor","4","309","0","1","0","",""
"184","","6496076","HierDy46hmugz2","rxwzcy7ck6","msl000336","motorRepeat","","70","img/motor_4.png","70","motor","4","309","1","0","0","",""
"null","","6496185","HierDy46hmugz2","rxwzcy7ck6","msl000336","iti","","null","img/motor_4.png","70","motor","","","","","","",""
"355","","6496550","HierDy46hmugz2","rxwzcy7ck6","msl000336","motor","","76","img/motor_8.png","76","motor","8","310","1","0","0","",""
"null","","6496658","HierDy46hmugz2","rxwzcy7ck6","msl000336","iti","","null","img/motor_8.png","76","motor","","","","","","",""
"379","","6497052","HierDy46hmugz2","rxwzcy7ck6","msl000336","motor","","83","img/motor_2.png","83","motor","2","311","1","0","0","",""
"null","","6497162","HierDy46hmugz2","rxwzcy7ck6","msl000336","iti","","null","img/motor_2.png","83","motor","","","","","","",""
"322","","6497493","HierDy46hmugz2","rxwzcy7ck6","msl000336","motor","","70","img/motor_3.png","68","motor","3","312","0","1","0","",""
"248","","6497756","HierDy46hmugz2","rxwzcy7ck6","msl000336","motorRepeat","","68","img/motor_3.png","68","motor","3","312","1","0","0","",""
"null","","6497872","HierDy46hmugz2","rxwzcy7ck6","msl000336","iti","","null","img/motor_3.png","68","motor","","","","","","",""
"373","","6498254","HierDy46hmugz2","rxwzcy7ck6","msl000336","motor","","83","img/motor_2.png","83","motor","2","313","1","0","0","",""
"null","","6498362","HierDy46hmugz2","rxwzcy7ck6","msl000336","iti","","null","img/motor_2.png","83","motor","","","","","","",""
"394","","6498773","HierDy46hmugz2","rxwzcy7ck6","msl000336","motor","","76","img/motor_8.png","76","motor","8","314","1","0","0","",""
"null","","6498889","HierDy46hmugz2","rxwzcy7ck6","msl000336","iti","","null","img/motor_8.png","76","motor","","","","","","",""
"404","","6499302","HierDy46hmugz2","rxwzcy7ck6","msl000336","motor","","74","img/motor_5.png","72","motor","5","315","0","1","0","",""
"184","","6499500","HierDy46hmugz2","rxwzcy7ck6","msl000336","motorRepeat","","72","img/motor_5.png","72","motor","5","315","1","0","0","",""
"null","","6499616","HierDy46hmugz2","rxwzcy7ck6","msl000336","iti","","null","img/motor_5.png","72","motor","","","","","","",""
"573","","6500204","HierDy46hmugz2","rxwzcy7ck6","msl000336","motor","","68","img/motor_3.png","68","motor","3","316","1","0","0","",""
"null","","6500313","HierDy46hmugz2","rxwzcy7ck6","msl000336","iti","","null","img/motor_3.png","68","motor","","","","","","",""
"372","","6500700","HierDy46hmugz2","rxwzcy7ck6","msl000336","motor","","83","img/motor_2.png","83","motor","2","317","1","0","0","",""
"null","","6500810","HierDy46hmugz2","rxwzcy7ck6","msl000336","iti","","null","img/motor_2.png","83","motor","","","","","","",""
"324","","6501149","HierDy46hmugz2","rxwzcy7ck6","msl000336","motor","","76","img/motor_8.png","76","motor","8","318","1","0","0","",""
"null","","6501258","HierDy46hmugz2","rxwzcy7ck6","msl000336","iti","","null","img/motor_8.png","76","motor","","","","","","",""
"427","","6501694","HierDy46hmugz2","rxwzcy7ck6","msl000336","motor","","74","img/motor_7.png","75","motor","7","319","0","1","0","",""
"86","","6501796","HierDy46hmugz2","rxwzcy7ck6","msl000336","motorRepeat","","75","img/motor_7.png","75","motor","7","319","1","0","0","",""
"null","","6501912","HierDy46hmugz2","rxwzcy7ck6","msl000336","iti","","null","img/motor_7.png","75","motor","","","","","","",""
"213","","6502140","HierDy46hmugz2","rxwzcy7ck6","msl000336","motor","","83","img/motor_4.png","70","motor","4","320","0","1","0","",""
"313","","6502468","HierDy46hmugz2","rxwzcy7ck6","msl000336","motorRepeat","","70","img/motor_4.png","70","motor","4","320","1","0","0","",""
"null","","6502578","HierDy46hmugz2","rxwzcy7ck6","msl000336","iti","","null","img/motor_4.png","70","motor","","","","","","",""
"371","","6502956","HierDy46hmugz2","rxwzcy7ck6","msl000336","motor","","68","img/motor_3.png","68","motor","3","321","1","0","0","",""
"null","","6503066","HierDy46hmugz2","rxwzcy7ck6","msl000336","iti","","null","img/motor_3.png","68","motor","","","","","","",""
"300","","6503374","HierDy46hmugz2","rxwzcy7ck6","msl000336","motor","","76","img/motor_7.png","75","motor","7","322","0","1","0","",""
"304","","6503685","HierDy46hmugz2","rxwzcy7ck6","msl000336","motorRepeat","","75","img/motor_7.png","75","motor","7","322","1","0","0","",""
"null","","6503800","HierDy46hmugz2","rxwzcy7ck6","msl000336","iti","","null","img/motor_7.png","75","motor","","","","","","",""
"372","","6504181","HierDy46hmugz2","rxwzcy7ck6","msl000336","motor","","75","img/motor_7.png","75","motor","7","323","1","0","0","",""
"null","","6504295","HierDy46hmugz2","rxwzcy7ck6","msl000336","iti","","null","img/motor_7.png","75","motor","","","","","","",""
"301","","6504605","HierDy46hmugz2","rxwzcy7ck6","msl000336","motor","","83","img/motor_1.png","65","motor","1","324","0","1","0","",""
"152","","6504772","HierDy46hmugz2","rxwzcy7ck6","msl000336","motorRepeat","","65","img/motor_1.png","65","motor","1","324","1","0","0","",""
"null","","6504881","HierDy46hmugz2","rxwzcy7ck6","msl000336","iti","","null","img/motor_1.png","65","motor","","","","","","",""
"580","","6505476","HierDy46hmugz2","rxwzcy7ck6","msl000336","motor","","74","img/motor_6.png","74","motor","6","325","1","0","0","",""
"null","","6505592","HierDy46hmugz2","rxwzcy7ck6","msl000336","iti","","null","img/motor_6.png","74","motor","","","","","","",""
"365","","6505965","HierDy46hmugz2","rxwzcy7ck6","msl000336","motor","","70","img/motor_4.png","70","motor","4","326","1","0","0","",""
"null","","6506073","HierDy46hmugz2","rxwzcy7ck6","msl000336","iti","","null","img/motor_4.png","70","motor","","","","","","",""
"380","","6506461","HierDy46hmugz2","rxwzcy7ck6","msl000336","motor","","72","img/motor_5.png","72","motor","5","327","1","0","0","",""
"null","","6506569","HierDy46hmugz2","rxwzcy7ck6","msl000336","iti","","null","img/motor_5.png","72","motor","","","","","","",""
"365","","6506941","HierDy46hmugz2","rxwzcy7ck6","msl000336","motor","","65","img/motor_1.png","65","motor","1","328","1","0","0","",""
"null","","6507057","HierDy46hmugz2","rxwzcy7ck6","msl000336","iti","","null","img/motor_1.png","65","motor","","","","","","",""
"420","","6507485","HierDy46hmugz2","rxwzcy7ck6","msl000336","motor","","75","img/motor_6.png","74","motor","6","329","0","1","0","",""
"55","","6507555","HierDy46hmugz2","rxwzcy7ck6","msl000336","motorRepeat","","74","img/motor_6.png","74","motor","6","329","1","0","0","",""
"null","","6507671","HierDy46hmugz2","rxwzcy7ck6","msl000336","iti","","null","img/motor_6.png","74","motor","","","","","","",""
"334","","6508014","HierDy46hmugz2","rxwzcy7ck6","msl000336","motor","","74","img/motor_6.png","74","motor","6","330","1","0","0","",""
"null","","6508129","HierDy46hmugz2","rxwzcy7ck6","msl000336","iti","","null","img/motor_6.png","74","motor","","","","","","",""
"452","","6508596","HierDy46hmugz2","rxwzcy7ck6","msl000336","motor","","70","img/motor_4.png","70","motor","4","331","1","0","0","",""
