"rt","responses","time_elapsed","subject","prolificID","demoID","trialType","question_order","key_press","stim","corrresp","phase","stimNum","trialNum","corr","repeatTrial","motorSwitch","pracCounter","hierarchy"
"310148","{""Q0"":""ms1000291""}","310176","HierDycvhquekj","7jpjl9ykmr","ms1000291","","","","","","","","","","","","",""
"6532","","316723","HierDycvhquekj","7jpjl9ykmr","ms1000291","","","","","","","","","","","","",""
"","","319241","HierDycvhquekj","7jpjl9ykmr","ms1000291","fullscreen","","","","","","","","","","","",""
"13242","{""Vision"":""Yes"",""Handedness"":""Right"",""Gender"":""male""}","332502","HierDycvhquekj","7jpjl9ykmr","ms1000291","","[0,1,2]","","","","","","","","","","",""
"5091","{""Q0"":""19""}","337608","HierDycvhquekj","7jpjl9ykmr","ms1000291","","","","","","","","","","","","",""
"138828","","476458","HierDycvhquekj","7jpjl9ykmr","ms1000291","","","","","","","","","","","","",""
"881","","477350","HierDycvhquekj","7jpjl9ykmr","ms1000291","motor","","75","img/motor_7.png","75","motor","7","1","1","0","0","",""
"null","","477458","HierDycvhquekj","7jpjl9ykmr","ms1000291","iti","","null","img/motor_7.png","75","motor","","","","","","",""
"450","","477917","HierDycvhquekj","7jpjl9ykmr","ms1000291","motor","","76","img/motor_8.png","76","motor","8","2","1","0","0","",""
"null","","478024","HierDycvhquekj","7jpjl9ykmr","ms1000291","iti","","null","img/motor_8.png","76","motor","","","","","","",""
"421","","478460","HierDycvhquekj","7jpjl9ykmr","ms1000291","motor","","72","img/motor_5.png","72","motor","5","3","1","0","0","",""
"null","","478569","HierDycvhquekj","7jpjl9ykmr","ms1000291","iti","","null","img/motor_5.png","72","motor","","","","","","",""
"429","","479012","HierDycvhquekj","7jpjl9ykmr","ms1000291","motor","","74","img/motor_6.png","74","motor","6","4","1","0","0","",""
"null","","479127","HierDycvhquekj","7jpjl9ykmr","ms1000291","iti","","null","img/motor_6.png","74","motor","","","","","","",""
"373","","479508","HierDycvhquekj","7jpjl9ykmr","ms1000291","motor","","76","img/motor_8.png","76","motor","8","5","1","0","0","",""
"null","","479623","HierDycvhquekj","7jpjl9ykmr","ms1000291","iti","","null","img/motor_8.png","76","motor","","","","","","",""
"413","","480045","HierDycvhquekj","7jpjl9ykmr","ms1000291","motor","","75","img/motor_7.png","75","motor","7","6","1","0","0","",""
"null","","480154","HierDycvhquekj","7jpjl9ykmr","ms1000291","iti","","null","img/motor_7.png","75","motor","","","","","","",""
"332","","480494","HierDycvhquekj","7jpjl9ykmr","ms1000291","motor","","72","img/motor_5.png","72","motor","5","7","1","0","0","",""
"null","","480607","HierDycvhquekj","7jpjl9ykmr","ms1000291","iti","","null","img/motor_5.png","72","motor","","","","","","",""
"292","","480916","HierDycvhquekj","7jpjl9ykmr","ms1000291","motor","","74","img/motor_6.png","74","motor","6","8","1","0","0","",""
"null","","481024","HierDycvhquekj","7jpjl9ykmr","ms1000291","iti","","null","img/motor_6.png","74","motor","","","","","","",""
"532","","481566","HierDycvhquekj","7jpjl9ykmr","ms1000291","motor","","65","img/motor_1.png","65","motor","1","9","1","0","0","",""
"null","","481674","HierDycvhquekj","7jpjl9ykmr","ms1000291","iti","","null","img/motor_1.png","65","motor","","","","","","",""
"364","","482045","HierDycvhquekj","7jpjl9ykmr","ms1000291","motor","","83","img/motor_2.png","83","motor","2","10","1","0","0","",""
"null","","482153","HierDycvhquekj","7jpjl9ykmr","ms1000291","iti","","null","img/motor_2.png","83","motor","","","","","","",""
"347","","482510","HierDycvhquekj","7jpjl9ykmr","ms1000291","motor","","70","img/motor_5.png","72","motor","5","11","0","1","0","",""
"151","","482675","HierDycvhquekj","7jpjl9ykmr","ms1000291","motorRepeat","","72","img/motor_5.png","72","motor","5","11","1","0","0","",""
"null","","482790","HierDycvhquekj","7jpjl9ykmr","ms1000291","iti","","null","img/motor_5.png","72","motor","","","","","","",""
"519","","483324","HierDycvhquekj","7jpjl9ykmr","ms1000291","motor","","68","img/motor_2.png","83","motor","2","12","0","1","0","",""
"177","","483509","HierDycvhquekj","7jpjl9ykmr","ms1000291","motorRepeat","","83","img/motor_2.png","83","motor","2","12","1","0","0","",""
"null","","483618","HierDycvhquekj","7jpjl9ykmr","ms1000291","iti","","null","img/motor_2.png","83","motor","","","","","","",""
"387","","484012","HierDycvhquekj","7jpjl9ykmr","ms1000291","motor","","72","img/motor_7.png","75","motor","7","13","0","1","0","",""
"65","","484084","HierDycvhquekj","7jpjl9ykmr","ms1000291","motorRepeat","","74","img/motor_7.png","75","motor","7","13","0","1","0","",""
"120","","484219","HierDycvhquekj","7jpjl9ykmr","ms1000291","motorRepeat","","75","img/motor_7.png","75","motor","7","13","1","0","0","",""
"null","","484334","HierDycvhquekj","7jpjl9ykmr","ms1000291","iti","","null","img/motor_7.png","75","motor","","","","","","",""
"599","","484947","HierDycvhquekj","7jpjl9ykmr","ms1000291","motor","","70","img/motor_4.png","70","motor","4","14","1","0","0","",""
"null","","485062","HierDycvhquekj","7jpjl9ykmr","ms1000291","iti","","null","img/motor_4.png","70","motor","","","","","","",""
"422","","485499","HierDycvhquekj","7jpjl9ykmr","ms1000291","motor","","70","img/motor_4.png","70","motor","4","15","1","0","0","",""
"null","","485614","HierDycvhquekj","7jpjl9ykmr","ms1000291","iti","","null","img/motor_4.png","70","motor","","","","","","",""
"422","","486045","HierDycvhquekj","7jpjl9ykmr","ms1000291","motor","","65","img/motor_1.png","65","motor","1","16","1","0","0","",""
"null","","486153","HierDycvhquekj","7jpjl9ykmr","ms1000291","iti","","null","img/motor_1.png","65","motor","","","","","","",""
"412","","486580","HierDycvhquekj","7jpjl9ykmr","ms1000291","motor","","65","img/motor_1.png","65","motor","1","17","1","0","0","",""
"null","","486689","HierDycvhquekj","7jpjl9ykmr","ms1000291","iti","","null","img/motor_1.png","65","motor","","","","","","",""
"477","","487179","HierDycvhquekj","7jpjl9ykmr","ms1000291","motor","","74","img/motor_6.png","74","motor","6","18","1","0","0","",""
"null","","487294","HierDycvhquekj","7jpjl9ykmr","ms1000291","iti","","null","img/motor_6.png","74","motor","","","","","","",""
"391","","487694","HierDycvhquekj","7jpjl9ykmr","ms1000291","motor","","76","img/motor_8.png","76","motor","8","19","1","0","0","",""
"null","","487808","HierDycvhquekj","7jpjl9ykmr","ms1000291","iti","","null","img/motor_8.png","76","motor","","","","","","",""
"604","","488421","HierDycvhquekj","7jpjl9ykmr","ms1000291","motor","","83","img/motor_2.png","83","motor","2","20","1","0","0","",""
"null","","488529","HierDycvhquekj","7jpjl9ykmr","ms1000291","iti","","null","img/motor_2.png","83","motor","","","","","","",""
"453","","488995","HierDycvhquekj","7jpjl9ykmr","ms1000291","motor","","76","img/motor_8.png","76","motor","8","21","1","0","0","",""
"null","","489104","HierDycvhquekj","7jpjl9ykmr","ms1000291","iti","","null","img/motor_8.png","76","motor","","","","","","",""
"358","","489469","HierDycvhquekj","7jpjl9ykmr","ms1000291","motor","","76","img/motor_8.png","76","motor","8","22","1","0","0","",""
"null","","489584","HierDycvhquekj","7jpjl9ykmr","ms1000291","iti","","null","img/motor_8.png","76","motor","","","","","","",""
"405","","489997","HierDycvhquekj","7jpjl9ykmr","ms1000291","motor","","72","img/motor_5.png","72","motor","5","23","1","0","0","",""
"null","","490105","HierDycvhquekj","7jpjl9ykmr","ms1000291","iti","","null","img/motor_5.png","72","motor","","","","","","",""
"491","","490612","HierDycvhquekj","7jpjl9ykmr","ms1000291","motor","","83","img/motor_2.png","83","motor","2","24","1","0","0","",""
"null","","490720","HierDycvhquekj","7jpjl9ykmr","ms1000291","iti","","null","img/motor_2.png","83","motor","","","","","","",""
"438","","491172","HierDycvhquekj","7jpjl9ykmr","ms1000291","motor","","74","img/motor_7.png","75","motor","7","25","0","1","0","",""
"112","","491294","HierDycvhquekj","7jpjl9ykmr","ms1000291","motorRepeat","","75","img/motor_7.png","75","motor","7","25","1","0","0","",""
"null","","491402","HierDycvhquekj","7jpjl9ykmr","ms1000291","iti","","null","img/motor_7.png","75","motor","","","","","","",""
"459","","491869","HierDycvhquekj","7jpjl9ykmr","ms1000291","motor","","72","img/motor_6.png","74","motor","6","26","0","1","0","",""
"104","","491981","HierDycvhquekj","7jpjl9ykmr","ms1000291","motorRepeat","","74","img/motor_6.png","74","motor","6","26","1","0","0","",""
"89","","492095","HierDycvhquekj","7jpjl9ykmr","ms1000291","iti","","74","img/motor_6.png","74","motor","","","","","","",""
"686","","492789","HierDycvhquekj","7jpjl9ykmr","ms1000291","motor","","74","img/motor_6.png","74","motor","6","27","1","0","0","",""
"null","","492897","HierDycvhquekj","7jpjl9ykmr","ms1000291","iti","","null","img/motor_6.png","74","motor","","","","","","",""
"444","","493350","HierDycvhquekj","7jpjl9ykmr","ms1000291","motor","","72","img/motor_5.png","72","motor","5","28","1","0","0","",""
"null","","493458","HierDycvhquekj","7jpjl9ykmr","ms1000291","iti","","null","img/motor_5.png","72","motor","","","","","","",""
"468","","493933","HierDycvhquekj","7jpjl9ykmr","ms1000291","motor","","75","img/motor_7.png","75","motor","7","29","1","0","0","",""
"null","","494042","HierDycvhquekj","7jpjl9ykmr","ms1000291","iti","","null","img/motor_7.png","75","motor","","","","","","",""
"539","","494588","HierDycvhquekj","7jpjl9ykmr","ms1000291","motor","","83","img/motor_2.png","83","motor","2","30","1","0","0","",""
"null","","494703","HierDycvhquekj","7jpjl9ykmr","ms1000291","iti","","null","img/motor_2.png","83","motor","","","","","","",""
"397","","495110","HierDycvhquekj","7jpjl9ykmr","ms1000291","motor","","70","img/motor_4.png","70","motor","4","31","1","0","0","",""
"null","","495217","HierDycvhquekj","7jpjl9ykmr","ms1000291","iti","","null","img/motor_4.png","70","motor","","","","","","",""
"628","","495853","HierDycvhquekj","7jpjl9ykmr","ms1000291","motor","","68","img/motor_3.png","68","motor","3","32","1","0","0","",""
"null","","495968","HierDycvhquekj","7jpjl9ykmr","ms1000291","iti","","null","img/motor_3.png","68","motor","","","","","","",""
"501","","496478","HierDycvhquekj","7jpjl9ykmr","ms1000291","motor","","72","img/motor_5.png","72","motor","5","33","1","0","0","",""
"null","","496593","HierDycvhquekj","7jpjl9ykmr","ms1000291","iti","","null","img/motor_5.png","72","motor","","","","","","",""
"485","","497086","HierDycvhquekj","7jpjl9ykmr","ms1000291","motor","","68","img/motor_3.png","68","motor","3","34","1","0","0","",""
"null","","497200","HierDycvhquekj","7jpjl9ykmr","ms1000291","iti","","null","img/motor_3.png","68","motor","","","","","","",""
"445","","497653","HierDycvhquekj","7jpjl9ykmr","ms1000291","motor","","70","img/motor_4.png","70","motor","4","35","1","0","0","",""
"null","","497768","HierDycvhquekj","7jpjl9ykmr","ms1000291","iti","","null","img/motor_4.png","70","motor","","","","","","",""
"503","","498283","HierDycvhquekj","7jpjl9ykmr","ms1000291","motor","","68","img/motor_3.png","68","motor","3","36","1","0","0","",""
"null","","498399","HierDycvhquekj","7jpjl9ykmr","ms1000291","iti","","null","img/motor_3.png","68","motor","","","","","","",""
"399","","498805","HierDycvhquekj","7jpjl9ykmr","ms1000291","motor","","74","img/motor_6.png","74","motor","6","37","1","0","0","",""
"null","","498919","HierDycvhquekj","7jpjl9ykmr","ms1000291","iti","","null","img/motor_6.png","74","motor","","","","","","",""
"413","","499340","HierDycvhquekj","7jpjl9ykmr","ms1000291","motor","","76","img/motor_8.png","76","motor","8","38","1","0","0","",""
"null","","499455","HierDycvhquekj","7jpjl9ykmr","ms1000291","iti","","null","img/motor_8.png","76","motor","","","","","","",""
"439","","499908","HierDycvhquekj","7jpjl9ykmr","ms1000291","motor","","70","img/motor_4.png","70","motor","4","39","1","0","0","",""
"null","","500016","HierDycvhquekj","7jpjl9ykmr","ms1000291","iti","","null","img/motor_4.png","70","motor","","","","","","",""
"373","","500403","HierDycvhquekj","7jpjl9ykmr","ms1000291","motor","","76","img/motor_8.png","76","motor","8","40","1","0","0","",""
"null","","500512","HierDycvhquekj","7jpjl9ykmr","ms1000291","iti","","null","img/motor_8.png","76","motor","","","","","","",""
"317","","500837","HierDycvhquekj","7jpjl9ykmr","ms1000291","motor","","70","img/motor_3.png","68","motor","3","41","0","1","0","",""
"241","","501091","HierDycvhquekj","7jpjl9ykmr","ms1000291","motorRepeat","","68","img/motor_3.png","68","motor","3","41","1","0","0","",""
"null","","501201","HierDycvhquekj","7jpjl9ykmr","ms1000291","iti","","null","img/motor_3.png","68","motor","","","","","","",""
"398","","501605","HierDycvhquekj","7jpjl9ykmr","ms1000291","motor","","83","img/motor_2.png","83","motor","2","42","1","0","0","",""
"null","","501720","HierDycvhquekj","7jpjl9ykmr","ms1000291","iti","","null","img/motor_2.png","83","motor","","","","","","",""
"365","","502093","HierDycvhquekj","7jpjl9ykmr","ms1000291","motor","","70","img/motor_3.png","68","motor","3","43","0","1","0","",""
"72","","502179","HierDycvhquekj","7jpjl9ykmr","ms1000291","motorRepeat","","68","img/motor_3.png","68","motor","3","43","1","0","0","",""
"null","","502289","HierDycvhquekj","7jpjl9ykmr","ms1000291","iti","","null","img/motor_3.png","68","motor","","","","","","",""
"428","","502725","HierDycvhquekj","7jpjl9ykmr","ms1000291","motor","","65","img/motor_1.png","65","motor","1","44","1","0","0","",""
"null","","502839","HierDycvhquekj","7jpjl9ykmr","ms1000291","iti","","null","img/motor_1.png","65","motor","","","","","","",""
"405","","503260","HierDycvhquekj","7jpjl9ykmr","ms1000291","motor","","72","img/motor_5.png","72","motor","5","45","1","0","0","",""
"null","","503375","HierDycvhquekj","7jpjl9ykmr","ms1000291","iti","","null","img/motor_5.png","72","motor","","","","","","",""
"501","","503892","HierDycvhquekj","7jpjl9ykmr","ms1000291","motor","","68","img/motor_3.png","68","motor","3","46","1","0","0","",""
"null","","504007","HierDycvhquekj","7jpjl9ykmr","ms1000291","iti","","null","img/motor_3.png","68","motor","","","","","","",""
"430","","504451","HierDycvhquekj","7jpjl9ykmr","ms1000291","motor","","72","img/motor_5.png","72","motor","5","47","1","0","0","",""
"null","","504560","HierDycvhquekj","7jpjl9ykmr","ms1000291","iti","","null","img/motor_5.png","72","motor","","","","","","",""
"469","","505038","HierDycvhquekj","7jpjl9ykmr","ms1000291","motor","","75","img/motor_7.png","75","motor","7","48","1","0","0","",""
"null","","505145","HierDycvhquekj","7jpjl9ykmr","ms1000291","iti","","null","img/motor_7.png","75","motor","","","","","","",""
"524","","505677","HierDycvhquekj","7jpjl9ykmr","ms1000291","motor","","70","img/motor_4.png","70","motor","4","49","1","0","0","",""
"null","","505785","HierDycvhquekj","7jpjl9ykmr","ms1000291","iti","","null","img/motor_4.png","70","motor","","","","","","",""
"396","","506189","HierDycvhquekj","7jpjl9ykmr","ms1000291","motor","","72","img/motor_5.png","72","motor","5","50","1","0","0","",""
"null","","506303","HierDycvhquekj","7jpjl9ykmr","ms1000291","iti","","null","img/motor_5.png","72","motor","","","","","","",""
"518","","506835","HierDycvhquekj","7jpjl9ykmr","ms1000291","motor","","68","img/motor_3.png","68","motor","3","51","1","0","0","",""
"null","","506945","HierDycvhquekj","7jpjl9ykmr","ms1000291","iti","","null","img/motor_3.png","68","motor","","","","","","",""
"429","","507388","HierDycvhquekj","7jpjl9ykmr","ms1000291","motor","","70","img/motor_4.png","70","motor","4","52","1","0","0","",""
"null","","507497","HierDycvhquekj","7jpjl9ykmr","ms1000291","iti","","null","img/motor_4.png","70","motor","","","","","","",""
"461","","507972","HierDycvhquekj","7jpjl9ykmr","ms1000291","motor","","74","img/motor_7.png","75","motor","7","53","0","1","0","",""
"393","","508380","HierDycvhquekj","7jpjl9ykmr","ms1000291","motorRepeat","","75","img/motor_7.png","75","motor","7","53","1","0","0","",""
"null","","508495","HierDycvhquekj","7jpjl9ykmr","ms1000291","iti","","null","img/motor_7.png","75","motor","","","","","","",""
"710","","509220","HierDycvhquekj","7jpjl9ykmr","ms1000291","motor","","75","img/motor_7.png","75","motor","7","54","1","0","0","",""
"null","","509328","HierDycvhquekj","7jpjl9ykmr","ms1000291","iti","","null","img/motor_7.png","75","motor","","","","","","",""
"454","","509796","HierDycvhquekj","7jpjl9ykmr","ms1000291","motor","","74","img/motor_6.png","74","motor","6","55","1","0","0","",""
"null","","509905","HierDycvhquekj","7jpjl9ykmr","ms1000291","iti","","null","img/motor_6.png","74","motor","","","","","","",""
"445","","510363","HierDycvhquekj","7jpjl9ykmr","ms1000291","motor","","74","img/motor_6.png","74","motor","6","56","1","0","0","",""
"null","","510479","HierDycvhquekj","7jpjl9ykmr","ms1000291","iti","","null","img/motor_6.png","74","motor","","","","","","",""
"454","","510942","HierDycvhquekj","7jpjl9ykmr","ms1000291","motor","","68","img/motor_3.png","68","motor","3","57","1","0","0","",""
"null","","511056","HierDycvhquekj","7jpjl9ykmr","ms1000291","iti","","null","img/motor_3.png","68","motor","","","","","","",""
"397","","511468","HierDycvhquekj","7jpjl9ykmr","ms1000291","motor","","65","img/motor_1.png","65","motor","1","58","1","0","0","",""
"null","","511583","HierDycvhquekj","7jpjl9ykmr","ms1000291","iti","","null","img/motor_1.png","65","motor","","","","","","",""
"511","","512108","HierDycvhquekj","7jpjl9ykmr","ms1000291","motor","","76","img/motor_8.png","76","motor","8","59","1","0","0","",""
"null","","512217","HierDycvhquekj","7jpjl9ykmr","ms1000291","iti","","null","img/motor_8.png","76","motor","","","","","","",""
"541","","512765","HierDycvhquekj","7jpjl9ykmr","ms1000291","motor","","83","img/motor_2.png","83","motor","2","60","1","0","0","",""
"null","","512880","HierDycvhquekj","7jpjl9ykmr","ms1000291","iti","","null","img/motor_2.png","83","motor","","","","","","",""
"533","","513422","HierDycvhquekj","7jpjl9ykmr","ms1000291","motor","","72","img/motor_5.png","72","motor","5","61","1","0","0","",""
"null","","513537","HierDycvhquekj","7jpjl9ykmr","ms1000291","iti","","null","img/motor_5.png","72","motor","","","","","","",""
"685","","514230","HierDycvhquekj","7jpjl9ykmr","ms1000291","motor","","83","img/motor_2.png","83","motor","2","62","1","0","0","",""
"null","","514338","HierDycvhquekj","7jpjl9ykmr","ms1000291","iti","","null","img/motor_2.png","83","motor","","","","","","",""
"524","","514876","HierDycvhquekj","7jpjl9ykmr","ms1000291","motor","","72","img/motor_6.png","74","motor","6","63","0","1","0","",""
"106","","514996","HierDycvhquekj","7jpjl9ykmr","ms1000291","motorRepeat","","74","img/motor_6.png","74","motor","6","63","1","0","0","",""
"null","","515111","HierDycvhquekj","7jpjl9ykmr","ms1000291","iti","","null","img/motor_6.png","74","motor","","","","","","",""
"565","","515692","HierDycvhquekj","7jpjl9ykmr","ms1000291","motor","","72","img/motor_5.png","72","motor","5","64","1","0","0","",""
"null","","515808","HierDycvhquekj","7jpjl9ykmr","ms1000291","iti","","null","img/motor_5.png","72","motor","","","","","","",""
"461","","516277","HierDycvhquekj","7jpjl9ykmr","ms1000291","motor","","76","img/motor_8.png","76","motor","8","65","1","0","0","",""
"null","","516386","HierDycvhquekj","7jpjl9ykmr","ms1000291","iti","","null","img/motor_8.png","76","motor","","","","","","",""
"356","","516756","HierDycvhquekj","7jpjl9ykmr","ms1000291","motor","","76","img/motor_8.png","76","motor","8","66","1","0","0","",""
"null","","516871","HierDycvhquekj","7jpjl9ykmr","ms1000291","iti","","null","img/motor_8.png","76","motor","","","","","","",""
"430","","517310","HierDycvhquekj","7jpjl9ykmr","ms1000291","motor","","72","img/motor_5.png","72","motor","5","67","1","0","0","",""
"null","","517418","HierDycvhquekj","7jpjl9ykmr","ms1000291","iti","","null","img/motor_5.png","72","motor","","","","","","",""
"403","","517836","HierDycvhquekj","7jpjl9ykmr","ms1000291","motor","","70","img/motor_4.png","70","motor","4","68","1","0","0","",""
"null","","517946","HierDycvhquekj","7jpjl9ykmr","ms1000291","iti","","null","img/motor_4.png","70","motor","","","","","","",""
"404","","518364","HierDycvhquekj","7jpjl9ykmr","ms1000291","motor","","76","img/motor_8.png","76","motor","8","69","1","0","0","",""
"null","","518473","HierDycvhquekj","7jpjl9ykmr","ms1000291","iti","","null","img/motor_8.png","76","motor","","","","","","",""
"533","","519020","HierDycvhquekj","7jpjl9ykmr","ms1000291","motor","","65","img/motor_1.png","65","motor","1","70","1","0","0","",""
"null","","519135","HierDycvhquekj","7jpjl9ykmr","ms1000291","iti","","null","img/motor_1.png","65","motor","","","","","","",""
"422","","519567","HierDycvhquekj","7jpjl9ykmr","ms1000291","motor","","72","img/motor_5.png","72","motor","5","71","1","0","0","",""
"null","","519683","HierDycvhquekj","7jpjl9ykmr","ms1000291","iti","","null","img/motor_5.png","72","motor","","","","","","",""
"370","","520069","HierDycvhquekj","7jpjl9ykmr","ms1000291","motor","","76","img/motor_8.png","76","motor","8","72","1","0","0","",""
"null","","520185","HierDycvhquekj","7jpjl9ykmr","ms1000291","iti","","null","img/motor_8.png","76","motor","","","","","","",""
"348","","520541","HierDycvhquekj","7jpjl9ykmr","ms1000291","motor","","70","img/motor_1.png","65","motor","1","73","0","1","0","",""
"120","","520669","HierDycvhquekj","7jpjl9ykmr","ms1000291","motorRepeat","","65","img/motor_1.png","65","motor","1","73","1","0","0","",""
"null","","520784","HierDycvhquekj","7jpjl9ykmr","ms1000291","iti","","null","img/motor_1.png","65","motor","","","","","","",""
"404","","521198","HierDycvhquekj","7jpjl9ykmr","ms1000291","motor","","72","img/motor_6.png","74","motor","6","74","0","1","0","",""
"104","","521309","HierDycvhquekj","7jpjl9ykmr","ms1000291","motorRepeat","","74","img/motor_6.png","74","motor","6","74","1","0","0","",""
"null","","521418","HierDycvhquekj","7jpjl9ykmr","ms1000291","iti","","null","img/motor_6.png","74","motor","","","","","","",""
"563","","521991","HierDycvhquekj","7jpjl9ykmr","ms1000291","motor","","83","img/motor_2.png","83","motor","2","75","1","0","0","",""
"null","","522099","HierDycvhquekj","7jpjl9ykmr","ms1000291","iti","","null","img/motor_2.png","83","motor","","","","","","",""
"451","","522558","HierDycvhquekj","7jpjl9ykmr","ms1000291","motor","","65","img/motor_1.png","65","motor","1","76","1","0","0","",""
"null","","522667","HierDycvhquekj","7jpjl9ykmr","ms1000291","iti","","null","img/motor_1.png","65","motor","","","","","","",""
"443","","523118","HierDycvhquekj","7jpjl9ykmr","ms1000291","motor","","76","img/motor_8.png","76","motor","8","77","1","0","0","",""
"null","","523226","HierDycvhquekj","7jpjl9ykmr","ms1000291","iti","","null","img/motor_8.png","76","motor","","","","","","",""
"532","","523772","HierDycvhquekj","7jpjl9ykmr","ms1000291","motor","","68","img/motor_3.png","68","motor","3","78","1","0","0","",""
"null","","523882","HierDycvhquekj","7jpjl9ykmr","ms1000291","iti","","null","img/motor_3.png","68","motor","","","","","","",""
"524","","524420","HierDycvhquekj","7jpjl9ykmr","ms1000291","motor","","83","img/motor_2.png","83","motor","2","79","1","0","0","",""
"null","","524529","HierDycvhquekj","7jpjl9ykmr","ms1000291","iti","","null","img/motor_2.png","83","motor","","","","","","",""
"660","","525198","HierDycvhquekj","7jpjl9ykmr","ms1000291","motor","","75","img/motor_7.png","75","motor","7","80","1","0","0","",""
"null","","525313","HierDycvhquekj","7jpjl9ykmr","ms1000291","iti","","null","img/motor_7.png","75","motor","","","","","","",""
"508","","525830","HierDycvhquekj","7jpjl9ykmr","ms1000291","motor","","83","img/motor_2.png","83","motor","2","81","1","0","0","",""
"null","","525945","HierDycvhquekj","7jpjl9ykmr","ms1000291","iti","","null","img/motor_2.png","83","motor","","","","","","",""
"565","","526518","HierDycvhquekj","7jpjl9ykmr","ms1000291","motor","","68","img/motor_3.png","68","motor","3","82","1","0","0","",""
"null","","526626","HierDycvhquekj","7jpjl9ykmr","ms1000291","iti","","null","img/motor_3.png","68","motor","","","","","","",""
"476","","527110","HierDycvhquekj","7jpjl9ykmr","ms1000291","motor","","75","img/motor_6.png","74","motor","6","83","0","1","0","",""
"159","","527278","HierDycvhquekj","7jpjl9ykmr","ms1000291","motorRepeat","","74","img/motor_6.png","74","motor","6","83","1","0","0","",""
"null","","527386","HierDycvhquekj","7jpjl9ykmr","ms1000291","iti","","null","img/motor_6.png","74","motor","","","","","","",""
"963","","528358","HierDycvhquekj","7jpjl9ykmr","ms1000291","motor","","83","img/motor_2.png","83","motor","2","84","1","0","0","",""
"null","","528473","HierDycvhquekj","7jpjl9ykmr","ms1000291","iti","","null","img/motor_2.png","83","motor","","","","","","",""
"493","","528980","HierDycvhquekj","7jpjl9ykmr","ms1000291","motor","","70","img/motor_4.png","70","motor","4","85","1","0","0","",""
"null","","529096","HierDycvhquekj","7jpjl9ykmr","ms1000291","iti","","null","img/motor_4.png","70","motor","","","","","","",""
"453","","529564","HierDycvhquekj","7jpjl9ykmr","ms1000291","motor","","65","img/motor_1.png","65","motor","1","86","1","0","0","",""
"null","","529679","HierDycvhquekj","7jpjl9ykmr","ms1000291","iti","","null","img/motor_1.png","65","motor","","","","","","",""
"421","","530117","HierDycvhquekj","7jpjl9ykmr","ms1000291","motor","","65","img/motor_1.png","65","motor","1","87","1","0","0","",""
"null","","530225","HierDycvhquekj","7jpjl9ykmr","ms1000291","iti","","null","img/motor_1.png","65","motor","","","","","","",""
"523","","530764","HierDycvhquekj","7jpjl9ykmr","ms1000291","motor","","76","img/motor_8.png","76","motor","8","88","1","0","0","",""
"null","","530872","HierDycvhquekj","7jpjl9ykmr","ms1000291","iti","","null","img/motor_8.png","76","motor","","","","","","",""
"429","","531317","HierDycvhquekj","7jpjl9ykmr","ms1000291","motor","","65","img/motor_1.png","65","motor","1","89","1","0","0","",""
"null","","531426","HierDycvhquekj","7jpjl9ykmr","ms1000291","iti","","null","img/motor_1.png","65","motor","","","","","","",""
"613","","532053","HierDycvhquekj","7jpjl9ykmr","ms1000291","motor","","83","img/motor_3.png","68","motor","3","90","0","1","0","",""
"32","","532099","HierDycvhquekj","7jpjl9ykmr","ms1000291","motorRepeat","","68","img/motor_3.png","68","motor","3","90","1","0","0","",""
"null","","532208","HierDycvhquekj","7jpjl9ykmr","ms1000291","iti","","null","img/motor_3.png","68","motor","","","","","","",""
"622","","532838","HierDycvhquekj","7jpjl9ykmr","ms1000291","motor","","75","img/motor_7.png","75","motor","7","91","1","0","0","",""
"null","","532952","HierDycvhquekj","7jpjl9ykmr","ms1000291","iti","","null","img/motor_7.png","75","motor","","","","","","",""
"885","","533846","HierDycvhquekj","7jpjl9ykmr","ms1000291","motor","","68","img/motor_3.png","68","motor","3","92","1","0","0","",""
"null","","533954","HierDycvhquekj","7jpjl9ykmr","ms1000291","iti","","null","img/motor_3.png","68","motor","","","","","","",""
"515","","534478","HierDycvhquekj","7jpjl9ykmr","ms1000291","motor","","72","img/motor_5.png","72","motor","5","93","1","0","0","",""
"null","","534586","HierDycvhquekj","7jpjl9ykmr","ms1000291","iti","","null","img/motor_5.png","72","motor","","","","","","",""
"477","","535076","HierDycvhquekj","7jpjl9ykmr","ms1000291","motor","","76","img/motor_8.png","76","motor","8","94","1","0","0","",""
"null","","535191","HierDycvhquekj","7jpjl9ykmr","ms1000291","iti","","null","img/motor_8.png","76","motor","","","","","","",""
"670","","535870","HierDycvhquekj","7jpjl9ykmr","ms1000291","motor","","70","img/motor_4.png","70","motor","4","95","1","0","0","",""
"null","","535985","HierDycvhquekj","7jpjl9ykmr","ms1000291","iti","","null","img/motor_4.png","70","motor","","","","","","",""
"540","","536534","HierDycvhquekj","7jpjl9ykmr","ms1000291","motor","","83","img/motor_2.png","83","motor","2","96","1","0","0","",""
"null","","536643","HierDycvhquekj","7jpjl9ykmr","ms1000291","iti","","null","img/motor_2.png","83","motor","","","","","","",""
"517","","537164","HierDycvhquekj","7jpjl9ykmr","ms1000291","motor","","72","img/motor_5.png","72","motor","5","97","1","0","0","",""
"null","","537280","HierDycvhquekj","7jpjl9ykmr","ms1000291","iti","","null","img/motor_5.png","72","motor","","","","","","",""
"421","","537717","HierDycvhquekj","7jpjl9ykmr","ms1000291","motor","","72","img/motor_5.png","72","motor","5","98","1","0","0","",""
"null","","537831","HierDycvhquekj","7jpjl9ykmr","ms1000291","iti","","null","img/motor_5.png","72","motor","","","","","","",""
"526","","538365","HierDycvhquekj","7jpjl9ykmr","ms1000291","motor","","70","img/motor_4.png","70","motor","4","99","1","0","0","",""
"null","","538474","HierDycvhquekj","7jpjl9ykmr","ms1000291","iti","","null","img/motor_4.png","70","motor","","","","","","",""
"413","","538894","HierDycvhquekj","7jpjl9ykmr","ms1000291","motor","","70","img/motor_4.png","70","motor","4","100","1","0","0","",""
"null","","539008","HierDycvhquekj","7jpjl9ykmr","ms1000291","iti","","null","img/motor_4.png","70","motor","","","","","","",""
"462","","539485","HierDycvhquekj","7jpjl9ykmr","ms1000291","motor","","74","img/motor_7.png","75","motor","7","101","0","1","0","",""
"129","","539621","HierDycvhquekj","7jpjl9ykmr","ms1000291","motorRepeat","","75","img/motor_7.png","75","motor","7","101","1","0","0","",""
"null","","539736","HierDycvhquekj","7jpjl9ykmr","ms1000291","iti","","null","img/motor_7.png","75","motor","","","","","","",""
"614","","540357","HierDycvhquekj","7jpjl9ykmr","ms1000291","motor","","65","img/motor_1.png","65","motor","1","102","1","0","0","",""
"null","","540465","HierDycvhquekj","7jpjl9ykmr","ms1000291","iti","","null","img/motor_1.png","65","motor","","","","","","",""
"452","","540925","HierDycvhquekj","7jpjl9ykmr","ms1000291","motor","","68","img/motor_3.png","68","motor","3","103","1","0","0","",""
"null","","541040","HierDycvhquekj","7jpjl9ykmr","ms1000291","iti","","null","img/motor_3.png","68","motor","","","","","","",""
"374","","541428","HierDycvhquekj","7jpjl9ykmr","ms1000291","motor","","68","img/motor_3.png","68","motor","3","104","1","0","0","",""
"null","","541537","HierDycvhquekj","7jpjl9ykmr","ms1000291","iti","","null","img/motor_3.png","68","motor","","","","","","",""
"428","","541974","HierDycvhquekj","7jpjl9ykmr","ms1000291","motor","","83","img/motor_2.png","83","motor","2","105","1","0","0","",""
"null","","542089","HierDycvhquekj","7jpjl9ykmr","ms1000291","iti","","null","img/motor_2.png","83","motor","","","","","","",""
"613","","542717","HierDycvhquekj","7jpjl9ykmr","ms1000291","motor","","74","img/motor_7.png","75","motor","7","106","0","1","0","",""
"33","","542762","HierDycvhquekj","7jpjl9ykmr","ms1000291","motorRepeat","","75","img/motor_7.png","75","motor","7","106","1","0","0","",""
"null","","542871","HierDycvhquekj","7jpjl9ykmr","ms1000291","iti","","null","img/motor_7.png","75","motor","","","","","","",""
"550","","543429","HierDycvhquekj","7jpjl9ykmr","ms1000291","motor","","74","img/motor_6.png","74","motor","6","107","1","0","0","",""
"null","","543543","HierDycvhquekj","7jpjl9ykmr","ms1000291","iti","","null","img/motor_6.png","74","motor","","","","","","",""
"421","","543974","HierDycvhquekj","7jpjl9ykmr","ms1000291","motor","","76","img/motor_8.png","76","motor","8","108","1","0","0","",""
"null","","544082","HierDycvhquekj","7jpjl9ykmr","ms1000291","iti","","null","img/motor_8.png","76","motor","","","","","","",""
"476","","544566","HierDycvhquekj","7jpjl9ykmr","ms1000291","motor","","75","img/motor_7.png","75","motor","7","109","1","0","0","",""
"null","","544681","HierDycvhquekj","7jpjl9ykmr","ms1000291","iti","","null","img/motor_7.png","75","motor","","","","","","",""
"389","","545085","HierDycvhquekj","7jpjl9ykmr","ms1000291","motor","","76","img/motor_8.png","76","motor","8","110","1","0","0","",""
"null","","545200","HierDycvhquekj","7jpjl9ykmr","ms1000291","iti","","null","img/motor_8.png","76","motor","","","","","","",""
"461","","545676","HierDycvhquekj","7jpjl9ykmr","ms1000291","motor","","70","img/motor_4.png","70","motor","4","111","1","0","0","",""
"null","","545792","HierDycvhquekj","7jpjl9ykmr","ms1000291","iti","","null","img/motor_4.png","70","motor","","","","","","",""
"414","","546221","HierDycvhquekj","7jpjl9ykmr","ms1000291","motor","","74","img/motor_6.png","74","motor","6","112","1","0","0","",""
"null","","546330","HierDycvhquekj","7jpjl9ykmr","ms1000291","iti","","null","img/motor_6.png","74","motor","","","","","","",""
"412","","546750","HierDycvhquekj","7jpjl9ykmr","ms1000291","motor","","70","img/motor_4.png","70","motor","4","113","1","0","0","",""
"null","","546858","HierDycvhquekj","7jpjl9ykmr","ms1000291","iti","","null","img/motor_4.png","70","motor","","","","","","",""
"492","","547358","HierDycvhquekj","7jpjl9ykmr","ms1000291","motor","","83","img/motor_2.png","83","motor","2","114","1","0","0","",""
"null","","547467","HierDycvhquekj","7jpjl9ykmr","ms1000291","iti","","null","img/motor_2.png","83","motor","","","","","","",""
"420","","547900","HierDycvhquekj","7jpjl9ykmr","ms1000291","motor","","72","img/motor_5.png","72","motor","5","115","1","0","0","",""
"null","","548016","HierDycvhquekj","7jpjl9ykmr","ms1000291","iti","","null","img/motor_5.png","72","motor","","","","","","",""
"412","","548438","HierDycvhquekj","7jpjl9ykmr","ms1000291","motor","","68","img/motor_2.png","83","motor","2","116","0","1","0","",""
"62","","548509","HierDycvhquekj","7jpjl9ykmr","ms1000291","motorRepeat","","83","img/motor_2.png","83","motor","2","116","1","0","0","",""
"null","","548618","HierDycvhquekj","7jpjl9ykmr","ms1000291","iti","","null","img/motor_2.png","83","motor","","","","","","",""
"428","","549054","HierDycvhquekj","7jpjl9ykmr","ms1000291","motor","","65","img/motor_1.png","65","motor","1","117","1","0","0","",""
"null","","549163","HierDycvhquekj","7jpjl9ykmr","ms1000291","iti","","null","img/motor_1.png","65","motor","","","","","","",""
"444","","549614","HierDycvhquekj","7jpjl9ykmr","ms1000291","motor","","72","img/motor_5.png","72","motor","5","118","1","0","0","",""
"null","","549722","HierDycvhquekj","7jpjl9ykmr","ms1000291","iti","","null","img/motor_5.png","72","motor","","","","","","",""
"403","","550141","HierDycvhquekj","7jpjl9ykmr","ms1000291","motor","","75","img/motor_6.png","74","motor","6","119","0","1","0","",""
"72","","550228","HierDycvhquekj","7jpjl9ykmr","ms1000291","motorRepeat","","74","img/motor_6.png","74","motor","6","119","1","0","0","",""
"null","","550344","HierDycvhquekj","7jpjl9ykmr","ms1000291","iti","","null","img/motor_6.png","74","motor","","","","","","",""
"494","","550853","HierDycvhquekj","7jpjl9ykmr","ms1000291","motor","","72","img/motor_5.png","72","motor","5","120","1","0","0","",""
"null","","550969","HierDycvhquekj","7jpjl9ykmr","ms1000291","iti","","null","img/motor_5.png","72","motor","","","","","","",""
"533","","551516","HierDycvhquekj","7jpjl9ykmr","ms1000291","motor","","70","img/motor_4.png","70","motor","4","121","1","0","0","",""
"null","","551632","HierDycvhquekj","7jpjl9ykmr","ms1000291","iti","","null","img/motor_4.png","70","motor","","","","","","",""
"485","","552126","HierDycvhquekj","7jpjl9ykmr","ms1000291","motor","","68","img/motor_3.png","68","motor","3","122","1","0","0","",""
"null","","552234","HierDycvhquekj","7jpjl9ykmr","ms1000291","iti","","null","img/motor_3.png","68","motor","","","","","","",""
"516","","552765","HierDycvhquekj","7jpjl9ykmr","ms1000291","motor","","76","img/motor_8.png","76","motor","8","123","1","0","0","",""
"null","","552873","HierDycvhquekj","7jpjl9ykmr","ms1000291","iti","","null","img/motor_8.png","76","motor","","","","","","",""
"477","","553358","HierDycvhquekj","7jpjl9ykmr","ms1000291","motor","","65","img/motor_1.png","65","motor","1","124","1","0","0","",""
"null","","553467","HierDycvhquekj","7jpjl9ykmr","ms1000291","iti","","null","img/motor_1.png","65","motor","","","","","","",""
"508","","553982","HierDycvhquekj","7jpjl9ykmr","ms1000291","motor","","70","img/motor_4.png","70","motor","4","125","1","0","0","",""
"null","","554091","HierDycvhquekj","7jpjl9ykmr","ms1000291","iti","","null","img/motor_4.png","70","motor","","","","","","",""
"356","","554454","HierDycvhquekj","7jpjl9ykmr","ms1000291","motor","","72","img/motor_5.png","72","motor","5","126","1","0","0","",""
"null","","554569","HierDycvhquekj","7jpjl9ykmr","ms1000291","iti","","null","img/motor_5.png","72","motor","","","","","","",""
"389","","554966","HierDycvhquekj","7jpjl9ykmr","ms1000291","motor","","72","img/motor_5.png","72","motor","5","127","1","0","0","",""
"null","","555082","HierDycvhquekj","7jpjl9ykmr","ms1000291","iti","","null","img/motor_5.png","72","motor","","","","","","",""
"500","","555590","HierDycvhquekj","7jpjl9ykmr","ms1000291","motor","","76","img/motor_8.png","76","motor","8","128","1","0","0","",""
"null","","555705","HierDycvhquekj","7jpjl9ykmr","ms1000291","iti","","null","img/motor_8.png","76","motor","","","","","","",""
"621","","556334","HierDycvhquekj","7jpjl9ykmr","ms1000291","motor","","83","img/motor_2.png","83","motor","2","129","1","0","0","",""
"null","","556442","HierDycvhquekj","7jpjl9ykmr","ms1000291","iti","","null","img/motor_2.png","83","motor","","","","","","",""
"380","","556830","HierDycvhquekj","7jpjl9ykmr","ms1000291","motor","","65","img/motor_1.png","65","motor","1","130","1","0","0","",""
"null","","556938","HierDycvhquekj","7jpjl9ykmr","ms1000291","iti","","null","img/motor_1.png","65","motor","","","","","","",""
"363","","557317","HierDycvhquekj","7jpjl9ykmr","ms1000291","motor","","74","img/motor_6.png","74","motor","6","131","1","0","0","",""
"null","","557432","HierDycvhquekj","7jpjl9ykmr","ms1000291","iti","","null","img/motor_6.png","74","motor","","","","","","",""
"381","","557829","HierDycvhquekj","7jpjl9ykmr","ms1000291","motor","","70","img/motor_3.png","68","motor","3","132","0","1","0","",""
"321","","558158","HierDycvhquekj","7jpjl9ykmr","ms1000291","motorRepeat","","68","img/motor_3.png","68","motor","3","132","1","0","0","",""
"null","","558266","HierDycvhquekj","7jpjl9ykmr","ms1000291","iti","","null","img/motor_3.png","68","motor","","","","","","",""
"500","","558781","HierDycvhquekj","7jpjl9ykmr","ms1000291","motor","","65","img/motor_1.png","65","motor","1","133","1","0","0","",""
"null","","558890","HierDycvhquekj","7jpjl9ykmr","ms1000291","iti","","null","img/motor_1.png","65","motor","","","","","","",""
"395","","559295","HierDycvhquekj","7jpjl9ykmr","ms1000291","motor","","70","img/motor_4.png","70","motor","4","134","1","0","0","",""
"null","","559402","HierDycvhquekj","7jpjl9ykmr","ms1000291","iti","","null","img/motor_4.png","70","motor","","","","","","",""
"435","","559846","HierDycvhquekj","7jpjl9ykmr","ms1000291","motor","","74","img/motor_6.png","74","motor","6","135","1","0","0","",""
"null","","559955","HierDycvhquekj","7jpjl9ykmr","ms1000291","iti","","null","img/motor_6.png","74","motor","","","","","","",""
"444","","560406","HierDycvhquekj","7jpjl9ykmr","ms1000291","motor","","76","img/motor_8.png","76","motor","8","136","1","0","0","",""
"null","","560514","HierDycvhquekj","7jpjl9ykmr","ms1000291","iti","","null","img/motor_8.png","76","motor","","","","","","",""
"475","","561005","HierDycvhquekj","7jpjl9ykmr","ms1000291","motor","","68","img/motor_2.png","83","motor","2","137","0","1","0","",""
"64","","561078","HierDycvhquekj","7jpjl9ykmr","ms1000291","motorRepeat","","83","img/motor_2.png","83","motor","2","137","1","0","0","",""
"null","","561192","HierDycvhquekj","7jpjl9ykmr","ms1000291","iti","","null","img/motor_2.png","83","motor","","","","","","",""
"492","","561701","HierDycvhquekj","7jpjl9ykmr","ms1000291","motor","","76","img/motor_8.png","76","motor","8","138","1","0","0","",""
"null","","561810","HierDycvhquekj","7jpjl9ykmr","ms1000291","iti","","null","img/motor_8.png","76","motor","","","","","","",""
"484","","562302","HierDycvhquekj","7jpjl9ykmr","ms1000291","motor","","72","img/motor_5.png","72","motor","5","139","1","0","0","",""
"null","","562417","HierDycvhquekj","7jpjl9ykmr","ms1000291","iti","","null","img/motor_5.png","72","motor","","","","","","",""
"492","","562917","HierDycvhquekj","7jpjl9ykmr","ms1000291","motor","","65","img/motor_1.png","65","motor","1","140","1","0","0","",""
"null","","563032","HierDycvhquekj","7jpjl9ykmr","ms1000291","iti","","null","img/motor_1.png","65","motor","","","","","","",""
"484","","563526","HierDycvhquekj","7jpjl9ykmr","ms1000291","motor","","68","img/motor_3.png","68","motor","3","141","1","0","0","",""
"null","","563635","HierDycvhquekj","7jpjl9ykmr","ms1000291","iti","","null","img/motor_3.png","68","motor","","","","","","",""
"467","","564110","HierDycvhquekj","7jpjl9ykmr","ms1000291","motor","","74","img/motor_6.png","74","motor","6","142","1","0","0","",""
"null","","564219","HierDycvhquekj","7jpjl9ykmr","ms1000291","iti","","null","img/motor_6.png","74","motor","","","","","","",""
"435","","564662","HierDycvhquekj","7jpjl9ykmr","ms1000291","motor","","65","img/motor_1.png","65","motor","1","143","1","0","0","",""
"null","","564771","HierDycvhquekj","7jpjl9ykmr","ms1000291","iti","","null","img/motor_1.png","65","motor","","","","","","",""
"475","","565254","HierDycvhquekj","7jpjl9ykmr","ms1000291","motor","","65","img/motor_1.png","65","motor","1","144","1","0","0","",""
"null","","565370","HierDycvhquekj","7jpjl9ykmr","ms1000291","iti","","null","img/motor_1.png","65","motor","","","","","","",""
"428","","565813","HierDycvhquekj","7jpjl9ykmr","ms1000291","motor","","72","img/motor_5.png","72","motor","5","145","1","0","0","",""
"null","","565921","HierDycvhquekj","7jpjl9ykmr","ms1000291","iti","","null","img/motor_5.png","72","motor","","","","","","",""
"333","","566262","HierDycvhquekj","7jpjl9ykmr","ms1000291","motor","","72","img/motor_5.png","72","motor","5","146","1","0","0","",""
"null","","566371","HierDycvhquekj","7jpjl9ykmr","ms1000291","iti","","null","img/motor_5.png","72","motor","","","","","","",""
"556","","566940","HierDycvhquekj","7jpjl9ykmr","ms1000291","motor","","74","img/motor_7.png","75","motor","7","147","0","1","0","",""
"161","","567117","HierDycvhquekj","7jpjl9ykmr","ms1000291","motorRepeat","","75","img/motor_7.png","75","motor","7","147","1","0","0","",""
"null","","567232","HierDycvhquekj","7jpjl9ykmr","ms1000291","iti","","null","img/motor_7.png","75","motor","","","","","","",""
"388","","567630","HierDycvhquekj","7jpjl9ykmr","ms1000291","motor","","76","img/motor_8.png","76","motor","8","148","1","0","0","",""
"null","","567739","HierDycvhquekj","7jpjl9ykmr","ms1000291","iti","","null","img/motor_8.png","76","motor","","","","","","",""
"405","","568151","HierDycvhquekj","7jpjl9ykmr","ms1000291","motor","","72","img/motor_5.png","72","motor","5","149","1","0","0","",""
"null","","568265","HierDycvhquekj","7jpjl9ykmr","ms1000291","iti","","null","img/motor_5.png","72","motor","","","","","","",""
"453","","568732","HierDycvhquekj","7jpjl9ykmr","ms1000291","motor","","70","img/motor_3.png","68","motor","3","150","0","1","0","",""
"90","","568837","HierDycvhquekj","7jpjl9ykmr","ms1000291","motorRepeat","","68","img/motor_3.png","68","motor","3","150","1","0","0","",""
"null","","568946","HierDycvhquekj","7jpjl9ykmr","ms1000291","iti","","null","img/motor_3.png","68","motor","","","","","","",""
"419","","569381","HierDycvhquekj","7jpjl9ykmr","ms1000291","motor","","68","img/motor_3.png","68","motor","3","151","1","0","0","",""
"null","","569496","HierDycvhquekj","7jpjl9ykmr","ms1000291","iti","","null","img/motor_3.png","68","motor","","","","","","",""
"534","","570038","HierDycvhquekj","7jpjl9ykmr","ms1000291","motor","","83","img/motor_2.png","83","motor","2","152","1","0","0","",""
"null","","570147","HierDycvhquekj","7jpjl9ykmr","ms1000291","iti","","null","img/motor_2.png","83","motor","","","","","","",""
"460","","570614","HierDycvhquekj","7jpjl9ykmr","ms1000291","motor","","72","img/motor_5.png","72","motor","5","153","1","0","0","",""
"null","","570722","HierDycvhquekj","7jpjl9ykmr","ms1000291","iti","","null","img/motor_5.png","72","motor","","","","","","",""
"460","","571197","HierDycvhquekj","7jpjl9ykmr","ms1000291","motor","","74","img/motor_7.png","75","motor","7","154","0","1","0","",""
"145","","571350","HierDycvhquekj","7jpjl9ykmr","ms1000291","motorRepeat","","75","img/motor_7.png","75","motor","7","154","1","0","0","",""
"null","","571465","HierDycvhquekj","7jpjl9ykmr","ms1000291","iti","","null","img/motor_7.png","75","motor","","","","","","",""
"749","","572222","HierDycvhquekj","7jpjl9ykmr","ms1000291","motor","","68","img/motor_3.png","68","motor","3","155","1","0","0","",""
"null","","572331","HierDycvhquekj","7jpjl9ykmr","ms1000291","iti","","null","img/motor_3.png","68","motor","","","","","","",""
"740","","573078","HierDycvhquekj","7jpjl9ykmr","ms1000291","motor","","74","img/motor_6.png","74","motor","6","156","1","0","0","",""
"null","","573186","HierDycvhquekj","7jpjl9ykmr","ms1000291","iti","","null","img/motor_6.png","74","motor","","","","","","",""
"581","","573775","HierDycvhquekj","7jpjl9ykmr","ms1000291","motor","","83","img/motor_2.png","83","motor","2","157","1","0","0","",""
"null","","573884","HierDycvhquekj","7jpjl9ykmr","ms1000291","iti","","null","img/motor_2.png","83","motor","","","","","","",""
"371","","574263","HierDycvhquekj","7jpjl9ykmr","ms1000291","motor","","65","img/motor_1.png","65","motor","1","158","1","0","0","",""
"null","","574378","HierDycvhquekj","7jpjl9ykmr","ms1000291","iti","","null","img/motor_1.png","65","motor","","","","","","",""
"380","","574766","HierDycvhquekj","7jpjl9ykmr","ms1000291","motor","","83","img/motor_2.png","83","motor","2","159","1","0","0","",""
"null","","574881","HierDycvhquekj","7jpjl9ykmr","ms1000291","iti","","null","img/motor_2.png","83","motor","","","","","","",""
"404","","575293","HierDycvhquekj","7jpjl9ykmr","ms1000291","motor","","68","img/motor_3.png","68","motor","3","160","1","0","0","",""
"null","","575402","HierDycvhquekj","7jpjl9ykmr","ms1000291","iti","","null","img/motor_3.png","68","motor","","","","","","",""
"396","","575806","HierDycvhquekj","7jpjl9ykmr","ms1000291","motor","","74","img/motor_8.png","76","motor","8","161","0","1","0","",""
"128","","575949","HierDycvhquekj","7jpjl9ykmr","ms1000291","motorRepeat","","76","img/motor_8.png","76","motor","8","161","1","0","0","",""
"null","","576065","HierDycvhquekj","7jpjl9ykmr","ms1000291","iti","","null","img/motor_8.png","76","motor","","","","","","",""
"509","","576583","HierDycvhquekj","7jpjl9ykmr","ms1000291","motor","","74","img/motor_6.png","74","motor","6","162","1","0","0","",""
"null","","576691","HierDycvhquekj","7jpjl9ykmr","ms1000291","iti","","null","img/motor_6.png","74","motor","","","","","","",""
"412","","577116","HierDycvhquekj","7jpjl9ykmr","ms1000291","motor","","72","img/motor_5.png","72","motor","5","163","1","0","0","",""
"null","","577226","HierDycvhquekj","7jpjl9ykmr","ms1000291","iti","","null","img/motor_5.png","72","motor","","","","","","",""
"517","","577750","HierDycvhquekj","7jpjl9ykmr","ms1000291","motor","","75","img/motor_7.png","75","motor","7","164","1","0","0","",""
"null","","577859","HierDycvhquekj","7jpjl9ykmr","ms1000291","iti","","null","img/motor_7.png","75","motor","","","","","","",""
"524","","578397","HierDycvhquekj","7jpjl9ykmr","ms1000291","motor","","70","img/motor_4.png","70","motor","4","165","1","0","0","",""
"null","","578512","HierDycvhquekj","7jpjl9ykmr","ms1000291","iti","","null","img/motor_4.png","70","motor","","","","","","",""
"597","","579125","HierDycvhquekj","7jpjl9ykmr","ms1000291","motor","","76","img/motor_8.png","76","motor","8","166","1","0","0","",""
"null","","579234","HierDycvhquekj","7jpjl9ykmr","ms1000291","iti","","null","img/motor_8.png","76","motor","","","","","","",""
"396","","579638","HierDycvhquekj","7jpjl9ykmr","ms1000291","motor","","75","img/motor_7.png","75","motor","7","167","1","0","0","",""
"null","","579747","HierDycvhquekj","7jpjl9ykmr","ms1000291","iti","","null","img/motor_7.png","75","motor","","","","","","",""
"499","","580261","HierDycvhquekj","7jpjl9ykmr","ms1000291","motor","","68","img/motor_2.png","83","motor","2","168","0","1","0","",""
"152","","580421","HierDycvhquekj","7jpjl9ykmr","ms1000291","motorRepeat","","83","img/motor_2.png","83","motor","2","168","1","0","0","",""
"null","","580529","HierDycvhquekj","7jpjl9ykmr","ms1000291","iti","","null","img/motor_2.png","83","motor","","","","","","",""
"725","","581268","HierDycvhquekj","7jpjl9ykmr","ms1000291","motor","","74","img/motor_6.png","74","motor","6","169","1","0","0","",""
"null","","581378","HierDycvhquekj","7jpjl9ykmr","ms1000291","iti","","null","img/motor_6.png","74","motor","","","","","","",""
"437","","581822","HierDycvhquekj","7jpjl9ykmr","ms1000291","motor","","83","img/motor_2.png","83","motor","2","170","1","0","0","",""
"null","","581938","HierDycvhquekj","7jpjl9ykmr","ms1000291","iti","","null","img/motor_2.png","83","motor","","","","","","",""
"379","","582326","HierDycvhquekj","7jpjl9ykmr","ms1000291","motor","","74","img/motor_7.png","75","motor","7","171","0","1","0","",""
"153","","582493","HierDycvhquekj","7jpjl9ykmr","ms1000291","motorRepeat","","75","img/motor_7.png","75","motor","7","171","1","0","0","",""
"null","","582602","HierDycvhquekj","7jpjl9ykmr","ms1000291","iti","","null","img/motor_7.png","75","motor","","","","","","",""
"445","","583055","HierDycvhquekj","7jpjl9ykmr","ms1000291","motor","","72","img/motor_5.png","72","motor","5","172","1","0","0","",""
"null","","583170","HierDycvhquekj","7jpjl9ykmr","ms1000291","iti","","null","img/motor_5.png","72","motor","","","","","","",""
"412","","583602","HierDycvhquekj","7jpjl9ykmr","ms1000291","motor","","65","img/motor_1.png","65","motor","1","173","1","0","0","",""
"null","","583719","HierDycvhquekj","7jpjl9ykmr","ms1000291","iti","","null","img/motor_1.png","65","motor","","","","","","",""
"437","","584167","HierDycvhquekj","7jpjl9ykmr","ms1000291","motor","","83","img/motor_2.png","83","motor","2","174","1","0","0","",""
"null","","584276","HierDycvhquekj","7jpjl9ykmr","ms1000291","iti","","null","img/motor_2.png","83","motor","","","","","","",""
"419","","584702","HierDycvhquekj","7jpjl9ykmr","ms1000291","motor","","72","img/motor_5.png","72","motor","5","175","1","0","0","",""
"null","","584819","HierDycvhquekj","7jpjl9ykmr","ms1000291","iti","","null","img/motor_5.png","72","motor","","","","","","",""
"458","","585293","HierDycvhquekj","7jpjl9ykmr","ms1000291","motor","","65","img/motor_1.png","65","motor","1","176","1","0","0","",""
"null","","585409","HierDycvhquekj","7jpjl9ykmr","ms1000291","iti","","null","img/motor_1.png","65","motor","","","","","","",""
"364","","585782","HierDycvhquekj","7jpjl9ykmr","ms1000291","motor","","83","img/motor_2.png","83","motor","2","177","1","0","0","",""
"null","","585896","HierDycvhquekj","7jpjl9ykmr","ms1000291","iti","","null","img/motor_2.png","83","motor","","","","","","",""
"373","","586279","HierDycvhquekj","7jpjl9ykmr","ms1000291","motor","","70","img/motor_4.png","70","motor","4","178","1","0","0","",""
"null","","586387","HierDycvhquekj","7jpjl9ykmr","ms1000291","iti","","null","img/motor_4.png","70","motor","","","","","","",""
"474","","586870","HierDycvhquekj","7jpjl9ykmr","ms1000291","motor","","65","img/motor_1.png","65","motor","1","179","1","0","0","",""
"null","","586986","HierDycvhquekj","7jpjl9ykmr","ms1000291","iti","","null","img/motor_1.png","65","motor","","","","","","",""
"412","","587413","HierDycvhquekj","7jpjl9ykmr","ms1000291","motor","","70","img/motor_3.png","68","motor","3","180","0","1","0","",""
"136","","587565","HierDycvhquekj","7jpjl9ykmr","ms1000291","motorRepeat","","68","img/motor_3.png","68","motor","3","180","1","0","0","",""
"null","","587680","HierDycvhquekj","7jpjl9ykmr","ms1000291","iti","","null","img/motor_3.png","68","motor","","","","","","",""
"453","","588149","HierDycvhquekj","7jpjl9ykmr","ms1000291","motor","","68","img/motor_3.png","68","motor","3","181","1","0","0","",""
"null","","588264","HierDycvhquekj","7jpjl9ykmr","ms1000291","iti","","null","img/motor_3.png","68","motor","","","","","","",""
"486","","588759","HierDycvhquekj","7jpjl9ykmr","ms1000291","motor","","72","img/motor_5.png","72","motor","5","182","1","0","0","",""
"null","","588868","HierDycvhquekj","7jpjl9ykmr","ms1000291","iti","","null","img/motor_5.png","72","motor","","","","","","",""
"330","","589206","HierDycvhquekj","7jpjl9ykmr","ms1000291","motor","","74","img/motor_6.png","74","motor","6","183","1","0","0","",""
"null","","589322","HierDycvhquekj","7jpjl9ykmr","ms1000291","iti","","null","img/motor_6.png","74","motor","","","","","","",""
"372","","589703","HierDycvhquekj","7jpjl9ykmr","ms1000291","motor","","75","img/motor_7.png","75","motor","7","184","1","0","0","",""
"null","","589818","HierDycvhquekj","7jpjl9ykmr","ms1000291","iti","","null","img/motor_7.png","75","motor","","","","","","",""
"346","","590174","HierDycvhquekj","7jpjl9ykmr","ms1000291","motor","","74","img/motor_6.png","74","motor","6","185","1","0","0","",""
"null","","590282","HierDycvhquekj","7jpjl9ykmr","ms1000291","iti","","null","img/motor_6.png","74","motor","","","","","","",""
"525","","590814","HierDycvhquekj","7jpjl9ykmr","ms1000291","motor","","70","img/motor_4.png","70","motor","4","186","1","0","0","",""
"null","","590929","HierDycvhquekj","7jpjl9ykmr","ms1000291","iti","","null","img/motor_4.png","70","motor","","","","","","",""
"453","","591390","HierDycvhquekj","7jpjl9ykmr","ms1000291","motor","","83","img/motor_2.png","83","motor","2","187","1","0","0","",""
"null","","591505","HierDycvhquekj","7jpjl9ykmr","ms1000291","iti","","null","img/motor_2.png","83","motor","","","","","","",""
"484","","591999","HierDycvhquekj","7jpjl9ykmr","ms1000291","motor","","76","img/motor_8.png","76","motor","8","188","1","0","0","",""
"null","","592107","HierDycvhquekj","7jpjl9ykmr","ms1000291","iti","","null","img/motor_8.png","76","motor","","","","","","",""
"523","","592645","HierDycvhquekj","7jpjl9ykmr","ms1000291","motor","","70","img/motor_4.png","70","motor","4","189","1","0","0","",""
"null","","592760","HierDycvhquekj","7jpjl9ykmr","ms1000291","iti","","null","img/motor_4.png","70","motor","","","","","","",""
"605","","593374","HierDycvhquekj","7jpjl9ykmr","ms1000291","motor","","70","img/motor_4.png","70","motor","4","190","1","0","0","",""
"null","","593482","HierDycvhquekj","7jpjl9ykmr","ms1000291","iti","","null","img/motor_4.png","70","motor","","","","","","",""
"476","","593967","HierDycvhquekj","7jpjl9ykmr","ms1000291","motor","","74","img/motor_6.png","74","motor","6","191","1","0","0","",""
"null","","594081","HierDycvhquekj","7jpjl9ykmr","ms1000291","iti","","null","img/motor_6.png","74","motor","","","","","","",""
"540","","594630","HierDycvhquekj","7jpjl9ykmr","ms1000291","motor","","83","img/motor_2.png","83","motor","2","192","1","0","0","",""
"null","","594746","HierDycvhquekj","7jpjl9ykmr","ms1000291","iti","","null","img/motor_2.png","83","motor","","","","","","",""
"564","","595318","HierDycvhquekj","7jpjl9ykmr","ms1000291","motor","","74","img/motor_6.png","74","motor","6","193","1","0","0","",""
"null","","595427","HierDycvhquekj","7jpjl9ykmr","ms1000291","iti","","null","img/motor_6.png","74","motor","","","","","","",""
"419","","595854","HierDycvhquekj","7jpjl9ykmr","ms1000291","motor","","75","img/motor_7.png","75","motor","7","194","1","0","0","",""
"null","","595969","HierDycvhquekj","7jpjl9ykmr","ms1000291","iti","","null","img/motor_7.png","75","motor","","","","","","",""
"356","","596341","HierDycvhquekj","7jpjl9ykmr","ms1000291","motor","","74","img/motor_5.png","72","motor","5","195","0","1","0","",""
"111","","596469","HierDycvhquekj","7jpjl9ykmr","ms1000291","motorRepeat","","72","img/motor_5.png","72","motor","5","195","1","0","0","",""
"null","","596585","HierDycvhquekj","7jpjl9ykmr","ms1000291","iti","","null","img/motor_5.png","72","motor","","","","","","",""
"501","","597102","HierDycvhquekj","7jpjl9ykmr","ms1000291","motor","","74","img/motor_6.png","74","motor","6","196","1","0","0","",""
"null","","597217","HierDycvhquekj","7jpjl9ykmr","ms1000291","iti","","null","img/motor_6.png","74","motor","","","","","","",""
"645","","597877","HierDycvhquekj","7jpjl9ykmr","ms1000291","motor","","68","img/motor_3.png","68","motor","3","197","1","0","0","",""
"null","","597986","HierDycvhquekj","7jpjl9ykmr","ms1000291","iti","","null","img/motor_3.png","68","motor","","","","","","",""
"420","","598415","HierDycvhquekj","7jpjl9ykmr","ms1000291","motor","","68","img/motor_3.png","68","motor","3","198","1","0","0","",""
"null","","598523","HierDycvhquekj","7jpjl9ykmr","ms1000291","iti","","null","img/motor_3.png","68","motor","","","","","","",""
"428","","598965","HierDycvhquekj","7jpjl9ykmr","ms1000291","motor","","74","img/motor_7.png","75","motor","7","199","0","1","0","",""
"208","","599190","HierDycvhquekj","7jpjl9ykmr","ms1000291","motorRepeat","","75","img/motor_7.png","75","motor","7","199","1","0","0","",""
"null","","599299","HierDycvhquekj","7jpjl9ykmr","ms1000291","iti","","null","img/motor_7.png","75","motor","","","","","","",""
"644","","599950","HierDycvhquekj","7jpjl9ykmr","ms1000291","motor","","70","img/motor_4.png","70","motor","4","200","1","0","0","",""
"null","","600060","HierDycvhquekj","7jpjl9ykmr","ms1000291","iti","","null","img/motor_4.png","70","motor","","","","","","",""
"451","","600526","HierDycvhquekj","7jpjl9ykmr","ms1000291","motor","","74","img/motor_7.png","75","motor","7","201","0","1","0","",""
"129","","600662","HierDycvhquekj","7jpjl9ykmr","ms1000291","motorRepeat","","75","img/motor_7.png","75","motor","7","201","1","0","0","",""
"null","","600777","HierDycvhquekj","7jpjl9ykmr","ms1000291","iti","","null","img/motor_7.png","75","motor","","","","","","",""
"486","","601271","HierDycvhquekj","7jpjl9ykmr","ms1000291","motor","","74","img/motor_6.png","74","motor","6","202","1","0","0","",""
"null","","601380","HierDycvhquekj","7jpjl9ykmr","ms1000291","iti","","null","img/motor_6.png","74","motor","","","","","","",""
"418","","601806","HierDycvhquekj","7jpjl9ykmr","ms1000291","motor","","75","img/motor_7.png","75","motor","7","203","1","0","0","",""
"96","","601916","HierDycvhquekj","7jpjl9ykmr","ms1000291","iti","","75","img/motor_7.png","75","motor","","","","","","",""
"594","","602519","HierDycvhquekj","7jpjl9ykmr","ms1000291","motor","","68","img/motor_3.png","68","motor","3","204","1","0","0","",""
"null","","602633","HierDycvhquekj","7jpjl9ykmr","ms1000291","iti","","null","img/motor_3.png","68","motor","","","","","","",""
"516","","603158","HierDycvhquekj","7jpjl9ykmr","ms1000291","motor","","72","img/motor_5.png","72","motor","5","205","1","0","0","",""
"null","","603273","HierDycvhquekj","7jpjl9ykmr","ms1000291","iti","","null","img/motor_5.png","72","motor","","","","","","",""
"437","","603725","HierDycvhquekj","7jpjl9ykmr","ms1000291","motor","","68","img/motor_3.png","68","motor","3","206","1","0","0","",""
"null","","603836","HierDycvhquekj","7jpjl9ykmr","ms1000291","iti","","null","img/motor_3.png","68","motor","","","","","","",""
"490","","604335","HierDycvhquekj","7jpjl9ykmr","ms1000291","motor","","75","img/motor_7.png","75","motor","7","207","1","0","0","",""
"null","","604451","HierDycvhquekj","7jpjl9ykmr","ms1000291","iti","","null","img/motor_7.png","75","motor","","","","","","",""
"563","","605023","HierDycvhquekj","7jpjl9ykmr","ms1000291","motor","","72","img/motor_5.png","72","motor","5","208","1","0","0","",""
"null","","605131","HierDycvhquekj","7jpjl9ykmr","ms1000291","iti","","null","img/motor_5.png","72","motor","","","","","","",""
"468","","605607","HierDycvhquekj","7jpjl9ykmr","ms1000291","motor","","76","img/motor_8.png","76","motor","8","209","1","0","0","",""
"null","","605722","HierDycvhquekj","7jpjl9ykmr","ms1000291","iti","","null","img/motor_8.png","76","motor","","","","","","",""
"540","","606271","HierDycvhquekj","7jpjl9ykmr","ms1000291","motor","","70","img/motor_4.png","70","motor","4","210","1","0","0","",""
"null","","606385","HierDycvhquekj","7jpjl9ykmr","ms1000291","iti","","null","img/motor_4.png","70","motor","","","","","","",""
"444","","606839","HierDycvhquekj","7jpjl9ykmr","ms1000291","motor","","74","img/motor_6.png","74","motor","6","211","1","0","0","",""
"null","","606947","HierDycvhquekj","7jpjl9ykmr","ms1000291","iti","","null","img/motor_6.png","74","motor","","","","","","",""
"491","","607446","HierDycvhquekj","7jpjl9ykmr","ms1000291","motor","","72","img/motor_5.png","72","motor","5","212","1","0","0","",""
"null","","607555","HierDycvhquekj","7jpjl9ykmr","ms1000291","iti","","null","img/motor_5.png","72","motor","","","","","","",""
"533","","608094","HierDycvhquekj","7jpjl9ykmr","ms1000291","motor","","72","img/motor_5.png","72","motor","5","213","1","0","0","",""
"null","","608203","HierDycvhquekj","7jpjl9ykmr","ms1000291","iti","","null","img/motor_5.png","72","motor","","","","","","",""
"435","","608653","HierDycvhquekj","7jpjl9ykmr","ms1000291","motor","","74","img/motor_6.png","74","motor","6","214","1","0","0","",""
"null","","608762","HierDycvhquekj","7jpjl9ykmr","ms1000291","iti","","null","img/motor_6.png","74","motor","","","","","","",""
"541","","609318","HierDycvhquekj","7jpjl9ykmr","ms1000291","motor","","68","img/motor_3.png","68","motor","3","215","1","0","0","",""
"null","","609433","HierDycvhquekj","7jpjl9ykmr","ms1000291","iti","","null","img/motor_3.png","68","motor","","","","","","",""
"380","","609830","HierDycvhquekj","7jpjl9ykmr","ms1000291","motor","","65","img/motor_1.png","65","motor","1","216","1","0","0","",""
"null","","609946","HierDycvhquekj","7jpjl9ykmr","ms1000291","iti","","null","img/motor_1.png","65","motor","","","","","","",""
"428","","610383","HierDycvhquekj","7jpjl9ykmr","ms1000291","motor","","74","img/motor_7.png","75","motor","7","217","0","1","0","",""
"120","","610511","HierDycvhquekj","7jpjl9ykmr","ms1000291","motorRepeat","","75","img/motor_7.png","75","motor","7","217","1","0","0","",""
"null","","610620","HierDycvhquekj","7jpjl9ykmr","ms1000291","iti","","null","img/motor_7.png","75","motor","","","","","","",""
"1004","","611637","HierDycvhquekj","7jpjl9ykmr","ms1000291","motor","","68","img/motor_3.png","68","motor","3","218","1","0","0","",""
"null","","611749","HierDycvhquekj","7jpjl9ykmr","ms1000291","iti","","null","img/motor_3.png","68","motor","","","","","","",""
"466","","612223","HierDycvhquekj","7jpjl9ykmr","ms1000291","motor","","70","img/motor_4.png","70","motor","4","219","1","0","0","",""
"null","","612338","HierDycvhquekj","7jpjl9ykmr","ms1000291","iti","","null","img/motor_4.png","70","motor","","","","","","",""
"380","","612734","HierDycvhquekj","7jpjl9ykmr","ms1000291","motor","","68","img/motor_3.png","68","motor","3","220","1","0","0","",""
"null","","612843","HierDycvhquekj","7jpjl9ykmr","ms1000291","iti","","null","img/motor_3.png","68","motor","","","","","","",""
"363","","613222","HierDycvhquekj","7jpjl9ykmr","ms1000291","motor","","70","img/motor_4.png","70","motor","4","221","1","0","0","",""
"null","","613337","HierDycvhquekj","7jpjl9ykmr","ms1000291","iti","","null","img/motor_4.png","70","motor","","","","","","",""
"509","","613855","HierDycvhquekj","7jpjl9ykmr","ms1000291","motor","","74","img/motor_6.png","74","motor","6","222","1","0","0","",""
"null","","613970","HierDycvhquekj","7jpjl9ykmr","ms1000291","iti","","null","img/motor_6.png","74","motor","","","","","","",""
"380","","614366","HierDycvhquekj","7jpjl9ykmr","ms1000291","motor","","75","img/motor_7.png","75","motor","7","223","1","0","0","",""
"null","","614481","HierDycvhquekj","7jpjl9ykmr","ms1000291","iti","","null","img/motor_7.png","75","motor","","","","","","",""
"509","","614999","HierDycvhquekj","7jpjl9ykmr","ms1000291","motor","","70","img/motor_4.png","70","motor","4","224","1","0","0","",""
"null","","615114","HierDycvhquekj","7jpjl9ykmr","ms1000291","iti","","null","img/motor_4.png","70","motor","","","","","","",""
"694","","615822","HierDycvhquekj","7jpjl9ykmr","ms1000291","motor","","83","img/motor_2.png","83","motor","2","225","1","0","0","",""
"null","","615931","HierDycvhquekj","7jpjl9ykmr","ms1000291","iti","","null","img/motor_2.png","83","motor","","","","","","",""
"413","","616350","HierDycvhquekj","7jpjl9ykmr","ms1000291","motor","","70","img/motor_4.png","70","motor","4","226","1","0","0","",""
"null","","616459","HierDycvhquekj","7jpjl9ykmr","ms1000291","iti","","null","img/motor_4.png","70","motor","","","","","","",""
"411","","616879","HierDycvhquekj","7jpjl9ykmr","ms1000291","motor","","72","img/motor_5.png","72","motor","5","227","1","0","0","",""
"null","","616987","HierDycvhquekj","7jpjl9ykmr","ms1000291","iti","","null","img/motor_5.png","72","motor","","","","","","",""
"484","","617486","HierDycvhquekj","7jpjl9ykmr","ms1000291","motor","","70","img/motor_4.png","70","motor","4","228","1","0","0","",""
"null","","617595","HierDycvhquekj","7jpjl9ykmr","ms1000291","iti","","null","img/motor_4.png","70","motor","","","","","","",""
"675","","618286","HierDycvhquekj","7jpjl9ykmr","ms1000291","motor","","70","img/motor_5.png","72","motor","5","229","0","1","0","",""
"88","","618389","HierDycvhquekj","7jpjl9ykmr","ms1000291","motorRepeat","","72","img/motor_5.png","72","motor","5","229","1","0","0","",""
"null","","618505","HierDycvhquekj","7jpjl9ykmr","ms1000291","iti","","null","img/motor_5.png","72","motor","","","","","","",""
"373","","618886","HierDycvhquekj","7jpjl9ykmr","ms1000291","motor","","70","img/motor_4.png","70","motor","4","230","1","0","0","",""
"null","","619001","HierDycvhquekj","7jpjl9ykmr","ms1000291","iti","","null","img/motor_4.png","70","motor","","","","","","",""
"534","","619542","HierDycvhquekj","7jpjl9ykmr","ms1000291","motor","","76","img/motor_8.png","76","motor","8","231","1","0","0","",""
"null","","619651","HierDycvhquekj","7jpjl9ykmr","ms1000291","iti","","null","img/motor_8.png","76","motor","","","","","","",""
"531","","620190","HierDycvhquekj","7jpjl9ykmr","ms1000291","motor","","65","img/motor_1.png","65","motor","1","232","1","0","0","",""
"null","","620298","HierDycvhquekj","7jpjl9ykmr","ms1000291","iti","","null","img/motor_1.png","65","motor","","","","","","",""
"421","","620728","HierDycvhquekj","7jpjl9ykmr","ms1000291","motor","","72","img/motor_6.png","74","motor","6","233","0","1","0","",""
"63","","620805","HierDycvhquekj","7jpjl9ykmr","ms1000291","motorRepeat","","74","img/motor_6.png","74","motor","6","233","1","0","0","",""
"null","","620921","HierDycvhquekj","7jpjl9ykmr","ms1000291","iti","","null","img/motor_6.png","74","motor","","","","","","",""
"710","","621645","HierDycvhquekj","7jpjl9ykmr","ms1000291","motor","","65","img/motor_1.png","65","motor","1","234","1","0","0","",""
"null","","621754","HierDycvhquekj","7jpjl9ykmr","ms1000291","iti","","null","img/motor_1.png","65","motor","","","","","","",""
"500","","622262","HierDycvhquekj","7jpjl9ykmr","ms1000291","motor","","70","img/motor_4.png","70","motor","4","235","1","0","0","",""
"null","","622377","HierDycvhquekj","7jpjl9ykmr","ms1000291","iti","","null","img/motor_4.png","70","motor","","","","","","",""
"468","","622862","HierDycvhquekj","7jpjl9ykmr","ms1000291","motor","","76","img/motor_8.png","76","motor","8","236","1","0","0","",""
"null","","622978","HierDycvhquekj","7jpjl9ykmr","ms1000291","iti","","null","img/motor_8.png","76","motor","","","","","","",""
"470","","623455","HierDycvhquekj","7jpjl9ykmr","ms1000291","motor","","65","img/motor_1.png","65","motor","1","237","1","0","0","",""
"null","","623570","HierDycvhquekj","7jpjl9ykmr","ms1000291","iti","","null","img/motor_1.png","65","motor","","","","","","",""
"412","","623990","HierDycvhquekj","7jpjl9ykmr","ms1000291","motor","","65","img/motor_1.png","65","motor","1","238","1","0","0","",""
"null","","624105","HierDycvhquekj","7jpjl9ykmr","ms1000291","iti","","null","img/motor_1.png","65","motor","","","","","","",""
"604","","624718","HierDycvhquekj","7jpjl9ykmr","ms1000291","motor","","75","img/motor_7.png","75","motor","7","239","1","0","0","",""
"null","","624833","HierDycvhquekj","7jpjl9ykmr","ms1000291","iti","","null","img/motor_7.png","75","motor","","","","","","",""
"1429","","626270","HierDycvhquekj","7jpjl9ykmr","ms1000291","motor","","74","img/motor_6.png","74","motor","6","240","1","0","0","",""
"null","","626380","HierDycvhquekj","7jpjl9ykmr","ms1000291","iti","","null","img/motor_6.png","74","motor","","","","","","",""
"395","","626783","HierDycvhquekj","7jpjl9ykmr","ms1000291","motor","","76","img/motor_8.png","76","motor","8","241","1","0","0","",""
"null","","626898","HierDycvhquekj","7jpjl9ykmr","ms1000291","iti","","null","img/motor_8.png","76","motor","","","","","","",""
"461","","627367","HierDycvhquekj","7jpjl9ykmr","ms1000291","motor","","70","img/motor_4.png","70","motor","4","242","1","0","0","",""
"null","","627482","HierDycvhquekj","7jpjl9ykmr","ms1000291","iti","","null","img/motor_4.png","70","motor","","","","","","",""
"364","","627855","HierDycvhquekj","7jpjl9ykmr","ms1000291","motor","","68","img/motor_3.png","68","motor","3","243","1","0","0","",""
"null","","627970","HierDycvhquekj","7jpjl9ykmr","ms1000291","iti","","null","img/motor_3.png","68","motor","","","","","","",""
"476","","628455","HierDycvhquekj","7jpjl9ykmr","ms1000291","motor","","65","img/motor_1.png","65","motor","1","244","1","0","0","",""
"null","","628570","HierDycvhquekj","7jpjl9ykmr","ms1000291","iti","","null","img/motor_1.png","65","motor","","","","","","",""
"701","","629279","HierDycvhquekj","7jpjl9ykmr","ms1000291","motor","","76","img/motor_8.png","76","motor","8","245","1","0","0","",""
"null","","629388","HierDycvhquekj","7jpjl9ykmr","ms1000291","iti","","null","img/motor_8.png","76","motor","","","","","","",""
"979","","630375","HierDycvhquekj","7jpjl9ykmr","ms1000291","motor","","70","img/motor_3.png","68","motor","3","246","0","1","0","",""
"152","","630535","HierDycvhquekj","7jpjl9ykmr","ms1000291","motorRepeat","","68","img/motor_3.png","68","motor","3","246","1","0","0","",""
"null","","630643","HierDycvhquekj","7jpjl9ykmr","ms1000291","iti","","null","img/motor_3.png","68","motor","","","","","","",""
"635","","631287","HierDycvhquekj","7jpjl9ykmr","ms1000291","motor","","72","img/motor_5.png","72","motor","5","247","1","0","0","",""
"null","","631403","HierDycvhquekj","7jpjl9ykmr","ms1000291","iti","","null","img/motor_5.png","72","motor","","","","","","",""
"580","","631990","HierDycvhquekj","7jpjl9ykmr","ms1000291","motor","","65","img/motor_1.png","65","motor","1","248","1","0","0","",""
"null","","632106","HierDycvhquekj","7jpjl9ykmr","ms1000291","iti","","null","img/motor_1.png","65","motor","","","","","","",""
"596","","632711","HierDycvhquekj","7jpjl9ykmr","ms1000291","motor","","68","img/motor_3.png","68","motor","3","249","1","0","0","",""
"null","","632819","HierDycvhquekj","7jpjl9ykmr","ms1000291","iti","","null","img/motor_3.png","68","motor","","","","","","",""
"594","","633423","HierDycvhquekj","7jpjl9ykmr","ms1000291","motor","","76","img/motor_8.png","76","motor","8","250","1","0","0","",""
"null","","633538","HierDycvhquekj","7jpjl9ykmr","ms1000291","iti","","null","img/motor_8.png","76","motor","","","","","","",""
"572","","634125","HierDycvhquekj","7jpjl9ykmr","ms1000291","motor","","70","img/motor_4.png","70","motor","4","251","1","0","0","",""
"null","","634241","HierDycvhquekj","7jpjl9ykmr","ms1000291","iti","","null","img/motor_4.png","70","motor","","","","","","",""
"557","","634807","HierDycvhquekj","7jpjl9ykmr","ms1000291","motor","","83","img/motor_2.png","83","motor","2","252","1","0","0","",""
"null","","634922","HierDycvhquekj","7jpjl9ykmr","ms1000291","iti","","null","img/motor_2.png","83","motor","","","","","","",""
"459","","635398","HierDycvhquekj","7jpjl9ykmr","ms1000291","motor","","65","img/motor_1.png","65","motor","1","253","1","0","0","",""
"null","","635507","HierDycvhquekj","7jpjl9ykmr","ms1000291","iti","","null","img/motor_1.png","65","motor","","","","","","",""
"443","","635965","HierDycvhquekj","7jpjl9ykmr","ms1000291","motor","","65","img/motor_1.png","65","motor","1","254","1","0","0","",""
"null","","636082","HierDycvhquekj","7jpjl9ykmr","ms1000291","iti","","null","img/motor_1.png","65","motor","","","","","","",""
"444","","636535","HierDycvhquekj","7jpjl9ykmr","ms1000291","motor","","68","img/motor_3.png","68","motor","3","255","1","0","0","",""
"null","","636643","HierDycvhquekj","7jpjl9ykmr","ms1000291","iti","","null","img/motor_3.png","68","motor","","","","","","",""
"436","","637088","HierDycvhquekj","7jpjl9ykmr","ms1000291","motor","","65","img/motor_1.png","65","motor","1","256","1","0","0","",""
"null","","637203","HierDycvhquekj","7jpjl9ykmr","ms1000291","iti","","null","img/motor_1.png","65","motor","","","","","","",""
"540","","637758","HierDycvhquekj","7jpjl9ykmr","ms1000291","motor","","74","img/motor_7.png","75","motor","7","257","0","1","0","",""
"136","","637903","HierDycvhquekj","7jpjl9ykmr","ms1000291","motorRepeat","","75","img/motor_7.png","75","motor","7","257","1","0","0","",""
"null","","638018","HierDycvhquekj","7jpjl9ykmr","ms1000291","iti","","null","img/motor_7.png","75","motor","","","","","","",""
"619","","638653","HierDycvhquekj","7jpjl9ykmr","ms1000291","motor","","76","img/motor_8.png","76","motor","8","258","1","0","0","",""
"null","","638762","HierDycvhquekj","7jpjl9ykmr","ms1000291","iti","","null","img/motor_8.png","76","motor","","","","","","",""
"3813","","642590","HierDycvhquekj","7jpjl9ykmr","ms1000291","motor","","76","img/motor_8.png","76","motor","8","259","1","0","0","",""
"null","","642706","HierDycvhquekj","7jpjl9ykmr","ms1000291","iti","","null","img/motor_8.png","76","motor","","","","","","",""
"1045","","643766","HierDycvhquekj","7jpjl9ykmr","ms1000291","motor","","68","img/motor_2.png","83","motor","2","260","0","1","0","",""
"336","","644118","HierDycvhquekj","7jpjl9ykmr","ms1000291","motorRepeat","","83","img/motor_2.png","83","motor","2","260","1","0","0","",""
"null","","644234","HierDycvhquekj","7jpjl9ykmr","ms1000291","iti","","null","img/motor_2.png","83","motor","","","","","","",""
"1709","","645959","HierDycvhquekj","7jpjl9ykmr","ms1000291","motor","","83","img/motor_1.png","65","motor","1","261","0","1","0","",""
"256","","646229","HierDycvhquekj","7jpjl9ykmr","ms1000291","motorRepeat","","65","img/motor_1.png","65","motor","1","261","1","0","0","",""
"null","","646346","HierDycvhquekj","7jpjl9ykmr","ms1000291","iti","","null","img/motor_1.png","65","motor","","","","","","",""
"3460","","649818","HierDycvhquekj","7jpjl9ykmr","ms1000291","motor","","72","img/motor_5.png","72","motor","5","262","1","0","0","",""
"null","","649933","HierDycvhquekj","7jpjl9ykmr","ms1000291","iti","","null","img/motor_5.png","72","motor","","","","","","",""
"383","","650328","HierDycvhquekj","7jpjl9ykmr","ms1000291","motor","","76","img/motor_8.png","76","motor","8","263","1","0","0","",""
"null","","650443","HierDycvhquekj","7jpjl9ykmr","ms1000291","iti","","null","img/motor_8.png","76","motor","","","","","","",""
"403","","650863","HierDycvhquekj","7jpjl9ykmr","ms1000291","motor","","72","img/motor_5.png","72","motor","5","264","1","0","0","",""
"null","","650972","HierDycvhquekj","7jpjl9ykmr","ms1000291","iti","","null","img/motor_5.png","72","motor","","","","","","",""
"459","","651439","HierDycvhquekj","7jpjl9ykmr","ms1000291","motor","","70","img/motor_1.png","65","motor","1","265","0","1","0","",""
"96","","651550","HierDycvhquekj","7jpjl9ykmr","ms1000291","motorRepeat","","83","img/motor_1.png","65","motor","1","265","0","1","0","",""
"392","","651951","HierDycvhquekj","7jpjl9ykmr","ms1000291","motorRepeat","","65","img/motor_1.png","65","motor","1","265","1","0","0","",""
"null","","652067","HierDycvhquekj","7jpjl9ykmr","ms1000291","iti","","null","img/motor_1.png","65","motor","","","","","","",""
"500","","652583","HierDycvhquekj","7jpjl9ykmr","ms1000291","motor","","76","img/motor_8.png","76","motor","8","266","1","0","0","",""
"null","","652692","HierDycvhquekj","7jpjl9ykmr","ms1000291","iti","","null","img/motor_8.png","76","motor","","","","","","",""
"538","","653239","HierDycvhquekj","7jpjl9ykmr","ms1000291","motor","","74","img/motor_6.png","74","motor","6","267","1","0","0","",""
"null","","653355","HierDycvhquekj","7jpjl9ykmr","ms1000291","iti","","null","img/motor_6.png","74","motor","","","","","","",""
"371","","653736","HierDycvhquekj","7jpjl9ykmr","ms1000291","motor","","74","img/motor_6.png","74","motor","6","268","1","0","0","",""
"null","","653844","HierDycvhquekj","7jpjl9ykmr","ms1000291","iti","","null","img/motor_6.png","74","motor","","","","","","",""
"602","","654454","HierDycvhquekj","7jpjl9ykmr","ms1000291","motor","","68","img/motor_3.png","68","motor","3","269","1","0","0","",""
"null","","654570","HierDycvhquekj","7jpjl9ykmr","ms1000291","iti","","null","img/motor_3.png","68","motor","","","","","","",""
"509","","655087","HierDycvhquekj","7jpjl9ykmr","ms1000291","motor","","74","img/motor_6.png","74","motor","6","270","1","0","0","",""
"null","","655203","HierDycvhquekj","7jpjl9ykmr","ms1000291","iti","","null","img/motor_6.png","74","motor","","","","","","",""
"468","","655680","HierDycvhquekj","7jpjl9ykmr","ms1000291","motor","","72","img/motor_5.png","72","motor","5","271","1","0","0","",""
"null","","655789","HierDycvhquekj","7jpjl9ykmr","ms1000291","iti","","null","img/motor_5.png","72","motor","","","","","","",""
"659","","656462","HierDycvhquekj","7jpjl9ykmr","ms1000291","motor","","70","img/motor_4.png","70","motor","4","272","1","0","0","",""
"null","","656572","HierDycvhquekj","7jpjl9ykmr","ms1000291","iti","","null","img/motor_4.png","70","motor","","","","","","",""
"667","","657247","HierDycvhquekj","7jpjl9ykmr","ms1000291","motor","","83","img/motor_2.png","83","motor","2","273","1","0","0","",""
"null","","657356","HierDycvhquekj","7jpjl9ykmr","ms1000291","iti","","null","img/motor_2.png","83","motor","","","","","","",""
"491","","657856","HierDycvhquekj","7jpjl9ykmr","ms1000291","motor","","74","img/motor_6.png","74","motor","6","274","1","0","0","",""
"null","","657964","HierDycvhquekj","7jpjl9ykmr","ms1000291","iti","","null","img/motor_6.png","74","motor","","","","","","",""
"460","","658439","HierDycvhquekj","7jpjl9ykmr","ms1000291","motor","","72","img/motor_5.png","72","motor","5","275","1","0","0","",""
"null","","658548","HierDycvhquekj","7jpjl9ykmr","ms1000291","iti","","null","img/motor_5.png","72","motor","","","","","","",""
"467","","659022","HierDycvhquekj","7jpjl9ykmr","ms1000291","motor","","83","img/motor_2.png","83","motor","2","276","1","0","0","",""
"null","","659131","HierDycvhquekj","7jpjl9ykmr","ms1000291","iti","","null","img/motor_2.png","83","motor","","","","","","",""
"509","","659647","HierDycvhquekj","7jpjl9ykmr","ms1000291","motor","","74","img/motor_7.png","75","motor","7","277","0","1","0","",""
"57","","659718","HierDycvhquekj","7jpjl9ykmr","ms1000291","motorRepeat","","75","img/motor_7.png","75","motor","7","277","1","0","0","",""
"null","","659827","HierDycvhquekj","7jpjl9ykmr","ms1000291","iti","","null","img/motor_7.png","75","motor","","","","","","",""
"444","","660280","HierDycvhquekj","7jpjl9ykmr","ms1000291","motor","","76","img/motor_8.png","76","motor","8","278","1","0","0","",""
"null","","660395","HierDycvhquekj","7jpjl9ykmr","ms1000291","iti","","null","img/motor_8.png","76","motor","","","","","","",""
"460","","660870","HierDycvhquekj","7jpjl9ykmr","ms1000291","motor","","75","img/motor_7.png","75","motor","7","279","1","0","0","",""
"null","","660986","HierDycvhquekj","7jpjl9ykmr","ms1000291","iti","","null","img/motor_7.png","75","motor","","","","","","",""
"493","","661488","HierDycvhquekj","7jpjl9ykmr","ms1000291","motor","","74","img/motor_6.png","74","motor","6","280","1","0","0","",""
"null","","661596","HierDycvhquekj","7jpjl9ykmr","ms1000291","iti","","null","img/motor_6.png","74","motor","","","","","","",""
"611","","662215","HierDycvhquekj","7jpjl9ykmr","ms1000291","motor","","70","img/motor_4.png","70","motor","4","281","1","0","0","",""
"null","","662331","HierDycvhquekj","7jpjl9ykmr","ms1000291","iti","","null","img/motor_4.png","70","motor","","","","","","",""
"428","","662767","HierDycvhquekj","7jpjl9ykmr","ms1000291","motor","","83","img/motor_2.png","83","motor","2","282","1","0","0","",""
"null","","662882","HierDycvhquekj","7jpjl9ykmr","ms1000291","iti","","null","img/motor_2.png","83","motor","","","","","","",""
"620","","663512","HierDycvhquekj","7jpjl9ykmr","ms1000291","motor","","76","img/motor_8.png","76","motor","8","283","1","0","0","",""
"null","","663626","HierDycvhquekj","7jpjl9ykmr","ms1000291","iti","","null","img/motor_8.png","76","motor","","","","","","",""
"516","","664158","HierDycvhquekj","7jpjl9ykmr","ms1000291","motor","","83","img/motor_2.png","83","motor","2","284","1","0","0","",""
"null","","664274","HierDycvhquekj","7jpjl9ykmr","ms1000291","iti","","null","img/motor_2.png","83","motor","","","","","","",""
"484","","664774","HierDycvhquekj","7jpjl9ykmr","ms1000291","motor","","70","img/motor_4.png","70","motor","4","285","1","0","0","",""
"null","","664890","HierDycvhquekj","7jpjl9ykmr","ms1000291","iti","","null","img/motor_4.png","70","motor","","","","","","",""
"429","","665327","HierDycvhquekj","7jpjl9ykmr","ms1000291","motor","","70","img/motor_4.png","70","motor","4","286","1","0","0","",""
"null","","665442","HierDycvhquekj","7jpjl9ykmr","ms1000291","iti","","null","img/motor_4.png","70","motor","","","","","","",""
"531","","665983","HierDycvhquekj","7jpjl9ykmr","ms1000291","motor","","68","img/motor_3.png","68","motor","3","287","1","0","0","",""
"null","","666099","HierDycvhquekj","7jpjl9ykmr","ms1000291","iti","","null","img/motor_3.png","68","motor","","","","","","",""
"315","","666430","HierDycvhquekj","7jpjl9ykmr","ms1000291","motor","","70","img/motor_4.png","70","motor","4","288","1","0","0","",""
"null","","666546","HierDycvhquekj","7jpjl9ykmr","ms1000291","iti","","null","img/motor_4.png","70","motor","","","","","","",""
"604","","667166","HierDycvhquekj","7jpjl9ykmr","ms1000291","motor","","74","img/motor_7.png","75","motor","7","289","0","1","0","",""
"384","","667559","HierDycvhquekj","7jpjl9ykmr","ms1000291","motorRepeat","","75","img/motor_7.png","75","motor","7","289","1","0","0","",""
"null","","667673","HierDycvhquekj","7jpjl9ykmr","ms1000291","iti","","null","img/motor_7.png","75","motor","","","","","","",""
"477","","668160","HierDycvhquekj","7jpjl9ykmr","ms1000291","motor","","72","img/motor_5.png","72","motor","5","290","1","0","0","",""
"null","","668268","HierDycvhquekj","7jpjl9ykmr","ms1000291","iti","","null","img/motor_5.png","72","motor","","","","","","",""
"748","","669031","HierDycvhquekj","7jpjl9ykmr","ms1000291","motor","","68","img/motor_3.png","68","motor","3","291","1","0","0","",""
"null","","669147","HierDycvhquekj","7jpjl9ykmr","ms1000291","iti","","null","img/motor_3.png","68","motor","","","","","","",""
"452","","669615","HierDycvhquekj","7jpjl9ykmr","ms1000291","motor","","76","img/motor_8.png","76","motor","8","292","1","0","0","",""
"null","","669730","HierDycvhquekj","7jpjl9ykmr","ms1000291","iti","","null","img/motor_8.png","76","motor","","","","","","",""
"598","","670343","HierDycvhquekj","7jpjl9ykmr","ms1000291","motor","","68","img/motor_3.png","68","motor","3","293","1","0","0","",""
"null","","670458","HierDycvhquekj","7jpjl9ykmr","ms1000291","iti","","null","img/motor_3.png","68","motor","","","","","","",""
"436","","670911","HierDycvhquekj","7jpjl9ykmr","ms1000291","motor","","83","img/motor_2.png","83","motor","2","294","1","0","0","",""
"null","","671026","HierDycvhquekj","7jpjl9ykmr","ms1000291","iti","","null","img/motor_2.png","83","motor","","","","","","",""
"589","","671631","HierDycvhquekj","7jpjl9ykmr","ms1000291","motor","","74","img/motor_7.png","75","motor","7","295","0","1","0","",""
"40","","671685","HierDycvhquekj","7jpjl9ykmr","ms1000291","motorRepeat","","75","img/motor_7.png","75","motor","7","295","1","0","0","",""
"null","","671802","HierDycvhquekj","7jpjl9ykmr","ms1000291","iti","","null","img/motor_7.png","75","motor","","","","","","",""
"667","","672479","HierDycvhquekj","7jpjl9ykmr","ms1000291","motor","","65","img/motor_1.png","65","motor","1","296","1","0","0","",""
"null","","672595","HierDycvhquekj","7jpjl9ykmr","ms1000291","iti","","null","img/motor_1.png","65","motor","","","","","","",""
"420","","673031","HierDycvhquekj","7jpjl9ykmr","ms1000291","motor","","70","img/motor_4.png","70","motor","4","297","1","0","0","",""
"null","","673139","HierDycvhquekj","7jpjl9ykmr","ms1000291","iti","","null","img/motor_4.png","70","motor","","","","","","",""
"436","","673582","HierDycvhquekj","7jpjl9ykmr","ms1000291","motor","","65","img/motor_1.png","65","motor","1","298","1","0","0","",""
"null","","673691","HierDycvhquekj","7jpjl9ykmr","ms1000291","iti","","null","img/motor_1.png","65","motor","","","","","","",""
"581","","674278","HierDycvhquekj","7jpjl9ykmr","ms1000291","motor","","72","img/motor_5.png","72","motor","5","299","1","0","0","",""
"null","","674386","HierDycvhquekj","7jpjl9ykmr","ms1000291","iti","","null","img/motor_5.png","72","motor","","","","","","",""
"469","","674863","HierDycvhquekj","7jpjl9ykmr","ms1000291","motor","","65","img/motor_1.png","65","motor","1","300","1","0","0","",""
"null","","674978","HierDycvhquekj","7jpjl9ykmr","ms1000291","iti","","null","img/motor_1.png","65","motor","","","","","","",""
"500","","675495","HierDycvhquekj","7jpjl9ykmr","ms1000291","motor","","83","img/motor_2.png","83","motor","2","301","1","0","0","",""
"null","","675604","HierDycvhquekj","7jpjl9ykmr","ms1000291","iti","","null","img/motor_2.png","83","motor","","","","","","",""
"515","","676127","HierDycvhquekj","7jpjl9ykmr","ms1000291","motor","","76","img/motor_8.png","76","motor","8","302","1","0","0","",""
"null","","676235","HierDycvhquekj","7jpjl9ykmr","ms1000291","iti","","null","img/motor_8.png","76","motor","","","","","","",""
"508","","676759","HierDycvhquekj","7jpjl9ykmr","ms1000291","motor","","70","img/motor_4.png","70","motor","4","303","1","0","0","",""
"null","","676868","HierDycvhquekj","7jpjl9ykmr","ms1000291","iti","","null","img/motor_4.png","70","motor","","","","","","",""
"420","","677295","HierDycvhquekj","7jpjl9ykmr","ms1000291","motor","","76","img/motor_8.png","76","motor","8","304","1","0","0","",""
"null","","677411","HierDycvhquekj","7jpjl9ykmr","ms1000291","iti","","null","img/motor_8.png","76","motor","","","","","","",""
"684","","678110","HierDycvhquekj","7jpjl9ykmr","ms1000291","motor","","72","img/motor_6.png","74","motor","6","305","0","1","0","",""
"96","","678215","HierDycvhquekj","7jpjl9ykmr","ms1000291","motorRepeat","","74","img/motor_6.png","74","motor","6","305","1","0","0","",""
"null","","678324","HierDycvhquekj","7jpjl9ykmr","ms1000291","iti","","null","img/motor_6.png","74","motor","","","","","","",""
"525","","678856","HierDycvhquekj","7jpjl9ykmr","ms1000291","motor","","76","img/motor_8.png","76","motor","8","306","1","0","0","",""
"null","","678965","HierDycvhquekj","7jpjl9ykmr","ms1000291","iti","","null","img/motor_8.png","76","motor","","","","","","",""
"514","","679494","HierDycvhquekj","7jpjl9ykmr","ms1000291","motor","","74","img/motor_6.png","74","motor","6","307","1","0","0","",""
"null","","679604","HierDycvhquekj","7jpjl9ykmr","ms1000291","iti","","null","img/motor_6.png","74","motor","","","","","","",""
"523","","680136","HierDycvhquekj","7jpjl9ykmr","ms1000291","motor","","75","img/motor_7.png","75","motor","7","308","1","0","0","",""
"null","","680245","HierDycvhquekj","7jpjl9ykmr","ms1000291","iti","","null","img/motor_7.png","75","motor","","","","","","",""
"643","","680903","HierDycvhquekj","7jpjl9ykmr","ms1000291","motor","","70","img/motor_4.png","70","motor","4","309","1","0","0","",""
"null","","681019","HierDycvhquekj","7jpjl9ykmr","ms1000291","iti","","null","img/motor_4.png","70","motor","","","","","","",""
"524","","681558","HierDycvhquekj","7jpjl9ykmr","ms1000291","motor","","76","img/motor_8.png","76","motor","8","310","1","0","0","",""
"null","","681668","HierDycvhquekj","7jpjl9ykmr","ms1000291","iti","","null","img/motor_8.png","76","motor","","","","","","",""
"652","","682328","HierDycvhquekj","7jpjl9ykmr","ms1000291","motor","","83","img/motor_2.png","83","motor","2","311","1","0","0","",""
"null","","682443","HierDycvhquekj","7jpjl9ykmr","ms1000291","iti","","null","img/motor_2.png","83","motor","","","","","","",""
"484","","682936","HierDycvhquekj","7jpjl9ykmr","ms1000291","motor","","68","img/motor_3.png","68","motor","3","312","1","0","0","",""
"null","","683051","HierDycvhquekj","7jpjl9ykmr","ms1000291","iti","","null","img/motor_3.png","68","motor","","","","","","",""
"524","","683590","HierDycvhquekj","7jpjl9ykmr","ms1000291","motor","","83","img/motor_2.png","83","motor","2","313","1","0","0","",""
"null","","683707","HierDycvhquekj","7jpjl9ykmr","ms1000291","iti","","null","img/motor_2.png","83","motor","","","","","","",""
"532","","684254","HierDycvhquekj","7jpjl9ykmr","ms1000291","motor","","76","img/motor_8.png","76","motor","8","314","1","0","0","",""
"null","","684363","HierDycvhquekj","7jpjl9ykmr","ms1000291","iti","","null","img/motor_8.png","76","motor","","","","","","",""
"532","","684910","HierDycvhquekj","7jpjl9ykmr","ms1000291","motor","","72","img/motor_5.png","72","motor","5","315","1","0","0","",""
"null","","685026","HierDycvhquekj","7jpjl9ykmr","ms1000291","iti","","null","img/motor_5.png","72","motor","","","","","","",""
"516","","685551","HierDycvhquekj","7jpjl9ykmr","ms1000291","motor","","68","img/motor_3.png","68","motor","3","316","1","0","0","",""
"null","","685666","HierDycvhquekj","7jpjl9ykmr","ms1000291","iti","","null","img/motor_3.png","68","motor","","","","","","",""
"492","","686175","HierDycvhquekj","7jpjl9ykmr","ms1000291","motor","","83","img/motor_2.png","83","motor","2","317","1","0","0","",""
"null","","686291","HierDycvhquekj","7jpjl9ykmr","ms1000291","iti","","null","img/motor_2.png","83","motor","","","","","","",""
"549","","686854","HierDycvhquekj","7jpjl9ykmr","ms1000291","motor","","76","img/motor_8.png","76","motor","8","318","1","0","0","",""
"null","","686971","HierDycvhquekj","7jpjl9ykmr","ms1000291","iti","","null","img/motor_8.png","76","motor","","","","","","",""
"620","","687607","HierDycvhquekj","7jpjl9ykmr","ms1000291","motor","","75","img/motor_7.png","75","motor","7","319","1","0","0","",""
"null","","687723","HierDycvhquekj","7jpjl9ykmr","ms1000291","iti","","null","img/motor_7.png","75","motor","","","","","","",""
"628","","688367","HierDycvhquekj","7jpjl9ykmr","ms1000291","motor","","70","img/motor_4.png","70","motor","4","320","1","0","0","",""
"null","","688483","HierDycvhquekj","7jpjl9ykmr","ms1000291","iti","","null","img/motor_4.png","70","motor","","","","","","",""
"355","","688854","HierDycvhquekj","7jpjl9ykmr","ms1000291","motor","","68","img/motor_3.png","68","motor","3","321","1","0","0","",""
"null","","688963","HierDycvhquekj","7jpjl9ykmr","ms1000291","iti","","null","img/motor_3.png","68","motor","","","","","","",""
"900","","689871","HierDycvhquekj","7jpjl9ykmr","ms1000291","motor","","75","img/motor_7.png","75","motor","7","322","1","0","0","",""
"null","","689987","HierDycvhquekj","7jpjl9ykmr","ms1000291","iti","","null","img/motor_7.png","75","motor","","","","","","",""
"580","","690575","HierDycvhquekj","7jpjl9ykmr","ms1000291","motor","","75","img/motor_7.png","75","motor","7","323","1","0","0","",""
"null","","690691","HierDycvhquekj","7jpjl9ykmr","ms1000291","iti","","null","img/motor_7.png","75","motor","","","","","","",""
"547","","691248","HierDycvhquekj","7jpjl9ykmr","ms1000291","motor","","65","img/motor_1.png","65","motor","1","324","1","0","0","",""
"null","","691357","HierDycvhquekj","7jpjl9ykmr","ms1000291","iti","","null","img/motor_1.png","65","motor","","","","","","",""
"578","","691943","HierDycvhquekj","7jpjl9ykmr","ms1000291","motor","","74","img/motor_6.png","74","motor","6","325","1","0","0","",""
"null","","692052","HierDycvhquekj","7jpjl9ykmr","ms1000291","iti","","null","img/motor_6.png","74","motor","","","","","","",""
"515","","692575","HierDycvhquekj","7jpjl9ykmr","ms1000291","motor","","70","img/motor_4.png","70","motor","4","326","1","0","0","",""
"null","","692690","HierDycvhquekj","7jpjl9ykmr","ms1000291","iti","","null","img/motor_4.png","70","motor","","","","","","",""
"421","","693127","HierDycvhquekj","7jpjl9ykmr","ms1000291","motor","","72","img/motor_5.png","72","motor","5","327","1","0","0","",""
"null","","693236","HierDycvhquekj","7jpjl9ykmr","ms1000291","iti","","null","img/motor_5.png","72","motor","","","","","","",""
"468","","693712","HierDycvhquekj","7jpjl9ykmr","ms1000291","motor","","65","img/motor_1.png","65","motor","1","328","1","0","0","",""
"null","","693820","HierDycvhquekj","7jpjl9ykmr","ms1000291","iti","","null","img/motor_1.png","65","motor","","","","","","",""
"667","","694502","HierDycvhquekj","7jpjl9ykmr","ms1000291","motor","","74","img/motor_6.png","74","motor","6","329","1","0","0","",""
"null","","694618","HierDycvhquekj","7jpjl9ykmr","ms1000291","iti","","null","img/motor_6.png","74","motor","","","","","","",""
"468","","695095","HierDycvhquekj","7jpjl9ykmr","ms1000291","motor","","72","img/motor_6.png","74","motor","6","330","0","1","0","",""
"384","","695488","HierDycvhquekj","7jpjl9ykmr","ms1000291","motorRepeat","","74","img/motor_6.png","74","motor","6","330","1","0","0","",""
"null","","695603","HierDycvhquekj","7jpjl9ykmr","ms1000291","iti","","null","img/motor_6.png","74","motor","","","","","","",""
"539","","696152","HierDycvhquekj","7jpjl9ykmr","ms1000291","motor","","68","img/motor_4.png","70","motor","4","331","0","1","0","",""
"120","","696280","HierDycvhquekj","7jpjl9ykmr","ms1000291","motorRepeat","","70","img/motor_4.png","70","motor","4","331","1","0","0","",""
"null","","696389","HierDycvhquekj","7jpjl9ykmr","ms1000291","iti","","null","img/motor_4.png","70","motor","","","","","","",""
"539","","696942","HierDycvhquekj","7jpjl9ykmr","ms1000291","motor","","74","img/motor_6.png","74","motor","6","332","1","0","0","",""
"null","","697059","HierDycvhquekj","7jpjl9ykmr","ms1000291","iti","","null","img/motor_6.png","74","motor","","","","","","",""
"556","","697624","HierDycvhquekj","7jpjl9ykmr","ms1000291","motor","","68","img/motor_3.png","68","motor","3","333","1","0","0","",""
"null","","697732","HierDycvhquekj","7jpjl9ykmr","ms1000291","iti","","null","img/motor_3.png","68","motor","","","","","","",""
"643","","698384","HierDycvhquekj","7jpjl9ykmr","ms1000291","motor","","70","img/motor_4.png","70","motor","4","334","1","0","0","",""
"null","","698500","HierDycvhquekj","7jpjl9ykmr","ms1000291","iti","","null","img/motor_4.png","70","motor","","","","","","",""
"491","","699000","HierDycvhquekj","7jpjl9ykmr","ms1000291","motor","","65","img/motor_1.png","65","motor","1","335","1","0","0","",""
"null","","699108","HierDycvhquekj","7jpjl9ykmr","ms1000291","iti","","null","img/motor_1.png","65","motor","","","","","","",""
"723","","699841","HierDycvhquekj","7jpjl9ykmr","ms1000291","motor","","75","img/motor_7.png","75","motor","7","336","1","0","0","",""
"null","","699949","HierDycvhquekj","7jpjl9ykmr","ms1000291","iti","","null","img/motor_7.png","75","motor","","","","","","",""
"418","","700383","HierDycvhquekj","7jpjl9ykmr","ms1000291","motor","","72","img/motor_5.png","72","motor","5","337","1","0","0","",""
"null","","700500","HierDycvhquekj","7jpjl9ykmr","ms1000291","iti","","null","img/motor_5.png","72","motor","","","","","","",""
"619","","701134","HierDycvhquekj","7jpjl9ykmr","ms1000291","motor","","83","img/motor_2.png","83","motor","2","338","1","0","0","",""
"null","","701250","HierDycvhquekj","7jpjl9ykmr","ms1000291","iti","","null","img/motor_2.png","83","motor","","","","","","",""
"445","","701711","HierDycvhquekj","7jpjl9ykmr","ms1000291","motor","","83","img/motor_2.png","83","motor","2","339","1","0","0","",""
"null","","701828","HierDycvhquekj","7jpjl9ykmr","ms1000291","iti","","null","img/motor_2.png","83","motor","","","","","","",""
"412","","702256","HierDycvhquekj","7jpjl9ykmr","ms1000291","motor","","68","img/motor_3.png","68","motor","3","340","1","0","0","",""
"null","","702365","HierDycvhquekj","7jpjl9ykmr","ms1000291","iti","","null","img/motor_3.png","68","motor","","","","","","",""
"475","","702855","HierDycvhquekj","7jpjl9ykmr","ms1000291","motor","","76","img/motor_8.png","76","motor","8","341","1","0","0","",""
"null","","702965","HierDycvhquekj","7jpjl9ykmr","ms1000291","iti","","null","img/motor_8.png","76","motor","","","","","","",""
"460","","703432","HierDycvhquekj","7jpjl9ykmr","ms1000291","motor","","83","img/motor_2.png","83","motor","2","342","1","0","0","",""
"null","","703540","HierDycvhquekj","7jpjl9ykmr","ms1000291","iti","","null","img/motor_2.png","83","motor","","","","","","",""
"459","","704014","HierDycvhquekj","7jpjl9ykmr","ms1000291","motor","","70","img/motor_4.png","70","motor","4","343","1","0","0","",""
"null","","704131","HierDycvhquekj","7jpjl9ykmr","ms1000291","iti","","null","img/motor_4.png","70","motor","","","","","","",""
"572","","704712","HierDycvhquekj","7jpjl9ykmr","ms1000291","motor","","74","img/motor_6.png","74","motor","6","344","1","0","0","",""
"null","","704827","HierDycvhquekj","7jpjl9ykmr","ms1000291","iti","","null","img/motor_6.png","74","motor","","","","","","",""
"443","","705287","HierDycvhquekj","7jpjl9ykmr","ms1000291","motor","","70","img/motor_4.png","70","motor","4","345","1","0","0","",""
"null","","705403","HierDycvhquekj","7jpjl9ykmr","ms1000291","iti","","null","img/motor_4.png","70","motor","","","","","","",""
"437","","705848","HierDycvhquekj","7jpjl9ykmr","ms1000291","motor","","72","img/motor_5.png","72","motor","5","346","1","0","0","",""
"null","","705956","HierDycvhquekj","7jpjl9ykmr","ms1000291","iti","","null","img/motor_5.png","72","motor","","","","","","",""
"403","","706367","HierDycvhquekj","7jpjl9ykmr","ms1000291","motor","","74","img/motor_6.png","74","motor","6","347","1","0","0","",""
"null","","706483","HierDycvhquekj","7jpjl9ykmr","ms1000291","iti","","null","img/motor_6.png","74","motor","","","","","","",""
"468","","706960","HierDycvhquekj","7jpjl9ykmr","ms1000291","motor","","65","img/motor_1.png","65","motor","1","348","1","0","0","",""
"null","","707076","HierDycvhquekj","7jpjl9ykmr","ms1000291","iti","","null","img/motor_1.png","65","motor","","","","","","",""
"483","","707576","HierDycvhquekj","7jpjl9ykmr","ms1000291","motor","","72","img/motor_5.png","72","motor","5","349","1","0","0","",""
