"rt","responses","time_elapsed","subject","prolificID","demoID","trialType","question_order","key_press","stim","corrresp","phase","stimNum","trialNum","corr","repeatTrial","motorSwitch","pracCounter","hierarchy"
"57332","{""Q0"":""ms1000278""}","57364","HierDytppjxnbv","e4dd8p3hbb","ms1000278","","","","","","","","","","","","",""
"1237","","58610","HierDytppjxnbv","e4dd8p3hbb","ms1000278","","","","","","","","","","","","",""
"","","61473","HierDytppjxnbv","e4dd8p3hbb","ms1000278","fullscreen","","","","","","","","","","","",""
"24947","{""Vision"":""Yes"",""Handedness"":""Right"",""Gender"":""male""}","86440","HierDytppjxnbv","e4dd8p3hbb","ms1000278","","[0,1,2]","","","","","","","","","","",""
"2113","{""Q0"":""18""}","88565","HierDytppjxnbv","e4dd8p3hbb","ms1000278","","","","","","","","","","","","",""
"109820","","198395","HierDytppjxnbv","e4dd8p3hbb","ms1000278","","","","","","","","","","","","",""
"765","","199168","HierDytppjxnbv","e4dd8p3hbb","ms1000278","motor","","70","img/motor_4.png","70","motor","4","1","1","0","0","",""
"null","","199277","HierDytppjxnbv","e4dd8p3hbb","ms1000278","iti","","null","img/motor_4.png","70","motor","","","","","","",""
"444","","199735","HierDytppjxnbv","e4dd8p3hbb","ms1000278","motor","","65","img/motor_1.png","65","motor","1","2","1","0","0","",""
"null","","199844","HierDytppjxnbv","e4dd8p3hbb","ms1000278","iti","","null","img/motor_1.png","65","motor","","","","","","",""
"357","","200208","HierDytppjxnbv","e4dd8p3hbb","ms1000278","motor","","65","img/motor_1.png","65","motor","1","3","1","0","0","",""
"null","","200322","HierDytppjxnbv","e4dd8p3hbb","ms1000278","iti","","null","img/motor_1.png","65","motor","","","","","","",""
"430","","200760","HierDytppjxnbv","e4dd8p3hbb","ms1000278","motor","","72","img/motor_5.png","72","motor","5","4","1","0","0","",""
"null","","200869","HierDytppjxnbv","e4dd8p3hbb","ms1000278","iti","","null","img/motor_5.png","72","motor","","","","","","",""
"420","","201297","HierDytppjxnbv","e4dd8p3hbb","ms1000278","motor","","76","img/motor_8.png","76","motor","8","5","1","0","0","",""
"null","","201405","HierDytppjxnbv","e4dd8p3hbb","ms1000278","iti","","null","img/motor_8.png","76","motor","","","","","","",""
"324","","201736","HierDytppjxnbv","e4dd8p3hbb","ms1000278","motor","","72","img/motor_5.png","72","motor","5","6","1","0","0","",""
"null","","201850","HierDytppjxnbv","e4dd8p3hbb","ms1000278","iti","","null","img/motor_5.png","72","motor","","","","","","",""
"326","","202184","HierDytppjxnbv","e4dd8p3hbb","ms1000278","motor","","65","img/motor_1.png","65","motor","1","7","1","0","0","",""
"null","","202292","HierDytppjxnbv","e4dd8p3hbb","ms1000278","iti","","null","img/motor_1.png","65","motor","","","","","","",""
"363","","202664","HierDytppjxnbv","e4dd8p3hbb","ms1000278","motor","","72","img/motor_5.png","72","motor","5","8","1","0","0","",""
"null","","202778","HierDytppjxnbv","e4dd8p3hbb","ms1000278","iti","","null","img/motor_5.png","72","motor","","","","","","",""
"446","","203238","HierDytppjxnbv","e4dd8p3hbb","ms1000278","motor","","74","img/motor_6.png","74","motor","6","9","1","0","0","",""
"null","","203353","HierDytppjxnbv","e4dd8p3hbb","ms1000278","iti","","null","img/motor_6.png","74","motor","","","","","","",""
"343","","203711","HierDytppjxnbv","e4dd8p3hbb","ms1000278","motor","","75","img/motor_8.png","76","motor","8","10","0","1","0","",""
"208","","203934","HierDytppjxnbv","e4dd8p3hbb","ms1000278","motorRepeat","","76","img/motor_8.png","76","motor","8","10","1","0","0","",""
"null","","204043","HierDytppjxnbv","e4dd8p3hbb","ms1000278","iti","","null","img/motor_8.png","76","motor","","","","","","",""
"486","","204536","HierDytppjxnbv","e4dd8p3hbb","ms1000278","motor","","75","img/motor_7.png","75","motor","7","11","1","0","0","",""
"null","","204651","HierDytppjxnbv","e4dd8p3hbb","ms1000278","iti","","null","img/motor_7.png","75","motor","","","","","","",""
"621","","205280","HierDytppjxnbv","e4dd8p3hbb","ms1000278","motor","","83","img/motor_2.png","83","motor","2","12","1","0","0","",""
"null","","205388","HierDytppjxnbv","e4dd8p3hbb","ms1000278","iti","","null","img/motor_2.png","83","motor","","","","","","",""
"412","","205808","HierDytppjxnbv","e4dd8p3hbb","ms1000278","motor","","72","img/motor_5.png","72","motor","5","13","1","0","0","",""
"null","","205915","HierDytppjxnbv","e4dd8p3hbb","ms1000278","iti","","null","img/motor_5.png","72","motor","","","","","","",""
"461","","206384","HierDytppjxnbv","e4dd8p3hbb","ms1000278","motor","","70","img/motor_4.png","70","motor","4","14","1","0","0","",""
"null","","206499","HierDytppjxnbv","e4dd8p3hbb","ms1000278","iti","","null","img/motor_4.png","70","motor","","","","","","",""
"372","","206880","HierDytppjxnbv","e4dd8p3hbb","ms1000278","motor","","65","img/motor_1.png","65","motor","1","15","1","0","0","",""
"null","","206989","HierDytppjxnbv","e4dd8p3hbb","ms1000278","iti","","null","img/motor_1.png","65","motor","","","","","","",""
"516","","207513","HierDytppjxnbv","e4dd8p3hbb","ms1000278","motor","","68","img/motor_3.png","68","motor","3","16","1","0","0","",""
"null","","207621","HierDytppjxnbv","e4dd8p3hbb","ms1000278","iti","","null","img/motor_3.png","68","motor","","","","","","",""
"516","","208144","HierDytppjxnbv","e4dd8p3hbb","ms1000278","motor","","75","img/motor_7.png","75","motor","7","17","1","0","0","",""
"null","","208252","HierDytppjxnbv","e4dd8p3hbb","ms1000278","iti","","null","img/motor_7.png","75","motor","","","","","","",""
"668","","208928","HierDytppjxnbv","e4dd8p3hbb","ms1000278","motor","","83","img/motor_2.png","83","motor","2","18","1","0","0","",""
"null","","209037","HierDytppjxnbv","e4dd8p3hbb","ms1000278","iti","","null","img/motor_2.png","83","motor","","","","","","",""
"444","","209494","HierDytppjxnbv","e4dd8p3hbb","ms1000278","motor","","83","img/motor_2.png","83","motor","2","19","1","0","0","",""
"null","","209609","HierDytppjxnbv","e4dd8p3hbb","ms1000278","iti","","null","img/motor_2.png","83","motor","","","","","","",""
"207","","209823","HierDytppjxnbv","e4dd8p3hbb","ms1000278","motor","","83","img/motor_3.png","68","motor","3","20","0","1","0","",""
"297","","210127","HierDytppjxnbv","e4dd8p3hbb","ms1000278","motorRepeat","","68","img/motor_3.png","68","motor","3","20","1","0","0","",""
"null","","210242","HierDytppjxnbv","e4dd8p3hbb","ms1000278","iti","","null","img/motor_3.png","68","motor","","","","","","",""
"422","","210672","HierDytppjxnbv","e4dd8p3hbb","ms1000278","motor","","72","img/motor_5.png","72","motor","5","21","1","0","0","",""
"null","","210786","HierDytppjxnbv","e4dd8p3hbb","ms1000278","iti","","null","img/motor_5.png","72","motor","","","","","","",""
"359","","211151","HierDytppjxnbv","e4dd8p3hbb","ms1000278","motor","","76","img/motor_8.png","76","motor","8","22","1","0","0","",""
"null","","211266","HierDytppjxnbv","e4dd8p3hbb","ms1000278","iti","","null","img/motor_8.png","76","motor","","","","","","",""
"518","","211792","HierDytppjxnbv","e4dd8p3hbb","ms1000278","motor","","70","img/motor_4.png","70","motor","4","23","1","0","0","",""
"null","","211907","HierDytppjxnbv","e4dd8p3hbb","ms1000278","iti","","null","img/motor_4.png","70","motor","","","","","","",""
"365","","212280","HierDytppjxnbv","e4dd8p3hbb","ms1000278","motor","","70","img/motor_4.png","70","motor","4","24","1","0","0","",""
"null","","212394","HierDytppjxnbv","e4dd8p3hbb","ms1000278","iti","","null","img/motor_4.png","70","motor","","","","","","",""
"469","","212878","HierDytppjxnbv","e4dd8p3hbb","ms1000278","motor","","68","img/motor_3.png","68","motor","3","25","1","0","0","",""
"null","","212987","HierDytppjxnbv","e4dd8p3hbb","ms1000278","iti","","null","img/motor_3.png","68","motor","","","","","","",""
"397","","213398","HierDytppjxnbv","e4dd8p3hbb","ms1000278","motor","","76","img/motor_8.png","76","motor","8","26","1","0","0","",""
"null","","213513","HierDytppjxnbv","e4dd8p3hbb","ms1000278","iti","","null","img/motor_8.png","76","motor","","","","","","",""
"718","","214240","HierDytppjxnbv","e4dd8p3hbb","ms1000278","motor","","72","img/motor_5.png","72","motor","5","27","1","0","0","",""
"null","","214349","HierDytppjxnbv","e4dd8p3hbb","ms1000278","iti","","null","img/motor_5.png","72","motor","","","","","","",""
"388","","214750","HierDytppjxnbv","e4dd8p3hbb","ms1000278","motor","","72","img/motor_5.png","72","motor","5","28","1","0","0","",""
"null","","214866","HierDytppjxnbv","e4dd8p3hbb","ms1000278","iti","","null","img/motor_5.png","72","motor","","","","","","",""
"415","","215288","HierDytppjxnbv","e4dd8p3hbb","ms1000278","motor","","74","img/motor_6.png","74","motor","6","29","1","0","0","",""
"null","","215403","HierDytppjxnbv","e4dd8p3hbb","ms1000278","iti","","null","img/motor_6.png","74","motor","","","","","","",""
"389","","215800","HierDytppjxnbv","e4dd8p3hbb","ms1000278","motor","","72","img/motor_5.png","72","motor","5","30","1","0","0","",""
"null","","215914","HierDytppjxnbv","e4dd8p3hbb","ms1000278","iti","","null","img/motor_5.png","72","motor","","","","","","",""
"527","","216447","HierDytppjxnbv","e4dd8p3hbb","ms1000278","motor","","68","img/motor_3.png","68","motor","3","31","1","0","0","",""
"null","","216556","HierDytppjxnbv","e4dd8p3hbb","ms1000278","iti","","null","img/motor_3.png","68","motor","","","","","","",""
"693","","217256","HierDytppjxnbv","e4dd8p3hbb","ms1000278","motor","","72","img/motor_5.png","72","motor","5","32","1","0","0","",""
"null","","217364","HierDytppjxnbv","e4dd8p3hbb","ms1000278","iti","","null","img/motor_5.png","72","motor","","","","","","",""
"932","","218303","HierDytppjxnbv","e4dd8p3hbb","ms1000278","motor","","68","img/motor_3.png","68","motor","3","33","1","0","0","",""
"null","","218410","HierDytppjxnbv","e4dd8p3hbb","ms1000278","iti","","null","img/motor_3.png","68","motor","","","","","","",""
"373","","218793","HierDytppjxnbv","e4dd8p3hbb","ms1000278","motor","","65","img/motor_1.png","65","motor","1","34","1","0","0","",""
"null","","218907","HierDytppjxnbv","e4dd8p3hbb","ms1000278","iti","","null","img/motor_1.png","65","motor","","","","","","",""
"452","","219368","HierDytppjxnbv","e4dd8p3hbb","ms1000278","motor","","83","img/motor_2.png","83","motor","2","35","1","0","0","",""
"null","","219477","HierDytppjxnbv","e4dd8p3hbb","ms1000278","iti","","null","img/motor_2.png","83","motor","","","","","","",""
"370","","219851","HierDytppjxnbv","e4dd8p3hbb","ms1000278","motor","","83","img/motor_2.png","83","motor","2","36","1","0","0","",""
"null","","219962","HierDytppjxnbv","e4dd8p3hbb","ms1000278","iti","","null","img/motor_2.png","83","motor","","","","","","",""
"446","","220415","HierDytppjxnbv","e4dd8p3hbb","ms1000278","motor","","76","img/motor_8.png","76","motor","8","37","1","0","0","",""
"null","","220523","HierDytppjxnbv","e4dd8p3hbb","ms1000278","iti","","null","img/motor_8.png","76","motor","","","","","","",""
"461","","220998","HierDytppjxnbv","e4dd8p3hbb","ms1000278","motor","","68","img/motor_3.png","68","motor","3","38","1","0","0","",""
"null","","221108","HierDytppjxnbv","e4dd8p3hbb","ms1000278","iti","","null","img/motor_3.png","68","motor","","","","","","",""
"501","","221616","HierDytppjxnbv","e4dd8p3hbb","ms1000278","motor","","75","img/motor_6.png","74","motor","6","39","0","1","0","",""
"265","","221894","HierDytppjxnbv","e4dd8p3hbb","ms1000278","motorRepeat","","74","img/motor_6.png","74","motor","6","39","1","0","0","",""
"null","","222009","HierDytppjxnbv","e4dd8p3hbb","ms1000278","iti","","null","img/motor_6.png","74","motor","","","","","","",""
"414","","222432","HierDytppjxnbv","e4dd8p3hbb","ms1000278","motor","","68","img/motor_3.png","68","motor","3","40","1","0","0","",""
"null","","222540","HierDytppjxnbv","e4dd8p3hbb","ms1000278","iti","","null","img/motor_3.png","68","motor","","","","","","",""
"484","","223032","HierDytppjxnbv","e4dd8p3hbb","ms1000278","motor","","83","img/motor_2.png","83","motor","2","41","1","0","0","",""
"null","","223147","HierDytppjxnbv","e4dd8p3hbb","ms1000278","iti","","null","img/motor_2.png","83","motor","","","","","","",""
"452","","223607","HierDytppjxnbv","e4dd8p3hbb","ms1000278","motor","","68","img/motor_3.png","68","motor","3","42","1","0","0","",""
"null","","223721","HierDytppjxnbv","e4dd8p3hbb","ms1000278","iti","","null","img/motor_3.png","68","motor","","","","","","",""
"391","","224119","HierDytppjxnbv","e4dd8p3hbb","ms1000278","motor","","65","img/motor_1.png","65","motor","1","43","1","0","0","",""
"null","","224234","HierDytppjxnbv","e4dd8p3hbb","ms1000278","iti","","null","img/motor_1.png","65","motor","","","","","","",""
"551","","224793","HierDytppjxnbv","e4dd8p3hbb","ms1000278","motor","","83","img/motor_2.png","83","motor","2","44","1","0","0","",""
"null","","224901","HierDytppjxnbv","e4dd8p3hbb","ms1000278","iti","","null","img/motor_2.png","83","motor","","","","","","",""
"444","","225353","HierDytppjxnbv","e4dd8p3hbb","ms1000278","motor","","65","img/motor_1.png","65","motor","1","45","1","0","0","",""
"null","","225467","HierDytppjxnbv","e4dd8p3hbb","ms1000278","iti","","null","img/motor_1.png","65","motor","","","","","","",""
"444","","225920","HierDytppjxnbv","e4dd8p3hbb","ms1000278","motor","","72","img/motor_5.png","72","motor","5","46","1","0","0","",""
"null","","226035","HierDytppjxnbv","e4dd8p3hbb","ms1000278","iti","","null","img/motor_5.png","72","motor","","","","","","",""
"381","","226424","HierDytppjxnbv","e4dd8p3hbb","ms1000278","motor","","65","img/motor_1.png","65","motor","1","47","1","0","0","",""
"null","","226539","HierDytppjxnbv","e4dd8p3hbb","ms1000278","iti","","null","img/motor_1.png","65","motor","","","","","","",""
"364","","226918","HierDytppjxnbv","e4dd8p3hbb","ms1000278","motor","","76","img/motor_8.png","76","motor","8","48","1","0","0","",""
"null","","227034","HierDytppjxnbv","e4dd8p3hbb","ms1000278","iti","","null","img/motor_8.png","76","motor","","","","","","",""
"437","","227487","HierDytppjxnbv","e4dd8p3hbb","ms1000278","motor","","74","img/motor_6.png","74","motor","6","49","1","0","0","",""
"null","","227602","HierDytppjxnbv","e4dd8p3hbb","ms1000278","iti","","null","img/motor_6.png","74","motor","","","","","","",""
"366","","227976","HierDytppjxnbv","e4dd8p3hbb","ms1000278","motor","","65","img/motor_1.png","65","motor","1","50","1","0","0","",""
"null","","228090","HierDytppjxnbv","e4dd8p3hbb","ms1000278","iti","","null","img/motor_1.png","65","motor","","","","","","",""
"372","","228479","HierDytppjxnbv","e4dd8p3hbb","ms1000278","motor","","76","img/motor_8.png","76","motor","8","51","1","0","0","",""
"null","","228593","HierDytppjxnbv","e4dd8p3hbb","ms1000278","iti","","null","img/motor_8.png","76","motor","","","","","","",""
"487","","229095","HierDytppjxnbv","e4dd8p3hbb","ms1000278","motor","","70","img/motor_4.png","70","motor","4","52","1","0","0","",""
"null","","229203","HierDytppjxnbv","e4dd8p3hbb","ms1000278","iti","","null","img/motor_4.png","70","motor","","","","","","",""
"429","","229647","HierDytppjxnbv","e4dd8p3hbb","ms1000278","motor","","72","img/motor_5.png","72","motor","5","53","1","0","0","",""
"null","","229762","HierDytppjxnbv","e4dd8p3hbb","ms1000278","iti","","null","img/motor_5.png","72","motor","","","","","","",""
"333","","230111","HierDytppjxnbv","e4dd8p3hbb","ms1000278","motor","","72","img/motor_5.png","72","motor","5","54","1","0","0","",""
"null","","230225","HierDytppjxnbv","e4dd8p3hbb","ms1000278","iti","","null","img/motor_5.png","72","motor","","","","","","",""
"358","","230592","HierDytppjxnbv","e4dd8p3hbb","ms1000278","motor","","75","img/motor_7.png","75","motor","7","55","1","0","0","",""
"null","","230706","HierDytppjxnbv","e4dd8p3hbb","ms1000278","iti","","null","img/motor_7.png","75","motor","","","","","","",""
"447","","231160","HierDytppjxnbv","e4dd8p3hbb","ms1000278","motor","","65","img/motor_1.png","65","motor","1","56","1","0","0","",""
"null","","231274","HierDytppjxnbv","e4dd8p3hbb","ms1000278","iti","","null","img/motor_1.png","65","motor","","","","","","",""
"486","","231775","HierDytppjxnbv","e4dd8p3hbb","ms1000278","motor","","74","img/motor_6.png","74","motor","6","57","1","0","0","",""
"8","","231890","HierDytppjxnbv","e4dd8p3hbb","ms1000278","iti","","75","img/motor_6.png","74","motor","","","","","","",""
"407","","232310","HierDytppjxnbv","e4dd8p3hbb","ms1000278","motor","","76","img/motor_8.png","76","motor","8","58","1","0","0","",""
"null","","232420","HierDytppjxnbv","e4dd8p3hbb","ms1000278","iti","","null","img/motor_8.png","76","motor","","","","","","",""
"613","","233041","HierDytppjxnbv","e4dd8p3hbb","ms1000278","motor","","68","img/motor_2.png","83","motor","2","59","0","1","0","",""
"200","","233248","HierDytppjxnbv","e4dd8p3hbb","ms1000278","motorRepeat","","83","img/motor_2.png","83","motor","2","59","1","0","0","",""
"null","","233356","HierDytppjxnbv","e4dd8p3hbb","ms1000278","iti","","null","img/motor_2.png","83","motor","","","","","","",""
"356","","233720","HierDytppjxnbv","e4dd8p3hbb","ms1000278","motor","","83","img/motor_1.png","65","motor","1","60","0","1","0","",""
"113","","233847","HierDytppjxnbv","e4dd8p3hbb","ms1000278","motorRepeat","","65","img/motor_1.png","65","motor","1","60","1","0","0","",""
"null","","233961","HierDytppjxnbv","e4dd8p3hbb","ms1000278","iti","","null","img/motor_1.png","65","motor","","","","","","",""
"405","","234383","HierDytppjxnbv","e4dd8p3hbb","ms1000278","motor","","70","img/motor_4.png","70","motor","4","61","1","0","0","",""
"null","","234497","HierDytppjxnbv","e4dd8p3hbb","ms1000278","iti","","null","img/motor_4.png","70","motor","","","","","","",""
"478","","234991","HierDytppjxnbv","e4dd8p3hbb","ms1000278","motor","","83","img/motor_2.png","83","motor","2","62","1","0","0","",""
"null","","235099","HierDytppjxnbv","e4dd8p3hbb","ms1000278","iti","","null","img/motor_2.png","83","motor","","","","","","",""
"454","","235559","HierDytppjxnbv","e4dd8p3hbb","ms1000278","motor","","68","img/motor_3.png","68","motor","3","63","1","0","0","",""
"null","","235674","HierDytppjxnbv","e4dd8p3hbb","ms1000278","iti","","null","img/motor_3.png","68","motor","","","","","","",""
"365","","236046","HierDytppjxnbv","e4dd8p3hbb","ms1000278","motor","","70","img/motor_4.png","70","motor","4","64","1","0","0","",""
"null","","236160","HierDytppjxnbv","e4dd8p3hbb","ms1000278","iti","","null","img/motor_4.png","70","motor","","","","","","",""
"464","","236639","HierDytppjxnbv","e4dd8p3hbb","ms1000278","motor","","74","img/motor_6.png","74","motor","6","65","1","0","0","",""
"null","","236754","HierDytppjxnbv","e4dd8p3hbb","ms1000278","iti","","null","img/motor_6.png","74","motor","","","","","","",""
"509","","237279","HierDytppjxnbv","e4dd8p3hbb","ms1000278","motor","","83","img/motor_2.png","83","motor","2","66","1","0","0","",""
"null","","237388","HierDytppjxnbv","e4dd8p3hbb","ms1000278","iti","","null","img/motor_2.png","83","motor","","","","","","",""
"548","","237951","HierDytppjxnbv","e4dd8p3hbb","ms1000278","motor","","74","img/motor_6.png","74","motor","6","67","1","0","0","",""
"null","","238066","HierDytppjxnbv","e4dd8p3hbb","ms1000278","iti","","null","img/motor_6.png","74","motor","","","","","","",""
"405","","238487","HierDytppjxnbv","e4dd8p3hbb","ms1000278","motor","","76","img/motor_8.png","76","motor","8","68","1","0","0","",""
"null","","238602","HierDytppjxnbv","e4dd8p3hbb","ms1000278","iti","","null","img/motor_8.png","76","motor","","","","","","",""
"479","","239088","HierDytppjxnbv","e4dd8p3hbb","ms1000278","motor","","75","img/motor_7.png","75","motor","7","69","1","0","0","",""
"null","","239196","HierDytppjxnbv","e4dd8p3hbb","ms1000278","iti","","null","img/motor_7.png","75","motor","","","","","","",""
"412","","239616","HierDytppjxnbv","e4dd8p3hbb","ms1000278","motor","","75","img/motor_7.png","75","motor","7","70","1","0","0","",""
"null","","239730","HierDytppjxnbv","e4dd8p3hbb","ms1000278","iti","","null","img/motor_7.png","75","motor","","","","","","",""
"485","","240224","HierDytppjxnbv","e4dd8p3hbb","ms1000278","motor","","83","img/motor_2.png","83","motor","2","71","1","0","0","",""
"null","","240339","HierDytppjxnbv","e4dd8p3hbb","ms1000278","iti","","null","img/motor_2.png","83","motor","","","","","","",""
"430","","240777","HierDytppjxnbv","e4dd8p3hbb","ms1000278","motor","","75","img/motor_7.png","75","motor","7","72","1","0","0","",""
"null","","240891","HierDytppjxnbv","e4dd8p3hbb","ms1000278","iti","","null","img/motor_7.png","75","motor","","","","","","",""
"493","","241393","HierDytppjxnbv","e4dd8p3hbb","ms1000278","motor","","70","img/motor_4.png","70","motor","4","73","1","0","0","",""
"null","","241507","HierDytppjxnbv","e4dd8p3hbb","ms1000278","iti","","null","img/motor_4.png","70","motor","","","","","","",""
"389","","241911","HierDytppjxnbv","e4dd8p3hbb","ms1000278","motor","","72","img/motor_5.png","72","motor","5","74","1","0","0","",""
"null","","242026","HierDytppjxnbv","e4dd8p3hbb","ms1000278","iti","","null","img/motor_5.png","72","motor","","","","","","",""
"494","","242530","HierDytppjxnbv","e4dd8p3hbb","ms1000278","motor","","83","img/motor_2.png","83","motor","2","75","1","0","0","",""
"null","","242644","HierDytppjxnbv","e4dd8p3hbb","ms1000278","iti","","null","img/motor_2.png","83","motor","","","","","","",""
"332","","242984","HierDytppjxnbv","e4dd8p3hbb","ms1000278","motor","","75","img/motor_7.png","75","motor","7","76","1","0","0","",""
"null","","243099","HierDytppjxnbv","e4dd8p3hbb","ms1000278","iti","","null","img/motor_7.png","75","motor","","","","","","",""
"333","","243440","HierDytppjxnbv","e4dd8p3hbb","ms1000278","motor","","75","img/motor_8.png","76","motor","8","77","0","1","0","",""
"215","","243664","HierDytppjxnbv","e4dd8p3hbb","ms1000278","motorRepeat","","76","img/motor_8.png","76","motor","8","77","1","0","0","",""
"null","","243772","HierDytppjxnbv","e4dd8p3hbb","ms1000278","iti","","null","img/motor_8.png","76","motor","","","","","","",""
"371","","244149","HierDytppjxnbv","e4dd8p3hbb","ms1000278","motor","","65","img/motor_1.png","65","motor","1","78","1","0","0","",""
"null","","244257","HierDytppjxnbv","e4dd8p3hbb","ms1000278","iti","","null","img/motor_1.png","65","motor","","","","","","",""
"487","","244753","HierDytppjxnbv","e4dd8p3hbb","ms1000278","motor","","74","img/motor_6.png","74","motor","6","79","1","0","0","",""
"null","","244857","HierDytppjxnbv","e4dd8p3hbb","ms1000278","iti","","null","img/motor_6.png","74","motor","","","","","","",""
"574","","245436","HierDytppjxnbv","e4dd8p3hbb","ms1000278","motor","","68","img/motor_3.png","68","motor","3","80","1","0","0","",""
"null","","245541","HierDytppjxnbv","e4dd8p3hbb","ms1000278","iti","","null","img/motor_3.png","68","motor","","","","","","",""
"418","","245964","HierDytppjxnbv","e4dd8p3hbb","ms1000278","motor","","76","img/motor_8.png","76","motor","8","81","1","0","0","",""
"null","","246069","HierDytppjxnbv","e4dd8p3hbb","ms1000278","iti","","null","img/motor_8.png","76","motor","","","","","","",""
"418","","246492","HierDytppjxnbv","e4dd8p3hbb","ms1000278","motor","","65","img/motor_1.png","65","motor","1","82","1","0","0","",""
"null","","246596","HierDytppjxnbv","e4dd8p3hbb","ms1000278","iti","","null","img/motor_1.png","65","motor","","","","","","",""
"539","","247140","HierDytppjxnbv","e4dd8p3hbb","ms1000278","motor","","83","img/motor_2.png","83","motor","2","83","1","0","0","",""
"null","","247245","HierDytppjxnbv","e4dd8p3hbb","ms1000278","iti","","null","img/motor_2.png","83","motor","","","","","","",""
"380","","247627","HierDytppjxnbv","e4dd8p3hbb","ms1000278","motor","","76","img/motor_8.png","76","motor","8","84","1","0","0","",""
"null","","247733","HierDytppjxnbv","e4dd8p3hbb","ms1000278","iti","","null","img/motor_8.png","76","motor","","","","","","",""
"381","","248121","HierDytppjxnbv","e4dd8p3hbb","ms1000278","motor","","83","img/motor_2.png","83","motor","2","85","1","0","0","",""
"null","","248229","HierDytppjxnbv","e4dd8p3hbb","ms1000278","iti","","null","img/motor_2.png","83","motor","","","","","","",""
"499","","248735","HierDytppjxnbv","e4dd8p3hbb","ms1000278","motor","","74","img/motor_6.png","74","motor","6","86","1","0","0","",""
"null","","248841","HierDytppjxnbv","e4dd8p3hbb","ms1000278","iti","","null","img/motor_6.png","74","motor","","","","","","",""
"350","","249198","HierDytppjxnbv","e4dd8p3hbb","ms1000278","motor","","72","img/motor_5.png","72","motor","5","87","1","0","0","",""
"null","","249303","HierDytppjxnbv","e4dd8p3hbb","ms1000278","iti","","null","img/motor_5.png","72","motor","","","","","","",""
"368","","249676","HierDytppjxnbv","e4dd8p3hbb","ms1000278","motor","","74","img/motor_6.png","74","motor","6","88","1","0","0","",""
"null","","249781","HierDytppjxnbv","e4dd8p3hbb","ms1000278","iti","","null","img/motor_6.png","74","motor","","","","","","",""
"396","","250191","HierDytppjxnbv","e4dd8p3hbb","ms1000278","motor","","70","img/motor_4.png","70","motor","4","89","1","0","0","",""
"null","","250300","HierDytppjxnbv","e4dd8p3hbb","ms1000278","iti","","null","img/motor_4.png","70","motor","","","","","","",""
"347","","250652","HierDytppjxnbv","e4dd8p3hbb","ms1000278","motor","","70","img/motor_4.png","70","motor","4","90","1","0","0","",""
"null","","250757","HierDytppjxnbv","e4dd8p3hbb","ms1000278","iti","","null","img/motor_4.png","70","motor","","","","","","",""
"482","","251244","HierDytppjxnbv","e4dd8p3hbb","ms1000278","motor","","75","img/motor_7.png","75","motor","7","91","1","0","0","",""
"null","","251349","HierDytppjxnbv","e4dd8p3hbb","ms1000278","iti","","null","img/motor_7.png","75","motor","","","","","","",""
"380","","251743","HierDytppjxnbv","e4dd8p3hbb","ms1000278","motor","","70","img/motor_4.png","70","motor","4","92","1","0","0","",""
"null","","251858","HierDytppjxnbv","e4dd8p3hbb","ms1000278","iti","","null","img/motor_4.png","70","motor","","","","","","",""
"476","","252345","HierDytppjxnbv","e4dd8p3hbb","ms1000278","motor","","83","img/motor_3.png","68","motor","3","93","0","1","0","",""
"87","","252447","HierDytppjxnbv","e4dd8p3hbb","ms1000278","motorRepeat","","68","img/motor_3.png","68","motor","3","93","1","0","0","",""
"null","","252556","HierDytppjxnbv","e4dd8p3hbb","ms1000278","iti","","null","img/motor_3.png","68","motor","","","","","","",""
"340","","252905","HierDytppjxnbv","e4dd8p3hbb","ms1000278","motor","","83","img/motor_3.png","68","motor","3","94","0","1","0","",""
"321","","253232","HierDytppjxnbv","e4dd8p3hbb","ms1000278","motorRepeat","","68","img/motor_3.png","68","motor","3","94","1","0","0","",""
"null","","253346","HierDytppjxnbv","e4dd8p3hbb","ms1000278","iti","","null","img/motor_3.png","68","motor","","","","","","",""
"500","","253857","HierDytppjxnbv","e4dd8p3hbb","ms1000278","motor","","83","img/motor_2.png","83","motor","2","95","1","0","0","",""
"null","","253971","HierDytppjxnbv","e4dd8p3hbb","ms1000278","iti","","null","img/motor_2.png","83","motor","","","","","","",""
"382","","254360","HierDytppjxnbv","e4dd8p3hbb","ms1000278","motor","","65","img/motor_1.png","65","motor","1","96","1","0","0","",""
"null","","254469","HierDytppjxnbv","e4dd8p3hbb","ms1000278","iti","","null","img/motor_1.png","65","motor","","","","","","",""
"412","","254889","HierDytppjxnbv","e4dd8p3hbb","ms1000278","motor","","76","img/motor_8.png","76","motor","8","97","1","0","0","",""
"null","","254997","HierDytppjxnbv","e4dd8p3hbb","ms1000278","iti","","null","img/motor_8.png","76","motor","","","","","","",""
"404","","255409","HierDytppjxnbv","e4dd8p3hbb","ms1000278","motor","","68","img/motor_2.png","83","motor","2","98","0","1","0","",""
"96","","255520","HierDytppjxnbv","e4dd8p3hbb","ms1000278","motorRepeat","","76","img/motor_2.png","83","motor","2","98","0","1","0","",""
"2","","255528","HierDytppjxnbv","e4dd8p3hbb","ms1000278","motorRepeat","","83","img/motor_2.png","83","motor","2","98","1","0","0","",""
"null","","255643","HierDytppjxnbv","e4dd8p3hbb","ms1000278","iti","","null","img/motor_2.png","83","motor","","","","","","",""
"381","","256033","HierDytppjxnbv","e4dd8p3hbb","ms1000278","motor","","83","img/motor_2.png","83","motor","2","99","1","0","0","",""
"null","","256141","HierDytppjxnbv","e4dd8p3hbb","ms1000278","iti","","null","img/motor_2.png","83","motor","","","","","","",""
"556","","256704","HierDytppjxnbv","e4dd8p3hbb","ms1000278","motor","","75","img/motor_7.png","75","motor","7","100","1","0","0","",""
"null","","256819","HierDytppjxnbv","e4dd8p3hbb","ms1000278","iti","","null","img/motor_7.png","75","motor","","","","","","",""
"389","","257217","HierDytppjxnbv","e4dd8p3hbb","ms1000278","motor","","76","img/motor_8.png","76","motor","8","101","1","0","0","",""
"null","","257325","HierDytppjxnbv","e4dd8p3hbb","ms1000278","iti","","null","img/motor_8.png","76","motor","","","","","","",""
"396","","257729","HierDytppjxnbv","e4dd8p3hbb","ms1000278","motor","","72","img/motor_6.png","74","motor","6","102","0","1","0","",""
"136","","257873","HierDytppjxnbv","e4dd8p3hbb","ms1000278","motorRepeat","","74","img/motor_6.png","74","motor","6","102","1","0","0","",""
"null","","257987","HierDytppjxnbv","e4dd8p3hbb","ms1000278","iti","","null","img/motor_6.png","74","motor","","","","","","",""
"428","","258425","HierDytppjxnbv","e4dd8p3hbb","ms1000278","motor","","70","img/motor_4.png","70","motor","4","103","1","0","0","",""
"null","","258533","HierDytppjxnbv","e4dd8p3hbb","ms1000278","iti","","null","img/motor_4.png","70","motor","","","","","","",""
"356","","258904","HierDytppjxnbv","e4dd8p3hbb","ms1000278","motor","","74","img/motor_6.png","74","motor","6","104","1","0","0","",""
"null","","259019","HierDytppjxnbv","e4dd8p3hbb","ms1000278","iti","","null","img/motor_6.png","74","motor","","","","","","",""
"382","","259414","HierDytppjxnbv","e4dd8p3hbb","ms1000278","motor","","72","img/motor_5.png","72","motor","5","105","1","0","0","",""
"null","","259530","HierDytppjxnbv","e4dd8p3hbb","ms1000278","iti","","null","img/motor_5.png","72","motor","","","","","","",""
"446","","259985","HierDytppjxnbv","e4dd8p3hbb","ms1000278","motor","","70","img/motor_4.png","70","motor","4","106","1","0","0","",""
"null","","260092","HierDytppjxnbv","e4dd8p3hbb","ms1000278","iti","","null","img/motor_4.png","70","motor","","","","","","",""
"468","","260568","HierDytppjxnbv","e4dd8p3hbb","ms1000278","motor","","68","img/motor_3.png","68","motor","3","107","1","0","0","",""
"null","","260676","HierDytppjxnbv","e4dd8p3hbb","ms1000278","iti","","null","img/motor_3.png","68","motor","","","","","","",""
"332","","261016","HierDytppjxnbv","e4dd8p3hbb","ms1000278","motor","","65","img/motor_1.png","65","motor","1","108","1","0","0","",""
"null","","261125","HierDytppjxnbv","e4dd8p3hbb","ms1000278","iti","","null","img/motor_1.png","65","motor","","","","","","",""
"493","","261627","HierDytppjxnbv","e4dd8p3hbb","ms1000278","motor","","74","img/motor_6.png","74","motor","6","109","1","0","0","",""
"null","","261735","HierDytppjxnbv","e4dd8p3hbb","ms1000278","iti","","null","img/motor_6.png","74","motor","","","","","","",""
"409","","262159","HierDytppjxnbv","e4dd8p3hbb","ms1000278","motor","","70","img/motor_4.png","70","motor","4","110","1","0","0","",""
"null","","262269","HierDytppjxnbv","e4dd8p3hbb","ms1000278","iti","","null","img/motor_4.png","70","motor","","","","","","",""
"324","","262601","HierDytppjxnbv","e4dd8p3hbb","ms1000278","motor","","76","img/motor_8.png","76","motor","8","111","1","0","0","",""
"null","","262710","HierDytppjxnbv","e4dd8p3hbb","ms1000278","iti","","null","img/motor_8.png","76","motor","","","","","","",""
"411","","263135","HierDytppjxnbv","e4dd8p3hbb","ms1000278","motor","","74","img/motor_6.png","74","motor","6","112","1","0","0","",""
"null","","263250","HierDytppjxnbv","e4dd8p3hbb","ms1000278","iti","","null","img/motor_6.png","74","motor","","","","","","",""
"365","","263631","HierDytppjxnbv","e4dd8p3hbb","ms1000278","motor","","76","img/motor_8.png","76","motor","8","113","1","0","0","",""
"null","","263739","HierDytppjxnbv","e4dd8p3hbb","ms1000278","iti","","null","img/motor_8.png","76","motor","","","","","","",""
"509","","264264","HierDytppjxnbv","e4dd8p3hbb","ms1000278","motor","","70","img/motor_3.png","68","motor","3","114","0","1","0","",""
"144","","264416","HierDytppjxnbv","e4dd8p3hbb","ms1000278","motorRepeat","","83","img/motor_3.png","68","motor","3","114","0","1","0","",""
"305","","264736","HierDytppjxnbv","e4dd8p3hbb","ms1000278","motorRepeat","","68","img/motor_3.png","68","motor","3","114","1","0","0","",""
"null","","264845","HierDytppjxnbv","e4dd8p3hbb","ms1000278","iti","","null","img/motor_3.png","68","motor","","","","","","",""
"371","","265231","HierDytppjxnbv","e4dd8p3hbb","ms1000278","motor","","76","img/motor_8.png","76","motor","8","115","1","0","0","",""
"null","","265347","HierDytppjxnbv","e4dd8p3hbb","ms1000278","iti","","null","img/motor_8.png","76","motor","","","","","","",""
"430","","265791","HierDytppjxnbv","e4dd8p3hbb","ms1000278","motor","","75","img/motor_7.png","75","motor","7","116","1","0","0","",""
"null","","265908","HierDytppjxnbv","e4dd8p3hbb","ms1000278","iti","","null","img/motor_7.png","75","motor","","","","","","",""
"412","","266335","HierDytppjxnbv","e4dd8p3hbb","ms1000278","motor","","72","img/motor_5.png","72","motor","5","117","1","0","0","",""
"null","","266444","HierDytppjxnbv","e4dd8p3hbb","ms1000278","iti","","null","img/motor_5.png","72","motor","","","","","","",""
"445","","266898","HierDytppjxnbv","e4dd8p3hbb","ms1000278","motor","","68","img/motor_3.png","68","motor","3","118","1","0","0","",""
"null","","267006","HierDytppjxnbv","e4dd8p3hbb","ms1000278","iti","","null","img/motor_3.png","68","motor","","","","","","",""
"444","","267463","HierDytppjxnbv","e4dd8p3hbb","ms1000278","motor","","72","img/motor_5.png","72","motor","5","119","1","0","0","",""
"null","","267573","HierDytppjxnbv","e4dd8p3hbb","ms1000278","iti","","null","img/motor_5.png","72","motor","","","","","","",""
"444","","268025","HierDytppjxnbv","e4dd8p3hbb","ms1000278","motor","","75","img/motor_7.png","75","motor","7","120","1","0","0","",""
"null","","268139","HierDytppjxnbv","e4dd8p3hbb","ms1000278","iti","","null","img/motor_7.png","75","motor","","","","","","",""
"437","","268592","HierDytppjxnbv","e4dd8p3hbb","ms1000278","motor","","65","img/motor_1.png","65","motor","1","121","1","0","0","",""
"null","","268699","HierDytppjxnbv","e4dd8p3hbb","ms1000278","iti","","null","img/motor_1.png","65","motor","","","","","","",""
"317","","269025","HierDytppjxnbv","e4dd8p3hbb","ms1000278","motor","","65","img/motor_1.png","65","motor","1","122","1","0","0","",""
"null","","269133","HierDytppjxnbv","e4dd8p3hbb","ms1000278","iti","","null","img/motor_1.png","65","motor","","","","","","",""
"291","","269439","HierDytppjxnbv","e4dd8p3hbb","ms1000278","motor","","65","img/motor_2.png","83","motor","2","123","0","1","0","",""
"273","","269721","HierDytppjxnbv","e4dd8p3hbb","ms1000278","motorRepeat","","83","img/motor_2.png","83","motor","2","123","1","0","0","",""
"null","","269830","HierDytppjxnbv","e4dd8p3hbb","ms1000278","iti","","null","img/motor_2.png","83","motor","","","","","","",""
"347","","270184","HierDytppjxnbv","e4dd8p3hbb","ms1000278","motor","","70","img/motor_4.png","70","motor","4","124","1","0","0","",""
"null","","270292","HierDytppjxnbv","e4dd8p3hbb","ms1000278","iti","","null","img/motor_4.png","70","motor","","","","","","",""
"605","","270905","HierDytppjxnbv","e4dd8p3hbb","ms1000278","motor","","75","img/motor_7.png","75","motor","7","125","1","0","0","",""
"null","","271020","HierDytppjxnbv","e4dd8p3hbb","ms1000278","iti","","null","img/motor_7.png","75","motor","","","","","","",""
"421","","271449","HierDytppjxnbv","e4dd8p3hbb","ms1000278","motor","","74","img/motor_6.png","74","motor","6","126","1","0","0","",""
"null","","271563","HierDytppjxnbv","e4dd8p3hbb","ms1000278","iti","","null","img/motor_6.png","74","motor","","","","","","",""
"325","","271897","HierDytppjxnbv","e4dd8p3hbb","ms1000278","motor","","72","img/motor_5.png","72","motor","5","127","1","0","0","",""
"null","","272006","HierDytppjxnbv","e4dd8p3hbb","ms1000278","iti","","null","img/motor_5.png","72","motor","","","","","","",""
"443","","272457","HierDytppjxnbv","e4dd8p3hbb","ms1000278","motor","","74","img/motor_6.png","74","motor","6","128","1","0","0","",""
"null","","272572","HierDytppjxnbv","e4dd8p3hbb","ms1000278","iti","","null","img/motor_6.png","74","motor","","","","","","",""
"620","","273201","HierDytppjxnbv","e4dd8p3hbb","ms1000278","motor","","83","img/motor_2.png","83","motor","2","129","1","0","0","",""
"null","","273309","HierDytppjxnbv","e4dd8p3hbb","ms1000278","iti","","null","img/motor_2.png","83","motor","","","","","","",""
"428","","273744","HierDytppjxnbv","e4dd8p3hbb","ms1000278","motor","","76","img/motor_8.png","76","motor","8","130","1","0","0","",""
"null","","273860","HierDytppjxnbv","e4dd8p3hbb","ms1000278","iti","","null","img/motor_8.png","76","motor","","","","","","",""
"317","","274184","HierDytppjxnbv","e4dd8p3hbb","ms1000278","motor","","76","img/motor_8.png","76","motor","8","131","1","0","0","",""
"null","","274299","HierDytppjxnbv","e4dd8p3hbb","ms1000278","iti","","null","img/motor_8.png","76","motor","","","","","","",""
"509","","274817","HierDytppjxnbv","e4dd8p3hbb","ms1000278","motor","","75","img/motor_7.png","75","motor","7","132","1","0","0","",""
"96","","274931","HierDytppjxnbv","e4dd8p3hbb","ms1000278","iti","","75","img/motor_7.png","75","motor","","","","","","",""
"390","","275329","HierDytppjxnbv","e4dd8p3hbb","ms1000278","motor","","65","img/motor_1.png","65","motor","1","133","1","0","0","",""
"null","","275437","HierDytppjxnbv","e4dd8p3hbb","ms1000278","iti","","null","img/motor_1.png","65","motor","","","","","","",""
"467","","275913","HierDytppjxnbv","e4dd8p3hbb","ms1000278","motor","","70","img/motor_5.png","72","motor","5","134","0","1","0","",""
"136","","276063","HierDytppjxnbv","e4dd8p3hbb","ms1000278","motorRepeat","","72","img/motor_5.png","72","motor","5","134","1","0","0","",""
"null","","276178","HierDytppjxnbv","e4dd8p3hbb","ms1000278","iti","","null","img/motor_5.png","72","motor","","","","","","",""
"398","","276591","HierDytppjxnbv","e4dd8p3hbb","ms1000278","motor","","76","img/motor_8.png","76","motor","8","135","1","0","0","",""
"null","","276701","HierDytppjxnbv","e4dd8p3hbb","ms1000278","iti","","null","img/motor_8.png","76","motor","","","","","","",""
"412","","277121","HierDytppjxnbv","e4dd8p3hbb","ms1000278","motor","","70","img/motor_4.png","70","motor","4","136","1","0","0","",""
"null","","277235","HierDytppjxnbv","e4dd8p3hbb","ms1000278","iti","","null","img/motor_4.png","70","motor","","","","","","",""
"381","","277624","HierDytppjxnbv","e4dd8p3hbb","ms1000278","motor","","75","img/motor_7.png","75","motor","7","137","1","0","0","",""
"null","","277740","HierDytppjxnbv","e4dd8p3hbb","ms1000278","iti","","null","img/motor_7.png","75","motor","","","","","","",""
"500","","278249","HierDytppjxnbv","e4dd8p3hbb","ms1000278","motor","","83","img/motor_2.png","83","motor","2","138","1","0","0","",""
"null","","278364","HierDytppjxnbv","e4dd8p3hbb","ms1000278","iti","","null","img/motor_2.png","83","motor","","","","","","",""
"532","","278905","HierDytppjxnbv","e4dd8p3hbb","ms1000278","motor","","75","img/motor_7.png","75","motor","7","139","1","0","0","",""
"null","","279013","HierDytppjxnbv","e4dd8p3hbb","ms1000278","iti","","null","img/motor_7.png","75","motor","","","","","","",""
"387","","279416","HierDytppjxnbv","e4dd8p3hbb","ms1000278","motor","","76","img/motor_8.png","76","motor","8","140","1","0","0","",""
"null","","279531","HierDytppjxnbv","e4dd8p3hbb","ms1000278","iti","","null","img/motor_8.png","76","motor","","","","","","",""
"477","","280024","HierDytppjxnbv","e4dd8p3hbb","ms1000278","motor","","70","img/motor_4.png","70","motor","4","141","1","0","0","",""
"null","","280139","HierDytppjxnbv","e4dd8p3hbb","ms1000278","iti","","null","img/motor_4.png","70","motor","","","","","","",""
"357","","280506","HierDytppjxnbv","e4dd8p3hbb","ms1000278","motor","","75","img/motor_6.png","74","motor","6","142","0","1","0","",""
"120","","280633","HierDytppjxnbv","e4dd8p3hbb","ms1000278","motorRepeat","","74","img/motor_6.png","74","motor","6","142","1","0","0","",""
"null","","280747","HierDytppjxnbv","e4dd8p3hbb","ms1000278","iti","","null","img/motor_6.png","74","motor","","","","","","",""
"381","","281143","HierDytppjxnbv","e4dd8p3hbb","ms1000278","motor","","72","img/motor_6.png","74","motor","6","143","0","1","0","",""
"210","","281361","HierDytppjxnbv","e4dd8p3hbb","ms1000278","motorRepeat","","74","img/motor_6.png","74","motor","6","143","1","0","0","",""
"null","","281476","HierDytppjxnbv","e4dd8p3hbb","ms1000278","iti","","null","img/motor_6.png","74","motor","","","","","","",""
"470","","281953","HierDytppjxnbv","e4dd8p3hbb","ms1000278","motor","","68","img/motor_3.png","68","motor","3","144","1","0","0","",""
"null","","282069","HierDytppjxnbv","e4dd8p3hbb","ms1000278","iti","","null","img/motor_3.png","68","motor","","","","","","",""
"516","","282600","HierDytppjxnbv","e4dd8p3hbb","ms1000278","motor","","75","img/motor_7.png","75","motor","7","145","1","0","0","",""
"null","","282708","HierDytppjxnbv","e4dd8p3hbb","ms1000278","iti","","null","img/motor_7.png","75","motor","","","","","","",""
"1053","","283768","HierDytppjxnbv","e4dd8p3hbb","ms1000278","motor","","68","img/motor_3.png","68","motor","3","146","1","0","0","",""
"null","","283877","HierDytppjxnbv","e4dd8p3hbb","ms1000278","iti","","null","img/motor_3.png","68","motor","","","","","","",""
"301","","284185","HierDytppjxnbv","e4dd8p3hbb","ms1000278","motor","","68","img/motor_3.png","68","motor","3","147","1","0","0","",""
"null","","284300","HierDytppjxnbv","e4dd8p3hbb","ms1000278","iti","","null","img/motor_3.png","68","motor","","","","","","",""
"389","","284696","HierDytppjxnbv","e4dd8p3hbb","ms1000278","motor","","75","img/motor_7.png","75","motor","7","148","1","0","0","",""
"null","","284805","HierDytppjxnbv","e4dd8p3hbb","ms1000278","iti","","null","img/motor_7.png","75","motor","","","","","","",""
"484","","285296","HierDytppjxnbv","e4dd8p3hbb","ms1000278","motor","","68","img/motor_2.png","83","motor","2","149","0","1","0","",""
"79","","285391","HierDytppjxnbv","e4dd8p3hbb","ms1000278","motorRepeat","","83","img/motor_2.png","83","motor","2","149","1","0","0","",""
"null","","285499","HierDytppjxnbv","e4dd8p3hbb","ms1000278","iti","","null","img/motor_2.png","83","motor","","","","","","",""
"294","","285800","HierDytppjxnbv","e4dd8p3hbb","ms1000278","motor","","83","img/motor_2.png","83","motor","2","150","1","0","0","",""
"null","","285914","HierDytppjxnbv","e4dd8p3hbb","ms1000278","iti","","null","img/motor_2.png","83","motor","","","","","","",""
"470","","286400","HierDytppjxnbv","e4dd8p3hbb","ms1000278","motor","","74","img/motor_6.png","74","motor","6","151","1","0","0","",""
"null","","286515","HierDytppjxnbv","e4dd8p3hbb","ms1000278","iti","","null","img/motor_6.png","74","motor","","","","","","",""
"358","","286887","HierDytppjxnbv","e4dd8p3hbb","ms1000278","motor","","74","img/motor_6.png","74","motor","6","152","1","0","0","",""
"null","","286997","HierDytppjxnbv","e4dd8p3hbb","ms1000278","iti","","null","img/motor_6.png","74","motor","","","","","","",""
"453","","287457","HierDytppjxnbv","e4dd8p3hbb","ms1000278","motor","","75","img/motor_7.png","75","motor","7","153","1","0","0","",""
"null","","287572","HierDytppjxnbv","e4dd8p3hbb","ms1000278","iti","","null","img/motor_7.png","75","motor","","","","","","",""
"340","","287922","HierDytppjxnbv","e4dd8p3hbb","ms1000278","motor","","76","img/motor_8.png","76","motor","8","154","1","0","0","",""
"null","","288030","HierDytppjxnbv","e4dd8p3hbb","ms1000278","iti","","null","img/motor_8.png","76","motor","","","","","","",""
"411","","288456","HierDytppjxnbv","e4dd8p3hbb","ms1000278","motor","","72","img/motor_5.png","72","motor","5","155","1","0","0","",""
"null","","288572","HierDytppjxnbv","e4dd8p3hbb","ms1000278","iti","","null","img/motor_5.png","72","motor","","","","","","",""
"356","","288943","HierDytppjxnbv","e4dd8p3hbb","ms1000278","motor","","75","img/motor_7.png","75","motor","7","156","1","0","0","",""
"null","","289053","HierDytppjxnbv","e4dd8p3hbb","ms1000278","iti","","null","img/motor_7.png","75","motor","","","","","","",""
"349","","289409","HierDytppjxnbv","e4dd8p3hbb","ms1000278","motor","","75","img/motor_7.png","75","motor","7","157","1","0","0","",""
"null","","289523","HierDytppjxnbv","e4dd8p3hbb","ms1000278","iti","","null","img/motor_7.png","75","motor","","","","","","",""
"445","","289977","HierDytppjxnbv","e4dd8p3hbb","ms1000278","motor","","72","img/motor_5.png","72","motor","5","158","1","0","0","",""
"null","","290084","HierDytppjxnbv","e4dd8p3hbb","ms1000278","iti","","null","img/motor_5.png","72","motor","","","","","","",""
"340","","290440","HierDytppjxnbv","e4dd8p3hbb","ms1000278","motor","","72","img/motor_5.png","72","motor","5","159","1","0","0","",""
"null","","290548","HierDytppjxnbv","e4dd8p3hbb","ms1000278","iti","","null","img/motor_5.png","72","motor","","","","","","",""
"341","","290897","HierDytppjxnbv","e4dd8p3hbb","ms1000278","motor","","75","img/motor_7.png","75","motor","7","160","1","0","0","",""
"null","","291005","HierDytppjxnbv","e4dd8p3hbb","ms1000278","iti","","null","img/motor_7.png","75","motor","","","","","","",""
"379","","291392","HierDytppjxnbv","e4dd8p3hbb","ms1000278","motor","","72","img/motor_5.png","72","motor","5","161","1","0","0","",""
"null","","291507","HierDytppjxnbv","e4dd8p3hbb","ms1000278","iti","","null","img/motor_5.png","72","motor","","","","","","",""
"534","","292049","HierDytppjxnbv","e4dd8p3hbb","ms1000278","motor","","83","img/motor_2.png","83","motor","2","162","1","0","0","",""
"null","","292163","HierDytppjxnbv","e4dd8p3hbb","ms1000278","iti","","null","img/motor_2.png","83","motor","","","","","","",""
"284","","292457","HierDytppjxnbv","e4dd8p3hbb","ms1000278","motor","","83","img/motor_1.png","65","motor","1","163","0","1","0","",""
"232","","292696","HierDytppjxnbv","e4dd8p3hbb","ms1000278","motorRepeat","","65","img/motor_1.png","65","motor","1","163","1","0","0","",""
"null","","292812","HierDytppjxnbv","e4dd8p3hbb","ms1000278","iti","","null","img/motor_1.png","65","motor","","","","","","",""
"324","","293145","HierDytppjxnbv","e4dd8p3hbb","ms1000278","motor","","83","img/motor_2.png","83","motor","2","164","1","0","0","",""
"null","","293260","HierDytppjxnbv","e4dd8p3hbb","ms1000278","iti","","null","img/motor_2.png","83","motor","","","","","","",""
"444","","293719","HierDytppjxnbv","e4dd8p3hbb","ms1000278","motor","","68","img/motor_3.png","68","motor","3","165","1","0","0","",""
"null","","293835","HierDytppjxnbv","e4dd8p3hbb","ms1000278","iti","","null","img/motor_3.png","68","motor","","","","","","",""
"421","","294265","HierDytppjxnbv","e4dd8p3hbb","ms1000278","motor","","83","img/motor_2.png","83","motor","2","166","1","0","0","",""
"null","","294379","HierDytppjxnbv","e4dd8p3hbb","ms1000278","iti","","null","img/motor_2.png","83","motor","","","","","","",""
"397","","294792","HierDytppjxnbv","e4dd8p3hbb","ms1000278","motor","","68","img/motor_3.png","68","motor","3","167","1","0","0","",""
"null","","294901","HierDytppjxnbv","e4dd8p3hbb","ms1000278","iti","","null","img/motor_3.png","68","motor","","","","","","",""
"388","","295297","HierDytppjxnbv","e4dd8p3hbb","ms1000278","motor","","65","img/motor_1.png","65","motor","1","168","1","0","0","",""
"null","","295411","HierDytppjxnbv","e4dd8p3hbb","ms1000278","iti","","null","img/motor_1.png","65","motor","","","","","","",""
"453","","295880","HierDytppjxnbv","e4dd8p3hbb","ms1000278","motor","","76","img/motor_8.png","76","motor","8","169","1","0","0","",""
"null","","295989","HierDytppjxnbv","e4dd8p3hbb","ms1000278","iti","","null","img/motor_8.png","76","motor","","","","","","",""
"492","","296490","HierDytppjxnbv","e4dd8p3hbb","ms1000278","motor","","83","img/motor_2.png","83","motor","2","170","1","0","0","",""
"null","","296598","HierDytppjxnbv","e4dd8p3hbb","ms1000278","iti","","null","img/motor_2.png","83","motor","","","","","","",""
"459","","297064","HierDytppjxnbv","e4dd8p3hbb","ms1000278","motor","","72","img/motor_5.png","72","motor","5","171","1","0","0","",""
"null","","297179","HierDytppjxnbv","e4dd8p3hbb","ms1000278","iti","","null","img/motor_5.png","72","motor","","","","","","",""
"453","","297641","HierDytppjxnbv","e4dd8p3hbb","ms1000278","motor","","75","img/motor_7.png","75","motor","7","172","1","0","0","",""
"null","","297749","HierDytppjxnbv","e4dd8p3hbb","ms1000278","iti","","null","img/motor_7.png","75","motor","","","","","","",""
"469","","298231","HierDytppjxnbv","e4dd8p3hbb","ms1000278","motor","","70","img/motor_4.png","70","motor","4","173","1","0","0","",""
"null","","298341","HierDytppjxnbv","e4dd8p3hbb","ms1000278","iti","","null","img/motor_4.png","70","motor","","","","","","",""
"396","","298746","HierDytppjxnbv","e4dd8p3hbb","ms1000278","motor","","76","img/motor_8.png","76","motor","8","174","1","0","0","",""
"null","","298854","HierDytppjxnbv","e4dd8p3hbb","ms1000278","iti","","null","img/motor_8.png","76","motor","","","","","","",""
"428","","299288","HierDytppjxnbv","e4dd8p3hbb","ms1000278","motor","","65","img/motor_1.png","65","motor","1","175","1","0","0","",""
"null","","299397","HierDytppjxnbv","e4dd8p3hbb","ms1000278","iti","","null","img/motor_1.png","65","motor","","","","","","",""
"516","","299928","HierDytppjxnbv","e4dd8p3hbb","ms1000278","motor","","75","img/motor_7.png","75","motor","7","176","1","0","0","",""
"null","","300043","HierDytppjxnbv","e4dd8p3hbb","ms1000278","iti","","null","img/motor_7.png","75","motor","","","","","","",""
"494","","300551","HierDytppjxnbv","e4dd8p3hbb","ms1000278","motor","","83","img/motor_3.png","68","motor","3","177","0","1","0","",""
"201","","300767","HierDytppjxnbv","e4dd8p3hbb","ms1000278","motorRepeat","","68","img/motor_3.png","68","motor","3","177","1","0","0","",""
"null","","300876","HierDytppjxnbv","e4dd8p3hbb","ms1000278","iti","","null","img/motor_3.png","68","motor","","","","","","",""
"396","","301281","HierDytppjxnbv","e4dd8p3hbb","ms1000278","motor","","75","img/motor_6.png","74","motor","6","178","0","1","0","",""
"232","","301521","HierDytppjxnbv","e4dd8p3hbb","ms1000278","motorRepeat","","74","img/motor_6.png","74","motor","6","178","1","0","0","",""
"null","","301635","HierDytppjxnbv","e4dd8p3hbb","ms1000278","iti","","null","img/motor_6.png","74","motor","","","","","","",""
"405","","302049","HierDytppjxnbv","e4dd8p3hbb","ms1000278","motor","","75","img/motor_7.png","75","motor","7","179","1","0","0","",""
"null","","302157","HierDytppjxnbv","e4dd8p3hbb","ms1000278","iti","","null","img/motor_7.png","75","motor","","","","","","",""
"380","","302545","HierDytppjxnbv","e4dd8p3hbb","ms1000278","motor","","74","img/motor_6.png","74","motor","6","180","1","0","0","",""
"null","","302660","HierDytppjxnbv","e4dd8p3hbb","ms1000278","iti","","null","img/motor_6.png","74","motor","","","","","","",""
"540","","303209","HierDytppjxnbv","e4dd8p3hbb","ms1000278","motor","","83","img/motor_2.png","83","motor","2","181","1","0","0","",""
"null","","303324","HierDytppjxnbv","e4dd8p3hbb","ms1000278","iti","","null","img/motor_2.png","83","motor","","","","","","",""
"412","","303744","HierDytppjxnbv","e4dd8p3hbb","ms1000278","motor","","75","img/motor_7.png","75","motor","7","182","1","0","0","",""
"null","","303852","HierDytppjxnbv","e4dd8p3hbb","ms1000278","iti","","null","img/motor_7.png","75","motor","","","","","","",""
"421","","304288","HierDytppjxnbv","e4dd8p3hbb","ms1000278","motor","","76","img/motor_8.png","76","motor","8","183","1","0","0","",""
"null","","304403","HierDytppjxnbv","e4dd8p3hbb","ms1000278","iti","","null","img/motor_8.png","76","motor","","","","","","",""
"542","","304953","HierDytppjxnbv","e4dd8p3hbb","ms1000278","motor","","74","img/motor_6.png","74","motor","6","184","1","0","0","",""
"null","","305068","HierDytppjxnbv","e4dd8p3hbb","ms1000278","iti","","null","img/motor_6.png","74","motor","","","","","","",""
"380","","305456","HierDytppjxnbv","e4dd8p3hbb","ms1000278","motor","","75","img/motor_7.png","75","motor","7","185","1","0","0","",""
"null","","305571","HierDytppjxnbv","e4dd8p3hbb","ms1000278","iti","","null","img/motor_7.png","75","motor","","","","","","",""
"453","","306033","HierDytppjxnbv","e4dd8p3hbb","ms1000278","motor","","65","img/motor_1.png","65","motor","1","186","1","0","0","",""
"null","","306141","HierDytppjxnbv","e4dd8p3hbb","ms1000278","iti","","null","img/motor_1.png","65","motor","","","","","","",""
"515","","306664","HierDytppjxnbv","e4dd8p3hbb","ms1000278","motor","","75","img/motor_7.png","75","motor","7","187","1","0","0","",""
"null","","306773","HierDytppjxnbv","e4dd8p3hbb","ms1000278","iti","","null","img/motor_7.png","75","motor","","","","","","",""
"588","","307369","HierDytppjxnbv","e4dd8p3hbb","ms1000278","motor","","68","img/motor_3.png","68","motor","3","188","1","0","0","",""
"null","","307478","HierDytppjxnbv","e4dd8p3hbb","ms1000278","iti","","null","img/motor_3.png","68","motor","","","","","","",""
"491","","307977","HierDytppjxnbv","e4dd8p3hbb","ms1000278","motor","","72","img/motor_5.png","72","motor","5","189","1","0","0","",""
"null","","308091","HierDytppjxnbv","e4dd8p3hbb","ms1000278","iti","","null","img/motor_5.png","72","motor","","","","","","",""
"461","","308562","HierDytppjxnbv","e4dd8p3hbb","ms1000278","motor","","70","img/motor_4.png","70","motor","4","190","1","0","0","",""
"null","","308670","HierDytppjxnbv","e4dd8p3hbb","ms1000278","iti","","null","img/motor_4.png","70","motor","","","","","","",""
"403","","309081","HierDytppjxnbv","e4dd8p3hbb","ms1000278","motor","","76","img/motor_8.png","76","motor","8","191","1","0","0","",""
"null","","309190","HierDytppjxnbv","e4dd8p3hbb","ms1000278","iti","","null","img/motor_8.png","76","motor","","","","","","",""
"428","","309625","HierDytppjxnbv","e4dd8p3hbb","ms1000278","motor","","75","img/motor_7.png","75","motor","7","192","1","0","0","",""
"null","","309734","HierDytppjxnbv","e4dd8p3hbb","ms1000278","iti","","null","img/motor_7.png","75","motor","","","","","","",""
"524","","310265","HierDytppjxnbv","e4dd8p3hbb","ms1000278","motor","","70","img/motor_4.png","70","motor","4","193","1","0","0","",""
"null","","310380","HierDytppjxnbv","e4dd8p3hbb","ms1000278","iti","","null","img/motor_4.png","70","motor","","","","","","",""
"404","","310800","HierDytppjxnbv","e4dd8p3hbb","ms1000278","motor","","76","img/motor_8.png","76","motor","8","194","1","0","0","",""
"null","","310915","HierDytppjxnbv","e4dd8p3hbb","ms1000278","iti","","null","img/motor_8.png","76","motor","","","","","","",""
"357","","311287","HierDytppjxnbv","e4dd8p3hbb","ms1000278","motor","","76","img/motor_8.png","76","motor","8","195","1","0","0","",""
"null","","311397","HierDytppjxnbv","e4dd8p3hbb","ms1000278","iti","","null","img/motor_8.png","76","motor","","","","","","",""
"444","","311856","HierDytppjxnbv","e4dd8p3hbb","ms1000278","motor","","72","img/motor_5.png","72","motor","5","196","1","0","0","",""
"null","","311972","HierDytppjxnbv","e4dd8p3hbb","ms1000278","iti","","null","img/motor_5.png","72","motor","","","","","","",""
"469","","312449","HierDytppjxnbv","e4dd8p3hbb","ms1000278","motor","","76","img/motor_8.png","76","motor","8","197","1","0","0","",""
"null","","312564","HierDytppjxnbv","e4dd8p3hbb","ms1000278","iti","","null","img/motor_8.png","76","motor","","","","","","",""
"387","","312962","HierDytppjxnbv","e4dd8p3hbb","ms1000278","motor","","75","img/motor_7.png","75","motor","7","198","1","0","0","",""
"null","","313070","HierDytppjxnbv","e4dd8p3hbb","ms1000278","iti","","null","img/motor_7.png","75","motor","","","","","","",""
"627","","313705","HierDytppjxnbv","e4dd8p3hbb","ms1000278","motor","","83","img/motor_2.png","83","motor","2","199","1","0","0","",""
"null","","313814","HierDytppjxnbv","e4dd8p3hbb","ms1000278","iti","","null","img/motor_2.png","83","motor","","","","","","",""
"306","","314129","HierDytppjxnbv","e4dd8p3hbb","ms1000278","motor","","70","img/motor_4.png","70","motor","4","200","1","0","0","",""
"null","","314244","HierDytppjxnbv","e4dd8p3hbb","ms1000278","iti","","null","img/motor_4.png","70","motor","","","","","","",""
"445","","314697","HierDytppjxnbv","e4dd8p3hbb","ms1000278","motor","","68","img/motor_3.png","68","motor","3","201","1","0","0","",""
"null","","314806","HierDytppjxnbv","e4dd8p3hbb","ms1000278","iti","","null","img/motor_3.png","68","motor","","","","","","",""
"483","","315297","HierDytppjxnbv","e4dd8p3hbb","ms1000278","motor","","75","img/motor_7.png","75","motor","7","202","1","0","0","",""
"null","","315405","HierDytppjxnbv","e4dd8p3hbb","ms1000278","iti","","null","img/motor_7.png","75","motor","","","","","","",""
"571","","315984","HierDytppjxnbv","e4dd8p3hbb","ms1000278","motor","","83","img/motor_2.png","83","motor","2","203","1","0","0","",""
"null","","316098","HierDytppjxnbv","e4dd8p3hbb","ms1000278","iti","","null","img/motor_2.png","83","motor","","","","","","",""
"437","","316551","HierDytppjxnbv","e4dd8p3hbb","ms1000278","motor","","68","img/motor_3.png","68","motor","3","204","1","0","0","",""
"null","","316666","HierDytppjxnbv","e4dd8p3hbb","ms1000278","iti","","null","img/motor_3.png","68","motor","","","","","","",""
"414","","317089","HierDytppjxnbv","e4dd8p3hbb","ms1000278","motor","","75","img/motor_6.png","74","motor","6","205","0","1","0","",""
"256","","317353","HierDytppjxnbv","e4dd8p3hbb","ms1000278","motorRepeat","","74","img/motor_6.png","74","motor","6","205","1","0","0","",""
"null","","317468","HierDytppjxnbv","e4dd8p3hbb","ms1000278","iti","","null","img/motor_6.png","74","motor","","","","","","",""
"453","","317929","HierDytppjxnbv","e4dd8p3hbb","ms1000278","motor","","70","img/motor_4.png","70","motor","4","206","1","0","0","",""
"null","","318045","HierDytppjxnbv","e4dd8p3hbb","ms1000278","iti","","null","img/motor_4.png","70","motor","","","","","","",""
"348","","318401","HierDytppjxnbv","e4dd8p3hbb","ms1000278","motor","","76","img/motor_8.png","76","motor","8","207","1","0","0","",""
"null","","318516","HierDytppjxnbv","e4dd8p3hbb","ms1000278","iti","","null","img/motor_8.png","76","motor","","","","","","",""
"493","","319017","HierDytppjxnbv","e4dd8p3hbb","ms1000278","motor","","83","img/motor_2.png","83","motor","2","208","1","0","0","",""
"null","","319126","HierDytppjxnbv","e4dd8p3hbb","ms1000278","iti","","null","img/motor_2.png","83","motor","","","","","","",""
"460","","319593","HierDytppjxnbv","e4dd8p3hbb","ms1000278","motor","","72","img/motor_5.png","72","motor","5","209","1","0","0","",""
"null","","319709","HierDytppjxnbv","e4dd8p3hbb","ms1000278","iti","","null","img/motor_5.png","72","motor","","","","","","",""
"468","","320185","HierDytppjxnbv","e4dd8p3hbb","ms1000278","motor","","83","img/motor_2.png","83","motor","2","210","1","0","0","",""
"null","","320293","HierDytppjxnbv","e4dd8p3hbb","ms1000278","iti","","null","img/motor_2.png","83","motor","","","","","","",""
"413","","320713","HierDytppjxnbv","e4dd8p3hbb","ms1000278","motor","","72","img/motor_5.png","72","motor","5","211","1","0","0","",""
"null","","320828","HierDytppjxnbv","e4dd8p3hbb","ms1000278","iti","","null","img/motor_5.png","72","motor","","","","","","",""
"436","","321273","HierDytppjxnbv","e4dd8p3hbb","ms1000278","motor","","74","img/motor_6.png","74","motor","6","212","1","0","0","",""
"null","","321388","HierDytppjxnbv","e4dd8p3hbb","ms1000278","iti","","null","img/motor_6.png","74","motor","","","","","","",""
"380","","321777","HierDytppjxnbv","e4dd8p3hbb","ms1000278","motor","","72","img/motor_5.png","72","motor","5","213","1","0","0","",""
"null","","321892","HierDytppjxnbv","e4dd8p3hbb","ms1000278","iti","","null","img/motor_5.png","72","motor","","","","","","",""
"501","","322407","HierDytppjxnbv","e4dd8p3hbb","ms1000278","motor","","68","img/motor_3.png","68","motor","3","214","1","0","0","",""
"null","","322524","HierDytppjxnbv","e4dd8p3hbb","ms1000278","iti","","null","img/motor_3.png","68","motor","","","","","","",""
"437","","322969","HierDytppjxnbv","e4dd8p3hbb","ms1000278","motor","","70","img/motor_4.png","70","motor","4","215","1","0","0","",""
"null","","323083","HierDytppjxnbv","e4dd8p3hbb","ms1000278","iti","","null","img/motor_4.png","70","motor","","","","","","",""
"421","","323513","HierDytppjxnbv","e4dd8p3hbb","ms1000278","motor","","72","img/motor_5.png","72","motor","5","216","1","0","0","",""
"null","","323622","HierDytppjxnbv","e4dd8p3hbb","ms1000278","iti","","null","img/motor_5.png","72","motor","","","","","","",""
"437","","324064","HierDytppjxnbv","e4dd8p3hbb","ms1000278","motor","","75","img/motor_7.png","75","motor","7","217","1","0","0","",""
"null","","324172","HierDytppjxnbv","e4dd8p3hbb","ms1000278","iti","","null","img/motor_7.png","75","motor","","","","","","",""
"485","","324665","HierDytppjxnbv","e4dd8p3hbb","ms1000278","motor","","68","img/motor_3.png","68","motor","3","218","1","0","0","",""
"null","","324774","HierDytppjxnbv","e4dd8p3hbb","ms1000278","iti","","null","img/motor_3.png","68","motor","","","","","","",""
"508","","325290","HierDytppjxnbv","e4dd8p3hbb","ms1000278","motor","","68","img/motor_3.png","68","motor","3","219","1","0","0","",""
"null","","325405","HierDytppjxnbv","e4dd8p3hbb","ms1000278","iti","","null","img/motor_3.png","68","motor","","","","","","",""
"540","","325956","HierDytppjxnbv","e4dd8p3hbb","ms1000278","motor","","72","img/motor_5.png","72","motor","5","220","1","0","0","",""
"null","","326072","HierDytppjxnbv","e4dd8p3hbb","ms1000278","iti","","null","img/motor_5.png","72","motor","","","","","","",""
"423","","326512","HierDytppjxnbv","e4dd8p3hbb","ms1000278","motor","","83","img/motor_2.png","83","motor","2","221","1","0","0","",""
"null","","326628","HierDytppjxnbv","e4dd8p3hbb","ms1000278","iti","","null","img/motor_2.png","83","motor","","","","","","",""
"404","","327048","HierDytppjxnbv","e4dd8p3hbb","ms1000278","motor","","65","img/motor_1.png","65","motor","1","222","1","0","0","",""
"null","","327166","HierDytppjxnbv","e4dd8p3hbb","ms1000278","iti","","null","img/motor_1.png","65","motor","","","","","","",""
"369","","327553","HierDytppjxnbv","e4dd8p3hbb","ms1000278","motor","","70","img/motor_4.png","70","motor","4","223","1","0","0","",""
"null","","327661","HierDytppjxnbv","e4dd8p3hbb","ms1000278","iti","","null","img/motor_4.png","70","motor","","","","","","",""
"355","","328025","HierDytppjxnbv","e4dd8p3hbb","ms1000278","motor","","76","img/motor_8.png","76","motor","8","224","1","0","0","",""
"null","","328134","HierDytppjxnbv","e4dd8p3hbb","ms1000278","iti","","null","img/motor_8.png","76","motor","","","","","","",""
"468","","328616","HierDytppjxnbv","e4dd8p3hbb","ms1000278","motor","","68","img/motor_3.png","68","motor","3","225","1","0","0","",""
"72","","328733","HierDytppjxnbv","e4dd8p3hbb","ms1000278","iti","","70","img/motor_3.png","68","motor","","","","","","",""
"435","","329184","HierDytppjxnbv","e4dd8p3hbb","ms1000278","motor","","75","img/motor_7.png","75","motor","7","226","1","0","0","",""
"null","","329300","HierDytppjxnbv","e4dd8p3hbb","ms1000278","iti","","null","img/motor_7.png","75","motor","","","","","","",""
"477","","329786","HierDytppjxnbv","e4dd8p3hbb","ms1000278","motor","","70","img/motor_4.png","70","motor","4","227","1","0","0","",""
"null","","329894","HierDytppjxnbv","e4dd8p3hbb","ms1000278","iti","","null","img/motor_4.png","70","motor","","","","","","",""
"410","","330313","HierDytppjxnbv","e4dd8p3hbb","ms1000278","motor","","72","img/motor_5.png","72","motor","5","228","1","0","0","",""
"null","","330428","HierDytppjxnbv","e4dd8p3hbb","ms1000278","iti","","null","img/motor_5.png","72","motor","","","","","","",""
"451","","330890","HierDytppjxnbv","e4dd8p3hbb","ms1000278","motor","","68","img/motor_3.png","68","motor","3","229","1","0","0","",""
"null","","330997","HierDytppjxnbv","e4dd8p3hbb","ms1000278","iti","","null","img/motor_3.png","68","motor","","","","","","",""
"444","","331449","HierDytppjxnbv","e4dd8p3hbb","ms1000278","motor","","72","img/motor_5.png","72","motor","5","230","1","0","0","",""
"null","","331557","HierDytppjxnbv","e4dd8p3hbb","ms1000278","iti","","null","img/motor_5.png","72","motor","","","","","","",""
"405","","331976","HierDytppjxnbv","e4dd8p3hbb","ms1000278","motor","","83","img/motor_2.png","83","motor","2","231","1","0","0","",""
"null","","332091","HierDytppjxnbv","e4dd8p3hbb","ms1000278","iti","","null","img/motor_2.png","83","motor","","","","","","",""
"437","","332538","HierDytppjxnbv","e4dd8p3hbb","ms1000278","motor","","70","img/motor_4.png","70","motor","4","232","1","0","0","",""
"null","","332653","HierDytppjxnbv","e4dd8p3hbb","ms1000278","iti","","null","img/motor_4.png","70","motor","","","","","","",""
"403","","333065","HierDytppjxnbv","e4dd8p3hbb","ms1000278","motor","","76","img/motor_8.png","76","motor","8","233","1","0","0","",""
"null","","333180","HierDytppjxnbv","e4dd8p3hbb","ms1000278","iti","","null","img/motor_8.png","76","motor","","","","","","",""
"477","","333672","HierDytppjxnbv","e4dd8p3hbb","ms1000278","motor","","83","img/motor_2.png","83","motor","2","234","1","0","0","",""
"null","","333781","HierDytppjxnbv","e4dd8p3hbb","ms1000278","iti","","null","img/motor_2.png","83","motor","","","","","","",""
"460","","334249","HierDytppjxnbv","e4dd8p3hbb","ms1000278","motor","","72","img/motor_5.png","72","motor","5","235","1","0","0","",""
"null","","334364","HierDytppjxnbv","e4dd8p3hbb","ms1000278","iti","","null","img/motor_5.png","72","motor","","","","","","",""
"453","","334825","HierDytppjxnbv","e4dd8p3hbb","ms1000278","motor","","68","img/motor_4.png","70","motor","4","236","0","1","0","",""
"176","","335008","HierDytppjxnbv","e4dd8p3hbb","ms1000278","motorRepeat","","70","img/motor_4.png","70","motor","4","236","1","0","0","",""
"null","","335124","HierDytppjxnbv","e4dd8p3hbb","ms1000278","iti","","null","img/motor_4.png","70","motor","","","","","","",""
"405","","335537","HierDytppjxnbv","e4dd8p3hbb","ms1000278","motor","","65","img/motor_1.png","65","motor","1","237","1","0","0","",""
"null","","335652","HierDytppjxnbv","e4dd8p3hbb","ms1000278","iti","","null","img/motor_1.png","65","motor","","","","","","",""
"396","","336063","HierDytppjxnbv","e4dd8p3hbb","ms1000278","motor","","68","img/motor_3.png","68","motor","3","238","1","0","0","",""
"null","","336173","HierDytppjxnbv","e4dd8p3hbb","ms1000278","iti","","null","img/motor_3.png","68","motor","","","","","","",""
"374","","336553","HierDytppjxnbv","e4dd8p3hbb","ms1000278","motor","","76","img/motor_8.png","76","motor","8","239","1","0","0","",""
"null","","336668","HierDytppjxnbv","e4dd8p3hbb","ms1000278","iti","","null","img/motor_8.png","76","motor","","","","","","",""
"397","","337074","HierDytppjxnbv","e4dd8p3hbb","ms1000278","motor","","65","img/motor_1.png","65","motor","1","240","1","0","0","",""
"null","","337188","HierDytppjxnbv","e4dd8p3hbb","ms1000278","iti","","null","img/motor_1.png","65","motor","","","","","","",""
"348","","337545","HierDytppjxnbv","e4dd8p3hbb","ms1000278","motor","","70","img/motor_4.png","70","motor","4","241","1","0","0","",""
"null","","337654","HierDytppjxnbv","e4dd8p3hbb","ms1000278","iti","","null","img/motor_4.png","70","motor","","","","","","",""
"475","","338137","HierDytppjxnbv","e4dd8p3hbb","ms1000278","motor","","75","img/motor_7.png","75","motor","7","242","1","0","0","",""
"null","","338252","HierDytppjxnbv","e4dd8p3hbb","ms1000278","iti","","null","img/motor_7.png","75","motor","","","","","","",""
"388","","338649","HierDytppjxnbv","e4dd8p3hbb","ms1000278","motor","","74","img/motor_6.png","74","motor","6","243","1","0","0","",""
"null","","338758","HierDytppjxnbv","e4dd8p3hbb","ms1000278","iti","","null","img/motor_6.png","74","motor","","","","","","",""
"388","","339152","HierDytppjxnbv","e4dd8p3hbb","ms1000278","motor","","65","img/motor_1.png","65","motor","1","244","1","0","0","",""
"null","","339261","HierDytppjxnbv","e4dd8p3hbb","ms1000278","iti","","null","img/motor_1.png","65","motor","","","","","","",""
"444","","339713","HierDytppjxnbv","e4dd8p3hbb","ms1000278","motor","","68","img/motor_3.png","68","motor","3","245","1","0","0","",""
"null","","339828","HierDytppjxnbv","e4dd8p3hbb","ms1000278","iti","","null","img/motor_3.png","68","motor","","","","","","",""
"309","","340151","HierDytppjxnbv","e4dd8p3hbb","ms1000278","motor","","70","img/motor_4.png","70","motor","4","246","1","0","0","",""
"null","","340261","HierDytppjxnbv","e4dd8p3hbb","ms1000278","iti","","null","img/motor_4.png","70","motor","","","","","","",""
"341","","340616","HierDytppjxnbv","e4dd8p3hbb","ms1000278","motor","","68","img/motor_4.png","70","motor","4","247","0","1","0","",""
"57","","340689","HierDytppjxnbv","e4dd8p3hbb","ms1000278","motorRepeat","","70","img/motor_4.png","70","motor","4","247","1","0","0","",""
"null","","340794","HierDytppjxnbv","e4dd8p3hbb","ms1000278","iti","","null","img/motor_4.png","70","motor","","","","","","",""
"406","","341215","HierDytppjxnbv","e4dd8p3hbb","ms1000278","motor","","75","img/motor_7.png","75","motor","7","248","1","0","0","",""
"null","","341325","HierDytppjxnbv","e4dd8p3hbb","ms1000278","iti","","null","img/motor_7.png","75","motor","","","","","","",""
"484","","341816","HierDytppjxnbv","e4dd8p3hbb","ms1000278","motor","","65","img/motor_1.png","65","motor","1","249","1","0","0","",""
"null","","341925","HierDytppjxnbv","e4dd8p3hbb","ms1000278","iti","","null","img/motor_1.png","65","motor","","","","","","",""
"516","","342456","HierDytppjxnbv","e4dd8p3hbb","ms1000278","motor","","70","img/motor_4.png","70","motor","4","250","1","0","0","",""
"null","","342572","HierDytppjxnbv","e4dd8p3hbb","ms1000278","iti","","null","img/motor_4.png","70","motor","","","","","","",""
"348","","342929","HierDytppjxnbv","e4dd8p3hbb","ms1000278","motor","","72","img/motor_5.png","72","motor","5","251","1","0","0","",""
"null","","343038","HierDytppjxnbv","e4dd8p3hbb","ms1000278","iti","","null","img/motor_5.png","72","motor","","","","","","",""
"348","","343393","HierDytppjxnbv","e4dd8p3hbb","ms1000278","motor","","76","img/motor_8.png","76","motor","8","252","1","0","0","",""
"null","","343508","HierDytppjxnbv","e4dd8p3hbb","ms1000278","iti","","null","img/motor_8.png","76","motor","","","","","","",""
"533","","344056","HierDytppjxnbv","e4dd8p3hbb","ms1000278","motor","","68","img/motor_3.png","68","motor","3","253","1","0","0","",""
"null","","344171","HierDytppjxnbv","e4dd8p3hbb","ms1000278","iti","","null","img/motor_3.png","68","motor","","","","","","",""
"453","","344640","HierDytppjxnbv","e4dd8p3hbb","ms1000278","motor","","70","img/motor_4.png","70","motor","4","254","1","0","0","",""
"null","","344750","HierDytppjxnbv","e4dd8p3hbb","ms1000278","iti","","null","img/motor_4.png","70","motor","","","","","","",""
"452","","345209","HierDytppjxnbv","e4dd8p3hbb","ms1000278","motor","","68","img/motor_3.png","68","motor","3","255","1","0","0","",""
"null","","345325","HierDytppjxnbv","e4dd8p3hbb","ms1000278","iti","","null","img/motor_3.png","68","motor","","","","","","",""
"444","","345784","HierDytppjxnbv","e4dd8p3hbb","ms1000278","motor","","75","img/motor_6.png","74","motor","6","256","0","1","0","",""
"192","","345986","HierDytppjxnbv","e4dd8p3hbb","ms1000278","motorRepeat","","74","img/motor_6.png","74","motor","6","256","1","0","0","",""
"null","","346101","HierDytppjxnbv","e4dd8p3hbb","ms1000278","iti","","null","img/motor_6.png","74","motor","","","","","","",""
"411","","346528","HierDytppjxnbv","e4dd8p3hbb","ms1000278","motor","","70","img/motor_3.png","68","motor","3","257","0","1","0","",""
"104","","346641","HierDytppjxnbv","e4dd8p3hbb","ms1000278","motorRepeat","","68","img/motor_3.png","68","motor","3","257","1","0","0","",""
"null","","346756","HierDytppjxnbv","e4dd8p3hbb","ms1000278","iti","","null","img/motor_3.png","68","motor","","","","","","",""
"332","","347097","HierDytppjxnbv","e4dd8p3hbb","ms1000278","motor","","68","img/motor_3.png","68","motor","3","258","1","0","0","",""
"null","","347206","HierDytppjxnbv","e4dd8p3hbb","ms1000278","iti","","null","img/motor_3.png","68","motor","","","","","","",""
"388","","347602","HierDytppjxnbv","e4dd8p3hbb","ms1000278","motor","","76","img/motor_8.png","76","motor","8","259","1","0","0","",""
"null","","347710","HierDytppjxnbv","e4dd8p3hbb","ms1000278","iti","","null","img/motor_8.png","76","motor","","","","","","",""
"387","","348105","HierDytppjxnbv","e4dd8p3hbb","ms1000278","motor","","65","img/motor_1.png","65","motor","1","260","1","0","0","",""
"null","","348213","HierDytppjxnbv","e4dd8p3hbb","ms1000278","iti","","null","img/motor_1.png","65","motor","","","","","","",""
"364","","348586","HierDytppjxnbv","e4dd8p3hbb","ms1000278","motor","","68","img/motor_3.png","68","motor","3","261","1","0","0","",""
"null","","348695","HierDytppjxnbv","e4dd8p3hbb","ms1000278","iti","","null","img/motor_3.png","68","motor","","","","","","",""
"363","","349071","HierDytppjxnbv","e4dd8p3hbb","ms1000278","motor","","72","img/motor_4.png","70","motor","4","262","0","1","0","",""
"50","","349135","HierDytppjxnbv","e4dd8p3hbb","ms1000278","motorRepeat","","70","img/motor_4.png","70","motor","4","262","1","0","0","",""
"null","","349245","HierDytppjxnbv","e4dd8p3hbb","ms1000278","iti","","null","img/motor_4.png","70","motor","","","","","","",""
"414","","349665","HierDytppjxnbv","e4dd8p3hbb","ms1000278","motor","","65","img/motor_1.png","65","motor","1","263","1","0","0","",""
"null","","349780","HierDytppjxnbv","e4dd8p3hbb","ms1000278","iti","","null","img/motor_1.png","65","motor","","","","","","",""
"397","","350192","HierDytppjxnbv","e4dd8p3hbb","ms1000278","motor","","76","img/motor_8.png","76","motor","8","264","1","0","0","",""
"null","","350301","HierDytppjxnbv","e4dd8p3hbb","ms1000278","iti","","null","img/motor_8.png","76","motor","","","","","","",""
"476","","350785","HierDytppjxnbv","e4dd8p3hbb","ms1000278","motor","","70","img/motor_4.png","70","motor","4","265","1","0","0","",""
"null","","350895","HierDytppjxnbv","e4dd8p3hbb","ms1000278","iti","","null","img/motor_4.png","70","motor","","","","","","",""
"387","","351290","HierDytppjxnbv","e4dd8p3hbb","ms1000278","motor","","65","img/motor_1.png","65","motor","1","266","1","0","0","",""
"null","","351398","HierDytppjxnbv","e4dd8p3hbb","ms1000278","iti","","null","img/motor_1.png","65","motor","","","","","","",""
"484","","351889","HierDytppjxnbv","e4dd8p3hbb","ms1000278","motor","","74","img/motor_6.png","74","motor","6","267","1","0","0","",""
"null","","352004","HierDytppjxnbv","e4dd8p3hbb","ms1000278","iti","","null","img/motor_6.png","74","motor","","","","","","",""
"461","","352474","HierDytppjxnbv","e4dd8p3hbb","ms1000278","motor","","68","img/motor_2.png","83","motor","2","268","0","1","0","",""
"104","","352585","HierDytppjxnbv","e4dd8p3hbb","ms1000278","motorRepeat","","83","img/motor_2.png","83","motor","2","268","1","0","0","",""
"null","","352699","HierDytppjxnbv","e4dd8p3hbb","ms1000278","iti","","null","img/motor_2.png","83","motor","","","","","","",""
"421","","353129","HierDytppjxnbv","e4dd8p3hbb","ms1000278","motor","","76","img/motor_8.png","76","motor","8","269","1","0","0","",""
"null","","353235","HierDytppjxnbv","e4dd8p3hbb","ms1000278","iti","","null","img/motor_8.png","76","motor","","","","","","",""
"286","","353529","HierDytppjxnbv","e4dd8p3hbb","ms1000278","motor","","76","img/motor_8.png","76","motor","8","270","1","0","0","",""
"null","","353644","HierDytppjxnbv","e4dd8p3hbb","ms1000278","iti","","null","img/motor_8.png","76","motor","","","","","","",""
"389","","354042","HierDytppjxnbv","e4dd8p3hbb","ms1000278","motor","","65","img/motor_1.png","65","motor","1","271","1","0","0","",""
"null","","354150","HierDytppjxnbv","e4dd8p3hbb","ms1000278","iti","","null","img/motor_1.png","65","motor","","","","","","",""
"363","","354528","HierDytppjxnbv","e4dd8p3hbb","ms1000278","motor","","68","img/motor_2.png","83","motor","2","272","0","1","0","",""
"216","","354753","HierDytppjxnbv","e4dd8p3hbb","ms1000278","motorRepeat","","83","img/motor_2.png","83","motor","2","272","1","0","0","",""
"null","","354862","HierDytppjxnbv","e4dd8p3hbb","ms1000278","iti","","null","img/motor_2.png","83","motor","","","","","","",""
"340","","355209","HierDytppjxnbv","e4dd8p3hbb","ms1000278","motor","","68","img/motor_3.png","68","motor","3","273","1","0","0","",""
"null","","355323","HierDytppjxnbv","e4dd8p3hbb","ms1000278","iti","","null","img/motor_3.png","68","motor","","","","","","",""
"413","","355752","HierDytppjxnbv","e4dd8p3hbb","ms1000278","motor","","70","img/motor_4.png","70","motor","4","274","1","0","0","",""
"null","","355861","HierDytppjxnbv","e4dd8p3hbb","ms1000278","iti","","null","img/motor_4.png","70","motor","","","","","","",""
"348","","356223","HierDytppjxnbv","e4dd8p3hbb","ms1000278","motor","","70","img/motor_4.png","70","motor","4","275","1","0","0","",""
"null","","356340","HierDytppjxnbv","e4dd8p3hbb","ms1000278","iti","","null","img/motor_4.png","70","motor","","","","","","",""
"421","","356776","HierDytppjxnbv","e4dd8p3hbb","ms1000278","motor","","83","img/motor_2.png","83","motor","2","276","1","0","0","",""
"null","","356885","HierDytppjxnbv","e4dd8p3hbb","ms1000278","iti","","null","img/motor_2.png","83","motor","","","","","","",""
"580","","357479","HierDytppjxnbv","e4dd8p3hbb","ms1000278","motor","","74","img/motor_6.png","74","motor","6","277","1","0","0","",""
"null","","357595","HierDytppjxnbv","e4dd8p3hbb","ms1000278","iti","","null","img/motor_6.png","74","motor","","","","","","",""
"365","","357970","HierDytppjxnbv","e4dd8p3hbb","ms1000278","motor","","83","img/motor_2.png","83","motor","2","278","1","0","0","",""
"null","","358079","HierDytppjxnbv","e4dd8p3hbb","ms1000278","iti","","null","img/motor_2.png","83","motor","","","","","","",""
"442","","358530","HierDytppjxnbv","e4dd8p3hbb","ms1000278","motor","","68","img/motor_3.png","68","motor","3","279","1","0","0","",""
"null","","358638","HierDytppjxnbv","e4dd8p3hbb","ms1000278","iti","","null","img/motor_3.png","68","motor","","","","","","",""
"484","","359129","HierDytppjxnbv","e4dd8p3hbb","ms1000278","motor","","74","img/motor_6.png","74","motor","6","280","1","0","0","",""
"null","","359237","HierDytppjxnbv","e4dd8p3hbb","ms1000278","iti","","null","img/motor_6.png","74","motor","","","","","","",""
"388","","359633","HierDytppjxnbv","e4dd8p3hbb","ms1000278","motor","","76","img/motor_8.png","76","motor","8","281","1","0","0","",""
"null","","359742","HierDytppjxnbv","e4dd8p3hbb","ms1000278","iti","","null","img/motor_8.png","76","motor","","","","","","",""
"394","","360152","HierDytppjxnbv","e4dd8p3hbb","ms1000278","motor","","72","img/motor_5.png","72","motor","5","282","1","0","0","",""
"null","","360268","HierDytppjxnbv","e4dd8p3hbb","ms1000278","iti","","null","img/motor_5.png","72","motor","","","","","","",""
"428","","360712","HierDytppjxnbv","e4dd8p3hbb","ms1000278","motor","","74","img/motor_6.png","74","motor","6","283","1","0","0","",""
"null","","360827","HierDytppjxnbv","e4dd8p3hbb","ms1000278","iti","","null","img/motor_6.png","74","motor","","","","","","",""
"445","","361281","HierDytppjxnbv","e4dd8p3hbb","ms1000278","motor","","75","img/motor_7.png","75","motor","7","284","1","0","0","",""
"null","","361390","HierDytppjxnbv","e4dd8p3hbb","ms1000278","iti","","null","img/motor_7.png","75","motor","","","","","","",""
"410","","361809","HierDytppjxnbv","e4dd8p3hbb","ms1000278","motor","","72","img/motor_5.png","72","motor","5","285","1","0","0","",""
"null","","361918","HierDytppjxnbv","e4dd8p3hbb","ms1000278","iti","","null","img/motor_5.png","72","motor","","","","","","",""
"523","","362456","HierDytppjxnbv","e4dd8p3hbb","ms1000278","motor","","83","img/motor_2.png","83","motor","2","286","1","0","0","",""
"null","","362572","HierDytppjxnbv","e4dd8p3hbb","ms1000278","iti","","null","img/motor_2.png","83","motor","","","","","","",""
"413","","362992","HierDytppjxnbv","e4dd8p3hbb","ms1000278","motor","","76","img/motor_8.png","76","motor","8","287","1","0","0","",""
"null","","363101","HierDytppjxnbv","e4dd8p3hbb","ms1000278","iti","","null","img/motor_8.png","76","motor","","","","","","",""
"468","","363577","HierDytppjxnbv","e4dd8p3hbb","ms1000278","motor","","68","img/motor_3.png","68","motor","3","288","1","0","0","",""
"null","","363692","HierDytppjxnbv","e4dd8p3hbb","ms1000278","iti","","null","img/motor_3.png","68","motor","","","","","","",""
"404","","364106","HierDytppjxnbv","e4dd8p3hbb","ms1000278","motor","","68","img/motor_3.png","68","motor","3","289","1","0","0","",""
"null","","364221","HierDytppjxnbv","e4dd8p3hbb","ms1000278","iti","","null","img/motor_3.png","68","motor","","","","","","",""
"379","","364608","HierDytppjxnbv","e4dd8p3hbb","ms1000278","motor","","65","img/motor_1.png","65","motor","1","290","1","0","0","",""
"null","","364717","HierDytppjxnbv","e4dd8p3hbb","ms1000278","iti","","null","img/motor_1.png","65","motor","","","","","","",""
"364","","365090","HierDytppjxnbv","e4dd8p3hbb","ms1000278","motor","","68","img/motor_3.png","68","motor","3","291","1","0","0","",""
"null","","365204","HierDytppjxnbv","e4dd8p3hbb","ms1000278","iti","","null","img/motor_3.png","68","motor","","","","","","",""
"349","","365562","HierDytppjxnbv","e4dd8p3hbb","ms1000278","motor","","76","img/motor_8.png","76","motor","8","292","1","0","0","",""
"null","","365670","HierDytppjxnbv","e4dd8p3hbb","ms1000278","iti","","null","img/motor_8.png","76","motor","","","","","","",""
"427","","366106","HierDytppjxnbv","e4dd8p3hbb","ms1000278","motor","","74","img/motor_6.png","74","motor","6","293","1","0","0","",""
"63","","366215","HierDytppjxnbv","e4dd8p3hbb","ms1000278","iti","","74","img/motor_6.png","74","motor","","","","","","",""
"394","","366624","HierDytppjxnbv","e4dd8p3hbb","ms1000278","motor","","70","img/motor_4.png","70","motor","4","294","1","0","0","",""
"null","","366733","HierDytppjxnbv","e4dd8p3hbb","ms1000278","iti","","null","img/motor_4.png","70","motor","","","","","","",""
"388","","367129","HierDytppjxnbv","e4dd8p3hbb","ms1000278","motor","","68","img/motor_3.png","68","motor","3","295","1","0","0","",""
"null","","367238","HierDytppjxnbv","e4dd8p3hbb","ms1000278","iti","","null","img/motor_3.png","68","motor","","","","","","",""
"396","","367642","HierDytppjxnbv","e4dd8p3hbb","ms1000278","motor","","75","img/motor_7.png","75","motor","7","296","1","0","0","",""
"null","","367750","HierDytppjxnbv","e4dd8p3hbb","ms1000278","iti","","null","img/motor_7.png","75","motor","","","","","","",""
"299","","368058","HierDytppjxnbv","e4dd8p3hbb","ms1000278","motor","","74","img/motor_6.png","74","motor","6","297","1","0","0","",""
"null","","368173","HierDytppjxnbv","e4dd8p3hbb","ms1000278","iti","","null","img/motor_6.png","74","motor","","","","","","",""
"395","","368577","HierDytppjxnbv","e4dd8p3hbb","ms1000278","motor","","75","img/motor_7.png","75","motor","7","298","1","0","0","",""
"null","","368686","HierDytppjxnbv","e4dd8p3hbb","ms1000278","iti","","null","img/motor_7.png","75","motor","","","","","","",""
"427","","369121","HierDytppjxnbv","e4dd8p3hbb","ms1000278","motor","","70","img/motor_4.png","70","motor","4","299","1","0","0","",""
"null","","369230","HierDytppjxnbv","e4dd8p3hbb","ms1000278","iti","","null","img/motor_4.png","70","motor","","","","","","",""
"428","","369666","HierDytppjxnbv","e4dd8p3hbb","ms1000278","motor","","68","img/motor_3.png","68","motor","3","300","1","0","0","",""
"null","","369781","HierDytppjxnbv","e4dd8p3hbb","ms1000278","iti","","null","img/motor_3.png","68","motor","","","","","","",""
"412","","370200","HierDytppjxnbv","e4dd8p3hbb","ms1000278","motor","","70","img/motor_4.png","70","motor","4","301","1","0","0","",""
"null","","370309","HierDytppjxnbv","e4dd8p3hbb","ms1000278","iti","","null","img/motor_4.png","70","motor","","","","","","",""
"467","","370786","HierDytppjxnbv","e4dd8p3hbb","ms1000278","motor","","83","img/motor_2.png","83","motor","2","302","1","0","0","",""
"null","","370901","HierDytppjxnbv","e4dd8p3hbb","ms1000278","iti","","null","img/motor_2.png","83","motor","","","","","","",""
"363","","371280","HierDytppjxnbv","e4dd8p3hbb","ms1000278","motor","","65","img/motor_1.png","65","motor","1","303","1","0","0","",""
"null","","371389","HierDytppjxnbv","e4dd8p3hbb","ms1000278","iti","","null","img/motor_1.png","65","motor","","","","","","",""
"565","","371969","HierDytppjxnbv","e4dd8p3hbb","ms1000278","motor","","75","img/motor_7.png","75","motor","7","304","1","0","0","",""
"null","","372085","HierDytppjxnbv","e4dd8p3hbb","ms1000278","iti","","null","img/motor_7.png","75","motor","","","","","","",""
"323","","372423","HierDytppjxnbv","e4dd8p3hbb","ms1000278","motor","","74","img/motor_6.png","74","motor","6","305","1","0","0","",""
"null","","372539","HierDytppjxnbv","e4dd8p3hbb","ms1000278","iti","","null","img/motor_6.png","74","motor","","","","","","",""
"382","","372936","HierDytppjxnbv","e4dd8p3hbb","ms1000278","motor","","65","img/motor_1.png","65","motor","1","306","1","0","0","",""
"null","","373045","HierDytppjxnbv","e4dd8p3hbb","ms1000278","iti","","null","img/motor_1.png","65","motor","","","","","","",""
"427","","373488","HierDytppjxnbv","e4dd8p3hbb","ms1000278","motor","","74","img/motor_6.png","74","motor","6","307","1","0","0","",""
"null","","373604","HierDytppjxnbv","e4dd8p3hbb","ms1000278","iti","","null","img/motor_6.png","74","motor","","","","","","",""
"358","","373969","HierDytppjxnbv","e4dd8p3hbb","ms1000278","motor","","72","img/motor_5.png","72","motor","5","308","1","0","0","",""
"null","","374078","HierDytppjxnbv","e4dd8p3hbb","ms1000278","iti","","null","img/motor_5.png","72","motor","","","","","","",""
"394","","374482","HierDytppjxnbv","e4dd8p3hbb","ms1000278","motor","","75","img/motor_7.png","75","motor","7","309","1","0","0","",""
"null","","374597","HierDytppjxnbv","e4dd8p3hbb","ms1000278","iti","","null","img/motor_7.png","75","motor","","","","","","",""
"499","","375105","HierDytppjxnbv","e4dd8p3hbb","ms1000278","motor","","68","img/motor_3.png","68","motor","3","310","1","0","0","",""
"null","","375220","HierDytppjxnbv","e4dd8p3hbb","ms1000278","iti","","null","img/motor_3.png","68","motor","","","","","","",""
"309","","375544","HierDytppjxnbv","e4dd8p3hbb","ms1000278","motor","","70","img/motor_4.png","70","motor","4","311","1","0","0","",""
"null","","375660","HierDytppjxnbv","e4dd8p3hbb","ms1000278","iti","","null","img/motor_4.png","70","motor","","","","","","",""
"371","","376039","HierDytppjxnbv","e4dd8p3hbb","ms1000278","motor","","75","img/motor_6.png","74","motor","6","312","0","1","0","",""
"194","","376241","HierDytppjxnbv","e4dd8p3hbb","ms1000278","motorRepeat","","74","img/motor_6.png","74","motor","6","312","1","0","0","",""
"null","","376356","HierDytppjxnbv","e4dd8p3hbb","ms1000278","iti","","null","img/motor_6.png","74","motor","","","","","","",""
"476","","376848","HierDytppjxnbv","e4dd8p3hbb","ms1000278","motor","","70","img/motor_4.png","70","motor","4","313","1","0","0","",""
"null","","376964","HierDytppjxnbv","e4dd8p3hbb","ms1000278","iti","","null","img/motor_4.png","70","motor","","","","","","",""
"381","","377353","HierDytppjxnbv","e4dd8p3hbb","ms1000278","motor","","74","img/motor_6.png","74","motor","6","314","1","0","0","",""
"null","","377469","HierDytppjxnbv","e4dd8p3hbb","ms1000278","iti","","null","img/motor_6.png","74","motor","","","","","","",""
"333","","377809","HierDytppjxnbv","e4dd8p3hbb","ms1000278","motor","","72","img/motor_5.png","72","motor","5","315","1","0","0","",""
"null","","377925","HierDytppjxnbv","e4dd8p3hbb","ms1000278","iti","","null","img/motor_5.png","72","motor","","","","","","",""
"397","","378336","HierDytppjxnbv","e4dd8p3hbb","ms1000278","motor","","65","img/motor_1.png","65","motor","1","316","1","0","0","",""
"null","","378452","HierDytppjxnbv","e4dd8p3hbb","ms1000278","iti","","null","img/motor_1.png","65","motor","","","","","","",""
"388","","378849","HierDytppjxnbv","e4dd8p3hbb","ms1000278","motor","","72","img/motor_5.png","72","motor","5","317","1","0","0","",""
"null","","378965","HierDytppjxnbv","e4dd8p3hbb","ms1000278","iti","","null","img/motor_5.png","72","motor","","","","","","",""
"412","","379392","HierDytppjxnbv","e4dd8p3hbb","ms1000278","motor","","75","img/motor_6.png","74","motor","6","318","0","1","0","",""
"241","","379648","HierDytppjxnbv","e4dd8p3hbb","ms1000278","motorRepeat","","74","img/motor_6.png","74","motor","6","318","1","0","0","",""
"null","","379764","HierDytppjxnbv","e4dd8p3hbb","ms1000278","iti","","null","img/motor_6.png","74","motor","","","","","","",""
"444","","380218","HierDytppjxnbv","e4dd8p3hbb","ms1000278","motor","","65","img/motor_1.png","65","motor","1","319","1","0","0","",""
"null","","380326","HierDytppjxnbv","e4dd8p3hbb","ms1000278","iti","","null","img/motor_1.png","65","motor","","","","","","",""
"516","","380849","HierDytppjxnbv","e4dd8p3hbb","ms1000278","motor","","75","img/motor_7.png","75","motor","7","320","1","0","0","",""
"null","","380958","HierDytppjxnbv","e4dd8p3hbb","ms1000278","iti","","null","img/motor_7.png","75","motor","","","","","","",""
"556","","381528","HierDytppjxnbv","e4dd8p3hbb","ms1000278","motor","","83","img/motor_3.png","68","motor","3","321","0","1","0","",""
"137","","381680","HierDytppjxnbv","e4dd8p3hbb","ms1000278","motorRepeat","","68","img/motor_3.png","68","motor","3","321","1","0","0","",""
"null","","381796","HierDytppjxnbv","e4dd8p3hbb","ms1000278","iti","","null","img/motor_3.png","68","motor","","","","","","",""
"428","","382240","HierDytppjxnbv","e4dd8p3hbb","ms1000278","motor","","76","img/motor_8.png","76","motor","8","322","1","0","0","",""
"null","","382349","HierDytppjxnbv","e4dd8p3hbb","ms1000278","iti","","null","img/motor_8.png","76","motor","","","","","","",""
"435","","382794","HierDytppjxnbv","e4dd8p3hbb","ms1000278","motor","","70","img/motor_4.png","70","motor","4","323","1","0","0","",""
"null","","382902","HierDytppjxnbv","e4dd8p3hbb","ms1000278","iti","","null","img/motor_4.png","70","motor","","","","","","",""
"395","","383306","HierDytppjxnbv","e4dd8p3hbb","ms1000278","motor","","76","img/motor_8.png","76","motor","8","324","1","0","0","",""
"null","","383421","HierDytppjxnbv","e4dd8p3hbb","ms1000278","iti","","null","img/motor_8.png","76","motor","","","","","","",""
"541","","383969","HierDytppjxnbv","e4dd8p3hbb","ms1000278","motor","","68","img/motor_3.png","68","motor","3","325","1","0","0","",""
"71","","384084","HierDytppjxnbv","e4dd8p3hbb","ms1000278","iti","","68","img/motor_3.png","68","motor","","","","","","",""
"412","","384505","HierDytppjxnbv","e4dd8p3hbb","ms1000278","motor","","83","img/motor_2.png","83","motor","2","326","1","0","0","",""
"null","","384620","HierDytppjxnbv","e4dd8p3hbb","ms1000278","iti","","null","img/motor_2.png","83","motor","","","","","","",""
"324","","384960","HierDytppjxnbv","e4dd8p3hbb","ms1000278","motor","","65","img/motor_2.png","83","motor","2","327","0","1","0","",""
"185","","385154","HierDytppjxnbv","e4dd8p3hbb","ms1000278","motorRepeat","","83","img/motor_2.png","83","motor","2","327","1","0","0","",""
"null","","385262","HierDytppjxnbv","e4dd8p3hbb","ms1000278","iti","","null","img/motor_2.png","83","motor","","","","","","",""
"356","","385633","HierDytppjxnbv","e4dd8p3hbb","ms1000278","motor","","76","img/motor_8.png","76","motor","8","328","1","0","0","",""
"null","","385742","HierDytppjxnbv","e4dd8p3hbb","ms1000278","iti","","null","img/motor_8.png","76","motor","","","","","","",""
"475","","386232","HierDytppjxnbv","e4dd8p3hbb","ms1000278","motor","","70","img/motor_4.png","70","motor","4","329","1","0","0","",""
"null","","386341","HierDytppjxnbv","e4dd8p3hbb","ms1000278","iti","","null","img/motor_4.png","70","motor","","","","","","",""
"380","","386737","HierDytppjxnbv","e4dd8p3hbb","ms1000278","motor","","65","img/motor_1.png","65","motor","1","330","1","0","0","",""
"null","","386845","HierDytppjxnbv","e4dd8p3hbb","ms1000278","iti","","null","img/motor_1.png","65","motor","","","","","","",""
"460","","387314","HierDytppjxnbv","e4dd8p3hbb","ms1000278","motor","","74","img/motor_6.png","74","motor","6","331","1","0","0","",""
"null","","387422","HierDytppjxnbv","e4dd8p3hbb","ms1000278","iti","","null","img/motor_6.png","74","motor","","","","","","",""
"420","","387848","HierDytppjxnbv","e4dd8p3hbb","ms1000278","motor","","76","img/motor_8.png","76","motor","8","332","1","0","0","",""
"null","","387963","HierDytppjxnbv","e4dd8p3hbb","ms1000278","iti","","null","img/motor_8.png","76","motor","","","","","","",""
"621","","388594","HierDytppjxnbv","e4dd8p3hbb","ms1000278","motor","","72","img/motor_5.png","72","motor","5","333","1","0","0","",""
"null","","388702","HierDytppjxnbv","e4dd8p3hbb","ms1000278","iti","","null","img/motor_5.png","72","motor","","","","","","",""
"388","","389104","HierDytppjxnbv","e4dd8p3hbb","ms1000278","motor","","65","img/motor_1.png","65","motor","1","334","1","0","0","",""
"null","","389214","HierDytppjxnbv","e4dd8p3hbb","ms1000278","iti","","null","img/motor_1.png","65","motor","","","","","","",""
"541","","389761","HierDytppjxnbv","e4dd8p3hbb","ms1000278","motor","","75","img/motor_7.png","75","motor","7","335","1","0","0","",""
"null","","389870","HierDytppjxnbv","e4dd8p3hbb","ms1000278","iti","","null","img/motor_7.png","75","motor","","","","","","",""
"388","","390268","HierDytppjxnbv","e4dd8p3hbb","ms1000278","motor","","65","img/motor_1.png","65","motor","1","336","1","0","0","",""
"null","","390376","HierDytppjxnbv","e4dd8p3hbb","ms1000278","iti","","null","img/motor_1.png","65","motor","","","","","","",""
"519","","390906","HierDytppjxnbv","e4dd8p3hbb","ms1000278","motor","","75","img/motor_7.png","75","motor","7","337","1","0","0","",""
"null","","391015","HierDytppjxnbv","e4dd8p3hbb","ms1000278","iti","","null","img/motor_7.png","75","motor","","","","","","",""
"378","","391401","HierDytppjxnbv","e4dd8p3hbb","ms1000278","motor","","76","img/motor_8.png","76","motor","8","338","1","0","0","",""
"null","","391511","HierDytppjxnbv","e4dd8p3hbb","ms1000278","iti","","null","img/motor_8.png","76","motor","","","","","","",""
"370","","391890","HierDytppjxnbv","e4dd8p3hbb","ms1000278","motor","","72","img/motor_5.png","72","motor","5","339","1","0","0","",""
"null","","392005","HierDytppjxnbv","e4dd8p3hbb","ms1000278","iti","","null","img/motor_5.png","72","motor","","","","","","",""
"476","","392489","HierDytppjxnbv","e4dd8p3hbb","ms1000278","motor","","68","img/motor_3.png","68","motor","3","340","1","0","0","",""
"null","","392604","HierDytppjxnbv","e4dd8p3hbb","ms1000278","iti","","null","img/motor_3.png","68","motor","","","","","","",""
"427","","393041","HierDytppjxnbv","e4dd8p3hbb","ms1000278","motor","","75","img/motor_6.png","74","motor","6","341","0","1","0","",""
"185","","393240","HierDytppjxnbv","e4dd8p3hbb","ms1000278","motorRepeat","","74","img/motor_6.png","74","motor","6","341","1","0","0","",""
"null","","393356","HierDytppjxnbv","e4dd8p3hbb","ms1000278","iti","","null","img/motor_6.png","74","motor","","","","","","",""
"437","","393808","HierDytppjxnbv","e4dd8p3hbb","ms1000278","motor","","75","img/motor_7.png","75","motor","7","342","1","0","0","",""
"null","","393924","HierDytppjxnbv","e4dd8p3hbb","ms1000278","iti","","null","img/motor_7.png","75","motor","","","","","","",""
"300","","394240","HierDytppjxnbv","e4dd8p3hbb","ms1000278","motor","","76","img/motor_8.png","76","motor","8","343","1","0","0","",""
"null","","394350","HierDytppjxnbv","e4dd8p3hbb","ms1000278","iti","","null","img/motor_8.png","76","motor","","","","","","",""
"340","","394697","HierDytppjxnbv","e4dd8p3hbb","ms1000278","motor","","76","img/motor_8.png","76","motor","8","344","1","0","0","",""
"null","","394813","HierDytppjxnbv","e4dd8p3hbb","ms1000278","iti","","null","img/motor_8.png","76","motor","","","","","","",""
"467","","395296","HierDytppjxnbv","e4dd8p3hbb","ms1000278","motor","","74","img/motor_6.png","74","motor","6","345","1","0","0","",""
"null","","395406","HierDytppjxnbv","e4dd8p3hbb","ms1000278","iti","","null","img/motor_6.png","74","motor","","","","","","",""
"315","","395736","HierDytppjxnbv","e4dd8p3hbb","ms1000278","motor","","74","img/motor_6.png","74","motor","6","346","1","0","0","",""
"null","","395853","HierDytppjxnbv","e4dd8p3hbb","ms1000278","iti","","null","img/motor_6.png","74","motor","","","","","","",""
"461","","396328","HierDytppjxnbv","e4dd8p3hbb","ms1000278","motor","","75","img/motor_7.png","75","motor","7","347","1","0","0","",""
"null","","396444","HierDytppjxnbv","e4dd8p3hbb","ms1000278","iti","","null","img/motor_7.png","75","motor","","","","","","",""
"516","","396969","HierDytppjxnbv","e4dd8p3hbb","ms1000278","motor","","70","img/motor_4.png","70","motor","4","348","1","0","0","",""
"null","","397085","HierDytppjxnbv","e4dd8p3hbb","ms1000278","iti","","null","img/motor_4.png","70","motor","","","","","","",""
"387","","397481","HierDytppjxnbv","e4dd8p3hbb","ms1000278","motor","","74","img/motor_6.png","74","motor","6","349","1","0","0","",""
"null","","397597","HierDytppjxnbv","e4dd8p3hbb","ms1000278","iti","","null","img/motor_6.png","74","motor","","","","","","",""
"548","","398154","HierDytppjxnbv","e4dd8p3hbb","ms1000278","motor","","70","img/motor_4.png","70","motor","4","350","1","0","0","",""
"null","","398269","HierDytppjxnbv","e4dd8p3hbb","ms1000278","iti","","null","img/motor_4.png","70","motor","","","","","","",""
"403","","398686","HierDytppjxnbv","e4dd8p3hbb","ms1000278","motor","","72","img/motor_5.png","72","motor","5","351","1","0","0","",""
"null","","398802","HierDytppjxnbv","e4dd8p3hbb","ms1000278","iti","","null","img/motor_5.png","72","motor","","","","","","",""
"424","","399240","HierDytppjxnbv","e4dd8p3hbb","ms1000278","motor","","70","img/motor_4.png","70","motor","4","352","1","0","0","",""
"null","","399357","HierDytppjxnbv","e4dd8p3hbb","ms1000278","iti","","null","img/motor_4.png","70","motor","","","","","","",""
"477","","399849","HierDytppjxnbv","e4dd8p3hbb","ms1000278","motor","","68","img/motor_2.png","83","motor","2","353","0","1","0","",""
"97","","399960","HierDytppjxnbv","e4dd8p3hbb","ms1000278","motorRepeat","","83","img/motor_2.png","83","motor","2","353","1","0","0","",""
"null","","400077","HierDytppjxnbv","e4dd8p3hbb","ms1000278","iti","","null","img/motor_2.png","83","motor","","","","","","",""
"507","","400593","HierDytppjxnbv","e4dd8p3hbb","ms1000278","motor","","75","img/motor_7.png","75","motor","7","354","1","0","0","",""
"null","","400702","HierDytppjxnbv","e4dd8p3hbb","ms1000278","iti","","null","img/motor_7.png","75","motor","","","","","","",""
