"rt","responses","time_elapsed","subject","prolificID","demoID","trialType","question_order","key_press","stim","corrresp","phase","stimNum","trialNum","corr","repeatTrial","motorSwitch","pracCounter","hierarchy"
"865097","{""Q0"":""msl000386""}","865647","HierDypqnzmcx0","x8suzoj586","msl000386","","","","","","","","","","","","",""
"46278","","911938","HierDypqnzmcx0","x8suzoj586","msl000386","","","","","","","","","","","","",""
"","","915288","HierDypqnzmcx0","x8suzoj586","msl000386","fullscreen","","","","","","","","","","","",""
"15433","{""Vision"":""Yes"",""Handedness"":""Right"",""Gender"":""female""}","930736","HierDypqnzmcx0","x8suzoj586","msl000386","","[0,1,2]","","","","","","","","","","",""
"5241","{""Q0"":""18""}","935994","HierDypqnzmcx0","x8suzoj586","msl000386","","","","","","","","","","","","",""
"16892","","952895","HierDypqnzmcx0","x8suzoj586","msl000386","","","","","","","","","","","","",""
"1952","","954855","HierDypqnzmcx0","x8suzoj586","msl000386","motor","","76","img/motor_8.png","76","motor","8","1","1","0","0","",""
"null","","954964","HierDypqnzmcx0","x8suzoj586","msl000386","iti","","null","img/motor_8.png","76","motor","","","","","","",""
"2778","","957757","HierDypqnzmcx0","x8suzoj586","msl000386","motor","","75","img/motor_7.png","75","motor","7","2","1","0","0","",""
"null","","957866","HierDypqnzmcx0","x8suzoj586","msl000386","iti","","null","img/motor_7.png","75","motor","","","","","","",""
"1158","","959031","HierDypqnzmcx0","x8suzoj586","msl000386","motor","","72","img/motor_5.png","72","motor","5","3","1","0","0","",""
"null","","959139","HierDypqnzmcx0","x8suzoj586","msl000386","iti","","null","img/motor_5.png","72","motor","","","","","","",""
"677","","959823","HierDypqnzmcx0","x8suzoj586","msl000386","motor","","76","img/motor_8.png","76","motor","8","4","1","0","0","",""
"null","","959937","HierDypqnzmcx0","x8suzoj586","msl000386","iti","","null","img/motor_8.png","76","motor","","","","","","",""
"534","","960485","HierDypqnzmcx0","x8suzoj586","msl000386","motor","","72","img/motor_5.png","72","motor","5","5","1","0","0","",""
"null","","960593","HierDypqnzmcx0","x8suzoj586","msl000386","iti","","null","img/motor_5.png","72","motor","","","","","","",""
"669","","961271","HierDypqnzmcx0","x8suzoj586","msl000386","motor","","68","img/motor_3.png","68","motor","3","6","1","0","0","",""
"null","","961379","HierDypqnzmcx0","x8suzoj586","msl000386","iti","","null","img/motor_3.png","68","motor","","","","","","",""
"1731","","963119","HierDypqnzmcx0","x8suzoj586","msl000386","motor","","68","img/motor_3.png","68","motor","3","7","1","0","0","",""
"null","","963233","HierDypqnzmcx0","x8suzoj586","msl000386","iti","","null","img/motor_3.png","68","motor","","","","","","",""
"701","","963948","HierDypqnzmcx0","x8suzoj586","msl000386","motor","","76","img/motor_8.png","76","motor","8","8","1","0","0","",""
"null","","964064","HierDypqnzmcx0","x8suzoj586","msl000386","iti","","null","img/motor_8.png","76","motor","","","","","","",""
"670","","964743","HierDypqnzmcx0","x8suzoj586","msl000386","motor","","75","img/motor_7.png","75","motor","7","9","1","0","0","",""
"null","","964851","HierDypqnzmcx0","x8suzoj586","msl000386","iti","","null","img/motor_7.png","75","motor","","","","","","",""
"804","","965663","HierDypqnzmcx0","x8suzoj586","msl000386","motor","","83","img/motor_2.png","83","motor","2","10","1","0","0","",""
"null","","965777","HierDypqnzmcx0","x8suzoj586","msl000386","iti","","null","img/motor_2.png","83","motor","","","","","","",""
"741","","966527","HierDypqnzmcx0","x8suzoj586","msl000386","motor","","70","img/motor_4.png","70","motor","4","11","1","0","0","",""
"null","","966635","HierDypqnzmcx0","x8suzoj586","msl000386","iti","","null","img/motor_4.png","70","motor","","","","","","",""
"700","","967342","HierDypqnzmcx0","x8suzoj586","msl000386","motor","","83","img/motor_2.png","83","motor","2","12","1","0","0","",""
"null","","967456","HierDypqnzmcx0","x8suzoj586","msl000386","iti","","null","img/motor_2.png","83","motor","","","","","","",""
"654","","968125","HierDypqnzmcx0","x8suzoj586","msl000386","motor","","65","img/motor_1.png","65","motor","1","13","1","0","0","",""
"null","","968240","HierDypqnzmcx0","x8suzoj586","msl000386","iti","","null","img/motor_1.png","65","motor","","","","","","",""
"734","","968983","HierDypqnzmcx0","x8suzoj586","msl000386","motor","","83","img/motor_2.png","83","motor","2","14","1","0","0","",""
"null","","969097","HierDypqnzmcx0","x8suzoj586","msl000386","iti","","null","img/motor_2.png","83","motor","","","","","","",""
"1125","","970231","HierDypqnzmcx0","x8suzoj586","msl000386","motor","","75","img/motor_6.png","74","motor","6","15","0","1","0","",""
"767","","971007","HierDypqnzmcx0","x8suzoj586","msl000386","motorRepeat","","74","img/motor_6.png","74","motor","6","15","1","0","0","",""
"null","","971121","HierDypqnzmcx0","x8suzoj586","msl000386","iti","","null","img/motor_6.png","74","motor","","","","","","",""
"605","","971735","HierDypqnzmcx0","x8suzoj586","msl000386","motor","","75","img/motor_7.png","75","motor","7","16","1","0","0","",""
"null","","971849","HierDypqnzmcx0","x8suzoj586","msl000386","iti","","null","img/motor_7.png","75","motor","","","","","","",""
"686","","972549","HierDypqnzmcx0","x8suzoj586","msl000386","motor","","76","img/motor_8.png","76","motor","8","17","1","0","0","",""
"null","","972658","HierDypqnzmcx0","x8suzoj586","msl000386","iti","","null","img/motor_8.png","76","motor","","","","","","",""
"645","","973311","HierDypqnzmcx0","x8suzoj586","msl000386","motor","","65","img/motor_1.png","65","motor","1","18","1","0","0","",""
"null","","973425","HierDypqnzmcx0","x8suzoj586","msl000386","iti","","null","img/motor_1.png","65","motor","","","","","","",""
"678","","974117","HierDypqnzmcx0","x8suzoj586","msl000386","motor","","76","img/motor_8.png","76","motor","8","19","1","0","0","",""
"null","","974231","HierDypqnzmcx0","x8suzoj586","msl000386","iti","","null","img/motor_8.png","76","motor","","","","","","",""
"910","","975150","HierDypqnzmcx0","x8suzoj586","msl000386","motor","","68","img/motor_3.png","68","motor","3","20","1","0","0","",""
"null","","975265","HierDypqnzmcx0","x8suzoj586","msl000386","iti","","null","img/motor_3.png","68","motor","","","","","","",""
"550","","975829","HierDypqnzmcx0","x8suzoj586","msl000386","motor","","76","img/motor_8.png","76","motor","8","21","1","0","0","",""
"null","","975938","HierDypqnzmcx0","x8suzoj586","msl000386","iti","","null","img/motor_8.png","76","motor","","","","","","",""
"766","","976711","HierDypqnzmcx0","x8suzoj586","msl000386","motor","","74","img/motor_6.png","74","motor","6","22","1","0","0","",""
"null","","976824","HierDypqnzmcx0","x8suzoj586","msl000386","iti","","null","img/motor_6.png","74","motor","","","","","","",""
"638","","977477","HierDypqnzmcx0","x8suzoj586","msl000386","motor","","72","img/motor_5.png","72","motor","5","23","1","0","0","",""
"null","","977586","HierDypqnzmcx0","x8suzoj586","msl000386","iti","","null","img/motor_5.png","72","motor","","","","","","",""
"597","","978190","HierDypqnzmcx0","x8suzoj586","msl000386","motor","","74","img/motor_6.png","74","motor","6","24","1","0","0","",""
"null","","978299","HierDypqnzmcx0","x8suzoj586","msl000386","iti","","null","img/motor_6.png","74","motor","","","","","","",""
"484","","978790","HierDypqnzmcx0","x8suzoj586","msl000386","motor","","72","img/motor_4.png","70","motor","4","25","0","1","0","",""
"393","","979191","HierDypqnzmcx0","x8suzoj586","msl000386","motorRepeat","","70","img/motor_4.png","70","motor","4","25","1","0","0","",""
"null","","979305","HierDypqnzmcx0","x8suzoj586","msl000386","iti","","null","img/motor_4.png","70","motor","","","","","","",""
"597","","979911","HierDypqnzmcx0","x8suzoj586","msl000386","motor","","74","img/motor_6.png","74","motor","6","26","1","0","0","",""
"null","","980019","HierDypqnzmcx0","x8suzoj586","msl000386","iti","","null","img/motor_6.png","74","motor","","","","","","",""
"1372","","981399","HierDypqnzmcx0","x8suzoj586","msl000386","motor","","74","img/motor_6.png","74","motor","6","27","1","0","0","",""
"null","","981512","HierDypqnzmcx0","x8suzoj586","msl000386","iti","","null","img/motor_6.png","74","motor","","","","","","",""
"1005","","982527","HierDypqnzmcx0","x8suzoj586","msl000386","motor","","83","img/motor_2.png","83","motor","2","28","1","0","0","",""
"null","","982641","HierDypqnzmcx0","x8suzoj586","msl000386","iti","","null","img/motor_2.png","83","motor","","","","","","",""
"702","","983350","HierDypqnzmcx0","x8suzoj586","msl000386","motor","","72","img/motor_5.png","72","motor","5","29","1","0","0","",""
"null","","983464","HierDypqnzmcx0","x8suzoj586","msl000386","iti","","null","img/motor_5.png","72","motor","","","","","","",""
"558","","984031","HierDypqnzmcx0","x8suzoj586","msl000386","motor","","75","img/motor_7.png","75","motor","7","30","1","0","0","",""
"null","","984145","HierDypqnzmcx0","x8suzoj586","msl000386","iti","","null","img/motor_7.png","75","motor","","","","","","",""
"654","","984813","HierDypqnzmcx0","x8suzoj586","msl000386","motor","","75","img/motor_7.png","75","motor","7","31","1","0","0","",""
"null","","984928","HierDypqnzmcx0","x8suzoj586","msl000386","iti","","null","img/motor_7.png","75","motor","","","","","","",""
"734","","985677","HierDypqnzmcx0","x8suzoj586","msl000386","motor","","83","img/motor_3.png","68","motor","3","32","0","1","0","",""
"474","","986164","HierDypqnzmcx0","x8suzoj586","msl000386","motorRepeat","","68","img/motor_3.png","68","motor","3","32","1","0","0","",""
"null","","986279","HierDypqnzmcx0","x8suzoj586","msl000386","iti","","null","img/motor_3.png","68","motor","","","","","","",""
"791","","987085","HierDypqnzmcx0","x8suzoj586","msl000386","motor","","72","img/motor_5.png","72","motor","5","33","1","0","0","",""
"null","","987194","HierDypqnzmcx0","x8suzoj586","msl000386","iti","","null","img/motor_5.png","72","motor","","","","","","",""
"677","","987878","HierDypqnzmcx0","x8suzoj586","msl000386","motor","","70","img/motor_4.png","70","motor","4","34","1","0","0","",""
"null","","987993","HierDypqnzmcx0","x8suzoj586","msl000386","iti","","null","img/motor_4.png","70","motor","","","","","","",""
"583","","988589","HierDypqnzmcx0","x8suzoj586","msl000386","motor","","65","img/motor_1.png","65","motor","1","35","1","0","0","",""
"null","","988703","HierDypqnzmcx0","x8suzoj586","msl000386","iti","","null","img/motor_1.png","65","motor","","","","","","",""
"927","","989645","HierDypqnzmcx0","x8suzoj586","msl000386","motor","","65","img/motor_1.png","65","motor","1","36","1","0","0","",""
"null","","989753","HierDypqnzmcx0","x8suzoj586","msl000386","iti","","null","img/motor_1.png","65","motor","","","","","","",""
"734","","990494","HierDypqnzmcx0","x8suzoj586","msl000386","motor","","83","img/motor_2.png","83","motor","2","37","1","0","0","",""
"null","","990608","HierDypqnzmcx0","x8suzoj586","msl000386","iti","","null","img/motor_2.png","83","motor","","","","","","",""
"621","","991245","HierDypqnzmcx0","x8suzoj586","msl000386","motor","","65","img/motor_1.png","65","motor","1","38","1","0","0","",""
"null","","991354","HierDypqnzmcx0","x8suzoj586","msl000386","iti","","null","img/motor_1.png","65","motor","","","","","","",""
"1029","","992397","HierDypqnzmcx0","x8suzoj586","msl000386","motor","","65","img/motor_1.png","65","motor","1","39","1","0","0","",""
"null","","992506","HierDypqnzmcx0","x8suzoj586","msl000386","iti","","null","img/motor_1.png","65","motor","","","","","","",""
"684","","993205","HierDypqnzmcx0","x8suzoj586","msl000386","motor","","74","img/motor_6.png","74","motor","6","40","1","0","0","",""
"null","","993314","HierDypqnzmcx0","x8suzoj586","msl000386","iti","","null","img/motor_6.png","74","motor","","","","","","",""
"470","","993797","HierDypqnzmcx0","x8suzoj586","msl000386","motor","","76","img/motor_8.png","76","motor","8","41","1","0","0","",""
"null","","993911","HierDypqnzmcx0","x8suzoj586","msl000386","iti","","null","img/motor_8.png","76","motor","","","","","","",""
"774","","994695","HierDypqnzmcx0","x8suzoj586","msl000386","motor","","70","img/motor_4.png","70","motor","4","42","1","0","0","",""
"null","","994803","HierDypqnzmcx0","x8suzoj586","msl000386","iti","","null","img/motor_4.png","70","motor","","","","","","",""
"835","","995647","HierDypqnzmcx0","x8suzoj586","msl000386","motor","","70","img/motor_4.png","70","motor","4","43","1","0","0","",""
"null","","995760","HierDypqnzmcx0","x8suzoj586","msl000386","iti","","null","img/motor_4.png","70","motor","","","","","","",""
"582","","996350","HierDypqnzmcx0","x8suzoj586","msl000386","motor","","72","img/motor_5.png","72","motor","5","44","1","0","0","",""
"null","","996459","HierDypqnzmcx0","x8suzoj586","msl000386","iti","","null","img/motor_5.png","72","motor","","","","","","",""
"812","","997285","HierDypqnzmcx0","x8suzoj586","msl000386","motor","","83","img/motor_2.png","83","motor","2","45","1","0","0","",""
"null","","997394","HierDypqnzmcx0","x8suzoj586","msl000386","iti","","null","img/motor_2.png","83","motor","","","","","","",""
"668","","998069","HierDypqnzmcx0","x8suzoj586","msl000386","motor","","74","img/motor_7.png","75","motor","7","46","0","1","0","",""
"369","","998447","HierDypqnzmcx0","x8suzoj586","msl000386","motorRepeat","","75","img/motor_7.png","75","motor","7","46","1","0","0","",""
"null","","998562","HierDypqnzmcx0","x8suzoj586","msl000386","iti","","null","img/motor_7.png","75","motor","","","","","","",""
"1260","","999838","HierDypqnzmcx0","x8suzoj586","msl000386","motor","","83","img/motor_2.png","83","motor","2","47","1","0","0","",""
"null","","999952","HierDypqnzmcx0","x8suzoj586","msl000386","iti","","null","img/motor_2.png","83","motor","","","","","","",""
"998","","1000959","HierDypqnzmcx0","x8suzoj586","msl000386","motor","","72","img/motor_5.png","72","motor","5","48","1","0","0","",""
"null","","1001073","HierDypqnzmcx0","x8suzoj586","msl000386","iti","","null","img/motor_5.png","72","motor","","","","","","",""
"622","","1001703","HierDypqnzmcx0","x8suzoj586","msl000386","motor","","76","img/motor_8.png","76","motor","8","49","1","0","0","",""
"null","","1001811","HierDypqnzmcx0","x8suzoj586","msl000386","iti","","null","img/motor_8.png","76","motor","","","","","","",""
"812","","1002632","HierDypqnzmcx0","x8suzoj586","msl000386","motor","","65","img/motor_1.png","65","motor","1","50","1","0","0","",""
"null","","1002739","HierDypqnzmcx0","x8suzoj586","msl000386","iti","","null","img/motor_1.png","65","motor","","","","","","",""
"692","","1003439","HierDypqnzmcx0","x8suzoj586","msl000386","motor","","76","img/motor_8.png","76","motor","8","51","1","0","0","",""
"null","","1003553","HierDypqnzmcx0","x8suzoj586","msl000386","iti","","null","img/motor_8.png","76","motor","","","","","","",""
"597","","1004166","HierDypqnzmcx0","x8suzoj586","msl000386","motor","","72","img/motor_5.png","72","motor","5","52","1","0","0","",""
"null","","1004274","HierDypqnzmcx0","x8suzoj586","msl000386","iti","","null","img/motor_5.png","72","motor","","","","","","",""
"502","","1004783","HierDypqnzmcx0","x8suzoj586","msl000386","motor","","70","img/motor_4.png","70","motor","4","53","1","0","0","",""
"null","","1004891","HierDypqnzmcx0","x8suzoj586","msl000386","iti","","null","img/motor_4.png","70","motor","","","","","","",""
"507","","1005408","HierDypqnzmcx0","x8suzoj586","msl000386","motor","","76","img/motor_8.png","76","motor","8","54","1","0","0","",""
"null","","1005522","HierDypqnzmcx0","x8suzoj586","msl000386","iti","","null","img/motor_8.png","76","motor","","","","","","",""
"581","","1006111","HierDypqnzmcx0","x8suzoj586","msl000386","motor","","83","img/motor_2.png","83","motor","2","55","1","0","0","",""
"null","","1006219","HierDypqnzmcx0","x8suzoj586","msl000386","iti","","null","img/motor_2.png","83","motor","","","","","","",""
"557","","1006783","HierDypqnzmcx0","x8suzoj586","msl000386","motor","","68","img/motor_3.png","68","motor","3","56","1","0","0","",""
"null","","1006891","HierDypqnzmcx0","x8suzoj586","msl000386","iti","","null","img/motor_3.png","68","motor","","","","","","",""
"564","","1007470","HierDypqnzmcx0","x8suzoj586","msl000386","motor","","76","img/motor_8.png","76","motor","8","57","1","0","0","",""
"null","","1007578","HierDypqnzmcx0","x8suzoj586","msl000386","iti","","null","img/motor_8.png","76","motor","","","","","","",""
"572","","1008159","HierDypqnzmcx0","x8suzoj586","msl000386","motor","","75","img/motor_7.png","75","motor","7","58","1","0","0","",""
"null","","1008267","HierDypqnzmcx0","x8suzoj586","msl000386","iti","","null","img/motor_7.png","75","motor","","","","","","",""
"1157","","1009430","HierDypqnzmcx0","x8suzoj586","msl000386","motor","","70","img/motor_4.png","70","motor","4","59","1","0","0","",""
"null","","1009545","HierDypqnzmcx0","x8suzoj586","msl000386","iti","","null","img/motor_4.png","70","motor","","","","","","",""
"558","","1010111","HierDypqnzmcx0","x8suzoj586","msl000386","motor","","68","img/motor_3.png","68","motor","3","60","1","0","0","",""
"null","","1010225","HierDypqnzmcx0","x8suzoj586","msl000386","iti","","null","img/motor_3.png","68","motor","","","","","","",""
"716","","1010958","HierDypqnzmcx0","x8suzoj586","msl000386","motor","","65","img/motor_1.png","65","motor","1","61","1","0","0","",""
"null","","1011066","HierDypqnzmcx0","x8suzoj586","msl000386","iti","","null","img/motor_1.png","65","motor","","","","","","",""
"709","","1011783","HierDypqnzmcx0","x8suzoj586","msl000386","motor","","83","img/motor_2.png","83","motor","2","62","1","0","0","",""
"null","","1011897","HierDypqnzmcx0","x8suzoj586","msl000386","iti","","null","img/motor_2.png","83","motor","","","","","","",""
"677","","1012582","HierDypqnzmcx0","x8suzoj586","msl000386","motor","","75","img/motor_7.png","75","motor","7","63","1","0","0","",""
"null","","1012697","HierDypqnzmcx0","x8suzoj586","msl000386","iti","","null","img/motor_7.png","75","motor","","","","","","",""
"646","","1013358","HierDypqnzmcx0","x8suzoj586","msl000386","motor","","83","img/motor_2.png","83","motor","2","64","1","0","0","",""
"null","","1013473","HierDypqnzmcx0","x8suzoj586","msl000386","iti","","null","img/motor_2.png","83","motor","","","","","","",""
"645","","1014133","HierDypqnzmcx0","x8suzoj586","msl000386","motor","","65","img/motor_1.png","65","motor","1","65","1","0","0","",""
"null","","1014248","HierDypqnzmcx0","x8suzoj586","msl000386","iti","","null","img/motor_1.png","65","motor","","","","","","",""
"582","","1014846","HierDypqnzmcx0","x8suzoj586","msl000386","motor","","75","img/motor_7.png","75","motor","7","66","1","0","0","",""
"null","","1014961","HierDypqnzmcx0","x8suzoj586","msl000386","iti","","null","img/motor_7.png","75","motor","","","","","","",""
"693","","1015670","HierDypqnzmcx0","x8suzoj586","msl000386","motor","","83","img/motor_2.png","83","motor","2","67","1","0","0","",""
"null","","1015778","HierDypqnzmcx0","x8suzoj586","msl000386","iti","","null","img/motor_2.png","83","motor","","","","","","",""
"653","","1016439","HierDypqnzmcx0","x8suzoj586","msl000386","motor","","74","img/motor_6.png","74","motor","6","68","1","0","0","",""
"null","","1016547","HierDypqnzmcx0","x8suzoj586","msl000386","iti","","null","img/motor_6.png","74","motor","","","","","","",""
"860","","1017421","HierDypqnzmcx0","x8suzoj586","msl000386","motor","","70","img/motor_4.png","70","motor","4","69","1","0","0","",""
"null","","1017530","HierDypqnzmcx0","x8suzoj586","msl000386","iti","","null","img/motor_4.png","70","motor","","","","","","",""
"853","","1018391","HierDypqnzmcx0","x8suzoj586","msl000386","motor","","83","img/motor_2.png","83","motor","2","70","1","0","0","",""
"null","","1018500","HierDypqnzmcx0","x8suzoj586","msl000386","iti","","null","img/motor_2.png","83","motor","","","","","","",""
"779","","1019293","HierDypqnzmcx0","x8suzoj586","msl000386","motor","","68","img/motor_3.png","68","motor","3","71","1","0","0","",""
"null","","1019401","HierDypqnzmcx0","x8suzoj586","msl000386","iti","","null","img/motor_3.png","68","motor","","","","","","",""
"630","","1020039","HierDypqnzmcx0","x8suzoj586","msl000386","motor","","74","img/motor_6.png","74","motor","6","72","1","0","0","",""
"null","","1020153","HierDypqnzmcx0","x8suzoj586","msl000386","iti","","null","img/motor_6.png","74","motor","","","","","","",""
"1309","","1021471","HierDypqnzmcx0","x8suzoj586","msl000386","motor","","70","img/motor_4.png","70","motor","4","73","1","0","0","",""
"null","","1021579","HierDypqnzmcx0","x8suzoj586","msl000386","iti","","null","img/motor_4.png","70","motor","","","","","","",""
"629","","1022221","HierDypqnzmcx0","x8suzoj586","msl000386","motor","","83","img/motor_2.png","83","motor","2","74","1","0","0","",""
"null","","1022331","HierDypqnzmcx0","x8suzoj586","msl000386","iti","","null","img/motor_2.png","83","motor","","","","","","",""
"628","","1022967","HierDypqnzmcx0","x8suzoj586","msl000386","motor","","70","img/motor_4.png","70","motor","4","75","1","0","0","",""
"null","","1023076","HierDypqnzmcx0","x8suzoj586","msl000386","iti","","null","img/motor_4.png","70","motor","","","","","","",""
"628","","1023711","HierDypqnzmcx0","x8suzoj586","msl000386","motor","","74","img/motor_7.png","75","motor","7","76","0","1","0","",""
"480","","1024199","HierDypqnzmcx0","x8suzoj586","msl000386","motorRepeat","","75","img/motor_7.png","75","motor","7","76","1","0","0","",""
"null","","1024314","HierDypqnzmcx0","x8suzoj586","msl000386","iti","","null","img/motor_7.png","75","motor","","","","","","",""
"573","","1024896","HierDypqnzmcx0","x8suzoj586","msl000386","motor","","76","img/motor_8.png","76","motor","8","77","1","0","0","",""
"null","","1025003","HierDypqnzmcx0","x8suzoj586","msl000386","iti","","null","img/motor_8.png","76","motor","","","","","","",""
"692","","1025710","HierDypqnzmcx0","x8suzoj586","msl000386","motor","","83","img/motor_2.png","83","motor","2","78","1","0","0","",""
"null","","1025819","HierDypqnzmcx0","x8suzoj586","msl000386","iti","","null","img/motor_2.png","83","motor","","","","","","",""
"652","","1026486","HierDypqnzmcx0","x8suzoj586","msl000386","motor","","76","img/motor_8.png","76","motor","8","79","1","0","0","",""
"null","","1026594","HierDypqnzmcx0","x8suzoj586","msl000386","iti","","null","img/motor_8.png","76","motor","","","","","","",""
"646","","1027247","HierDypqnzmcx0","x8suzoj586","msl000386","motor","","72","img/motor_6.png","74","motor","6","80","0","1","0","",""
"376","","1027631","HierDypqnzmcx0","x8suzoj586","msl000386","motorRepeat","","74","img/motor_6.png","74","motor","6","80","1","0","0","",""
"null","","1027740","HierDypqnzmcx0","x8suzoj586","msl000386","iti","","null","img/motor_6.png","74","motor","","","","","","",""
"620","","1028367","HierDypqnzmcx0","x8suzoj586","msl000386","motor","","74","img/motor_6.png","74","motor","6","81","1","0","0","",""
"null","","1028481","HierDypqnzmcx0","x8suzoj586","msl000386","iti","","null","img/motor_6.png","74","motor","","","","","","",""
"725","","1029215","HierDypqnzmcx0","x8suzoj586","msl000386","motor","","70","img/motor_4.png","70","motor","4","82","1","0","0","",""
"null","","1029324","HierDypqnzmcx0","x8suzoj586","msl000386","iti","","null","img/motor_4.png","70","motor","","","","","","",""
"548","","1029886","HierDypqnzmcx0","x8suzoj586","msl000386","motor","","74","img/motor_6.png","74","motor","6","83","1","0","0","",""
"null","","1029995","HierDypqnzmcx0","x8suzoj586","msl000386","iti","","null","img/motor_6.png","74","motor","","","","","","",""
"669","","1030672","HierDypqnzmcx0","x8suzoj586","msl000386","motor","","72","img/motor_5.png","72","motor","5","84","1","0","0","",""
"null","","1030779","HierDypqnzmcx0","x8suzoj586","msl000386","iti","","null","img/motor_5.png","72","motor","","","","","","",""
"492","","1031279","HierDypqnzmcx0","x8suzoj586","msl000386","motor","","74","img/motor_6.png","74","motor","6","85","1","0","0","",""
"null","","1031393","HierDypqnzmcx0","x8suzoj586","msl000386","iti","","null","img/motor_6.png","74","motor","","","","","","",""
"534","","1031936","HierDypqnzmcx0","x8suzoj586","msl000386","motor","","72","img/motor_5.png","72","motor","5","86","1","0","0","",""
"null","","1032044","HierDypqnzmcx0","x8suzoj586","msl000386","iti","","null","img/motor_5.png","72","motor","","","","","","",""
"628","","1032685","HierDypqnzmcx0","x8suzoj586","msl000386","motor","","68","img/motor_3.png","68","motor","3","87","1","0","0","",""
"null","","1032795","HierDypqnzmcx0","x8suzoj586","msl000386","iti","","null","img/motor_3.png","68","motor","","","","","","",""
"525","","1033328","HierDypqnzmcx0","x8suzoj586","msl000386","motor","","76","img/motor_8.png","76","motor","8","88","1","0","0","",""
"null","","1033436","HierDypqnzmcx0","x8suzoj586","msl000386","iti","","null","img/motor_8.png","76","motor","","","","","","",""
"828","","1034272","HierDypqnzmcx0","x8suzoj586","msl000386","motor","","70","img/motor_4.png","70","motor","4","89","1","0","0","",""
"null","","1034387","HierDypqnzmcx0","x8suzoj586","msl000386","iti","","null","img/motor_4.png","70","motor","","","","","","",""
"532","","1034927","HierDypqnzmcx0","x8suzoj586","msl000386","motor","","72","img/motor_6.png","74","motor","6","90","0","1","0","",""
"305","","1035239","HierDypqnzmcx0","x8suzoj586","msl000386","motorRepeat","","74","img/motor_6.png","74","motor","6","90","1","0","0","",""
"null","","1035348","HierDypqnzmcx0","x8suzoj586","msl000386","iti","","null","img/motor_6.png","74","motor","","","","","","",""
"932","","1036288","HierDypqnzmcx0","x8suzoj586","msl000386","motor","","75","img/motor_7.png","75","motor","7","91","1","0","0","",""
"null","","1036402","HierDypqnzmcx0","x8suzoj586","msl000386","iti","","null","img/motor_7.png","75","motor","","","","","","",""
"1012","","1037429","HierDypqnzmcx0","x8suzoj586","msl000386","motor","","72","img/motor_5.png","72","motor","5","92","1","0","0","",""
"null","","1037539","HierDypqnzmcx0","x8suzoj586","msl000386","iti","","null","img/motor_5.png","72","motor","","","","","","",""
"701","","1038248","HierDypqnzmcx0","x8suzoj586","msl000386","motor","","68","img/motor_3.png","68","motor","3","93","1","0","0","",""
"null","","1038362","HierDypqnzmcx0","x8suzoj586","msl000386","iti","","null","img/motor_3.png","68","motor","","","","","","",""
"645","","1039016","HierDypqnzmcx0","x8suzoj586","msl000386","motor","","74","img/motor_6.png","74","motor","6","94","1","0","0","",""
"null","","1039130","HierDypqnzmcx0","x8suzoj586","msl000386","iti","","null","img/motor_6.png","74","motor","","","","","","",""
"715","","1039862","HierDypqnzmcx0","x8suzoj586","msl000386","motor","","65","img/motor_1.png","65","motor","1","95","1","0","0","",""
"null","","1039976","HierDypqnzmcx0","x8suzoj586","msl000386","iti","","null","img/motor_1.png","65","motor","","","","","","",""
"574","","1040560","HierDypqnzmcx0","x8suzoj586","msl000386","motor","","72","img/motor_5.png","72","motor","5","96","1","0","0","",""
"null","","1040675","HierDypqnzmcx0","x8suzoj586","msl000386","iti","","null","img/motor_5.png","72","motor","","","","","","",""
"557","","1041239","HierDypqnzmcx0","x8suzoj586","msl000386","motor","","65","img/motor_1.png","65","motor","1","97","1","0","0","",""
"null","","1041353","HierDypqnzmcx0","x8suzoj586","msl000386","iti","","null","img/motor_1.png","65","motor","","","","","","",""
"693","","1042062","HierDypqnzmcx0","x8suzoj586","msl000386","motor","","70","img/motor_4.png","70","motor","4","98","1","0","0","",""
"null","","1042171","HierDypqnzmcx0","x8suzoj586","msl000386","iti","","null","img/motor_4.png","70","motor","","","","","","",""
"581","","1042759","HierDypqnzmcx0","x8suzoj586","msl000386","motor","","83","img/motor_2.png","83","motor","2","99","1","0","0","",""
"null","","1042868","HierDypqnzmcx0","x8suzoj586","msl000386","iti","","null","img/motor_2.png","83","motor","","","","","","",""
"868","","1043743","HierDypqnzmcx0","x8suzoj586","msl000386","motor","","74","img/motor_6.png","74","motor","6","100","1","0","0","",""
"null","","1043851","HierDypqnzmcx0","x8suzoj586","msl000386","iti","","null","img/motor_6.png","74","motor","","","","","","",""
"637","","1044494","HierDypqnzmcx0","x8suzoj586","msl000386","motor","","74","img/motor_6.png","74","motor","6","101","1","0","0","",""
"null","","1044603","HierDypqnzmcx0","x8suzoj586","msl000386","iti","","null","img/motor_6.png","74","motor","","","","","","",""
"614","","1045223","HierDypqnzmcx0","x8suzoj586","msl000386","motor","","76","img/motor_8.png","76","motor","8","102","1","0","0","",""
"null","","1045338","HierDypqnzmcx0","x8suzoj586","msl000386","iti","","null","img/motor_8.png","76","motor","","","","","","",""
"597","","1045949","HierDypqnzmcx0","x8suzoj586","msl000386","motor","","83","img/motor_3.png","68","motor","3","103","0","1","0","",""
"537","","1046502","HierDypqnzmcx0","x8suzoj586","msl000386","motorRepeat","","68","img/motor_3.png","68","motor","3","103","1","0","0","",""
"null","","1046617","HierDypqnzmcx0","x8suzoj586","msl000386","iti","","null","img/motor_3.png","68","motor","","","","","","",""
"1831","","1048455","HierDypqnzmcx0","x8suzoj586","msl000386","motor","","76","img/motor_8.png","76","motor","8","104","1","0","0","",""
"null","","1048562","HierDypqnzmcx0","x8suzoj586","msl000386","iti","","null","img/motor_8.png","76","motor","","","","","","",""
"1557","","1050127","HierDypqnzmcx0","x8suzoj586","msl000386","motor","","83","img/motor_2.png","83","motor","2","105","1","0","0","",""
"null","","1050235","HierDypqnzmcx0","x8suzoj586","msl000386","iti","","null","img/motor_2.png","83","motor","","","","","","",""
"597","","1050839","HierDypqnzmcx0","x8suzoj586","msl000386","motor","","68","img/motor_3.png","68","motor","3","106","1","0","0","",""
"null","","1050953","HierDypqnzmcx0","x8suzoj586","msl000386","iti","","null","img/motor_3.png","68","motor","","","","","","",""
"717","","1051680","HierDypqnzmcx0","x8suzoj586","msl000386","motor","","72","img/motor_5.png","72","motor","5","107","1","0","0","",""
"null","","1051787","HierDypqnzmcx0","x8suzoj586","msl000386","iti","","null","img/motor_5.png","72","motor","","","","","","",""
"652","","1052447","HierDypqnzmcx0","x8suzoj586","msl000386","motor","","65","img/motor_1.png","65","motor","1","108","1","0","0","",""
"null","","1052556","HierDypqnzmcx0","x8suzoj586","msl000386","iti","","null","img/motor_1.png","65","motor","","","","","","",""
"660","","1053230","HierDypqnzmcx0","x8suzoj586","msl000386","motor","","75","img/motor_7.png","75","motor","7","109","1","0","0","",""
"null","","1053345","HierDypqnzmcx0","x8suzoj586","msl000386","iti","","null","img/motor_7.png","75","motor","","","","","","",""
"702","","1054062","HierDypqnzmcx0","x8suzoj586","msl000386","motor","","70","img/motor_4.png","70","motor","4","110","1","0","0","",""
"null","","1054177","HierDypqnzmcx0","x8suzoj586","msl000386","iti","","null","img/motor_4.png","70","motor","","","","","","",""
"599","","1054790","HierDypqnzmcx0","x8suzoj586","msl000386","motor","","74","img/motor_7.png","75","motor","7","111","0","1","0","",""
"328","","1055134","HierDypqnzmcx0","x8suzoj586","msl000386","motorRepeat","","75","img/motor_7.png","75","motor","7","111","1","0","0","",""
"null","","1055243","HierDypqnzmcx0","x8suzoj586","msl000386","iti","","null","img/motor_7.png","75","motor","","","","","","",""
"557","","1055808","HierDypqnzmcx0","x8suzoj586","msl000386","motor","","75","img/motor_7.png","75","motor","7","112","1","0","0","",""
"null","","1055922","HierDypqnzmcx0","x8suzoj586","msl000386","iti","","null","img/motor_7.png","75","motor","","","","","","",""
"644","","1056575","HierDypqnzmcx0","x8suzoj586","msl000386","motor","","65","img/motor_1.png","65","motor","1","113","1","0","0","",""
"null","","1056690","HierDypqnzmcx0","x8suzoj586","msl000386","iti","","null","img/motor_1.png","65","motor","","","","","","",""
"597","","1057296","HierDypqnzmcx0","x8suzoj586","msl000386","motor","","70","img/motor_4.png","70","motor","4","114","1","0","0","",""
"null","","1057403","HierDypqnzmcx0","x8suzoj586","msl000386","iti","","null","img/motor_4.png","70","motor","","","","","","",""
"492","","1057904","HierDypqnzmcx0","x8suzoj586","msl000386","motor","","76","img/motor_8.png","76","motor","8","115","1","0","0","",""
"null","","1058011","HierDypqnzmcx0","x8suzoj586","msl000386","iti","","null","img/motor_8.png","76","motor","","","","","","",""
"628","","1058647","HierDypqnzmcx0","x8suzoj586","msl000386","motor","","83","img/motor_3.png","68","motor","3","116","0","1","0","",""
"488","","1059144","HierDypqnzmcx0","x8suzoj586","msl000386","motorRepeat","","68","img/motor_3.png","68","motor","3","116","1","0","0","",""
"null","","1059252","HierDypqnzmcx0","x8suzoj586","msl000386","iti","","null","img/motor_3.png","68","motor","","","","","","",""
"604","","1059870","HierDypqnzmcx0","x8suzoj586","msl000386","motor","","83","img/motor_2.png","83","motor","2","117","1","0","0","",""
"null","","1059979","HierDypqnzmcx0","x8suzoj586","msl000386","iti","","null","img/motor_2.png","83","motor","","","","","","",""
"629","","1060616","HierDypqnzmcx0","x8suzoj586","msl000386","motor","","83","img/motor_2.png","83","motor","2","118","1","0","0","",""
"null","","1060730","HierDypqnzmcx0","x8suzoj586","msl000386","iti","","null","img/motor_2.png","83","motor","","","","","","",""
"1005","","1061744","HierDypqnzmcx0","x8suzoj586","msl000386","motor","","70","img/motor_4.png","70","motor","4","119","1","0","0","",""
"null","","1061853","HierDypqnzmcx0","x8suzoj586","msl000386","iti","","null","img/motor_4.png","70","motor","","","","","","",""
"675","","1062535","HierDypqnzmcx0","x8suzoj586","msl000386","motor","","68","img/motor_3.png","68","motor","3","120","1","0","0","",""
"null","","1062644","HierDypqnzmcx0","x8suzoj586","msl000386","iti","","null","img/motor_3.png","68","motor","","","","","","",""
"564","","1063215","HierDypqnzmcx0","x8suzoj586","msl000386","motor","","70","img/motor_4.png","70","motor","4","121","1","0","0","",""
"null","","1063329","HierDypqnzmcx0","x8suzoj586","msl000386","iti","","null","img/motor_4.png","70","motor","","","","","","",""
"758","","1064096","HierDypqnzmcx0","x8suzoj586","msl000386","motor","","65","img/motor_1.png","65","motor","1","122","1","0","0","",""
"null","","1064211","HierDypqnzmcx0","x8suzoj586","msl000386","iti","","null","img/motor_1.png","65","motor","","","","","","",""
"509","","1064727","HierDypqnzmcx0","x8suzoj586","msl000386","motor","","76","img/motor_8.png","76","motor","8","123","1","0","0","",""
"null","","1064842","HierDypqnzmcx0","x8suzoj586","msl000386","iti","","null","img/motor_8.png","76","motor","","","","","","",""
"838","","1065688","HierDypqnzmcx0","x8suzoj586","msl000386","motor","","65","img/motor_1.png","65","motor","1","124","1","0","0","",""
"null","","1065802","HierDypqnzmcx0","x8suzoj586","msl000386","iti","","null","img/motor_1.png","65","motor","","","","","","",""
"685","","1066496","HierDypqnzmcx0","x8suzoj586","msl000386","motor","","74","img/motor_6.png","74","motor","6","125","1","0","0","",""
"null","","1066610","HierDypqnzmcx0","x8suzoj586","msl000386","iti","","null","img/motor_6.png","74","motor","","","","","","",""
"709","","1067334","HierDypqnzmcx0","x8suzoj586","msl000386","motor","","70","img/motor_4.png","70","motor","4","126","1","0","0","",""
"null","","1067443","HierDypqnzmcx0","x8suzoj586","msl000386","iti","","null","img/motor_4.png","70","motor","","","","","","",""
"590","","1068039","HierDypqnzmcx0","x8suzoj586","msl000386","motor","","76","img/motor_8.png","76","motor","8","127","1","0","0","",""
"null","","1068148","HierDypqnzmcx0","x8suzoj586","msl000386","iti","","null","img/motor_8.png","76","motor","","","","","","",""
"1268","","1069430","HierDypqnzmcx0","x8suzoj586","msl000386","motor","","68","img/motor_3.png","68","motor","3","128","1","0","0","",""
"null","","1069539","HierDypqnzmcx0","x8suzoj586","msl000386","iti","","null","img/motor_3.png","68","motor","","","","","","",""
"28","","1069576","HierDypqnzmcx0","x8suzoj586","msl000386","motor","","70","img/motor_2.png","83","motor","2","129","0","1","0","",""
"705","","1070286","HierDypqnzmcx0","x8suzoj586","msl000386","motorRepeat","","83","img/motor_2.png","83","motor","2","129","1","0","0","",""
"null","","1070402","HierDypqnzmcx0","x8suzoj586","msl000386","iti","","null","img/motor_2.png","83","motor","","","","","","",""
"661","","1071071","HierDypqnzmcx0","x8suzoj586","msl000386","motor","","72","img/motor_5.png","72","motor","5","130","1","0","0","",""
"null","","1071186","HierDypqnzmcx0","x8suzoj586","msl000386","iti","","null","img/motor_5.png","72","motor","","","","","","",""
"621","","1071815","HierDypqnzmcx0","x8suzoj586","msl000386","motor","","75","img/motor_7.png","75","motor","7","131","1","0","0","",""
"null","","1071930","HierDypqnzmcx0","x8suzoj586","msl000386","iti","","null","img/motor_7.png","75","motor","","","","","","",""
"621","","1072566","HierDypqnzmcx0","x8suzoj586","msl000386","motor","","72","img/motor_6.png","74","motor","6","132","0","1","0","",""
"377","","1072959","HierDypqnzmcx0","x8suzoj586","msl000386","motorRepeat","","74","img/motor_6.png","74","motor","6","132","1","0","0","",""
"null","","1073073","HierDypqnzmcx0","x8suzoj586","msl000386","iti","","null","img/motor_6.png","74","motor","","","","","","",""
"1101","","1074183","HierDypqnzmcx0","x8suzoj586","msl000386","motor","","65","img/motor_1.png","65","motor","1","133","1","0","0","",""
"null","","1074292","HierDypqnzmcx0","x8suzoj586","msl000386","iti","","null","img/motor_1.png","65","motor","","","","","","",""
"868","","1075169","HierDypqnzmcx0","x8suzoj586","msl000386","motor","","74","img/motor_6.png","74","motor","6","134","1","0","0","",""
"null","","1075276","HierDypqnzmcx0","x8suzoj586","msl000386","iti","","null","img/motor_6.png","74","motor","","","","","","",""
"811","","1076096","HierDypqnzmcx0","x8suzoj586","msl000386","motor","","68","img/motor_3.png","68","motor","3","135","1","0","0","",""
"null","","1076211","HierDypqnzmcx0","x8suzoj586","msl000386","iti","","null","img/motor_3.png","68","motor","","","","","","",""
"740","","1076960","HierDypqnzmcx0","x8suzoj586","msl000386","motor","","68","img/motor_3.png","68","motor","3","136","1","0","0","",""
"null","","1077074","HierDypqnzmcx0","x8suzoj586","msl000386","iti","","null","img/motor_3.png","68","motor","","","","","","",""
"685","","1077767","HierDypqnzmcx0","x8suzoj586","msl000386","motor","","72","img/motor_5.png","72","motor","5","137","1","0","0","",""
"null","","1077876","HierDypqnzmcx0","x8suzoj586","msl000386","iti","","null","img/motor_5.png","72","motor","","","","","","",""
"685","","1078568","HierDypqnzmcx0","x8suzoj586","msl000386","motor","","68","img/motor_3.png","68","motor","3","138","1","0","0","",""
"null","","1078682","HierDypqnzmcx0","x8suzoj586","msl000386","iti","","null","img/motor_3.png","68","motor","","","","","","",""
"526","","1079216","HierDypqnzmcx0","x8suzoj586","msl000386","motor","","68","img/motor_2.png","83","motor","2","139","0","1","0","",""
"535","","1079759","HierDypqnzmcx0","x8suzoj586","msl000386","motorRepeat","","83","img/motor_2.png","83","motor","2","139","1","0","0","",""
"null","","1079868","HierDypqnzmcx0","x8suzoj586","msl000386","iti","","null","img/motor_2.png","83","motor","","","","","","",""
"629","","1080510","HierDypqnzmcx0","x8suzoj586","msl000386","motor","","68","img/motor_3.png","68","motor","3","140","1","0","0","",""
"null","","1080625","HierDypqnzmcx0","x8suzoj586","msl000386","iti","","null","img/motor_3.png","68","motor","","","","","","",""
"615","","1081248","HierDypqnzmcx0","x8suzoj586","msl000386","motor","","68","img/motor_3.png","68","motor","3","141","1","0","0","",""
"null","","1081362","HierDypqnzmcx0","x8suzoj586","msl000386","iti","","null","img/motor_3.png","68","motor","","","","","","",""
"541","","1081912","HierDypqnzmcx0","x8suzoj586","msl000386","motor","","70","img/motor_4.png","70","motor","4","142","1","0","0","",""
"null","","1082026","HierDypqnzmcx0","x8suzoj586","msl000386","iti","","null","img/motor_4.png","70","motor","","","","","","",""
"550","","1082584","HierDypqnzmcx0","x8suzoj586","msl000386","motor","","83","img/motor_2.png","83","motor","2","143","1","0","0","",""
"null","","1082699","HierDypqnzmcx0","x8suzoj586","msl000386","iti","","null","img/motor_2.png","83","motor","","","","","","",""
"621","","1083328","HierDypqnzmcx0","x8suzoj586","msl000386","motor","","70","img/motor_4.png","70","motor","4","144","1","0","0","",""
"null","","1083442","HierDypqnzmcx0","x8suzoj586","msl000386","iti","","null","img/motor_4.png","70","motor","","","","","","",""
"565","","1084016","HierDypqnzmcx0","x8suzoj586","msl000386","motor","","74","img/motor_7.png","75","motor","7","145","0","1","0","",""
"376","","1084406","HierDypqnzmcx0","x8suzoj586","msl000386","motorRepeat","","75","img/motor_7.png","75","motor","7","145","1","0","0","",""
"null","","1084515","HierDypqnzmcx0","x8suzoj586","msl000386","iti","","null","img/motor_7.png","75","motor","","","","","","",""
"693","","1085216","HierDypqnzmcx0","x8suzoj586","msl000386","motor","","83","img/motor_2.png","83","motor","2","146","1","0","0","",""
"null","","1085331","HierDypqnzmcx0","x8suzoj586","msl000386","iti","","null","img/motor_2.png","83","motor","","","","","","",""
"620","","1085960","HierDypqnzmcx0","x8suzoj586","msl000386","motor","","76","img/motor_8.png","76","motor","8","147","1","0","0","",""
"null","","1086067","HierDypqnzmcx0","x8suzoj586","msl000386","iti","","null","img/motor_8.png","76","motor","","","","","","",""
"804","","1086878","HierDypqnzmcx0","x8suzoj586","msl000386","motor","","72","img/motor_6.png","74","motor","6","148","0","1","0","",""
"97","","1086990","HierDypqnzmcx0","x8suzoj586","msl000386","motorRepeat","","74","img/motor_6.png","74","motor","6","148","1","0","0","",""
"null","","1087099","HierDypqnzmcx0","x8suzoj586","msl000386","iti","","null","img/motor_6.png","74","motor","","","","","","",""
"589","","1087696","HierDypqnzmcx0","x8suzoj586","msl000386","motor","","76","img/motor_8.png","76","motor","8","149","1","0","0","",""
"null","","1087804","HierDypqnzmcx0","x8suzoj586","msl000386","iti","","null","img/motor_8.png","76","motor","","","","","","",""
"1027","","1088839","HierDypqnzmcx0","x8suzoj586","msl000386","motor","","74","img/motor_7.png","75","motor","7","150","0","1","0","",""
"377","","1089224","HierDypqnzmcx0","x8suzoj586","msl000386","motorRepeat","","75","img/motor_7.png","75","motor","7","150","1","0","0","",""
"null","","1089339","HierDypqnzmcx0","x8suzoj586","msl000386","iti","","null","img/motor_7.png","75","motor","","","","","","",""
"621","","1089975","HierDypqnzmcx0","x8suzoj586","msl000386","motor","","76","img/motor_8.png","76","motor","8","151","1","0","0","",""
"null","","1090090","HierDypqnzmcx0","x8suzoj586","msl000386","iti","","null","img/motor_8.png","76","motor","","","","","","",""
"590","","1090689","HierDypqnzmcx0","x8suzoj586","msl000386","motor","","65","img/motor_1.png","65","motor","1","152","1","0","0","",""
"null","","1090796","HierDypqnzmcx0","x8suzoj586","msl000386","iti","","null","img/motor_1.png","65","motor","","","","","","",""
"692","","1091496","HierDypqnzmcx0","x8suzoj586","msl000386","motor","","76","img/motor_8.png","76","motor","8","153","1","0","0","",""
"null","","1091611","HierDypqnzmcx0","x8suzoj586","msl000386","iti","","null","img/motor_8.png","76","motor","","","","","","",""
"893","","1092511","HierDypqnzmcx0","x8suzoj586","msl000386","motor","","83","img/motor_2.png","83","motor","2","154","1","0","0","",""
"null","","1092619","HierDypqnzmcx0","x8suzoj586","msl000386","iti","","null","img/motor_2.png","83","motor","","","","","","",""
"1276","","1093904","HierDypqnzmcx0","x8suzoj586","msl000386","motor","","74","img/motor_6.png","74","motor","6","155","1","0","0","",""
"null","","1094012","HierDypqnzmcx0","x8suzoj586","msl000386","iti","","null","img/motor_6.png","74","motor","","","","","","",""
"637","","1094655","HierDypqnzmcx0","x8suzoj586","msl000386","motor","","83","img/motor_2.png","83","motor","2","156","1","0","0","",""
"null","","1094770","HierDypqnzmcx0","x8suzoj586","msl000386","iti","","null","img/motor_2.png","83","motor","","","","","","",""
"870","","1095647","HierDypqnzmcx0","x8suzoj586","msl000386","motor","","74","img/motor_7.png","75","motor","7","157","0","1","0","",""
"289","","1095944","HierDypqnzmcx0","x8suzoj586","msl000386","motorRepeat","","75","img/motor_7.png","75","motor","7","157","1","0","0","",""
"null","","1096052","HierDypqnzmcx0","x8suzoj586","msl000386","iti","","null","img/motor_7.png","75","motor","","","","","","",""
"837","","1096902","HierDypqnzmcx0","x8suzoj586","msl000386","motor","","83","img/motor_2.png","83","motor","2","158","1","0","0","",""
"null","","1097010","HierDypqnzmcx0","x8suzoj586","msl000386","iti","","null","img/motor_2.png","83","motor","","","","","","",""
"637","","1097656","HierDypqnzmcx0","x8suzoj586","msl000386","motor","","68","img/motor_3.png","68","motor","3","159","1","0","0","",""
"null","","1097765","HierDypqnzmcx0","x8suzoj586","msl000386","iti","","null","img/motor_3.png","68","motor","","","","","","",""
"988","","1098760","HierDypqnzmcx0","x8suzoj586","msl000386","motor","","72","img/motor_5.png","72","motor","5","160","1","0","0","",""
"null","","1098874","HierDypqnzmcx0","x8suzoj586","msl000386","iti","","null","img/motor_5.png","72","motor","","","","","","",""
"1365","","1100248","HierDypqnzmcx0","x8suzoj586","msl000386","motor","","83","img/motor_2.png","83","motor","2","161","1","0","0","",""
"null","","1100363","HierDypqnzmcx0","x8suzoj586","msl000386","iti","","null","img/motor_2.png","83","motor","","","","","","",""
"477","","1100848","HierDypqnzmcx0","x8suzoj586","msl000386","motor","","68","img/motor_3.png","68","motor","3","162","1","0","0","",""
"null","","1100963","HierDypqnzmcx0","x8suzoj586","msl000386","iti","","null","img/motor_3.png","68","motor","","","","","","",""
"820","","1101792","HierDypqnzmcx0","x8suzoj586","msl000386","motor","","74","img/motor_6.png","74","motor","6","163","1","0","0","",""
"null","","1101906","HierDypqnzmcx0","x8suzoj586","msl000386","iti","","null","img/motor_6.png","74","motor","","","","","","",""
"628","","1102544","HierDypqnzmcx0","x8suzoj586","msl000386","motor","","72","img/motor_5.png","72","motor","5","164","1","0","0","",""
"null","","1102652","HierDypqnzmcx0","x8suzoj586","msl000386","iti","","null","img/motor_5.png","72","motor","","","","","","",""
"692","","1103352","HierDypqnzmcx0","x8suzoj586","msl000386","motor","","65","img/motor_1.png","65","motor","1","165","1","0","0","",""
"null","","1103460","HierDypqnzmcx0","x8suzoj586","msl000386","iti","","null","img/motor_1.png","65","motor","","","","","","",""
"724","","1104192","HierDypqnzmcx0","x8suzoj586","msl000386","motor","","70","img/motor_3.png","68","motor","3","166","0","1","0","",""
"368","","1104568","HierDypqnzmcx0","x8suzoj586","msl000386","motorRepeat","","68","img/motor_3.png","68","motor","3","166","1","0","0","",""
"null","","1104683","HierDypqnzmcx0","x8suzoj586","msl000386","iti","","null","img/motor_3.png","68","motor","","","","","","",""
"548","","1105239","HierDypqnzmcx0","x8suzoj586","msl000386","motor","","83","img/motor_2.png","83","motor","2","167","1","0","0","",""
"null","","1105348","HierDypqnzmcx0","x8suzoj586","msl000386","iti","","null","img/motor_2.png","83","motor","","","","","","",""
"603","","1105960","HierDypqnzmcx0","x8suzoj586","msl000386","motor","","65","img/motor_1.png","65","motor","1","168","1","0","0","",""
"null","","1106074","HierDypqnzmcx0","x8suzoj586","msl000386","iti","","null","img/motor_1.png","65","motor","","","","","","",""
"556","","1106640","HierDypqnzmcx0","x8suzoj586","msl000386","motor","","70","img/motor_4.png","70","motor","4","169","1","0","0","",""
"null","","1106748","HierDypqnzmcx0","x8suzoj586","msl000386","iti","","null","img/motor_4.png","70","motor","","","","","","",""
"644","","1107400","HierDypqnzmcx0","x8suzoj586","msl000386","motor","","72","img/motor_5.png","72","motor","5","170","1","0","0","",""
"null","","1107515","HierDypqnzmcx0","x8suzoj586","msl000386","iti","","null","img/motor_5.png","72","motor","","","","","","",""
"597","","1108120","HierDypqnzmcx0","x8suzoj586","msl000386","motor","","74","img/motor_6.png","74","motor","6","171","1","0","0","",""
"null","","1108235","HierDypqnzmcx0","x8suzoj586","msl000386","iti","","null","img/motor_6.png","74","motor","","","","","","",""
"773","","1109016","HierDypqnzmcx0","x8suzoj586","msl000386","motor","","76","img/motor_8.png","76","motor","8","172","1","0","0","",""
"null","","1109130","HierDypqnzmcx0","x8suzoj586","msl000386","iti","","null","img/motor_8.png","76","motor","","","","","","",""
"757","","1109897","HierDypqnzmcx0","x8suzoj586","msl000386","motor","","83","img/motor_2.png","83","motor","2","173","1","0","0","",""
"null","","1110011","HierDypqnzmcx0","x8suzoj586","msl000386","iti","","null","img/motor_2.png","83","motor","","","","","","",""
"718","","1110742","HierDypqnzmcx0","x8suzoj586","msl000386","motor","","74","img/motor_6.png","74","motor","6","174","1","0","0","",""
"null","","1110851","HierDypqnzmcx0","x8suzoj586","msl000386","iti","","null","img/motor_6.png","74","motor","","","","","","",""
"525","","1111390","HierDypqnzmcx0","x8suzoj586","msl000386","motor","","75","img/motor_7.png","75","motor","7","175","1","0","0","",""
"null","","1111499","HierDypqnzmcx0","x8suzoj586","msl000386","iti","","null","img/motor_7.png","75","motor","","","","","","",""
"1005","","1112512","HierDypqnzmcx0","x8suzoj586","msl000386","motor","","70","img/motor_4.png","70","motor","4","176","1","0","0","",""
"null","","1112627","HierDypqnzmcx0","x8suzoj586","msl000386","iti","","null","img/motor_4.png","70","motor","","","","","","",""
"548","","1113191","HierDypqnzmcx0","x8suzoj586","msl000386","motor","","74","img/motor_6.png","74","motor","6","177","1","0","0","",""
"null","","1113300","HierDypqnzmcx0","x8suzoj586","msl000386","iti","","null","img/motor_6.png","74","motor","","","","","","",""
"733","","1114039","HierDypqnzmcx0","x8suzoj586","msl000386","motor","","72","img/motor_5.png","72","motor","5","178","1","0","0","",""
"null","","1114147","HierDypqnzmcx0","x8suzoj586","msl000386","iti","","null","img/motor_5.png","72","motor","","","","","","",""
"524","","1114680","HierDypqnzmcx0","x8suzoj586","msl000386","motor","","70","img/motor_4.png","70","motor","4","179","1","0","0","",""
"null","","1114788","HierDypqnzmcx0","x8suzoj586","msl000386","iti","","null","img/motor_4.png","70","motor","","","","","","",""
"684","","1115487","HierDypqnzmcx0","x8suzoj586","msl000386","motor","","75","img/motor_7.png","75","motor","7","180","1","0","0","",""
"null","","1115595","HierDypqnzmcx0","x8suzoj586","msl000386","iti","","null","img/motor_7.png","75","motor","","","","","","",""
"693","","1116296","HierDypqnzmcx0","x8suzoj586","msl000386","motor","","74","img/motor_6.png","74","motor","6","181","1","0","0","",""
"null","","1116404","HierDypqnzmcx0","x8suzoj586","msl000386","iti","","null","img/motor_6.png","74","motor","","","","","","",""
"620","","1117032","HierDypqnzmcx0","x8suzoj586","msl000386","motor","","65","img/motor_1.png","65","motor","1","182","1","0","0","",""
"null","","1117140","HierDypqnzmcx0","x8suzoj586","msl000386","iti","","null","img/motor_1.png","65","motor","","","","","","",""
"891","","1118047","HierDypqnzmcx0","x8suzoj586","msl000386","motor","","68","img/motor_3.png","68","motor","3","183","1","0","0","",""
"null","","1118155","HierDypqnzmcx0","x8suzoj586","msl000386","iti","","null","img/motor_3.png","68","motor","","","","","","",""
"798","","1118961","HierDypqnzmcx0","x8suzoj586","msl000386","motor","","83","img/motor_2.png","83","motor","2","184","1","0","0","",""
"null","","1119069","HierDypqnzmcx0","x8suzoj586","msl000386","iti","","null","img/motor_2.png","83","motor","","","","","","",""
"939","","1120015","HierDypqnzmcx0","x8suzoj586","msl000386","motor","","83","img/motor_2.png","83","motor","2","185","1","0","0","",""
"null","","1120131","HierDypqnzmcx0","x8suzoj586","msl000386","iti","","null","img/motor_2.png","83","motor","","","","","","",""
"678","","1120816","HierDypqnzmcx0","x8suzoj586","msl000386","motor","","72","img/motor_5.png","72","motor","5","186","1","0","0","",""
"null","","1120931","HierDypqnzmcx0","x8suzoj586","msl000386","iti","","null","img/motor_5.png","72","motor","","","","","","",""
"2517","","1123456","HierDypqnzmcx0","x8suzoj586","msl000386","motor","","76","img/motor_8.png","76","motor","8","187","1","0","0","",""
"null","","1123564","HierDypqnzmcx0","x8suzoj586","msl000386","iti","","null","img/motor_8.png","76","motor","","","","","","",""
"1453","","1125024","HierDypqnzmcx0","x8suzoj586","msl000386","motor","","68","img/motor_3.png","68","motor","3","188","1","0","0","",""
"null","","1125133","HierDypqnzmcx0","x8suzoj586","msl000386","iti","","null","img/motor_3.png","68","motor","","","","","","",""
"828","","1125968","HierDypqnzmcx0","x8suzoj586","msl000386","motor","","70","img/motor_4.png","70","motor","4","189","1","0","0","",""
"null","","1126083","HierDypqnzmcx0","x8suzoj586","msl000386","iti","","null","img/motor_4.png","70","motor","","","","","","",""
"629","","1126719","HierDypqnzmcx0","x8suzoj586","msl000386","motor","","70","img/motor_4.png","70","motor","4","190","1","0","0","",""
"null","","1126833","HierDypqnzmcx0","x8suzoj586","msl000386","iti","","null","img/motor_4.png","70","motor","","","","","","",""
"975","","1127816","HierDypqnzmcx0","x8suzoj586","msl000386","motor","","72","img/motor_8.png","76","motor","8","191","0","1","0","",""
"857","","1128681","HierDypqnzmcx0","x8suzoj586","msl000386","motorRepeat","","76","img/motor_8.png","76","motor","8","191","1","0","0","",""
"null","","1128789","HierDypqnzmcx0","x8suzoj586","msl000386","iti","","null","img/motor_8.png","76","motor","","","","","","",""
"1002","","1129800","HierDypqnzmcx0","x8suzoj586","msl000386","motor","","74","img/motor_6.png","74","motor","6","192","1","0","0","",""
"null","","1129916","HierDypqnzmcx0","x8suzoj586","msl000386","iti","","null","img/motor_6.png","74","motor","","","","","","",""
"556","","1130488","HierDypqnzmcx0","x8suzoj586","msl000386","motor","","72","img/motor_5.png","72","motor","5","193","1","0","0","",""
"null","","1130596","HierDypqnzmcx0","x8suzoj586","msl000386","iti","","null","img/motor_5.png","72","motor","","","","","","",""
"533","","1131142","HierDypqnzmcx0","x8suzoj586","msl000386","motor","","74","img/motor_6.png","74","motor","6","194","1","0","0","",""
"null","","1131257","HierDypqnzmcx0","x8suzoj586","msl000386","iti","","null","img/motor_6.png","74","motor","","","","","","",""
"567","","1131833","HierDypqnzmcx0","x8suzoj586","msl000386","motor","","76","img/motor_8.png","76","motor","8","195","1","0","0","",""
"null","","1131947","HierDypqnzmcx0","x8suzoj586","msl000386","iti","","null","img/motor_8.png","76","motor","","","","","","",""
"1237","","1133192","HierDypqnzmcx0","x8suzoj586","msl000386","motor","","70","img/motor_4.png","70","motor","4","196","1","0","0","",""
"null","","1133299","HierDypqnzmcx0","x8suzoj586","msl000386","iti","","null","img/motor_4.png","70","motor","","","","","","",""
"637","","1133943","HierDypqnzmcx0","x8suzoj586","msl000386","motor","","68","img/motor_3.png","68","motor","3","197","1","0","0","",""
"null","","1134052","HierDypqnzmcx0","x8suzoj586","msl000386","iti","","null","img/motor_3.png","68","motor","","","","","","",""
"700","","1134759","HierDypqnzmcx0","x8suzoj586","msl000386","motor","","72","img/motor_5.png","72","motor","5","198","1","0","0","",""
"null","","1134874","HierDypqnzmcx0","x8suzoj586","msl000386","iti","","null","img/motor_5.png","72","motor","","","","","","",""
"565","","1135455","HierDypqnzmcx0","x8suzoj586","msl000386","motor","","83","img/motor_2.png","83","motor","2","199","1","0","0","",""
"null","","1135564","HierDypqnzmcx0","x8suzoj586","msl000386","iti","","null","img/motor_2.png","83","motor","","","","","","",""
"581","","1136159","HierDypqnzmcx0","x8suzoj586","msl000386","motor","","75","img/motor_7.png","75","motor","7","200","1","0","0","",""
"null","","1136268","HierDypqnzmcx0","x8suzoj586","msl000386","iti","","null","img/motor_7.png","75","motor","","","","","","",""
"661","","1136942","HierDypqnzmcx0","x8suzoj586","msl000386","motor","","65","img/motor_1.png","65","motor","1","201","1","0","0","",""
"null","","1137057","HierDypqnzmcx0","x8suzoj586","msl000386","iti","","null","img/motor_1.png","65","motor","","","","","","",""
"454","","1137520","HierDypqnzmcx0","x8suzoj586","msl000386","motor","","75","img/motor_7.png","75","motor","7","202","1","0","0","",""
"null","","1137635","HierDypqnzmcx0","x8suzoj586","msl000386","iti","","null","img/motor_7.png","75","motor","","","","","","",""
"509","","1138159","HierDypqnzmcx0","x8suzoj586","msl000386","motor","","76","img/motor_8.png","76","motor","8","203","1","0","0","",""
"null","","1138267","HierDypqnzmcx0","x8suzoj586","msl000386","iti","","null","img/motor_8.png","76","motor","","","","","","",""
"661","","1138937","HierDypqnzmcx0","x8suzoj586","msl000386","motor","","70","img/motor_4.png","70","motor","4","204","1","0","0","",""
"null","","1139045","HierDypqnzmcx0","x8suzoj586","msl000386","iti","","null","img/motor_4.png","70","motor","","","","","","",""
"468","","1139527","HierDypqnzmcx0","x8suzoj586","msl000386","motor","","76","img/motor_8.png","76","motor","8","205","1","0","0","",""
"null","","1139637","HierDypqnzmcx0","x8suzoj586","msl000386","iti","","null","img/motor_8.png","76","motor","","","","","","",""
"533","","1140176","HierDypqnzmcx0","x8suzoj586","msl000386","motor","","74","img/motor_7.png","75","motor","7","206","0","1","0","",""
"144","","1140334","HierDypqnzmcx0","x8suzoj586","msl000386","motorRepeat","","75","img/motor_7.png","75","motor","7","206","1","0","0","",""
"null","","1140450","HierDypqnzmcx0","x8suzoj586","msl000386","iti","","null","img/motor_7.png","75","motor","","","","","","",""
"1830","","1142289","HierDypqnzmcx0","x8suzoj586","msl000386","motor","","70","img/motor_4.png","70","motor","4","207","1","0","0","",""
"null","","1142398","HierDypqnzmcx0","x8suzoj586","msl000386","iti","","null","img/motor_4.png","70","motor","","","","","","",""
"571","","1142976","HierDypqnzmcx0","x8suzoj586","msl000386","motor","","72","img/motor_5.png","72","motor","5","208","1","0","0","",""
"null","","1143091","HierDypqnzmcx0","x8suzoj586","msl000386","iti","","null","img/motor_5.png","72","motor","","","","","","",""
"541","","1143640","HierDypqnzmcx0","x8suzoj586","msl000386","motor","","70","img/motor_4.png","70","motor","4","209","1","0","0","",""
"null","","1143755","HierDypqnzmcx0","x8suzoj586","msl000386","iti","","null","img/motor_4.png","70","motor","","","","","","",""
"565","","1144328","HierDypqnzmcx0","x8suzoj586","msl000386","motor","","74","img/motor_7.png","75","motor","7","210","0","1","0","",""
"304","","1144646","HierDypqnzmcx0","x8suzoj586","msl000386","motorRepeat","","75","img/motor_7.png","75","motor","7","210","1","0","0","",""
"null","","1144762","HierDypqnzmcx0","x8suzoj586","msl000386","iti","","null","img/motor_7.png","75","motor","","","","","","",""
"630","","1145401","HierDypqnzmcx0","x8suzoj586","msl000386","motor","","83","img/motor_3.png","68","motor","3","211","0","1","0","",""
"617","","1146024","HierDypqnzmcx0","x8suzoj586","msl000386","motorRepeat","","68","img/motor_3.png","68","motor","3","211","1","0","0","",""
"null","","1146132","HierDypqnzmcx0","x8suzoj586","msl000386","iti","","null","img/motor_3.png","68","motor","","","","","","",""
"708","","1146848","HierDypqnzmcx0","x8suzoj586","msl000386","motor","","83","img/motor_2.png","83","motor","2","212","1","0","0","",""
"null","","1146956","HierDypqnzmcx0","x8suzoj586","msl000386","iti","","null","img/motor_2.png","83","motor","","","","","","",""
"604","","1147575","HierDypqnzmcx0","x8suzoj586","msl000386","motor","","76","img/motor_8.png","76","motor","8","213","1","0","0","",""
"null","","1147684","HierDypqnzmcx0","x8suzoj586","msl000386","iti","","null","img/motor_8.png","76","motor","","","","","","",""
"445","","1148136","HierDypqnzmcx0","x8suzoj586","msl000386","motor","","76","img/motor_8.png","76","motor","8","214","1","0","0","",""
"null","","1148245","HierDypqnzmcx0","x8suzoj586","msl000386","iti","","null","img/motor_8.png","76","motor","","","","","","",""
"588","","1148847","HierDypqnzmcx0","x8suzoj586","msl000386","motor","","74","img/motor_6.png","74","motor","6","215","1","0","0","",""
"null","","1148962","HierDypqnzmcx0","x8suzoj586","msl000386","iti","","null","img/motor_6.png","74","motor","","","","","","",""
"606","","1149576","HierDypqnzmcx0","x8suzoj586","msl000386","motor","","70","img/motor_4.png","70","motor","4","216","1","0","0","",""
"null","","1149685","HierDypqnzmcx0","x8suzoj586","msl000386","iti","","null","img/motor_4.png","70","motor","","","","","","",""
"612","","1150311","HierDypqnzmcx0","x8suzoj586","msl000386","motor","","70","img/motor_4.png","70","motor","4","217","1","0","0","",""
"null","","1150420","HierDypqnzmcx0","x8suzoj586","msl000386","iti","","null","img/motor_4.png","70","motor","","","","","","",""
"429","","1150857","HierDypqnzmcx0","x8suzoj586","msl000386","motor","","76","img/motor_8.png","76","motor","8","218","1","0","0","",""
"null","","1150971","HierDypqnzmcx0","x8suzoj586","msl000386","iti","","null","img/motor_8.png","76","motor","","","","","","",""
"565","","1151550","HierDypqnzmcx0","x8suzoj586","msl000386","motor","","76","img/motor_8.png","76","motor","8","219","1","0","0","",""
"null","","1151666","HierDypqnzmcx0","x8suzoj586","msl000386","iti","","null","img/motor_8.png","76","motor","","","","","","",""
"598","","1152278","HierDypqnzmcx0","x8suzoj586","msl000386","motor","","72","img/motor_5.png","72","motor","5","220","1","0","0","",""
"null","","1152394","HierDypqnzmcx0","x8suzoj586","msl000386","iti","","null","img/motor_5.png","72","motor","","","","","","",""
"454","","1152857","HierDypqnzmcx0","x8suzoj586","msl000386","motor","","72","img/motor_5.png","72","motor","5","221","1","0","0","",""
"null","","1152965","HierDypqnzmcx0","x8suzoj586","msl000386","iti","","null","img/motor_5.png","72","motor","","","","","","",""
"627","","1153600","HierDypqnzmcx0","x8suzoj586","msl000386","motor","","83","img/motor_2.png","83","motor","2","222","1","0","0","",""
"null","","1153708","HierDypqnzmcx0","x8suzoj586","msl000386","iti","","null","img/motor_2.png","83","motor","","","","","","",""
"388","","1154111","HierDypqnzmcx0","x8suzoj586","msl000386","motor","","83","img/motor_2.png","83","motor","2","223","1","0","0","",""
"null","","1154227","HierDypqnzmcx0","x8suzoj586","msl000386","iti","","null","img/motor_2.png","83","motor","","","","","","",""
"620","","1154856","HierDypqnzmcx0","x8suzoj586","msl000386","motor","","70","img/motor_4.png","70","motor","4","224","1","0","0","",""
"null","","1154970","HierDypqnzmcx0","x8suzoj586","msl000386","iti","","null","img/motor_4.png","70","motor","","","","","","",""
"550","","1155536","HierDypqnzmcx0","x8suzoj586","msl000386","motor","","72","img/motor_5.png","72","motor","5","225","1","0","0","",""
"null","","1155644","HierDypqnzmcx0","x8suzoj586","msl000386","iti","","null","img/motor_5.png","72","motor","","","","","","",""
"580","","1156233","HierDypqnzmcx0","x8suzoj586","msl000386","motor","","70","img/motor_4.png","70","motor","4","226","1","0","0","",""
"null","","1156347","HierDypqnzmcx0","x8suzoj586","msl000386","iti","","null","img/motor_4.png","70","motor","","","","","","",""
"517","","1156879","HierDypqnzmcx0","x8suzoj586","msl000386","motor","","83","img/motor_3.png","68","motor","3","227","0","1","0","",""
"497","","1157385","HierDypqnzmcx0","x8suzoj586","msl000386","motorRepeat","","68","img/motor_3.png","68","motor","3","227","1","0","0","",""
"null","","1157493","HierDypqnzmcx0","x8suzoj586","msl000386","iti","","null","img/motor_3.png","68","motor","","","","","","",""
"531","","1158033","HierDypqnzmcx0","x8suzoj586","msl000386","motor","","76","img/motor_8.png","76","motor","8","228","1","0","0","",""
"null","","1158140","HierDypqnzmcx0","x8suzoj586","msl000386","iti","","null","img/motor_8.png","76","motor","","","","","","",""
"509","","1158664","HierDypqnzmcx0","x8suzoj586","msl000386","motor","","72","img/motor_5.png","72","motor","5","229","1","0","0","",""
"null","","1158779","HierDypqnzmcx0","x8suzoj586","msl000386","iti","","null","img/motor_5.png","72","motor","","","","","","",""
"597","","1159390","HierDypqnzmcx0","x8suzoj586","msl000386","motor","","70","img/motor_4.png","70","motor","4","230","1","0","0","",""
"null","","1159506","HierDypqnzmcx0","x8suzoj586","msl000386","iti","","null","img/motor_4.png","70","motor","","","","","","",""
"534","","1160048","HierDypqnzmcx0","x8suzoj586","msl000386","motor","","75","img/motor_7.png","75","motor","7","231","1","0","0","",""
"null","","1160156","HierDypqnzmcx0","x8suzoj586","msl000386","iti","","null","img/motor_7.png","75","motor","","","","","","",""
"933","","1161103","HierDypqnzmcx0","x8suzoj586","msl000386","motor","","83","img/motor_2.png","83","motor","2","232","1","0","0","",""
"null","","1161212","HierDypqnzmcx0","x8suzoj586","msl000386","iti","","null","img/motor_2.png","83","motor","","","","","","",""
"588","","1161809","HierDypqnzmcx0","x8suzoj586","msl000386","motor","","76","img/motor_7.png","75","motor","7","233","0","1","0","",""
"480","","1162297","HierDypqnzmcx0","x8suzoj586","msl000386","motorRepeat","","75","img/motor_7.png","75","motor","7","233","1","0","0","",""
"48","","1162405","HierDypqnzmcx0","x8suzoj586","msl000386","iti","","74","img/motor_7.png","75","motor","","","","","","",""
"1044","","1163457","HierDypqnzmcx0","x8suzoj586","msl000386","motor","","70","img/motor_4.png","70","motor","4","234","1","0","0","",""
"null","","1163572","HierDypqnzmcx0","x8suzoj586","msl000386","iti","","null","img/motor_4.png","70","motor","","","","","","",""
"492","","1164072","HierDypqnzmcx0","x8suzoj586","msl000386","motor","","76","img/motor_8.png","76","motor","8","235","1","0","0","",""
"null","","1164181","HierDypqnzmcx0","x8suzoj586","msl000386","iti","","null","img/motor_8.png","76","motor","","","","","","",""
"836","","1165031","HierDypqnzmcx0","x8suzoj586","msl000386","motor","","68","img/motor_3.png","68","motor","3","236","1","0","0","",""
"null","","1165146","HierDypqnzmcx0","x8suzoj586","msl000386","iti","","null","img/motor_3.png","68","motor","","","","","","",""
"829","","1165985","HierDypqnzmcx0","x8suzoj586","msl000386","motor","","75","img/motor_6.png","74","motor","6","237","0","1","0","",""
"360","","1166360","HierDypqnzmcx0","x8suzoj586","msl000386","motorRepeat","","74","img/motor_6.png","74","motor","6","237","1","0","0","",""
"null","","1166469","HierDypqnzmcx0","x8suzoj586","msl000386","iti","","null","img/motor_6.png","74","motor","","","","","","",""
"627","","1167105","HierDypqnzmcx0","x8suzoj586","msl000386","motor","","74","img/motor_6.png","74","motor","6","238","1","0","0","",""
"null","","1167213","HierDypqnzmcx0","x8suzoj586","msl000386","iti","","null","img/motor_6.png","74","motor","","","","","","",""
"483","","1167711","HierDypqnzmcx0","x8suzoj586","msl000386","motor","","75","img/motor_7.png","75","motor","7","239","1","0","0","",""
"null","","1167821","HierDypqnzmcx0","x8suzoj586","msl000386","iti","","null","img/motor_7.png","75","motor","","","","","","",""
"493","","1168321","HierDypqnzmcx0","x8suzoj586","msl000386","motor","","74","img/motor_6.png","74","motor","6","240","1","0","0","",""
"null","","1168436","HierDypqnzmcx0","x8suzoj586","msl000386","iti","","null","img/motor_6.png","74","motor","","","","","","",""
"653","","1169096","HierDypqnzmcx0","x8suzoj586","msl000386","motor","","68","img/motor_3.png","68","motor","3","241","1","0","0","",""
"null","","1169211","HierDypqnzmcx0","x8suzoj586","msl000386","iti","","null","img/motor_3.png","68","motor","","","","","","",""
"510","","1169729","HierDypqnzmcx0","x8suzoj586","msl000386","motor","","75","img/motor_7.png","75","motor","7","242","1","0","0","",""
"null","","1169843","HierDypqnzmcx0","x8suzoj586","msl000386","iti","","null","img/motor_7.png","75","motor","","","","","","",""
"541","","1170400","HierDypqnzmcx0","x8suzoj586","msl000386","motor","","68","img/motor_3.png","68","motor","3","243","1","0","0","",""
"null","","1170508","HierDypqnzmcx0","x8suzoj586","msl000386","iti","","null","img/motor_3.png","68","motor","","","","","","",""
"467","","1170984","HierDypqnzmcx0","x8suzoj586","msl000386","motor","","75","img/motor_7.png","75","motor","7","244","1","0","0","",""
"null","","1171093","HierDypqnzmcx0","x8suzoj586","msl000386","iti","","null","img/motor_7.png","75","motor","","","","","","",""
"820","","1171921","HierDypqnzmcx0","x8suzoj586","msl000386","motor","","68","img/motor_4.png","70","motor","4","245","0","1","0","",""
"488","","1172416","HierDypqnzmcx0","x8suzoj586","msl000386","motorRepeat","","70","img/motor_4.png","70","motor","4","245","1","0","0","",""
"null","","1172524","HierDypqnzmcx0","x8suzoj586","msl000386","iti","","null","img/motor_4.png","70","motor","","","","","","",""
"781","","1173313","HierDypqnzmcx0","x8suzoj586","msl000386","motor","","74","img/motor_5.png","72","motor","5","246","0","1","0","",""
"416","","1173737","HierDypqnzmcx0","x8suzoj586","msl000386","motorRepeat","","72","img/motor_5.png","72","motor","5","246","1","0","0","",""
"null","","1173845","HierDypqnzmcx0","x8suzoj586","msl000386","iti","","null","img/motor_5.png","72","motor","","","","","","",""
"541","","1174399","HierDypqnzmcx0","x8suzoj586","msl000386","motor","","70","img/motor_4.png","70","motor","4","247","1","0","0","",""
"null","","1174509","HierDypqnzmcx0","x8suzoj586","msl000386","iti","","null","img/motor_4.png","70","motor","","","","","","",""
"795","","1175312","HierDypqnzmcx0","x8suzoj586","msl000386","motor","","74","img/motor_6.png","74","motor","6","248","1","0","0","",""
"null","","1175428","HierDypqnzmcx0","x8suzoj586","msl000386","iti","","null","img/motor_6.png","74","motor","","","","","","",""
"621","","1176064","HierDypqnzmcx0","x8suzoj586","msl000386","motor","","75","img/motor_7.png","75","motor","7","249","1","0","0","",""
"null","","1176178","HierDypqnzmcx0","x8suzoj586","msl000386","iti","","null","img/motor_7.png","75","motor","","","","","","",""
"749","","1176936","HierDypqnzmcx0","x8suzoj586","msl000386","motor","","68","img/motor_3.png","68","motor","3","250","1","0","0","",""
"null","","1177045","HierDypqnzmcx0","x8suzoj586","msl000386","iti","","null","img/motor_3.png","68","motor","","","","","","",""
"675","","1177730","HierDypqnzmcx0","x8suzoj586","msl000386","motor","","65","img/motor_1.png","65","motor","1","251","1","0","0","",""
"null","","1177844","HierDypqnzmcx0","x8suzoj586","msl000386","iti","","null","img/motor_1.png","65","motor","","","","","","",""
"691","","1178552","HierDypqnzmcx0","x8suzoj586","msl000386","motor","","70","img/motor_4.png","70","motor","4","252","1","0","0","",""
"null","","1178661","HierDypqnzmcx0","x8suzoj586","msl000386","iti","","null","img/motor_4.png","70","motor","","","","","","",""
"549","","1179216","HierDypqnzmcx0","x8suzoj586","msl000386","motor","","83","img/motor_2.png","83","motor","2","253","1","0","0","",""
"null","","1179325","HierDypqnzmcx0","x8suzoj586","msl000386","iti","","null","img/motor_2.png","83","motor","","","","","","",""
"549","","1179880","HierDypqnzmcx0","x8suzoj586","msl000386","motor","","70","img/motor_4.png","70","motor","4","254","1","0","0","",""
"null","","1179994","HierDypqnzmcx0","x8suzoj586","msl000386","iti","","null","img/motor_4.png","70","motor","","","","","","",""
"526","","1180536","HierDypqnzmcx0","x8suzoj586","msl000386","motor","","68","img/motor_3.png","68","motor","3","255","1","0","0","",""
"null","","1180644","HierDypqnzmcx0","x8suzoj586","msl000386","iti","","null","img/motor_3.png","68","motor","","","","","","",""
"532","","1181185","HierDypqnzmcx0","x8suzoj586","msl000386","motor","","70","img/motor_4.png","70","motor","4","256","1","0","0","",""
"null","","1181300","HierDypqnzmcx0","x8suzoj586","msl000386","iti","","null","img/motor_4.png","70","motor","","","","","","",""
"787","","1182097","HierDypqnzmcx0","x8suzoj586","msl000386","motor","","74","img/motor_6.png","74","motor","6","257","1","0","0","",""
"null","","1182212","HierDypqnzmcx0","x8suzoj586","msl000386","iti","","null","img/motor_6.png","74","motor","","","","","","",""
"508","","1182735","HierDypqnzmcx0","x8suzoj586","msl000386","motor","","70","img/motor_3.png","68","motor","3","258","0","1","0","",""
"528","","1183273","HierDypqnzmcx0","x8suzoj586","msl000386","motorRepeat","","68","img/motor_3.png","68","motor","3","258","1","0","0","",""
"null","","1183388","HierDypqnzmcx0","x8suzoj586","msl000386","iti","","null","img/motor_3.png","68","motor","","","","","","",""
"731","","1184135","HierDypqnzmcx0","x8suzoj586","msl000386","motor","","76","img/motor_8.png","76","motor","8","259","1","0","0","",""
"null","","1184251","HierDypqnzmcx0","x8suzoj586","msl000386","iti","","null","img/motor_8.png","76","motor","","","","","","",""
"613","","1184873","HierDypqnzmcx0","x8suzoj586","msl000386","motor","","75","img/motor_7.png","75","motor","7","260","1","0","0","",""
"null","","1184988","HierDypqnzmcx0","x8suzoj586","msl000386","iti","","null","img/motor_7.png","75","motor","","","","","","",""
"749","","1185745","HierDypqnzmcx0","x8suzoj586","msl000386","motor","","72","img/motor_5.png","72","motor","5","261","1","0","0","",""
"null","","1185854","HierDypqnzmcx0","x8suzoj586","msl000386","iti","","null","img/motor_5.png","72","motor","","","","","","",""
"683","","1186552","HierDypqnzmcx0","x8suzoj586","msl000386","motor","","72","img/motor_5.png","72","motor","5","262","1","0","0","",""
"null","","1186667","HierDypqnzmcx0","x8suzoj586","msl000386","iti","","null","img/motor_5.png","72","motor","","","","","","",""
"628","","1187305","HierDypqnzmcx0","x8suzoj586","msl000386","motor","","65","img/motor_1.png","65","motor","1","263","1","0","0","",""
"null","","1187420","HierDypqnzmcx0","x8suzoj586","msl000386","iti","","null","img/motor_1.png","65","motor","","","","","","",""
"900","","1188336","HierDypqnzmcx0","x8suzoj586","msl000386","motor","","75","img/motor_7.png","75","motor","7","264","1","0","0","",""
"null","","1188451","HierDypqnzmcx0","x8suzoj586","msl000386","iti","","null","img/motor_7.png","75","motor","","","","","","",""
"597","","1189064","HierDypqnzmcx0","x8suzoj586","msl000386","motor","","76","img/motor_8.png","76","motor","8","265","1","0","0","",""
"null","","1189172","HierDypqnzmcx0","x8suzoj586","msl000386","iti","","null","img/motor_8.png","76","motor","","","","","","",""
"596","","1189777","HierDypqnzmcx0","x8suzoj586","msl000386","motor","","65","img/motor_1.png","65","motor","1","266","1","0","0","",""
"null","","1189891","HierDypqnzmcx0","x8suzoj586","msl000386","iti","","null","img/motor_1.png","65","motor","","","","","","",""
"813","","1190713","HierDypqnzmcx0","x8suzoj586","msl000386","motor","","83","img/motor_3.png","68","motor","3","267","0","1","0","",""
"600","","1191321","HierDypqnzmcx0","x8suzoj586","msl000386","motorRepeat","","68","img/motor_3.png","68","motor","3","267","1","0","0","",""
"null","","1191436","HierDypqnzmcx0","x8suzoj586","msl000386","iti","","null","img/motor_3.png","68","motor","","","","","","",""
"692","","1192137","HierDypqnzmcx0","x8suzoj586","msl000386","motor","","75","img/motor_7.png","75","motor","7","268","1","0","0","",""
"null","","1192246","HierDypqnzmcx0","x8suzoj586","msl000386","iti","","null","img/motor_7.png","75","motor","","","","","","",""
"747","","1193007","HierDypqnzmcx0","x8suzoj586","msl000386","motor","","74","img/motor_6.png","74","motor","6","269","1","0","0","",""
"null","","1193117","HierDypqnzmcx0","x8suzoj586","msl000386","iti","","null","img/motor_6.png","74","motor","","","","","","",""
"611","","1193737","HierDypqnzmcx0","x8suzoj586","msl000386","motor","","75","img/motor_7.png","75","motor","7","270","1","0","0","",""
"null","","1193851","HierDypqnzmcx0","x8suzoj586","msl000386","iti","","null","img/motor_7.png","75","motor","","","","","","",""
"773","","1194640","HierDypqnzmcx0","x8suzoj586","msl000386","motor","","74","img/motor_6.png","74","motor","6","271","1","0","0","",""
"null","","1194755","HierDypqnzmcx0","x8suzoj586","msl000386","iti","","null","img/motor_6.png","74","motor","","","","","","",""
"621","","1195392","HierDypqnzmcx0","x8suzoj586","msl000386","motor","","83","img/motor_2.png","83","motor","2","272","1","0","0","",""
"null","","1195508","HierDypqnzmcx0","x8suzoj586","msl000386","iti","","null","img/motor_2.png","83","motor","","","","","","",""
"557","","1196073","HierDypqnzmcx0","x8suzoj586","msl000386","motor","","76","img/motor_8.png","76","motor","8","273","1","0","0","",""
"null","","1196188","HierDypqnzmcx0","x8suzoj586","msl000386","iti","","null","img/motor_8.png","76","motor","","","","","","",""
"685","","1196880","HierDypqnzmcx0","x8suzoj586","msl000386","motor","","72","img/motor_4.png","70","motor","4","274","0","1","0","",""
"39","","1196934","HierDypqnzmcx0","x8suzoj586","msl000386","motorRepeat","","70","img/motor_4.png","70","motor","4","274","1","0","0","",""
"null","","1197050","HierDypqnzmcx0","x8suzoj586","msl000386","iti","","null","img/motor_4.png","70","motor","","","","","","",""
"750","","1197808","HierDypqnzmcx0","x8suzoj586","msl000386","motor","","65","img/motor_1.png","65","motor","1","275","1","0","0","",""
"null","","1197923","HierDypqnzmcx0","x8suzoj586","msl000386","iti","","null","img/motor_1.png","65","motor","","","","","","",""
"741","","1198679","HierDypqnzmcx0","x8suzoj586","msl000386","motor","","72","img/motor_5.png","72","motor","5","276","1","0","0","",""
"null","","1198788","HierDypqnzmcx0","x8suzoj586","msl000386","iti","","null","img/motor_5.png","72","motor","","","","","","",""
"661","","1199464","HierDypqnzmcx0","x8suzoj586","msl000386","motor","","83","img/motor_2.png","83","motor","2","277","1","0","0","",""
"null","","1199579","HierDypqnzmcx0","x8suzoj586","msl000386","iti","","null","img/motor_2.png","83","motor","","","","","","",""
"894","","1200480","HierDypqnzmcx0","x8suzoj586","msl000386","motor","","65","img/motor_1.png","65","motor","1","278","1","0","0","",""
"null","","1200588","HierDypqnzmcx0","x8suzoj586","msl000386","iti","","null","img/motor_1.png","65","motor","","","","","","",""
"620","","1201216","HierDypqnzmcx0","x8suzoj586","msl000386","motor","","76","img/motor_8.png","76","motor","8","279","1","0","0","",""
"null","","1201325","HierDypqnzmcx0","x8suzoj586","msl000386","iti","","null","img/motor_8.png","76","motor","","","","","","",""
"611","","1201944","HierDypqnzmcx0","x8suzoj586","msl000386","motor","","83","img/motor_2.png","83","motor","2","280","1","0","0","",""
"null","","1202059","HierDypqnzmcx0","x8suzoj586","msl000386","iti","","null","img/motor_2.png","83","motor","","","","","","",""
"550","","1202617","HierDypqnzmcx0","x8suzoj586","msl000386","motor","","65","img/motor_1.png","65","motor","1","281","1","0","0","",""
"null","","1202732","HierDypqnzmcx0","x8suzoj586","msl000386","iti","","null","img/motor_1.png","65","motor","","","","","","",""
"604","","1203345","HierDypqnzmcx0","x8suzoj586","msl000386","motor","","72","img/motor_5.png","72","motor","5","282","1","0","0","",""
"null","","1203453","HierDypqnzmcx0","x8suzoj586","msl000386","iti","","null","img/motor_5.png","72","motor","","","","","","",""
"596","","1204064","HierDypqnzmcx0","x8suzoj586","msl000386","motor","","70","img/motor_4.png","70","motor","4","283","1","0","0","",""
"null","","1204180","HierDypqnzmcx0","x8suzoj586","msl000386","iti","","null","img/motor_4.png","70","motor","","","","","","",""
"622","","1204809","HierDypqnzmcx0","x8suzoj586","msl000386","motor","","83","img/motor_2.png","83","motor","2","284","1","0","0","",""
"null","","1204917","HierDypqnzmcx0","x8suzoj586","msl000386","iti","","null","img/motor_2.png","83","motor","","","","","","",""
"651","","1205577","HierDypqnzmcx0","x8suzoj586","msl000386","motor","","75","img/motor_7.png","75","motor","7","285","1","0","0","",""
"null","","1205686","HierDypqnzmcx0","x8suzoj586","msl000386","iti","","null","img/motor_7.png","75","motor","","","","","","",""
"563","","1206264","HierDypqnzmcx0","x8suzoj586","msl000386","motor","","83","img/motor_3.png","68","motor","3","286","0","1","0","",""
"234","","1206505","HierDypqnzmcx0","x8suzoj586","msl000386","motorRepeat","","68","img/motor_3.png","68","motor","3","286","1","0","0","",""
"null","","1206614","HierDypqnzmcx0","x8suzoj586","msl000386","iti","","null","img/motor_3.png","68","motor","","","","","","",""
"875","","1207504","HierDypqnzmcx0","x8suzoj586","msl000386","motor","","74","img/motor_6.png","74","motor","6","287","1","0","0","",""
"null","","1207620","HierDypqnzmcx0","x8suzoj586","msl000386","iti","","null","img/motor_6.png","74","motor","","","","","","",""
"597","","1208226","HierDypqnzmcx0","x8suzoj586","msl000386","motor","","72","img/motor_5.png","72","motor","5","288","1","0","0","",""
"null","","1208340","HierDypqnzmcx0","x8suzoj586","msl000386","iti","","null","img/motor_5.png","72","motor","","","","","","",""
"469","","1208824","HierDypqnzmcx0","x8suzoj586","msl000386","motor","","74","img/motor_6.png","74","motor","6","289","1","0","0","",""
"null","","1208940","HierDypqnzmcx0","x8suzoj586","msl000386","iti","","null","img/motor_6.png","74","motor","","","","","","",""
"645","","1209600","HierDypqnzmcx0","x8suzoj586","msl000386","motor","","65","img/motor_1.png","65","motor","1","290","1","0","0","",""
"null","","1209708","HierDypqnzmcx0","x8suzoj586","msl000386","iti","","null","img/motor_1.png","65","motor","","","","","","",""
"660","","1210383","HierDypqnzmcx0","x8suzoj586","msl000386","motor","","76","img/motor_8.png","76","motor","8","291","1","0","0","",""
"null","","1210493","HierDypqnzmcx0","x8suzoj586","msl000386","iti","","null","img/motor_8.png","76","motor","","","","","","",""
"909","","1211408","HierDypqnzmcx0","x8suzoj586","msl000386","motor","","68","img/motor_3.png","68","motor","3","292","1","0","0","",""
"null","","1211517","HierDypqnzmcx0","x8suzoj586","msl000386","iti","","null","img/motor_3.png","68","motor","","","","","","",""
"483","","1212009","HierDypqnzmcx0","x8suzoj586","msl000386","motor","","74","img/motor_6.png","74","motor","6","293","1","0","0","",""
"null","","1212117","HierDypqnzmcx0","x8suzoj586","msl000386","iti","","null","img/motor_6.png","74","motor","","","","","","",""
"588","","1212714","HierDypqnzmcx0","x8suzoj586","msl000386","motor","","68","img/motor_3.png","68","motor","3","294","1","0","0","",""
"null","","1212828","HierDypqnzmcx0","x8suzoj586","msl000386","iti","","null","img/motor_3.png","68","motor","","","","","","",""
"813","","1213656","HierDypqnzmcx0","x8suzoj586","msl000386","motor","","68","img/motor_3.png","68","motor","3","295","1","0","0","",""
"null","","1213771","HierDypqnzmcx0","x8suzoj586","msl000386","iti","","null","img/motor_3.png","68","motor","","","","","","",""
"509","","1214289","HierDypqnzmcx0","x8suzoj586","msl000386","motor","","74","img/motor_6.png","74","motor","6","296","1","0","0","",""
"null","","1214398","HierDypqnzmcx0","x8suzoj586","msl000386","iti","","null","img/motor_6.png","74","motor","","","","","","",""
"572","","1214977","HierDypqnzmcx0","x8suzoj586","msl000386","motor","","74","img/motor_7.png","75","motor","7","297","0","1","0","",""
"161","","1215144","HierDypqnzmcx0","x8suzoj586","msl000386","motorRepeat","","75","img/motor_7.png","75","motor","7","297","1","0","0","",""
"null","","1215252","HierDypqnzmcx0","x8suzoj586","msl000386","iti","","null","img/motor_7.png","75","motor","","","","","","",""
"604","","1215866","HierDypqnzmcx0","x8suzoj586","msl000386","motor","","68","img/motor_2.png","83","motor","2","298","0","1","0","",""
"399","","1216273","HierDypqnzmcx0","x8suzoj586","msl000386","motorRepeat","","83","img/motor_2.png","83","motor","2","298","1","0","0","",""
"null","","1216389","HierDypqnzmcx0","x8suzoj586","msl000386","iti","","null","img/motor_2.png","83","motor","","","","","","",""
"699","","1217103","HierDypqnzmcx0","x8suzoj586","msl000386","motor","","65","img/motor_1.png","65","motor","1","299","1","0","0","",""
"null","","1217220","HierDypqnzmcx0","x8suzoj586","msl000386","iti","","null","img/motor_1.png","65","motor","","","","","","",""
"621","","1217856","HierDypqnzmcx0","x8suzoj586","msl000386","motor","","72","img/motor_5.png","72","motor","5","300","1","0","0","",""
"null","","1217972","HierDypqnzmcx0","x8suzoj586","msl000386","iti","","null","img/motor_5.png","72","motor","","","","","","",""
"1110","","1219088","HierDypqnzmcx0","x8suzoj586","msl000386","motor","","74","img/motor_6.png","74","motor","6","301","1","0","0","",""
"null","","1219196","HierDypqnzmcx0","x8suzoj586","msl000386","iti","","null","img/motor_6.png","74","motor","","","","","","",""
"707","","1219913","HierDypqnzmcx0","x8suzoj586","msl000386","motor","","70","img/motor_4.png","70","motor","4","302","1","0","0","",""
"null","","1220028","HierDypqnzmcx0","x8suzoj586","msl000386","iti","","null","img/motor_4.png","70","motor","","","","","","",""
"1252","","1221290","HierDypqnzmcx0","x8suzoj586","msl000386","motor","","65","img/motor_1.png","65","motor","1","303","1","0","0","",""
"null","","1221397","HierDypqnzmcx0","x8suzoj586","msl000386","iti","","null","img/motor_1.png","65","motor","","","","","","",""
"732","","1222137","HierDypqnzmcx0","x8suzoj586","msl000386","motor","","68","img/motor_3.png","68","motor","3","304","1","0","0","",""
"null","","1222252","HierDypqnzmcx0","x8suzoj586","msl000386","iti","","null","img/motor_3.png","68","motor","","","","","","",""
"765","","1223025","HierDypqnzmcx0","x8suzoj586","msl000386","motor","","74","img/motor_5.png","72","motor","5","305","0","1","0","",""
"495","","1223529","HierDypqnzmcx0","x8suzoj586","msl000386","motorRepeat","","75","img/motor_5.png","72","motor","5","305","0","1","0","",""
"1840","","1225377","HierDypqnzmcx0","x8suzoj586","msl000386","motorRepeat","","72","img/motor_5.png","72","motor","5","305","1","0","0","",""
"null","","1225486","HierDypqnzmcx0","x8suzoj586","msl000386","iti","","null","img/motor_5.png","72","motor","","","","","","",""
"1826","","1227322","HierDypqnzmcx0","x8suzoj586","msl000386","motor","","74","img/motor_7.png","75","motor","7","306","0","1","0","",""
"656","","1227992","HierDypqnzmcx0","x8suzoj586","msl000386","motorRepeat","","75","img/motor_7.png","75","motor","7","306","1","0","0","",""
"null","","1228101","HierDypqnzmcx0","x8suzoj586","msl000386","iti","","null","img/motor_7.png","75","motor","","","","","","",""
"1333","","1229441","HierDypqnzmcx0","x8suzoj586","msl000386","motor","","74","img/motor_7.png","75","motor","7","307","0","1","0","",""
"455","","1229913","HierDypqnzmcx0","x8suzoj586","msl000386","motorRepeat","","75","img/motor_7.png","75","motor","7","307","1","0","0","",""
"null","","1230027","HierDypqnzmcx0","x8suzoj586","msl000386","iti","","null","img/motor_7.png","75","motor","","","","","","",""
"573","","1230616","HierDypqnzmcx0","x8suzoj586","msl000386","motor","","72","img/motor_6.png","74","motor","6","308","0","1","0","",""
"593","","1231217","HierDypqnzmcx0","x8suzoj586","msl000386","motorRepeat","","74","img/motor_6.png","74","motor","6","308","1","0","0","",""
"null","","1231326","HierDypqnzmcx0","x8suzoj586","msl000386","iti","","null","img/motor_6.png","74","motor","","","","","","",""
"827","","1232160","HierDypqnzmcx0","x8suzoj586","msl000386","motor","","83","img/motor_2.png","83","motor","2","309","1","0","0","",""
"null","","1232268","HierDypqnzmcx0","x8suzoj586","msl000386","iti","","null","img/motor_2.png","83","motor","","","","","","",""
"452","","1232729","HierDypqnzmcx0","x8suzoj586","msl000386","motor","","76","img/motor_8.png","76","motor","8","310","1","0","0","",""
"null","","1232838","HierDypqnzmcx0","x8suzoj586","msl000386","iti","","null","img/motor_8.png","76","motor","","","","","","",""
"596","","1233448","HierDypqnzmcx0","x8suzoj586","msl000386","motor","","72","img/motor_5.png","72","motor","5","311","1","0","0","",""
"null","","1233557","HierDypqnzmcx0","x8suzoj586","msl000386","iti","","null","img/motor_5.png","72","motor","","","","","","",""
"397","","1233962","HierDypqnzmcx0","x8suzoj586","msl000386","motor","","76","img/motor_8.png","76","motor","8","312","1","0","0","",""
"null","","1234070","HierDypqnzmcx0","x8suzoj586","msl000386","iti","","null","img/motor_8.png","76","motor","","","","","","",""
"619","","1234698","HierDypqnzmcx0","x8suzoj586","msl000386","motor","","74","img/motor_6.png","74","motor","6","313","1","0","0","",""
"null","","1234813","HierDypqnzmcx0","x8suzoj586","msl000386","iti","","null","img/motor_6.png","74","motor","","","","","","",""
"812","","1235640","HierDypqnzmcx0","x8suzoj586","msl000386","motor","","83","img/motor_2.png","83","motor","2","314","1","0","0","",""
"null","","1235755","HierDypqnzmcx0","x8suzoj586","msl000386","iti","","null","img/motor_2.png","83","motor","","","","","","",""
"645","","1236410","HierDypqnzmcx0","x8suzoj586","msl000386","motor","","72","img/motor_5.png","72","motor","5","315","1","0","0","",""
"null","","1236517","HierDypqnzmcx0","x8suzoj586","msl000386","iti","","null","img/motor_5.png","72","motor","","","","","","",""
"404","","1236936","HierDypqnzmcx0","x8suzoj586","msl000386","motor","","75","img/motor_8.png","76","motor","8","316","0","1","0","",""
"409","","1237360","HierDypqnzmcx0","x8suzoj586","msl000386","motorRepeat","","76","img/motor_8.png","76","motor","8","316","1","0","0","",""
"null","","1237469","HierDypqnzmcx0","x8suzoj586","msl000386","iti","","null","img/motor_8.png","76","motor","","","","","","",""
"780","","1238257","HierDypqnzmcx0","x8suzoj586","msl000386","motor","","70","img/motor_4.png","70","motor","4","317","1","0","0","",""
"null","","1238366","HierDypqnzmcx0","x8suzoj586","msl000386","iti","","null","img/motor_4.png","70","motor","","","","","","",""
"556","","1238929","HierDypqnzmcx0","x8suzoj586","msl000386","motor","","65","img/motor_1.png","65","motor","1","318","1","0","0","",""
"null","","1239038","HierDypqnzmcx0","x8suzoj586","msl000386","iti","","null","img/motor_1.png","65","motor","","","","","","",""
"603","","1239650","HierDypqnzmcx0","x8suzoj586","msl000386","motor","","70","img/motor_4.png","70","motor","4","319","1","0","0","",""
"null","","1239758","HierDypqnzmcx0","x8suzoj586","msl000386","iti","","null","img/motor_4.png","70","motor","","","","","","",""
"386","","1240154","HierDypqnzmcx0","x8suzoj586","msl000386","motor","","65","img/motor_1.png","65","motor","1","320","1","0","0","",""
"null","","1240269","HierDypqnzmcx0","x8suzoj586","msl000386","iti","","null","img/motor_1.png","65","motor","","","","","","",""
"349","","1240633","HierDypqnzmcx0","x8suzoj586","msl000386","motor","","70","img/motor_4.png","70","motor","4","321","1","0","0","",""
"null","","1240747","HierDypqnzmcx0","x8suzoj586","msl000386","iti","","null","img/motor_4.png","70","motor","","","","","","",""
"764","","1241528","HierDypqnzmcx0","x8suzoj586","msl000386","motor","","75","img/motor_7.png","75","motor","7","322","1","0","0","",""
"null","","1241638","HierDypqnzmcx0","x8suzoj586","msl000386","iti","","null","img/motor_7.png","75","motor","","","","","","",""
"852","","1242498","HierDypqnzmcx0","x8suzoj586","msl000386","motor","","72","img/motor_5.png","72","motor","5","323","1","0","0","",""
"null","","1242612","HierDypqnzmcx0","x8suzoj586","msl000386","iti","","null","img/motor_5.png","72","motor","","","","","","",""
"405","","1243032","HierDypqnzmcx0","x8suzoj586","msl000386","motor","","65","img/motor_1.png","65","motor","1","324","1","0","0","",""
"null","","1243149","HierDypqnzmcx0","x8suzoj586","msl000386","iti","","null","img/motor_1.png","65","motor","","","","","","",""
"701","","1243864","HierDypqnzmcx0","x8suzoj586","msl000386","motor","","74","img/motor_6.png","74","motor","6","325","1","0","0","",""
"null","","1243973","HierDypqnzmcx0","x8suzoj586","msl000386","iti","","null","img/motor_6.png","74","motor","","","","","","",""
"740","","1244728","HierDypqnzmcx0","x8suzoj586","msl000386","motor","","68","img/motor_3.png","68","motor","3","326","1","0","0","",""
"null","","1244844","HierDypqnzmcx0","x8suzoj586","msl000386","iti","","null","img/motor_3.png","68","motor","","","","","","",""
"509","","1245368","HierDypqnzmcx0","x8suzoj586","msl000386","motor","","65","img/motor_1.png","65","motor","1","327","1","0","0","",""
"null","","1245484","HierDypqnzmcx0","x8suzoj586","msl000386","iti","","null","img/motor_1.png","65","motor","","","","","","",""
"701","","1246193","HierDypqnzmcx0","x8suzoj586","msl000386","motor","","72","img/motor_5.png","72","motor","5","328","1","0","0","",""
"null","","1246308","HierDypqnzmcx0","x8suzoj586","msl000386","iti","","null","img/motor_5.png","72","motor","","","","","","",""
"621","","1246937","HierDypqnzmcx0","x8suzoj586","msl000386","motor","","68","img/motor_3.png","68","motor","3","329","1","0","0","",""
"null","","1247053","HierDypqnzmcx0","x8suzoj586","msl000386","iti","","null","img/motor_3.png","68","motor","","","","","","",""
"628","","1247689","HierDypqnzmcx0","x8suzoj586","msl000386","motor","","75","img/motor_7.png","75","motor","7","330","1","0","0","",""
"null","","1247797","HierDypqnzmcx0","x8suzoj586","msl000386","iti","","null","img/motor_7.png","75","motor","","","","","","",""
"788","","1248593","HierDypqnzmcx0","x8suzoj586","msl000386","motor","","65","img/motor_1.png","65","motor","1","331","1","0","0","",""
"null","","1248709","HierDypqnzmcx0","x8suzoj586","msl000386","iti","","null","img/motor_1.png","65","motor","","","","","","",""
"564","","1249282","HierDypqnzmcx0","x8suzoj586","msl000386","motor","","74","img/motor_7.png","75","motor","7","332","0","1","0","",""
"480","","1249776","HierDypqnzmcx0","x8suzoj586","msl000386","motorRepeat","","75","img/motor_7.png","75","motor","7","332","1","0","0","",""
"null","","1249885","HierDypqnzmcx0","x8suzoj586","msl000386","iti","","null","img/motor_7.png","75","motor","","","","","","",""
"804","","1250704","HierDypqnzmcx0","x8suzoj586","msl000386","motor","","76","img/motor_8.png","76","motor","8","333","1","0","0","",""
"null","","1250813","HierDypqnzmcx0","x8suzoj586","msl000386","iti","","null","img/motor_8.png","76","motor","","","","","","",""
"813","","1251633","HierDypqnzmcx0","x8suzoj586","msl000386","motor","","76","img/motor_8.png","76","motor","8","334","1","0","0","",""
"null","","1251748","HierDypqnzmcx0","x8suzoj586","msl000386","iti","","null","img/motor_8.png","76","motor","","","","","","",""
"651","","1252409","HierDypqnzmcx0","x8suzoj586","msl000386","motor","","70","img/motor_4.png","70","motor","4","335","1","0","0","",""
"null","","1252524","HierDypqnzmcx0","x8suzoj586","msl000386","iti","","null","img/motor_4.png","70","motor","","","","","","",""
"572","","1253106","HierDypqnzmcx0","x8suzoj586","msl000386","motor","","68","img/motor_3.png","68","motor","3","336","1","0","0","",""
"null","","1253220","HierDypqnzmcx0","x8suzoj586","msl000386","iti","","null","img/motor_3.png","68","motor","","","","","","",""
"764","","1253994","HierDypqnzmcx0","x8suzoj586","msl000386","motor","","65","img/motor_1.png","65","motor","1","337","1","0","0","",""
"null","","1254102","HierDypqnzmcx0","x8suzoj586","msl000386","iti","","null","img/motor_1.png","65","motor","","","","","","",""
"644","","1254754","HierDypqnzmcx0","x8suzoj586","msl000386","motor","","83","img/motor_2.png","83","motor","2","338","1","0","0","",""
"null","","1254862","HierDypqnzmcx0","x8suzoj586","msl000386","iti","","null","img/motor_2.png","83","motor","","","","","","",""
"652","","1255522","HierDypqnzmcx0","x8suzoj586","msl000386","motor","","83","img/motor_2.png","83","motor","2","339","1","0","0","",""
"40","","1255637","HierDypqnzmcx0","x8suzoj586","msl000386","iti","","65","img/motor_2.png","83","motor","","","","","","",""
"796","","1256448","HierDypqnzmcx0","x8suzoj586","msl000386","motor","","75","img/motor_5.png","72","motor","5","340","0","1","0","",""
"473","","1256930","HierDypqnzmcx0","x8suzoj586","msl000386","motorRepeat","","72","img/motor_5.png","72","motor","5","340","1","0","0","",""
"null","","1257039","HierDypqnzmcx0","x8suzoj586","msl000386","iti","","null","img/motor_5.png","72","motor","","","","","","",""
"699","","1257746","HierDypqnzmcx0","x8suzoj586","msl000386","motor","","83","img/motor_2.png","83","motor","2","341","1","0","0","",""
"null","","1257855","HierDypqnzmcx0","x8suzoj586","msl000386","iti","","null","img/motor_2.png","83","motor","","","","","","",""
"658","","1258521","HierDypqnzmcx0","x8suzoj586","msl000386","motor","","68","img/motor_3.png","68","motor","3","342","1","0","0","",""
"null","","1258637","HierDypqnzmcx0","x8suzoj586","msl000386","iti","","null","img/motor_3.png","68","motor","","","","","","",""
"492","","1259138","HierDypqnzmcx0","x8suzoj586","msl000386","motor","","70","img/motor_4.png","70","motor","4","343","1","0","0","",""
"null","","1259253","HierDypqnzmcx0","x8suzoj586","msl000386","iti","","null","img/motor_4.png","70","motor","","","","","","",""
"660","","1259928","HierDypqnzmcx0","x8suzoj586","msl000386","motor","","70","img/motor_4.png","70","motor","4","344","1","0","0","",""
"null","","1260038","HierDypqnzmcx0","x8suzoj586","msl000386","iti","","null","img/motor_4.png","70","motor","","","","","","",""
"532","","1260577","HierDypqnzmcx0","x8suzoj586","msl000386","motor","","76","img/motor_8.png","76","motor","8","345","1","0","0","",""
"null","","1260685","HierDypqnzmcx0","x8suzoj586","msl000386","iti","","null","img/motor_8.png","76","motor","","","","","","",""
"451","","1261145","HierDypqnzmcx0","x8suzoj586","msl000386","motor","","65","img/motor_1.png","65","motor","1","346","1","0","0","",""
"null","","1261260","HierDypqnzmcx0","x8suzoj586","msl000386","iti","","null","img/motor_1.png","65","motor","","","","","","",""
"388","","1261665","HierDypqnzmcx0","x8suzoj586","msl000386","motor","","76","img/motor_6.png","74","motor","6","347","0","1","0","",""
"256","","1261936","HierDypqnzmcx0","x8suzoj586","msl000386","motorRepeat","","75","img/motor_6.png","74","motor","6","347","0","1","0","",""
"32","","1261983","HierDypqnzmcx0","x8suzoj586","msl000386","motorRepeat","","74","img/motor_6.png","74","motor","6","347","1","0","0","",""
"null","","1262098","HierDypqnzmcx0","x8suzoj586","msl000386","iti","","null","img/motor_6.png","74","motor","","","","","","",""
