"rt","responses","time_elapsed","subject","prolificID","demoID","trialType","question_order","key_press","stim","corrresp","phase","stimNum","trialNum","corr","repeatTrial","motorSwitch","pracCounter","hierarchy"
"4054389","{""Q0"":""msl000299""}","4054425","HierDy6bmr37m7","cm4g2zcg1d","msl000299","","","","","","","","","","","","",""
"2002","","4056435","HierDy6bmr37m7","cm4g2zcg1d","msl000299","","","","","","","","","","","","",""
"","","4058434","HierDy6bmr37m7","cm4g2zcg1d","msl000299","fullscreen","","","","","","","","","","","",""
"14855","{""Vision"":""Yes"",""Handedness"":""Right"",""Gender"":""male""}","4073293","HierDy6bmr37m7","cm4g2zcg1d","msl000299","","[0,1,2]","","","","","","","","","","",""
"6250","{""Q0"":""22""}","4079559","HierDy6bmr37m7","cm4g2zcg1d","msl000299","","","","","","","","","","","","",""
"166443","","4246010","HierDy6bmr37m7","cm4g2zcg1d","msl000299","","","","","","","","","","","","",""
"663","","4246681","HierDy6bmr37m7","cm4g2zcg1d","msl000299","motor","","76","img/motor_8.png","76","motor","8","1","1","0","0","",""
"null","","4246798","HierDy6bmr37m7","cm4g2zcg1d","msl000299","iti","","null","img/motor_8.png","76","motor","","","","","","",""
"74","","4246887","HierDy6bmr37m7","cm4g2zcg1d","msl000299","motor","","76","img/motor_7.png","75","motor","7","2","0","1","0","",""
"569","","4247472","HierDy6bmr37m7","cm4g2zcg1d","msl000299","motorRepeat","","75","img/motor_7.png","75","motor","7","2","1","0","0","",""
"null","","4247587","HierDy6bmr37m7","cm4g2zcg1d","msl000299","iti","","null","img/motor_7.png","75","motor","","","","","","",""
"621","","4248217","HierDy6bmr37m7","cm4g2zcg1d","msl000299","motor","","72","img/motor_5.png","72","motor","5","3","1","0","0","",""
"null","","4248325","HierDy6bmr37m7","cm4g2zcg1d","msl000299","iti","","null","img/motor_5.png","72","motor","","","","","","",""
"548","","4248888","HierDy6bmr37m7","cm4g2zcg1d","msl000299","motor","","76","img/motor_8.png","76","motor","8","4","1","0","0","",""
"null","","4249003","HierDy6bmr37m7","cm4g2zcg1d","msl000299","iti","","null","img/motor_8.png","76","motor","","","","","","",""
"429","","4249449","HierDy6bmr37m7","cm4g2zcg1d","msl000299","motor","","72","img/motor_5.png","72","motor","5","5","1","0","0","",""
"null","","4249558","HierDy6bmr37m7","cm4g2zcg1d","msl000299","iti","","null","img/motor_5.png","72","motor","","","","","","",""
"660","","4250226","HierDy6bmr37m7","cm4g2zcg1d","msl000299","motor","","68","img/motor_3.png","68","motor","3","6","1","0","0","",""
"null","","4250340","HierDy6bmr37m7","cm4g2zcg1d","msl000299","iti","","null","img/motor_3.png","68","motor","","","","","","",""
"733","","4251089","HierDy6bmr37m7","cm4g2zcg1d","msl000299","motor","","68","img/motor_3.png","68","motor","3","7","1","0","0","",""
"null","","4251198","HierDy6bmr37m7","cm4g2zcg1d","msl000299","iti","","null","img/motor_3.png","68","motor","","","","","","",""
"740","","4251952","HierDy6bmr37m7","cm4g2zcg1d","msl000299","motor","","76","img/motor_8.png","76","motor","8","8","1","0","0","",""
"null","","4252067","HierDy6bmr37m7","cm4g2zcg1d","msl000299","iti","","null","img/motor_8.png","76","motor","","","","","","",""
"581","","4252658","HierDy6bmr37m7","cm4g2zcg1d","msl000299","motor","","74","img/motor_7.png","75","motor","7","9","0","1","0","",""
"407","","4253080","HierDy6bmr37m7","cm4g2zcg1d","msl000299","motorRepeat","","75","img/motor_7.png","75","motor","7","9","1","0","0","",""
"null","","4253195","HierDy6bmr37m7","cm4g2zcg1d","msl000299","iti","","null","img/motor_7.png","75","motor","","","","","","",""
"789","","4253994","HierDy6bmr37m7","cm4g2zcg1d","msl000299","motor","","83","img/motor_2.png","83","motor","2","10","1","0","0","",""
"null","","4254109","HierDy6bmr37m7","cm4g2zcg1d","msl000299","iti","","null","img/motor_2.png","83","motor","","","","","","",""
"1037","","4255160","HierDy6bmr37m7","cm4g2zcg1d","msl000299","motor","","70","img/motor_4.png","70","motor","4","11","1","0","0","",""
"null","","4255275","HierDy6bmr37m7","cm4g2zcg1d","msl000299","iti","","null","img/motor_4.png","70","motor","","","","","","",""
"638","","4255921","HierDy6bmr37m7","cm4g2zcg1d","msl000299","motor","","83","img/motor_2.png","83","motor","2","12","1","0","0","",""
"null","","4256029","HierDy6bmr37m7","cm4g2zcg1d","msl000299","iti","","null","img/motor_2.png","83","motor","","","","","","",""
"604","","4256642","HierDy6bmr37m7","cm4g2zcg1d","msl000299","motor","","65","img/motor_1.png","65","motor","1","13","1","0","0","",""
"null","","4256759","HierDy6bmr37m7","cm4g2zcg1d","msl000299","iti","","null","img/motor_1.png","65","motor","","","","","","",""
"650","","4257417","HierDy6bmr37m7","cm4g2zcg1d","msl000299","motor","","83","img/motor_2.png","83","motor","2","14","1","0","0","",""
"null","","4257534","HierDy6bmr37m7","cm4g2zcg1d","msl000299","iti","","null","img/motor_2.png","83","motor","","","","","","",""
"659","","4258208","HierDy6bmr37m7","cm4g2zcg1d","msl000299","motor","","75","img/motor_6.png","74","motor","6","15","0","1","0","",""
"457","","4258680","HierDy6bmr37m7","cm4g2zcg1d","msl000299","motorRepeat","","74","img/motor_6.png","74","motor","6","15","1","0","0","",""
"null","","4258790","HierDy6bmr37m7","cm4g2zcg1d","msl000299","iti","","null","img/motor_6.png","74","motor","","","","","","",""
"508","","4259313","HierDy6bmr37m7","cm4g2zcg1d","msl000299","motor","","75","img/motor_7.png","75","motor","7","16","1","0","0","",""
"null","","4259422","HierDy6bmr37m7","cm4g2zcg1d","msl000299","iti","","null","img/motor_7.png","75","motor","","","","","","",""
"35","","4259466","HierDy6bmr37m7","cm4g2zcg1d","msl000299","motor","","75","img/motor_8.png","76","motor","8","17","0","1","0","",""
"424","","4259898","HierDy6bmr37m7","cm4g2zcg1d","msl000299","motorRepeat","","76","img/motor_8.png","76","motor","8","17","1","0","0","",""
"null","","4260007","HierDy6bmr37m7","cm4g2zcg1d","msl000299","iti","","null","img/motor_8.png","76","motor","","","","","","",""
"571","","4260592","HierDy6bmr37m7","cm4g2zcg1d","msl000299","motor","","65","img/motor_1.png","65","motor","1","18","1","0","0","",""
"null","","4260702","HierDy6bmr37m7","cm4g2zcg1d","msl000299","iti","","null","img/motor_1.png","65","motor","","","","","","",""
"508","","4261218","HierDy6bmr37m7","cm4g2zcg1d","msl000299","motor","","76","img/motor_8.png","76","motor","8","19","1","0","0","",""
"null","","4261335","HierDy6bmr37m7","cm4g2zcg1d","msl000299","iti","","null","img/motor_8.png","76","motor","","","","","","",""
"795","","4262138","HierDy6bmr37m7","cm4g2zcg1d","msl000299","motor","","68","img/motor_3.png","68","motor","3","20","1","0","0","",""
"null","","4262255","HierDy6bmr37m7","cm4g2zcg1d","msl000299","iti","","null","img/motor_3.png","68","motor","","","","","","",""
"555","","4262825","HierDy6bmr37m7","cm4g2zcg1d","msl000299","motor","","76","img/motor_8.png","76","motor","8","21","1","0","0","",""
"null","","4262934","HierDy6bmr37m7","cm4g2zcg1d","msl000299","iti","","null","img/motor_8.png","76","motor","","","","","","",""
"628","","4263576","HierDy6bmr37m7","cm4g2zcg1d","msl000299","motor","","74","img/motor_6.png","74","motor","6","22","1","0","0","",""
"null","","4263685","HierDy6bmr37m7","cm4g2zcg1d","msl000299","iti","","null","img/motor_6.png","74","motor","","","","","","",""
"676","","4264376","HierDy6bmr37m7","cm4g2zcg1d","msl000299","motor","","72","img/motor_5.png","72","motor","5","23","1","0","0","",""
"null","","4264494","HierDy6bmr37m7","cm4g2zcg1d","msl000299","iti","","null","img/motor_5.png","72","motor","","","","","","",""
"629","","4265136","HierDy6bmr37m7","cm4g2zcg1d","msl000299","motor","","74","img/motor_6.png","74","motor","6","24","1","0","0","",""
"null","","4265246","HierDy6bmr37m7","cm4g2zcg1d","msl000299","iti","","null","img/motor_6.png","74","motor","","","","","","",""
"700","","4265960","HierDy6bmr37m7","cm4g2zcg1d","msl000299","motor","","70","img/motor_4.png","70","motor","4","25","1","0","0","",""
"null","","4266079","HierDy6bmr37m7","cm4g2zcg1d","msl000299","iti","","null","img/motor_4.png","70","motor","","","","","","",""
"659","","4266752","HierDy6bmr37m7","cm4g2zcg1d","msl000299","motor","","74","img/motor_6.png","74","motor","6","26","1","0","0","",""
"null","","4266862","HierDy6bmr37m7","cm4g2zcg1d","msl000299","iti","","null","img/motor_6.png","74","motor","","","","","","",""
"1900","","4268769","HierDy6bmr37m7","cm4g2zcg1d","msl000299","motor","","74","img/motor_6.png","74","motor","6","27","1","0","0","",""
"null","","4268879","HierDy6bmr37m7","cm4g2zcg1d","msl000299","iti","","null","img/motor_6.png","74","motor","","","","","","",""
"1122","","4270010","HierDy6bmr37m7","cm4g2zcg1d","msl000299","motor","","83","img/motor_2.png","83","motor","2","28","1","0","0","",""
"null","","4270127","HierDy6bmr37m7","cm4g2zcg1d","msl000299","iti","","null","img/motor_2.png","83","motor","","","","","","",""
"587","","4270722","HierDy6bmr37m7","cm4g2zcg1d","msl000299","motor","","72","img/motor_5.png","72","motor","5","29","1","0","0","",""
"null","","4270831","HierDy6bmr37m7","cm4g2zcg1d","msl000299","iti","","null","img/motor_5.png","72","motor","","","","","","",""
"578","","4271418","HierDy6bmr37m7","cm4g2zcg1d","msl000299","motor","","75","img/motor_7.png","75","motor","7","30","1","0","0","",""
"null","","4271535","HierDy6bmr37m7","cm4g2zcg1d","msl000299","iti","","null","img/motor_7.png","75","motor","","","","","","",""
"585","","4272131","HierDy6bmr37m7","cm4g2zcg1d","msl000299","motor","","75","img/motor_7.png","75","motor","7","31","1","0","0","",""
"null","","4272239","HierDy6bmr37m7","cm4g2zcg1d","msl000299","iti","","null","img/motor_7.png","75","motor","","","","","","",""
"699","","4272945","HierDy6bmr37m7","cm4g2zcg1d","msl000299","motor","","68","img/motor_3.png","68","motor","3","32","1","0","0","",""
"null","","4273054","HierDy6bmr37m7","cm4g2zcg1d","msl000299","iti","","null","img/motor_3.png","68","motor","","","","","","",""
"587","","4273649","HierDy6bmr37m7","cm4g2zcg1d","msl000299","motor","","72","img/motor_5.png","72","motor","5","33","1","0","0","",""
"null","","4273758","HierDy6bmr37m7","cm4g2zcg1d","msl000299","iti","","null","img/motor_5.png","72","motor","","","","","","",""
"828","","4274594","HierDy6bmr37m7","cm4g2zcg1d","msl000299","motor","","70","img/motor_4.png","70","motor","4","34","1","0","0","",""
"null","","4274703","HierDy6bmr37m7","cm4g2zcg1d","msl000299","iti","","null","img/motor_4.png","70","motor","","","","","","",""
"618","","4275329","HierDy6bmr37m7","cm4g2zcg1d","msl000299","motor","","65","img/motor_1.png","65","motor","1","35","1","0","0","",""
"null","","4275437","HierDy6bmr37m7","cm4g2zcg1d","msl000299","iti","","null","img/motor_1.png","65","motor","","","","","","",""
"717","","4276162","HierDy6bmr37m7","cm4g2zcg1d","msl000299","motor","","65","img/motor_1.png","65","motor","1","36","1","0","0","",""
"null","","4276279","HierDy6bmr37m7","cm4g2zcg1d","msl000299","iti","","null","img/motor_1.png","65","motor","","","","","","",""
"595","","4276888","HierDy6bmr37m7","cm4g2zcg1d","msl000299","motor","","68","img/motor_2.png","83","motor","2","37","0","1","0","",""
"473","","4277377","HierDy6bmr37m7","cm4g2zcg1d","msl000299","motorRepeat","","83","img/motor_2.png","83","motor","2","37","1","0","0","",""
"null","","4277494","HierDy6bmr37m7","cm4g2zcg1d","msl000299","iti","","null","img/motor_2.png","83","motor","","","","","","",""
"779","","4278282","HierDy6bmr37m7","cm4g2zcg1d","msl000299","motor","","65","img/motor_1.png","65","motor","1","38","1","0","0","",""
"null","","4278400","HierDy6bmr37m7","cm4g2zcg1d","msl000299","iti","","null","img/motor_1.png","65","motor","","","","","","",""
"762","","4279170","HierDy6bmr37m7","cm4g2zcg1d","msl000299","motor","","65","img/motor_1.png","65","motor","1","39","1","0","0","",""
"null","","4279287","HierDy6bmr37m7","cm4g2zcg1d","msl000299","iti","","null","img/motor_1.png","65","motor","","","","","","",""
"770","","4280073","HierDy6bmr37m7","cm4g2zcg1d","msl000299","motor","","75","img/motor_6.png","74","motor","6","40","0","1","0","",""
"319","","4280408","HierDy6bmr37m7","cm4g2zcg1d","msl000299","motorRepeat","","74","img/motor_6.png","74","motor","6","40","1","0","0","",""
"null","","4280518","HierDy6bmr37m7","cm4g2zcg1d","msl000299","iti","","null","img/motor_6.png","74","motor","","","","","","",""
"524","","4281050","HierDy6bmr37m7","cm4g2zcg1d","msl000299","motor","","76","img/motor_8.png","76","motor","8","41","1","0","0","",""
"null","","4281159","HierDy6bmr37m7","cm4g2zcg1d","msl000299","iti","","null","img/motor_8.png","76","motor","","","","","","",""
"1140","","4282305","HierDy6bmr37m7","cm4g2zcg1d","msl000299","motor","","70","img/motor_4.png","70","motor","4","42","1","0","0","",""
"null","","4282422","HierDy6bmr37m7","cm4g2zcg1d","msl000299","iti","","null","img/motor_4.png","70","motor","","","","","","",""
"788","","4283223","HierDy6bmr37m7","cm4g2zcg1d","msl000299","motor","","70","img/motor_4.png","70","motor","4","43","1","0","0","",""
"null","","4283333","HierDy6bmr37m7","cm4g2zcg1d","msl000299","iti","","null","img/motor_4.png","70","motor","","","","","","",""
"669","","4284010","HierDy6bmr37m7","cm4g2zcg1d","msl000299","motor","","72","img/motor_5.png","72","motor","5","44","1","0","0","",""
"null","","4284127","HierDy6bmr37m7","cm4g2zcg1d","msl000299","iti","","null","img/motor_5.png","72","motor","","","","","","",""
"690","","4284827","HierDy6bmr37m7","cm4g2zcg1d","msl000299","motor","","83","img/motor_2.png","83","motor","2","45","1","0","0","",""
"null","","4284936","HierDy6bmr37m7","cm4g2zcg1d","msl000299","iti","","null","img/motor_2.png","83","motor","","","","","","",""
"587","","4285531","HierDy6bmr37m7","cm4g2zcg1d","msl000299","motor","","75","img/motor_7.png","75","motor","7","46","1","0","0","",""
"null","","4285639","HierDy6bmr37m7","cm4g2zcg1d","msl000299","iti","","null","img/motor_7.png","75","motor","","","","","","",""
"531","","4286178","HierDy6bmr37m7","cm4g2zcg1d","msl000299","motor","","83","img/motor_2.png","83","motor","2","47","1","0","0","",""
"null","","4286294","HierDy6bmr37m7","cm4g2zcg1d","msl000299","iti","","null","img/motor_2.png","83","motor","","","","","","",""
"531","","4286833","HierDy6bmr37m7","cm4g2zcg1d","msl000299","motor","","72","img/motor_5.png","72","motor","5","48","1","0","0","",""
"null","","4286943","HierDy6bmr37m7","cm4g2zcg1d","msl000299","iti","","null","img/motor_5.png","72","motor","","","","","","",""
"588","","4287538","HierDy6bmr37m7","cm4g2zcg1d","msl000299","motor","","76","img/motor_8.png","76","motor","8","49","1","0","0","",""
"null","","4287654","HierDy6bmr37m7","cm4g2zcg1d","msl000299","iti","","null","img/motor_8.png","76","motor","","","","","","",""
"490","","4288154","HierDy6bmr37m7","cm4g2zcg1d","msl000299","motor","","65","img/motor_1.png","65","motor","1","50","1","0","0","",""
"null","","4288271","HierDy6bmr37m7","cm4g2zcg1d","msl000299","iti","","null","img/motor_1.png","65","motor","","","","","","",""
"450","","4288730","HierDy6bmr37m7","cm4g2zcg1d","msl000299","motor","","76","img/motor_8.png","76","motor","8","51","1","0","0","",""
"null","","4288847","HierDy6bmr37m7","cm4g2zcg1d","msl000299","iti","","null","img/motor_8.png","76","motor","","","","","","",""
"515","","4289376","HierDy6bmr37m7","cm4g2zcg1d","msl000299","motor","","72","img/motor_5.png","72","motor","5","52","1","0","0","",""
"null","","4289494","HierDy6bmr37m7","cm4g2zcg1d","msl000299","iti","","null","img/motor_5.png","72","motor","","","","","","",""
"468","","4289977","HierDy6bmr37m7","cm4g2zcg1d","msl000299","motor","","70","img/motor_4.png","70","motor","4","53","1","0","0","",""
"null","","4290094","HierDy6bmr37m7","cm4g2zcg1d","msl000299","iti","","null","img/motor_4.png","70","motor","","","","","","",""
"435","","4290539","HierDy6bmr37m7","cm4g2zcg1d","msl000299","motor","","76","img/motor_8.png","76","motor","8","54","1","0","0","",""
"null","","4290655","HierDy6bmr37m7","cm4g2zcg1d","msl000299","iti","","null","img/motor_8.png","76","motor","","","","","","",""
"651","","4291321","HierDy6bmr37m7","cm4g2zcg1d","msl000299","motor","","83","img/motor_2.png","83","motor","2","55","1","0","0","",""
"null","","4291439","HierDy6bmr37m7","cm4g2zcg1d","msl000299","iti","","null","img/motor_2.png","83","motor","","","","","","",""
"603","","4292049","HierDy6bmr37m7","cm4g2zcg1d","msl000299","motor","","68","img/motor_3.png","68","motor","3","56","1","0","0","",""
"null","","4292158","HierDy6bmr37m7","cm4g2zcg1d","msl000299","iti","","null","img/motor_3.png","68","motor","","","","","","",""
"717","","4292889","HierDy6bmr37m7","cm4g2zcg1d","msl000299","motor","","76","img/motor_8.png","76","motor","8","57","1","0","0","",""
"null","","4293006","HierDy6bmr37m7","cm4g2zcg1d","msl000299","iti","","null","img/motor_8.png","76","motor","","","","","","",""
"659","","4293673","HierDy6bmr37m7","cm4g2zcg1d","msl000299","motor","","75","img/motor_7.png","75","motor","7","58","1","0","0","",""
"null","","4293790","HierDy6bmr37m7","cm4g2zcg1d","msl000299","iti","","null","img/motor_7.png","75","motor","","","","","","",""
"1044","","4294842","HierDy6bmr37m7","cm4g2zcg1d","msl000299","motor","","70","img/motor_4.png","70","motor","4","59","1","0","0","",""
"null","","4294959","HierDy6bmr37m7","cm4g2zcg1d","msl000299","iti","","null","img/motor_4.png","70","motor","","","","","","",""
"867","","4295834","HierDy6bmr37m7","cm4g2zcg1d","msl000299","motor","","75","img/motor_3.png","68","motor","3","60","0","1","0","",""
"784","","4296627","HierDy6bmr37m7","cm4g2zcg1d","msl000299","motorRepeat","","70","img/motor_3.png","68","motor","3","60","0","1","0","",""
"264","","4296905","HierDy6bmr37m7","cm4g2zcg1d","msl000299","motorRepeat","","68","img/motor_3.png","68","motor","3","60","1","0","0","",""
"null","","4297015","HierDy6bmr37m7","cm4g2zcg1d","msl000299","iti","","null","img/motor_3.png","68","motor","","","","","","",""
"829","","4297851","HierDy6bmr37m7","cm4g2zcg1d","msl000299","motor","","65","img/motor_1.png","65","motor","1","61","1","0","0","",""
"null","","4297959","HierDy6bmr37m7","cm4g2zcg1d","msl000299","iti","","null","img/motor_1.png","65","motor","","","","","","",""
"699","","4298672","HierDy6bmr37m7","cm4g2zcg1d","msl000299","motor","","83","img/motor_2.png","83","motor","2","62","1","0","0","",""
"null","","4298791","HierDy6bmr37m7","cm4g2zcg1d","msl000299","iti","","null","img/motor_2.png","83","motor","","","","","","",""
"611","","4299411","HierDy6bmr37m7","cm4g2zcg1d","msl000299","motor","","75","img/motor_7.png","75","motor","7","63","1","0","0","",""
"null","","4299520","HierDy6bmr37m7","cm4g2zcg1d","msl000299","iti","","null","img/motor_7.png","75","motor","","","","","","",""
"666","","4300193","HierDy6bmr37m7","cm4g2zcg1d","msl000299","motor","","83","img/motor_2.png","83","motor","2","64","1","0","0","",""
"null","","4300303","HierDy6bmr37m7","cm4g2zcg1d","msl000299","iti","","null","img/motor_2.png","83","motor","","","","","","",""
"563","","4300874","HierDy6bmr37m7","cm4g2zcg1d","msl000299","motor","","65","img/motor_1.png","65","motor","1","65","1","0","0","",""
"null","","4300983","HierDy6bmr37m7","cm4g2zcg1d","msl000299","iti","","null","img/motor_1.png","65","motor","","","","","","",""
"675","","4301666","HierDy6bmr37m7","cm4g2zcg1d","msl000299","motor","","75","img/motor_7.png","75","motor","7","66","1","0","0","",""
"null","","4301775","HierDy6bmr37m7","cm4g2zcg1d","msl000299","iti","","null","img/motor_7.png","75","motor","","","","","","",""
"610","","4302394","HierDy6bmr37m7","cm4g2zcg1d","msl000299","motor","","83","img/motor_2.png","83","motor","2","67","1","0","0","",""
"null","","4302511","HierDy6bmr37m7","cm4g2zcg1d","msl000299","iti","","null","img/motor_2.png","83","motor","","","","","","",""
"723","","4303241","HierDy6bmr37m7","cm4g2zcg1d","msl000299","motor","","74","img/motor_6.png","74","motor","6","68","1","0","0","",""
"null","","4303350","HierDy6bmr37m7","cm4g2zcg1d","msl000299","iti","","null","img/motor_6.png","74","motor","","","","","","",""
"668","","4304027","HierDy6bmr37m7","cm4g2zcg1d","msl000299","motor","","70","img/motor_4.png","70","motor","4","69","1","0","0","",""
"null","","4304135","HierDy6bmr37m7","cm4g2zcg1d","msl000299","iti","","null","img/motor_4.png","70","motor","","","","","","",""
"691","","4304834","HierDy6bmr37m7","cm4g2zcg1d","msl000299","motor","","83","img/motor_2.png","83","motor","2","70","1","0","0","",""
"null","","4304943","HierDy6bmr37m7","cm4g2zcg1d","msl000299","iti","","null","img/motor_2.png","83","motor","","","","","","",""
"675","","4305626","HierDy6bmr37m7","cm4g2zcg1d","msl000299","motor","","68","img/motor_3.png","68","motor","3","71","1","0","0","",""
"null","","4305735","HierDy6bmr37m7","cm4g2zcg1d","msl000299","iti","","null","img/motor_3.png","68","motor","","","","","","",""
"26","","4305774","HierDy6bmr37m7","cm4g2zcg1d","msl000299","motor","","68","img/motor_6.png","74","motor","6","72","0","1","0","",""
"588","","4306371","HierDy6bmr37m7","cm4g2zcg1d","msl000299","motorRepeat","","74","img/motor_6.png","74","motor","6","72","1","0","0","",""
"null","","4306487","HierDy6bmr37m7","cm4g2zcg1d","msl000299","iti","","null","img/motor_6.png","74","motor","","","","","","",""
"603","","4307106","HierDy6bmr37m7","cm4g2zcg1d","msl000299","motor","","70","img/motor_4.png","70","motor","4","73","1","0","0","",""
"null","","4307223","HierDy6bmr37m7","cm4g2zcg1d","msl000299","iti","","null","img/motor_4.png","70","motor","","","","","","",""
"539","","4307771","HierDy6bmr37m7","cm4g2zcg1d","msl000299","motor","","83","img/motor_2.png","83","motor","2","74","1","0","0","",""
"null","","4307879","HierDy6bmr37m7","cm4g2zcg1d","msl000299","iti","","null","img/motor_2.png","83","motor","","","","","","",""
"523","","4308417","HierDy6bmr37m7","cm4g2zcg1d","msl000299","motor","","70","img/motor_4.png","70","motor","4","75","1","0","0","",""
"null","","4308526","HierDy6bmr37m7","cm4g2zcg1d","msl000299","iti","","null","img/motor_4.png","70","motor","","","","","","",""
"526","","4309064","HierDy6bmr37m7","cm4g2zcg1d","msl000299","motor","","75","img/motor_7.png","75","motor","7","76","1","0","0","",""
"null","","4309174","HierDy6bmr37m7","cm4g2zcg1d","msl000299","iti","","null","img/motor_7.png","75","motor","","","","","","",""
"485","","4309673","HierDy6bmr37m7","cm4g2zcg1d","msl000299","motor","","76","img/motor_8.png","76","motor","8","77","1","0","0","",""
"null","","4309783","HierDy6bmr37m7","cm4g2zcg1d","msl000299","iti","","null","img/motor_8.png","76","motor","","","","","","",""
"573","","4310363","HierDy6bmr37m7","cm4g2zcg1d","msl000299","motor","","83","img/motor_2.png","83","motor","2","78","1","0","0","",""
"null","","4310472","HierDy6bmr37m7","cm4g2zcg1d","msl000299","iti","","null","img/motor_2.png","83","motor","","","","","","",""
"459","","4310939","HierDy6bmr37m7","cm4g2zcg1d","msl000299","motor","","76","img/motor_8.png","76","motor","8","79","1","0","0","",""
"null","","4311056","HierDy6bmr37m7","cm4g2zcg1d","msl000299","iti","","null","img/motor_8.png","76","motor","","","","","","",""
"523","","4311585","HierDy6bmr37m7","cm4g2zcg1d","msl000299","motor","","74","img/motor_6.png","74","motor","6","80","1","0","0","",""
"null","","4311702","HierDy6bmr37m7","cm4g2zcg1d","msl000299","iti","","null","img/motor_6.png","74","motor","","","","","","",""
"541","","4312257","HierDy6bmr37m7","cm4g2zcg1d","msl000299","motor","","74","img/motor_6.png","74","motor","6","81","1","0","0","",""
"null","","4312367","HierDy6bmr37m7","cm4g2zcg1d","msl000299","iti","","null","img/motor_6.png","74","motor","","","","","","",""
"597","","4312977","HierDy6bmr37m7","cm4g2zcg1d","msl000299","motor","","70","img/motor_4.png","70","motor","4","82","1","0","0","",""
"null","","4313086","HierDy6bmr37m7","cm4g2zcg1d","msl000299","iti","","null","img/motor_4.png","70","motor","","","","","","",""
"468","","4313563","HierDy6bmr37m7","cm4g2zcg1d","msl000299","motor","","74","img/motor_6.png","74","motor","6","83","1","0","0","",""
"null","","4313680","HierDy6bmr37m7","cm4g2zcg1d","msl000299","iti","","null","img/motor_6.png","74","motor","","","","","","",""
"491","","4314178","HierDy6bmr37m7","cm4g2zcg1d","msl000299","motor","","72","img/motor_5.png","72","motor","5","84","1","0","0","",""
"null","","4314287","HierDy6bmr37m7","cm4g2zcg1d","msl000299","iti","","null","img/motor_5.png","72","motor","","","","","","",""
"468","","4314762","HierDy6bmr37m7","cm4g2zcg1d","msl000299","motor","","74","img/motor_6.png","74","motor","6","85","1","0","0","",""
"null","","4314871","HierDy6bmr37m7","cm4g2zcg1d","msl000299","iti","","null","img/motor_6.png","74","motor","","","","","","",""
"404","","4315289","HierDy6bmr37m7","cm4g2zcg1d","msl000299","motor","","72","img/motor_5.png","72","motor","5","86","1","0","0","",""
"null","","4315406","HierDy6bmr37m7","cm4g2zcg1d","msl000299","iti","","null","img/motor_5.png","72","motor","","","","","","",""
"556","","4315970","HierDy6bmr37m7","cm4g2zcg1d","msl000299","motor","","83","img/motor_3.png","68","motor","3","87","0","1","0","",""
"329","","4316306","HierDy6bmr37m7","cm4g2zcg1d","msl000299","motorRepeat","","68","img/motor_3.png","68","motor","3","87","1","0","0","",""
"null","","4316423","HierDy6bmr37m7","cm4g2zcg1d","msl000299","iti","","null","img/motor_3.png","68","motor","","","","","","",""
"500","","4316931","HierDy6bmr37m7","cm4g2zcg1d","msl000299","motor","","76","img/motor_8.png","76","motor","8","88","1","0","0","",""
"null","","4317048","HierDy6bmr37m7","cm4g2zcg1d","msl000299","iti","","null","img/motor_8.png","76","motor","","","","","","",""
"562","","4317625","HierDy6bmr37m7","cm4g2zcg1d","msl000299","motor","","70","img/motor_4.png","70","motor","4","89","1","0","0","",""
"null","","4317734","HierDy6bmr37m7","cm4g2zcg1d","msl000299","iti","","null","img/motor_4.png","70","motor","","","","","","",""
"589","","4318331","HierDy6bmr37m7","cm4g2zcg1d","msl000299","motor","","74","img/motor_6.png","74","motor","6","90","1","0","0","",""
"null","","4318440","HierDy6bmr37m7","cm4g2zcg1d","msl000299","iti","","null","img/motor_6.png","74","motor","","","","","","",""
"555","","4319003","HierDy6bmr37m7","cm4g2zcg1d","msl000299","motor","","75","img/motor_7.png","75","motor","7","91","1","0","0","",""
"null","","4319119","HierDy6bmr37m7","cm4g2zcg1d","msl000299","iti","","null","img/motor_7.png","75","motor","","","","","","",""
"498","","4319633","HierDy6bmr37m7","cm4g2zcg1d","msl000299","motor","","72","img/motor_5.png","72","motor","5","92","1","0","0","",""
"null","","4319743","HierDy6bmr37m7","cm4g2zcg1d","msl000299","iti","","null","img/motor_5.png","72","motor","","","","","","",""
"588","","4320339","HierDy6bmr37m7","cm4g2zcg1d","msl000299","motor","","68","img/motor_3.png","68","motor","3","93","1","0","0","",""
"null","","4320456","HierDy6bmr37m7","cm4g2zcg1d","msl000299","iti","","null","img/motor_3.png","68","motor","","","","","","",""
"619","","4321083","HierDy6bmr37m7","cm4g2zcg1d","msl000299","motor","","74","img/motor_6.png","74","motor","6","94","1","0","0","",""
"null","","4321201","HierDy6bmr37m7","cm4g2zcg1d","msl000299","iti","","null","img/motor_6.png","74","motor","","","","","","",""
"506","","4321714","HierDy6bmr37m7","cm4g2zcg1d","msl000299","motor","","65","img/motor_1.png","65","motor","1","95","1","0","0","",""
"null","","4321832","HierDy6bmr37m7","cm4g2zcg1d","msl000299","iti","","null","img/motor_1.png","65","motor","","","","","","",""
"507","","4322347","HierDy6bmr37m7","cm4g2zcg1d","msl000299","motor","","72","img/motor_5.png","72","motor","5","96","1","0","0","",""
"null","","4322456","HierDy6bmr37m7","cm4g2zcg1d","msl000299","iti","","null","img/motor_5.png","72","motor","","","","","","",""
"572","","4323035","HierDy6bmr37m7","cm4g2zcg1d","msl000299","motor","","65","img/motor_1.png","65","motor","1","97","1","0","0","",""
"null","","4323152","HierDy6bmr37m7","cm4g2zcg1d","msl000299","iti","","null","img/motor_1.png","65","motor","","","","","","",""
"835","","4324001","HierDy6bmr37m7","cm4g2zcg1d","msl000299","motor","","70","img/motor_4.png","70","motor","4","98","1","0","0","",""
"null","","4324118","HierDy6bmr37m7","cm4g2zcg1d","msl000299","iti","","null","img/motor_4.png","70","motor","","","","","","",""
"644","","4324771","HierDy6bmr37m7","cm4g2zcg1d","msl000299","motor","","83","img/motor_2.png","83","motor","2","99","1","0","0","",""
"null","","4324888","HierDy6bmr37m7","cm4g2zcg1d","msl000299","iti","","null","img/motor_2.png","83","motor","","","","","","",""
"659","","4325555","HierDy6bmr37m7","cm4g2zcg1d","msl000299","motor","","74","img/motor_6.png","74","motor","6","100","1","0","0","",""
"null","","4325663","HierDy6bmr37m7","cm4g2zcg1d","msl000299","iti","","null","img/motor_6.png","74","motor","","","","","","",""
"731","","4326403","HierDy6bmr37m7","cm4g2zcg1d","msl000299","motor","","74","img/motor_6.png","74","motor","6","101","1","0","0","",""
"null","","4326512","HierDy6bmr37m7","cm4g2zcg1d","msl000299","iti","","null","img/motor_6.png","74","motor","","","","","","",""
"539","","4327064","HierDy6bmr37m7","cm4g2zcg1d","msl000299","motor","","76","img/motor_8.png","76","motor","8","102","1","0","0","",""
"null","","4327182","HierDy6bmr37m7","cm4g2zcg1d","msl000299","iti","","null","img/motor_8.png","76","motor","","","","","","",""
"732","","4327929","HierDy6bmr37m7","cm4g2zcg1d","msl000299","motor","","68","img/motor_3.png","68","motor","3","103","1","0","0","",""
"null","","4328039","HierDy6bmr37m7","cm4g2zcg1d","msl000299","iti","","null","img/motor_3.png","68","motor","","","","","","",""
"428","","4328482","HierDy6bmr37m7","cm4g2zcg1d","msl000299","motor","","76","img/motor_8.png","76","motor","8","104","1","0","0","",""
"null","","4328591","HierDy6bmr37m7","cm4g2zcg1d","msl000299","iti","","null","img/motor_8.png","76","motor","","","","","","",""
"668","","4329273","HierDy6bmr37m7","cm4g2zcg1d","msl000299","motor","","83","img/motor_2.png","83","motor","2","105","1","0","0","",""
"null","","4329382","HierDy6bmr37m7","cm4g2zcg1d","msl000299","iti","","null","img/motor_2.png","83","motor","","","","","","",""
"517","","4329913","HierDy6bmr37m7","cm4g2zcg1d","msl000299","motor","","68","img/motor_3.png","68","motor","3","106","1","0","0","",""
"null","","4330030","HierDy6bmr37m7","cm4g2zcg1d","msl000299","iti","","null","img/motor_3.png","68","motor","","","","","","",""
"524","","4330563","HierDy6bmr37m7","cm4g2zcg1d","msl000299","motor","","72","img/motor_5.png","72","motor","5","107","1","0","0","",""
"null","","4330672","HierDy6bmr37m7","cm4g2zcg1d","msl000299","iti","","null","img/motor_5.png","72","motor","","","","","","",""
"467","","4331153","HierDy6bmr37m7","cm4g2zcg1d","msl000299","motor","","65","img/motor_1.png","65","motor","1","108","1","0","0","",""
"null","","4331263","HierDy6bmr37m7","cm4g2zcg1d","msl000299","iti","","null","img/motor_1.png","65","motor","","","","","","",""
"676","","4331947","HierDy6bmr37m7","cm4g2zcg1d","msl000299","motor","","75","img/motor_7.png","75","motor","7","109","1","0","0","",""
"null","","4332056","HierDy6bmr37m7","cm4g2zcg1d","msl000299","iti","","null","img/motor_7.png","75","motor","","","","","","",""
"539","","4332603","HierDy6bmr37m7","cm4g2zcg1d","msl000299","motor","","70","img/motor_4.png","70","motor","4","110","1","0","0","",""
"null","","4332712","HierDy6bmr37m7","cm4g2zcg1d","msl000299","iti","","null","img/motor_4.png","70","motor","","","","","","",""
"610","","4333338","HierDy6bmr37m7","cm4g2zcg1d","msl000299","motor","","75","img/motor_7.png","75","motor","7","111","1","0","0","",""
"null","","4333454","HierDy6bmr37m7","cm4g2zcg1d","msl000299","iti","","null","img/motor_7.png","75","motor","","","","","","",""
"500","","4333969","HierDy6bmr37m7","cm4g2zcg1d","msl000299","motor","","75","img/motor_7.png","75","motor","7","112","1","0","0","",""
"null","","4334079","HierDy6bmr37m7","cm4g2zcg1d","msl000299","iti","","null","img/motor_7.png","75","motor","","","","","","",""
"484","","4334578","HierDy6bmr37m7","cm4g2zcg1d","msl000299","motor","","65","img/motor_1.png","65","motor","1","113","1","0","0","",""
"null","","4334695","HierDy6bmr37m7","cm4g2zcg1d","msl000299","iti","","null","img/motor_1.png","65","motor","","","","","","",""
"580","","4335283","HierDy6bmr37m7","cm4g2zcg1d","msl000299","motor","","70","img/motor_4.png","70","motor","4","114","1","0","0","",""
"null","","4335392","HierDy6bmr37m7","cm4g2zcg1d","msl000299","iti","","null","img/motor_4.png","70","motor","","","","","","",""
"507","","4335913","HierDy6bmr37m7","cm4g2zcg1d","msl000299","motor","","76","img/motor_8.png","76","motor","8","115","1","0","0","",""
"null","","4336030","HierDy6bmr37m7","cm4g2zcg1d","msl000299","iti","","null","img/motor_8.png","76","motor","","","","","","",""
"652","","4336691","HierDy6bmr37m7","cm4g2zcg1d","msl000299","motor","","68","img/motor_3.png","68","motor","3","116","1","0","0","",""
"null","","4336800","HierDy6bmr37m7","cm4g2zcg1d","msl000299","iti","","null","img/motor_3.png","68","motor","","","","","","",""
"483","","4337290","HierDy6bmr37m7","cm4g2zcg1d","msl000299","motor","","83","img/motor_2.png","83","motor","2","117","1","0","0","",""
"null","","4337408","HierDy6bmr37m7","cm4g2zcg1d","msl000299","iti","","null","img/motor_2.png","83","motor","","","","","","",""
"355","","4337777","HierDy6bmr37m7","cm4g2zcg1d","msl000299","motor","","83","img/motor_2.png","83","motor","2","118","1","0","0","",""
"null","","4337895","HierDy6bmr37m7","cm4g2zcg1d","msl000299","iti","","null","img/motor_2.png","83","motor","","","","","","",""
"1148","","4339057","HierDy6bmr37m7","cm4g2zcg1d","msl000299","motor","","70","img/motor_4.png","70","motor","4","119","1","0","0","",""
"null","","4339175","HierDy6bmr37m7","cm4g2zcg1d","msl000299","iti","","null","img/motor_4.png","70","motor","","","","","","",""
"564","","4339754","HierDy6bmr37m7","cm4g2zcg1d","msl000299","motor","","68","img/motor_3.png","68","motor","3","120","1","0","0","",""
"null","","4339871","HierDy6bmr37m7","cm4g2zcg1d","msl000299","iti","","null","img/motor_3.png","68","motor","","","","","","",""
"508","","4340387","HierDy6bmr37m7","cm4g2zcg1d","msl000299","motor","","70","img/motor_4.png","70","motor","4","121","1","0","0","",""
"null","","4340504","HierDy6bmr37m7","cm4g2zcg1d","msl000299","iti","","null","img/motor_4.png","70","motor","","","","","","",""
"426","","4340939","HierDy6bmr37m7","cm4g2zcg1d","msl000299","motor","","65","img/motor_1.png","65","motor","1","122","1","0","0","",""
"null","","4341055","HierDy6bmr37m7","cm4g2zcg1d","msl000299","iti","","null","img/motor_1.png","65","motor","","","","","","",""
"492","","4341562","HierDy6bmr37m7","cm4g2zcg1d","msl000299","motor","","76","img/motor_8.png","76","motor","8","123","1","0","0","",""
"null","","4341679","HierDy6bmr37m7","cm4g2zcg1d","msl000299","iti","","null","img/motor_8.png","76","motor","","","","","","",""
"468","","4342162","HierDy6bmr37m7","cm4g2zcg1d","msl000299","motor","","65","img/motor_1.png","65","motor","1","124","1","0","0","",""
"null","","4342271","HierDy6bmr37m7","cm4g2zcg1d","msl000299","iti","","null","img/motor_1.png","65","motor","","","","","","",""
"723","","4343003","HierDy6bmr37m7","cm4g2zcg1d","msl000299","motor","","74","img/motor_6.png","74","motor","6","125","1","0","0","",""
"null","","4343121","HierDy6bmr37m7","cm4g2zcg1d","msl000299","iti","","null","img/motor_6.png","74","motor","","","","","","",""
"514","","4343643","HierDy6bmr37m7","cm4g2zcg1d","msl000299","motor","","70","img/motor_4.png","70","motor","4","126","1","0","0","",""
"null","","4343760","HierDy6bmr37m7","cm4g2zcg1d","msl000299","iti","","null","img/motor_4.png","70","motor","","","","","","",""
"499","","4344267","HierDy6bmr37m7","cm4g2zcg1d","msl000299","motor","","76","img/motor_8.png","76","motor","8","127","1","0","0","",""
"null","","4344377","HierDy6bmr37m7","cm4g2zcg1d","msl000299","iti","","null","img/motor_8.png","76","motor","","","","","","",""
"563","","4344947","HierDy6bmr37m7","cm4g2zcg1d","msl000299","motor","","83","img/motor_3.png","68","motor","3","128","0","1","0","",""
"288","","4345249","HierDy6bmr37m7","cm4g2zcg1d","msl000299","motorRepeat","","68","img/motor_3.png","68","motor","3","128","1","0","0","",""
"null","","4345360","HierDy6bmr37m7","cm4g2zcg1d","msl000299","iti","","null","img/motor_3.png","68","motor","","","","","","",""
"716","","4346089","HierDy6bmr37m7","cm4g2zcg1d","msl000299","motor","","83","img/motor_2.png","83","motor","2","129","1","0","0","",""
"null","","4346199","HierDy6bmr37m7","cm4g2zcg1d","msl000299","iti","","null","img/motor_2.png","83","motor","","","","","","",""
"541","","4346747","HierDy6bmr37m7","cm4g2zcg1d","msl000299","motor","","72","img/motor_5.png","72","motor","5","130","1","0","0","",""
"null","","4346865","HierDy6bmr37m7","cm4g2zcg1d","msl000299","iti","","null","img/motor_5.png","72","motor","","","","","","",""
"580","","4347458","HierDy6bmr37m7","cm4g2zcg1d","msl000299","motor","","74","img/motor_7.png","75","motor","7","131","0","1","0","",""
"313","","4347785","HierDy6bmr37m7","cm4g2zcg1d","msl000299","motorRepeat","","75","img/motor_7.png","75","motor","7","131","1","0","0","",""
"null","","4347895","HierDy6bmr37m7","cm4g2zcg1d","msl000299","iti","","null","img/motor_7.png","75","motor","","","","","","",""
"972","","4348882","HierDy6bmr37m7","cm4g2zcg1d","msl000299","motor","","74","img/motor_6.png","74","motor","6","132","1","0","0","",""
"null","","4348991","HierDy6bmr37m7","cm4g2zcg1d","msl000299","iti","","null","img/motor_6.png","74","motor","","","","","","",""
"684","","4349689","HierDy6bmr37m7","cm4g2zcg1d","msl000299","motor","","65","img/motor_1.png","65","motor","1","133","1","0","0","",""
"null","","4349807","HierDy6bmr37m7","cm4g2zcg1d","msl000299","iti","","null","img/motor_1.png","65","motor","","","","","","",""
"571","","4350393","HierDy6bmr37m7","cm4g2zcg1d","msl000299","motor","","74","img/motor_6.png","74","motor","6","134","1","0","0","",""
"null","","4350504","HierDy6bmr37m7","cm4g2zcg1d","msl000299","iti","","null","img/motor_6.png","74","motor","","","","","","",""
"676","","4351186","HierDy6bmr37m7","cm4g2zcg1d","msl000299","motor","","68","img/motor_3.png","68","motor","3","135","1","0","0","",""
"null","","4351303","HierDy6bmr37m7","cm4g2zcg1d","msl000299","iti","","null","img/motor_3.png","68","motor","","","","","","",""
"779","","4352091","HierDy6bmr37m7","cm4g2zcg1d","msl000299","motor","","68","img/motor_3.png","68","motor","3","136","1","0","0","",""
"null","","4352200","HierDy6bmr37m7","cm4g2zcg1d","msl000299","iti","","null","img/motor_3.png","68","motor","","","","","","",""
"547","","4352754","HierDy6bmr37m7","cm4g2zcg1d","msl000299","motor","","70","img/motor_5.png","72","motor","5","137","0","1","0","",""
"97","","4352859","HierDy6bmr37m7","cm4g2zcg1d","msl000299","motorRepeat","","72","img/motor_5.png","72","motor","5","137","1","0","0","",""
"null","","4352976","HierDy6bmr37m7","cm4g2zcg1d","msl000299","iti","","null","img/motor_5.png","72","motor","","","","","","",""
"658","","4353649","HierDy6bmr37m7","cm4g2zcg1d","msl000299","motor","","68","img/motor_3.png","68","motor","3","138","1","0","0","",""
"null","","4353759","HierDy6bmr37m7","cm4g2zcg1d","msl000299","iti","","null","img/motor_3.png","68","motor","","","","","","",""
"484","","4354258","HierDy6bmr37m7","cm4g2zcg1d","msl000299","motor","","83","img/motor_2.png","83","motor","2","139","1","0","0","",""
"null","","4354376","HierDy6bmr37m7","cm4g2zcg1d","msl000299","iti","","null","img/motor_2.png","83","motor","","","","","","",""
"586","","4354972","HierDy6bmr37m7","cm4g2zcg1d","msl000299","motor","","70","img/motor_3.png","68","motor","3","140","0","1","0","",""
"320","","4355299","HierDy6bmr37m7","cm4g2zcg1d","msl000299","motorRepeat","","68","img/motor_3.png","68","motor","3","140","1","0","0","",""
"null","","4355408","HierDy6bmr37m7","cm4g2zcg1d","msl000299","iti","","null","img/motor_3.png","68","motor","","","","","","",""
"731","","4356154","HierDy6bmr37m7","cm4g2zcg1d","msl000299","motor","","68","img/motor_3.png","68","motor","3","141","1","0","0","",""
"null","","4356272","HierDy6bmr37m7","cm4g2zcg1d","msl000299","iti","","null","img/motor_3.png","68","motor","","","","","","",""
"515","","4356802","HierDy6bmr37m7","cm4g2zcg1d","msl000299","motor","","70","img/motor_4.png","70","motor","4","142","1","0","0","",""
"null","","4356920","HierDy6bmr37m7","cm4g2zcg1d","msl000299","iti","","null","img/motor_4.png","70","motor","","","","","","",""
"579","","4357514","HierDy6bmr37m7","cm4g2zcg1d","msl000299","motor","","83","img/motor_2.png","83","motor","2","143","1","0","0","",""
"null","","4357624","HierDy6bmr37m7","cm4g2zcg1d","msl000299","iti","","null","img/motor_2.png","83","motor","","","","","","",""
"708","","4358345","HierDy6bmr37m7","cm4g2zcg1d","msl000299","motor","","70","img/motor_4.png","70","motor","4","144","1","0","0","",""
"null","","4358463","HierDy6bmr37m7","cm4g2zcg1d","msl000299","iti","","null","img/motor_4.png","70","motor","","","","","","",""
"820","","4359291","HierDy6bmr37m7","cm4g2zcg1d","msl000299","motor","","75","img/motor_7.png","75","motor","7","145","1","0","0","",""
"null","","4359400","HierDy6bmr37m7","cm4g2zcg1d","msl000299","iti","","null","img/motor_7.png","75","motor","","","","","","",""
"610","","4360019","HierDy6bmr37m7","cm4g2zcg1d","msl000299","motor","","83","img/motor_2.png","83","motor","2","146","1","0","0","",""
"null","","4360137","HierDy6bmr37m7","cm4g2zcg1d","msl000299","iti","","null","img/motor_2.png","83","motor","","","","","","",""
"594","","4360746","HierDy6bmr37m7","cm4g2zcg1d","msl000299","motor","","76","img/motor_8.png","76","motor","8","147","1","0","0","",""
"null","","4360855","HierDy6bmr37m7","cm4g2zcg1d","msl000299","iti","","null","img/motor_8.png","76","motor","","","","","","",""
"700","","4361564","HierDy6bmr37m7","cm4g2zcg1d","msl000299","motor","","74","img/motor_6.png","74","motor","6","148","1","0","0","",""
"null","","4361680","HierDy6bmr37m7","cm4g2zcg1d","msl000299","iti","","null","img/motor_6.png","74","motor","","","","","","",""
"562","","4362258","HierDy6bmr37m7","cm4g2zcg1d","msl000299","motor","","76","img/motor_8.png","76","motor","8","149","1","0","0","",""
"null","","4362368","HierDy6bmr37m7","cm4g2zcg1d","msl000299","iti","","null","img/motor_8.png","76","motor","","","","","","",""
"611","","4362988","HierDy6bmr37m7","cm4g2zcg1d","msl000299","motor","","75","img/motor_7.png","75","motor","7","150","1","0","0","",""
"null","","4363097","HierDy6bmr37m7","cm4g2zcg1d","msl000299","iti","","null","img/motor_7.png","75","motor","","","","","","",""
"562","","4363667","HierDy6bmr37m7","cm4g2zcg1d","msl000299","motor","","76","img/motor_8.png","76","motor","8","151","1","0","0","",""
"null","","4363785","HierDy6bmr37m7","cm4g2zcg1d","msl000299","iti","","null","img/motor_8.png","76","motor","","","","","","",""
"610","","4364410","HierDy6bmr37m7","cm4g2zcg1d","msl000299","motor","","65","img/motor_1.png","65","motor","1","152","1","0","0","",""
"null","","4364528","HierDy6bmr37m7","cm4g2zcg1d","msl000299","iti","","null","img/motor_1.png","65","motor","","","","","","",""
"451","","4364994","HierDy6bmr37m7","cm4g2zcg1d","msl000299","motor","","76","img/motor_8.png","76","motor","8","153","1","0","0","",""
"null","","4365112","HierDy6bmr37m7","cm4g2zcg1d","msl000299","iti","","null","img/motor_8.png","76","motor","","","","","","",""
"531","","4365652","HierDy6bmr37m7","cm4g2zcg1d","msl000299","motor","","83","img/motor_2.png","83","motor","2","154","1","0","0","",""
"null","","4365769","HierDy6bmr37m7","cm4g2zcg1d","msl000299","iti","","null","img/motor_2.png","83","motor","","","","","","",""
"594","","4366371","HierDy6bmr37m7","cm4g2zcg1d","msl000299","motor","","74","img/motor_6.png","74","motor","6","155","1","0","0","",""
"null","","4366488","HierDy6bmr37m7","cm4g2zcg1d","msl000299","iti","","null","img/motor_6.png","74","motor","","","","","","",""
"667","","4367163","HierDy6bmr37m7","cm4g2zcg1d","msl000299","motor","","83","img/motor_2.png","83","motor","2","156","1","0","0","",""
"null","","4367280","HierDy6bmr37m7","cm4g2zcg1d","msl000299","iti","","null","img/motor_2.png","83","motor","","","","","","",""
"626","","4367915","HierDy6bmr37m7","cm4g2zcg1d","msl000299","motor","","75","img/motor_7.png","75","motor","7","157","1","0","0","",""
"null","","4368024","HierDy6bmr37m7","cm4g2zcg1d","msl000299","iti","","null","img/motor_7.png","75","motor","","","","","","",""
"548","","4368586","HierDy6bmr37m7","cm4g2zcg1d","msl000299","motor","","83","img/motor_2.png","83","motor","2","158","1","0","0","",""
"null","","4368696","HierDy6bmr37m7","cm4g2zcg1d","msl000299","iti","","null","img/motor_2.png","83","motor","","","","","","",""
"612","","4369314","HierDy6bmr37m7","cm4g2zcg1d","msl000299","motor","","68","img/motor_3.png","68","motor","3","159","1","0","0","",""
"null","","4369424","HierDy6bmr37m7","cm4g2zcg1d","msl000299","iti","","null","img/motor_3.png","68","motor","","","","","","",""
"603","","4370041","HierDy6bmr37m7","cm4g2zcg1d","msl000299","motor","","72","img/motor_5.png","72","motor","5","160","1","0","0","",""
"null","","4370159","HierDy6bmr37m7","cm4g2zcg1d","msl000299","iti","","null","img/motor_5.png","72","motor","","","","","","",""
"548","","4370721","HierDy6bmr37m7","cm4g2zcg1d","msl000299","motor","","83","img/motor_2.png","83","motor","2","161","1","0","0","",""
"null","","4370838","HierDy6bmr37m7","cm4g2zcg1d","msl000299","iti","","null","img/motor_2.png","83","motor","","","","","","",""
"619","","4371467","HierDy6bmr37m7","cm4g2zcg1d","msl000299","motor","","68","img/motor_3.png","68","motor","3","162","1","0","0","",""
"null","","4371577","HierDy6bmr37m7","cm4g2zcg1d","msl000299","iti","","null","img/motor_3.png","68","motor","","","","","","",""
"636","","4372220","HierDy6bmr37m7","cm4g2zcg1d","msl000299","motor","","74","img/motor_6.png","74","motor","6","163","1","0","0","",""
"null","","4372337","HierDy6bmr37m7","cm4g2zcg1d","msl000299","iti","","null","img/motor_6.png","74","motor","","","","","","",""
"481","","4372827","HierDy6bmr37m7","cm4g2zcg1d","msl000299","motor","","72","img/motor_5.png","72","motor","5","164","1","0","0","",""
"null","","4372944","HierDy6bmr37m7","cm4g2zcg1d","msl000299","iti","","null","img/motor_5.png","72","motor","","","","","","",""
"514","","4373467","HierDy6bmr37m7","cm4g2zcg1d","msl000299","motor","","65","img/motor_1.png","65","motor","1","165","1","0","0","",""
"null","","4373577","HierDy6bmr37m7","cm4g2zcg1d","msl000299","iti","","null","img/motor_1.png","65","motor","","","","","","",""
"634","","4374219","HierDy6bmr37m7","cm4g2zcg1d","msl000299","motor","","68","img/motor_3.png","68","motor","3","166","1","0","0","",""
"null","","4374337","HierDy6bmr37m7","cm4g2zcg1d","msl000299","iti","","null","img/motor_3.png","68","motor","","","","","","",""
"595","","4374939","HierDy6bmr37m7","cm4g2zcg1d","msl000299","motor","","83","img/motor_2.png","83","motor","2","167","1","0","0","",""
"null","","4375056","HierDy6bmr37m7","cm4g2zcg1d","msl000299","iti","","null","img/motor_2.png","83","motor","","","","","","",""
"651","","4375715","HierDy6bmr37m7","cm4g2zcg1d","msl000299","motor","","65","img/motor_1.png","65","motor","1","168","1","0","0","",""
"null","","4375832","HierDy6bmr37m7","cm4g2zcg1d","msl000299","iti","","null","img/motor_1.png","65","motor","","","","","","",""
"555","","4376402","HierDy6bmr37m7","cm4g2zcg1d","msl000299","motor","","70","img/motor_4.png","70","motor","4","169","1","0","0","",""
"null","","4376512","HierDy6bmr37m7","cm4g2zcg1d","msl000299","iti","","null","img/motor_4.png","70","motor","","","","","","",""
"451","","4376971","HierDy6bmr37m7","cm4g2zcg1d","msl000299","motor","","72","img/motor_5.png","72","motor","5","170","1","0","0","",""
"null","","4377089","HierDy6bmr37m7","cm4g2zcg1d","msl000299","iti","","null","img/motor_5.png","72","motor","","","","","","",""
"467","","4377563","HierDy6bmr37m7","cm4g2zcg1d","msl000299","motor","","74","img/motor_6.png","74","motor","6","171","1","0","0","",""
"null","","4377672","HierDy6bmr37m7","cm4g2zcg1d","msl000299","iti","","null","img/motor_6.png","74","motor","","","","","","",""
"451","","4378137","HierDy6bmr37m7","cm4g2zcg1d","msl000299","motor","","76","img/motor_8.png","76","motor","8","172","1","0","0","",""
"null","","4378255","HierDy6bmr37m7","cm4g2zcg1d","msl000299","iti","","null","img/motor_8.png","76","motor","","","","","","",""
"531","","4378795","HierDy6bmr37m7","cm4g2zcg1d","msl000299","motor","","83","img/motor_2.png","83","motor","2","173","1","0","0","",""
"null","","4378905","HierDy6bmr37m7","cm4g2zcg1d","msl000299","iti","","null","img/motor_2.png","83","motor","","","","","","",""
"562","","4379482","HierDy6bmr37m7","cm4g2zcg1d","msl000299","motor","","74","img/motor_6.png","74","motor","6","174","1","0","0","",""
"null","","4379600","HierDy6bmr37m7","cm4g2zcg1d","msl000299","iti","","null","img/motor_6.png","74","motor","","","","","","",""
"652","","4380266","HierDy6bmr37m7","cm4g2zcg1d","msl000299","motor","","75","img/motor_7.png","75","motor","7","175","1","0","0","",""
"null","","4380383","HierDy6bmr37m7","cm4g2zcg1d","msl000299","iti","","null","img/motor_7.png","75","motor","","","","","","",""
"676","","4381074","HierDy6bmr37m7","cm4g2zcg1d","msl000299","motor","","70","img/motor_4.png","70","motor","4","176","1","0","0","",""
"null","","4381192","HierDy6bmr37m7","cm4g2zcg1d","msl000299","iti","","null","img/motor_4.png","70","motor","","","","","","",""
"595","","4381802","HierDy6bmr37m7","cm4g2zcg1d","msl000299","motor","","74","img/motor_6.png","74","motor","6","177","1","0","0","",""
"null","","4381919","HierDy6bmr37m7","cm4g2zcg1d","msl000299","iti","","null","img/motor_6.png","74","motor","","","","","","",""
"467","","4382395","HierDy6bmr37m7","cm4g2zcg1d","msl000299","motor","","72","img/motor_5.png","72","motor","5","178","1","0","0","",""
"null","","4382504","HierDy6bmr37m7","cm4g2zcg1d","msl000299","iti","","null","img/motor_5.png","72","motor","","","","","","",""
"555","","4383074","HierDy6bmr37m7","cm4g2zcg1d","msl000299","motor","","70","img/motor_4.png","70","motor","4","179","1","0","0","",""
"null","","4383192","HierDy6bmr37m7","cm4g2zcg1d","msl000299","iti","","null","img/motor_4.png","70","motor","","","","","","",""
"427","","4383627","HierDy6bmr37m7","cm4g2zcg1d","msl000299","motor","","75","img/motor_7.png","75","motor","7","180","1","0","0","",""
"null","","4383744","HierDy6bmr37m7","cm4g2zcg1d","msl000299","iti","","null","img/motor_7.png","75","motor","","","","","","",""
"1635","","4385395","HierDy6bmr37m7","cm4g2zcg1d","msl000299","motor","","74","img/motor_6.png","74","motor","6","181","1","0","0","",""
"null","","4385512","HierDy6bmr37m7","cm4g2zcg1d","msl000299","iti","","null","img/motor_6.png","74","motor","","","","","","",""
"1059","","4386580","HierDy6bmr37m7","cm4g2zcg1d","msl000299","motor","","65","img/motor_1.png","65","motor","1","182","1","0","0","",""
"null","","4386697","HierDy6bmr37m7","cm4g2zcg1d","msl000299","iti","","null","img/motor_1.png","65","motor","","","","","","",""
"617","","4387324","HierDy6bmr37m7","cm4g2zcg1d","msl000299","motor","","70","img/motor_3.png","68","motor","3","183","0","1","0","",""
"312","","4387650","HierDy6bmr37m7","cm4g2zcg1d","msl000299","motorRepeat","","68","img/motor_3.png","68","motor","3","183","1","0","0","",""
"null","","4387768","HierDy6bmr37m7","cm4g2zcg1d","msl000299","iti","","null","img/motor_3.png","68","motor","","","","","","",""
"588","","4388364","HierDy6bmr37m7","cm4g2zcg1d","msl000299","motor","","83","img/motor_2.png","83","motor","2","184","1","0","0","",""
"null","","4388474","HierDy6bmr37m7","cm4g2zcg1d","msl000299","iti","","null","img/motor_2.png","83","motor","","","","","","",""
"954","","4389436","HierDy6bmr37m7","cm4g2zcg1d","msl000299","motor","","83","img/motor_2.png","83","motor","2","185","1","0","0","",""
"null","","4389553","HierDy6bmr37m7","cm4g2zcg1d","msl000299","iti","","null","img/motor_2.png","83","motor","","","","","","",""
"522","","4390090","HierDy6bmr37m7","cm4g2zcg1d","msl000299","motor","","70","img/motor_5.png","72","motor","5","186","0","1","0","",""
"384","","4390483","HierDy6bmr37m7","cm4g2zcg1d","msl000299","motorRepeat","","72","img/motor_5.png","72","motor","5","186","1","0","0","",""
"null","","4390600","HierDy6bmr37m7","cm4g2zcg1d","msl000299","iti","","null","img/motor_5.png","72","motor","","","","","","",""
"1074","","4391683","HierDy6bmr37m7","cm4g2zcg1d","msl000299","motor","","76","img/motor_8.png","76","motor","8","187","1","0","0","",""
"null","","4391793","HierDy6bmr37m7","cm4g2zcg1d","msl000299","iti","","null","img/motor_8.png","76","motor","","","","","","",""
"667","","4392474","HierDy6bmr37m7","cm4g2zcg1d","msl000299","motor","","68","img/motor_3.png","68","motor","3","188","1","0","0","",""
"null","","4392591","HierDy6bmr37m7","cm4g2zcg1d","msl000299","iti","","null","img/motor_3.png","68","motor","","","","","","",""
"1564","","4394171","HierDy6bmr37m7","cm4g2zcg1d","msl000299","motor","","70","img/motor_4.png","70","motor","4","189","1","0","0","",""
"null","","4394288","HierDy6bmr37m7","cm4g2zcg1d","msl000299","iti","","null","img/motor_4.png","70","motor","","","","","","",""
"818","","4395115","HierDy6bmr37m7","cm4g2zcg1d","msl000299","motor","","70","img/motor_4.png","70","motor","4","190","1","0","0","",""
"null","","4395232","HierDy6bmr37m7","cm4g2zcg1d","msl000299","iti","","null","img/motor_4.png","70","motor","","","","","","",""
"595","","4395836","HierDy6bmr37m7","cm4g2zcg1d","msl000299","motor","","76","img/motor_8.png","76","motor","8","191","1","0","0","",""
"null","","4395945","HierDy6bmr37m7","cm4g2zcg1d","msl000299","iti","","null","img/motor_8.png","76","motor","","","","","","",""
"668","","4396626","HierDy6bmr37m7","cm4g2zcg1d","msl000299","motor","","74","img/motor_6.png","74","motor","6","192","1","0","0","",""
"null","","4396745","HierDy6bmr37m7","cm4g2zcg1d","msl000299","iti","","null","img/motor_6.png","74","motor","","","","","","",""
"490","","4397250","HierDy6bmr37m7","cm4g2zcg1d","msl000299","motor","","72","img/motor_5.png","72","motor","5","193","1","0","0","",""
"null","","4397360","HierDy6bmr37m7","cm4g2zcg1d","msl000299","iti","","null","img/motor_5.png","72","motor","","","","","","",""
"716","","4398083","HierDy6bmr37m7","cm4g2zcg1d","msl000299","motor","","74","img/motor_6.png","74","motor","6","194","1","0","0","",""
"null","","4398192","HierDy6bmr37m7","cm4g2zcg1d","msl000299","iti","","null","img/motor_6.png","74","motor","","","","","","",""
"874","","4399076","HierDy6bmr37m7","cm4g2zcg1d","msl000299","motor","","76","img/motor_8.png","76","motor","8","195","1","0","0","",""
"null","","4399193","HierDy6bmr37m7","cm4g2zcg1d","msl000299","iti","","null","img/motor_8.png","76","motor","","","","","","",""
"650","","4399851","HierDy6bmr37m7","cm4g2zcg1d","msl000299","motor","","70","img/motor_4.png","70","motor","4","196","1","0","0","",""
"null","","4399968","HierDy6bmr37m7","cm4g2zcg1d","msl000299","iti","","null","img/motor_4.png","70","motor","","","","","","",""
"554","","4400532","HierDy6bmr37m7","cm4g2zcg1d","msl000299","motor","","68","img/motor_3.png","68","motor","3","197","1","0","0","",""
"null","","4400640","HierDy6bmr37m7","cm4g2zcg1d","msl000299","iti","","null","img/motor_3.png","68","motor","","","","","","",""
"571","","4401220","HierDy6bmr37m7","cm4g2zcg1d","msl000299","motor","","72","img/motor_5.png","72","motor","5","198","1","0","0","",""
"null","","4401337","HierDy6bmr37m7","cm4g2zcg1d","msl000299","iti","","null","img/motor_5.png","72","motor","","","","","","",""
"657","","4402003","HierDy6bmr37m7","cm4g2zcg1d","msl000299","motor","","83","img/motor_2.png","83","motor","2","199","1","0","0","",""
"null","","4402121","HierDy6bmr37m7","cm4g2zcg1d","msl000299","iti","","null","img/motor_2.png","83","motor","","","","","","",""
"899","","4403027","HierDy6bmr37m7","cm4g2zcg1d","msl000299","motor","","75","img/motor_7.png","75","motor","7","200","1","0","0","",""
"null","","4403145","HierDy6bmr37m7","cm4g2zcg1d","msl000299","iti","","null","img/motor_7.png","75","motor","","","","","","",""
"611","","4403764","HierDy6bmr37m7","cm4g2zcg1d","msl000299","motor","","65","img/motor_1.png","65","motor","1","201","1","0","0","",""
"null","","4403873","HierDy6bmr37m7","cm4g2zcg1d","msl000299","iti","","null","img/motor_1.png","65","motor","","","","","","",""
"547","","4404428","HierDy6bmr37m7","cm4g2zcg1d","msl000299","motor","","75","img/motor_7.png","75","motor","7","202","1","0","0","",""
"null","","4404545","HierDy6bmr37m7","cm4g2zcg1d","msl000299","iti","","null","img/motor_7.png","75","motor","","","","","","",""
"499","","4405051","HierDy6bmr37m7","cm4g2zcg1d","msl000299","motor","","76","img/motor_8.png","76","motor","8","203","1","0","0","",""
"null","","4405169","HierDy6bmr37m7","cm4g2zcg1d","msl000299","iti","","null","img/motor_8.png","76","motor","","","","","","",""
"555","","4405732","HierDy6bmr37m7","cm4g2zcg1d","msl000299","motor","","70","img/motor_4.png","70","motor","4","204","1","0","0","",""
"null","","4405849","HierDy6bmr37m7","cm4g2zcg1d","msl000299","iti","","null","img/motor_4.png","70","motor","","","","","","",""
"394","","4406252","HierDy6bmr37m7","cm4g2zcg1d","msl000299","motor","","76","img/motor_8.png","76","motor","8","205","1","0","0","",""
"null","","4406361","HierDy6bmr37m7","cm4g2zcg1d","msl000299","iti","","null","img/motor_8.png","76","motor","","","","","","",""
"563","","4406931","HierDy6bmr37m7","cm4g2zcg1d","msl000299","motor","","74","img/motor_7.png","75","motor","7","206","0","1","0","",""
"87","","4407034","HierDy6bmr37m7","cm4g2zcg1d","msl000299","motorRepeat","","75","img/motor_7.png","75","motor","7","206","1","0","0","",""
"null","","4407144","HierDy6bmr37m7","cm4g2zcg1d","msl000299","iti","","null","img/motor_7.png","75","motor","","","","","","",""
"76","","4407234","HierDy6bmr37m7","cm4g2zcg1d","msl000299","motor","","75","img/motor_4.png","70","motor","4","207","0","1","0","",""
"473","","4407716","HierDy6bmr37m7","cm4g2zcg1d","msl000299","motorRepeat","","70","img/motor_4.png","70","motor","4","207","1","0","0","",""
"null","","4407833","HierDy6bmr37m7","cm4g2zcg1d","msl000299","iti","","null","img/motor_4.png","70","motor","","","","","","",""
"554","","4408396","HierDy6bmr37m7","cm4g2zcg1d","msl000299","motor","","72","img/motor_5.png","72","motor","5","208","1","0","0","",""
"null","","4408506","HierDy6bmr37m7","cm4g2zcg1d","msl000299","iti","","null","img/motor_5.png","72","motor","","","","","","",""
"482","","4409002","HierDy6bmr37m7","cm4g2zcg1d","msl000299","motor","","70","img/motor_4.png","70","motor","4","209","1","0","0","",""
"null","","4409120","HierDy6bmr37m7","cm4g2zcg1d","msl000299","iti","","null","img/motor_4.png","70","motor","","","","","","",""
"491","","4409620","HierDy6bmr37m7","cm4g2zcg1d","msl000299","motor","","75","img/motor_7.png","75","motor","7","210","1","0","0","",""
"null","","4409736","HierDy6bmr37m7","cm4g2zcg1d","msl000299","iti","","null","img/motor_7.png","75","motor","","","","","","",""
"530","","4410276","HierDy6bmr37m7","cm4g2zcg1d","msl000299","motor","","83","img/motor_3.png","68","motor","3","211","0","1","0","",""
"273","","4410556","HierDy6bmr37m7","cm4g2zcg1d","msl000299","motorRepeat","","68","img/motor_3.png","68","motor","3","211","1","0","0","",""
"null","","4410665","HierDy6bmr37m7","cm4g2zcg1d","msl000299","iti","","null","img/motor_3.png","68","motor","","","","","","",""
"554","","4411235","HierDy6bmr37m7","cm4g2zcg1d","msl000299","motor","","83","img/motor_2.png","83","motor","2","212","1","0","0","",""
"null","","4411352","HierDy6bmr37m7","cm4g2zcg1d","msl000299","iti","","null","img/motor_2.png","83","motor","","","","","","",""
"515","","4411876","HierDy6bmr37m7","cm4g2zcg1d","msl000299","motor","","76","img/motor_8.png","76","motor","8","213","1","0","0","",""
"null","","4411992","HierDy6bmr37m7","cm4g2zcg1d","msl000299","iti","","null","img/motor_8.png","76","motor","","","","","","",""
"18","","4412024","HierDy6bmr37m7","cm4g2zcg1d","msl000299","motor","","76","img/motor_8.png","76","motor","8","214","1","0","0","",""
"null","","4412133","HierDy6bmr37m7","cm4g2zcg1d","msl000299","iti","","null","img/motor_8.png","76","motor","","","","","","",""
"726","","4412874","HierDy6bmr37m7","cm4g2zcg1d","msl000299","motor","","74","img/motor_6.png","74","motor","6","215","1","0","0","",""
"null","","4412985","HierDy6bmr37m7","cm4g2zcg1d","msl000299","iti","","null","img/motor_6.png","74","motor","","","","","","",""
"588","","4413586","HierDy6bmr37m7","cm4g2zcg1d","msl000299","motor","","70","img/motor_4.png","70","motor","4","216","1","0","0","",""
"null","","4413696","HierDy6bmr37m7","cm4g2zcg1d","msl000299","iti","","null","img/motor_4.png","70","motor","","","","","","",""
"821","","4414524","HierDy6bmr37m7","cm4g2zcg1d","msl000299","motor","","70","img/motor_4.png","70","motor","4","217","1","0","0","",""
"null","","4414642","HierDy6bmr37m7","cm4g2zcg1d","msl000299","iti","","null","img/motor_4.png","70","motor","","","","","","",""
"466","","4415123","HierDy6bmr37m7","cm4g2zcg1d","msl000299","motor","","76","img/motor_8.png","76","motor","8","218","1","0","0","",""
"null","","4415233","HierDy6bmr37m7","cm4g2zcg1d","msl000299","iti","","null","img/motor_8.png","76","motor","","","","","","",""
"820","","4416067","HierDy6bmr37m7","cm4g2zcg1d","msl000299","motor","","76","img/motor_8.png","76","motor","8","219","1","0","0","",""
"56","","4416185","HierDy6bmr37m7","cm4g2zcg1d","msl000299","iti","","76","img/motor_8.png","76","motor","","","","","","",""
"451","","4416650","HierDy6bmr37m7","cm4g2zcg1d","msl000299","motor","","72","img/motor_5.png","72","motor","5","220","1","0","0","",""
"null","","4416769","HierDy6bmr37m7","cm4g2zcg1d","msl000299","iti","","null","img/motor_5.png","72","motor","","","","","","",""
"986","","4417770","HierDy6bmr37m7","cm4g2zcg1d","msl000299","motor","","72","img/motor_5.png","72","motor","5","221","1","0","0","",""
"null","","4417880","HierDy6bmr37m7","cm4g2zcg1d","msl000299","iti","","null","img/motor_5.png","72","motor","","","","","","",""
"540","","4418434","HierDy6bmr37m7","cm4g2zcg1d","msl000299","motor","","83","img/motor_2.png","83","motor","2","222","1","0","0","",""
"null","","4418544","HierDy6bmr37m7","cm4g2zcg1d","msl000299","iti","","null","img/motor_2.png","83","motor","","","","","","",""
"1564","","4420116","HierDy6bmr37m7","cm4g2zcg1d","msl000299","motor","","83","img/motor_2.png","83","motor","2","223","1","0","0","",""
"null","","4420225","HierDy6bmr37m7","cm4g2zcg1d","msl000299","iti","","null","img/motor_2.png","83","motor","","","","","","",""
"651","","4420890","HierDy6bmr37m7","cm4g2zcg1d","msl000299","motor","","70","img/motor_4.png","70","motor","4","224","1","0","0","",""
"null","","4421008","HierDy6bmr37m7","cm4g2zcg1d","msl000299","iti","","null","img/motor_4.png","70","motor","","","","","","",""
"491","","4421508","HierDy6bmr37m7","cm4g2zcg1d","msl000299","motor","","72","img/motor_5.png","72","motor","5","225","1","0","0","",""
"null","","4421625","HierDy6bmr37m7","cm4g2zcg1d","msl000299","iti","","null","img/motor_5.png","72","motor","","","","","","",""
"706","","4422347","HierDy6bmr37m7","cm4g2zcg1d","msl000299","motor","","70","img/motor_4.png","70","motor","4","226","1","0","0","",""
"null","","4422465","HierDy6bmr37m7","cm4g2zcg1d","msl000299","iti","","null","img/motor_4.png","70","motor","","","","","","",""
"587","","4423060","HierDy6bmr37m7","cm4g2zcg1d","msl000299","motor","","68","img/motor_3.png","68","motor","3","227","1","0","0","",""
"null","","4423177","HierDy6bmr37m7","cm4g2zcg1d","msl000299","iti","","null","img/motor_3.png","68","motor","","","","","","",""
"562","","4423748","HierDy6bmr37m7","cm4g2zcg1d","msl000299","motor","","76","img/motor_8.png","76","motor","8","228","1","0","0","",""
"null","","4423865","HierDy6bmr37m7","cm4g2zcg1d","msl000299","iti","","null","img/motor_8.png","76","motor","","","","","","",""
"545","","4424427","HierDy6bmr37m7","cm4g2zcg1d","msl000299","motor","","72","img/motor_5.png","72","motor","5","229","1","0","0","",""
"null","","4424544","HierDy6bmr37m7","cm4g2zcg1d","msl000299","iti","","null","img/motor_5.png","72","motor","","","","","","",""
"627","","4425180","HierDy6bmr37m7","cm4g2zcg1d","msl000299","motor","","70","img/motor_4.png","70","motor","4","230","1","0","0","",""
"null","","4425297","HierDy6bmr37m7","cm4g2zcg1d","msl000299","iti","","null","img/motor_4.png","70","motor","","","","","","",""
"458","","4425763","HierDy6bmr37m7","cm4g2zcg1d","msl000299","motor","","75","img/motor_7.png","75","motor","7","231","1","0","0","",""
"null","","4425881","HierDy6bmr37m7","cm4g2zcg1d","msl000299","iti","","null","img/motor_7.png","75","motor","","","","","","",""
"595","","4426491","HierDy6bmr37m7","cm4g2zcg1d","msl000299","motor","","83","img/motor_2.png","83","motor","2","232","1","0","0","",""
"null","","4426609","HierDy6bmr37m7","cm4g2zcg1d","msl000299","iti","","null","img/motor_2.png","83","motor","","","","","","",""
"594","","4427212","HierDy6bmr37m7","cm4g2zcg1d","msl000299","motor","","75","img/motor_7.png","75","motor","7","233","1","0","0","",""
"null","","4427321","HierDy6bmr37m7","cm4g2zcg1d","msl000299","iti","","null","img/motor_7.png","75","motor","","","","","","",""
"675","","4428004","HierDy6bmr37m7","cm4g2zcg1d","msl000299","motor","","70","img/motor_4.png","70","motor","4","234","1","0","0","",""
"null","","4428113","HierDy6bmr37m7","cm4g2zcg1d","msl000299","iti","","null","img/motor_4.png","70","motor","","","","","","",""
"515","","4428636","HierDy6bmr37m7","cm4g2zcg1d","msl000299","motor","","76","img/motor_8.png","76","motor","8","235","1","0","0","",""
"null","","4428745","HierDy6bmr37m7","cm4g2zcg1d","msl000299","iti","","null","img/motor_8.png","76","motor","","","","","","",""
"674","","4429427","HierDy6bmr37m7","cm4g2zcg1d","msl000299","motor","","83","img/motor_3.png","68","motor","3","236","0","1","0","",""
"304","","4429747","HierDy6bmr37m7","cm4g2zcg1d","msl000299","motorRepeat","","68","img/motor_3.png","68","motor","3","236","1","0","0","",""
"null","","4429856","HierDy6bmr37m7","cm4g2zcg1d","msl000299","iti","","null","img/motor_3.png","68","motor","","","","","","",""
"540","","4430411","HierDy6bmr37m7","cm4g2zcg1d","msl000299","motor","","74","img/motor_6.png","74","motor","6","237","1","0","0","",""
"null","","4430520","HierDy6bmr37m7","cm4g2zcg1d","msl000299","iti","","null","img/motor_6.png","74","motor","","","","","","",""
"491","","4431027","HierDy6bmr37m7","cm4g2zcg1d","msl000299","motor","","74","img/motor_6.png","74","motor","6","238","1","0","0","",""
"null","","4431136","HierDy6bmr37m7","cm4g2zcg1d","msl000299","iti","","null","img/motor_6.png","74","motor","","","","","","",""
"396","","4431546","HierDy6bmr37m7","cm4g2zcg1d","msl000299","motor","","75","img/motor_7.png","75","motor","7","239","1","0","0","",""
"null","","4431664","HierDy6bmr37m7","cm4g2zcg1d","msl000299","iti","","null","img/motor_7.png","75","motor","","","","","","",""
"525","","4432202","HierDy6bmr37m7","cm4g2zcg1d","msl000299","motor","","74","img/motor_6.png","74","motor","6","240","1","0","0","",""
"null","","4432312","HierDy6bmr37m7","cm4g2zcg1d","msl000299","iti","","null","img/motor_6.png","74","motor","","","","","","",""
"659","","4432979","HierDy6bmr37m7","cm4g2zcg1d","msl000299","motor","","68","img/motor_3.png","68","motor","3","241","1","0","0","",""
"null","","4433098","HierDy6bmr37m7","cm4g2zcg1d","msl000299","iti","","null","img/motor_3.png","68","motor","","","","","","",""
"482","","4433588","HierDy6bmr37m7","cm4g2zcg1d","msl000299","motor","","75","img/motor_7.png","75","motor","7","242","1","0","0","",""
"null","","4433706","HierDy6bmr37m7","cm4g2zcg1d","msl000299","iti","","null","img/motor_7.png","75","motor","","","","","","",""
"698","","4434419","HierDy6bmr37m7","cm4g2zcg1d","msl000299","motor","","68","img/motor_3.png","68","motor","3","243","1","0","0","",""
"null","","4434528","HierDy6bmr37m7","cm4g2zcg1d","msl000299","iti","","null","img/motor_3.png","68","motor","","","","","","",""
"907","","4435444","HierDy6bmr37m7","cm4g2zcg1d","msl000299","motor","","75","img/motor_7.png","75","motor","7","244","1","0","0","",""
"null","","4435554","HierDy6bmr37m7","cm4g2zcg1d","msl000299","iti","","null","img/motor_7.png","75","motor","","","","","","",""
"650","","4436218","HierDy6bmr37m7","cm4g2zcg1d","msl000299","motor","","70","img/motor_4.png","70","motor","4","245","1","0","0","",""
"null","","4436337","HierDy6bmr37m7","cm4g2zcg1d","msl000299","iti","","null","img/motor_4.png","70","motor","","","","","","",""
"515","","4436860","HierDy6bmr37m7","cm4g2zcg1d","msl000299","motor","","72","img/motor_5.png","72","motor","5","246","1","0","0","",""
"null","","4436978","HierDy6bmr37m7","cm4g2zcg1d","msl000299","iti","","null","img/motor_5.png","72","motor","","","","","","",""
"522","","4437515","HierDy6bmr37m7","cm4g2zcg1d","msl000299","motor","","70","img/motor_4.png","70","motor","4","247","1","0","0","",""
"null","","4437625","HierDy6bmr37m7","cm4g2zcg1d","msl000299","iti","","null","img/motor_4.png","70","motor","","","","","","",""
"579","","4438212","HierDy6bmr37m7","cm4g2zcg1d","msl000299","motor","","74","img/motor_6.png","74","motor","6","248","1","0","0","",""
"null","","4438321","HierDy6bmr37m7","cm4g2zcg1d","msl000299","iti","","null","img/motor_6.png","74","motor","","","","","","",""
"483","","4438812","HierDy6bmr37m7","cm4g2zcg1d","msl000299","motor","","75","img/motor_7.png","75","motor","7","249","1","0","0","",""
"null","","4438929","HierDy6bmr37m7","cm4g2zcg1d","msl000299","iti","","null","img/motor_7.png","75","motor","","","","","","",""
"715","","4439652","HierDy6bmr37m7","cm4g2zcg1d","msl000299","motor","","83","img/motor_3.png","68","motor","3","250","0","1","0","",""
"263","","4439925","HierDy6bmr37m7","cm4g2zcg1d","msl000299","motorRepeat","","68","img/motor_3.png","68","motor","3","250","1","0","0","",""
"null","","4440034","HierDy6bmr37m7","cm4g2zcg1d","msl000299","iti","","null","img/motor_3.png","68","motor","","","","","","",""
"554","","4440596","HierDy6bmr37m7","cm4g2zcg1d","msl000299","motor","","65","img/motor_1.png","65","motor","1","251","1","0","0","",""
"null","","4440714","HierDy6bmr37m7","cm4g2zcg1d","msl000299","iti","","null","img/motor_1.png","65","motor","","","","","","",""
"512","","4441235","HierDy6bmr37m7","cm4g2zcg1d","msl000299","motor","","70","img/motor_4.png","70","motor","4","252","1","0","0","",""
"null","","4441353","HierDy6bmr37m7","cm4g2zcg1d","msl000299","iti","","null","img/motor_4.png","70","motor","","","","","","",""
"546","","4441908","HierDy6bmr37m7","cm4g2zcg1d","msl000299","motor","","83","img/motor_2.png","83","motor","2","253","1","0","0","",""
"null","","4442017","HierDy6bmr37m7","cm4g2zcg1d","msl000299","iti","","null","img/motor_2.png","83","motor","","","","","","",""
"441","","4442474","HierDy6bmr37m7","cm4g2zcg1d","msl000299","motor","","70","img/motor_4.png","70","motor","4","254","1","0","0","",""
"null","","4442592","HierDy6bmr37m7","cm4g2zcg1d","msl000299","iti","","null","img/motor_4.png","70","motor","","","","","","",""
"659","","4443259","HierDy6bmr37m7","cm4g2zcg1d","msl000299","motor","","68","img/motor_3.png","68","motor","3","255","1","0","0","",""
"null","","4443369","HierDy6bmr37m7","cm4g2zcg1d","msl000299","iti","","null","img/motor_3.png","68","motor","","","","","","",""
"508","","4443885","HierDy6bmr37m7","cm4g2zcg1d","msl000299","motor","","70","img/motor_4.png","70","motor","4","256","1","0","0","",""
"null","","4443995","HierDy6bmr37m7","cm4g2zcg1d","msl000299","iti","","null","img/motor_4.png","70","motor","","","","","","",""
"657","","4444660","HierDy6bmr37m7","cm4g2zcg1d","msl000299","motor","","74","img/motor_6.png","74","motor","6","257","1","0","0","",""
"null","","4444778","HierDy6bmr37m7","cm4g2zcg1d","msl000299","iti","","null","img/motor_6.png","74","motor","","","","","","",""
"753","","4445541","HierDy6bmr37m7","cm4g2zcg1d","msl000299","motor","","68","img/motor_3.png","68","motor","3","258","1","0","0","",""
"null","","4445658","HierDy6bmr37m7","cm4g2zcg1d","msl000299","iti","","null","img/motor_3.png","68","motor","","","","","","",""
"474","","4446140","HierDy6bmr37m7","cm4g2zcg1d","msl000299","motor","","76","img/motor_8.png","76","motor","8","259","1","0","0","",""
"null","","4446257","HierDy6bmr37m7","cm4g2zcg1d","msl000299","iti","","null","img/motor_8.png","76","motor","","","","","","",""
"619","","4446885","HierDy6bmr37m7","cm4g2zcg1d","msl000299","motor","","75","img/motor_7.png","75","motor","7","260","1","0","0","",""
"39","","4446994","HierDy6bmr37m7","cm4g2zcg1d","msl000299","iti","","75","img/motor_7.png","75","motor","","","","","","",""
"530","","4447538","HierDy6bmr37m7","cm4g2zcg1d","msl000299","motor","","72","img/motor_5.png","72","motor","5","261","1","0","0","",""
"null","","4447649","HierDy6bmr37m7","cm4g2zcg1d","msl000299","iti","","null","img/motor_5.png","72","motor","","","","","","",""
"916","","4448573","HierDy6bmr37m7","cm4g2zcg1d","msl000299","motor","","72","img/motor_5.png","72","motor","5","262","1","0","0","",""
"null","","4448690","HierDy6bmr37m7","cm4g2zcg1d","msl000299","iti","","null","img/motor_5.png","72","motor","","","","","","",""
"642","","4449341","HierDy6bmr37m7","cm4g2zcg1d","msl000299","motor","","65","img/motor_1.png","65","motor","1","263","1","0","0","",""
"null","","4449449","HierDy6bmr37m7","cm4g2zcg1d","msl000299","iti","","null","img/motor_1.png","65","motor","","","","","","",""
"706","","4450171","HierDy6bmr37m7","cm4g2zcg1d","msl000299","motor","","75","img/motor_7.png","75","motor","7","264","1","0","0","",""
"null","","4450290","HierDy6bmr37m7","cm4g2zcg1d","msl000299","iti","","null","img/motor_7.png","75","motor","","","","","","",""
"570","","4450875","HierDy6bmr37m7","cm4g2zcg1d","msl000299","motor","","76","img/motor_8.png","76","motor","8","265","1","0","0","",""
"null","","4450993","HierDy6bmr37m7","cm4g2zcg1d","msl000299","iti","","null","img/motor_8.png","76","motor","","","","","","",""
"643","","4451644","HierDy6bmr37m7","cm4g2zcg1d","msl000299","motor","","65","img/motor_1.png","65","motor","1","266","1","0","0","",""
"null","","4451761","HierDy6bmr37m7","cm4g2zcg1d","msl000299","iti","","null","img/motor_1.png","65","motor","","","","","","",""
"546","","4452323","HierDy6bmr37m7","cm4g2zcg1d","msl000299","motor","","68","img/motor_3.png","68","motor","3","267","1","0","0","",""
"null","","4452434","HierDy6bmr37m7","cm4g2zcg1d","msl000299","iti","","null","img/motor_3.png","68","motor","","","","","","",""
"603","","4453044","HierDy6bmr37m7","cm4g2zcg1d","msl000299","motor","","75","img/motor_7.png","75","motor","7","268","1","0","0","",""
"null","","4453153","HierDy6bmr37m7","cm4g2zcg1d","msl000299","iti","","null","img/motor_7.png","75","motor","","","","","","",""
"483","","4453650","HierDy6bmr37m7","cm4g2zcg1d","msl000299","motor","","74","img/motor_6.png","74","motor","6","269","1","0","0","",""
"null","","4453769","HierDy6bmr37m7","cm4g2zcg1d","msl000299","iti","","null","img/motor_6.png","74","motor","","","","","","",""
"539","","4454317","HierDy6bmr37m7","cm4g2zcg1d","msl000299","motor","","75","img/motor_7.png","75","motor","7","270","1","0","0","",""
"null","","4454435","HierDy6bmr37m7","cm4g2zcg1d","msl000299","iti","","null","img/motor_7.png","75","motor","","","","","","",""
"561","","4455004","HierDy6bmr37m7","cm4g2zcg1d","msl000299","motor","","74","img/motor_6.png","74","motor","6","271","1","0","0","",""
"null","","4455122","HierDy6bmr37m7","cm4g2zcg1d","msl000299","iti","","null","img/motor_6.png","74","motor","","","","","","",""
"545","","4455676","HierDy6bmr37m7","cm4g2zcg1d","msl000299","motor","","83","img/motor_2.png","83","motor","2","272","1","0","0","",""
"null","","4455786","HierDy6bmr37m7","cm4g2zcg1d","msl000299","iti","","null","img/motor_2.png","83","motor","","","","","","",""
"522","","4456323","HierDy6bmr37m7","cm4g2zcg1d","msl000299","motor","","76","img/motor_8.png","76","motor","8","273","1","0","0","",""
"null","","4456433","HierDy6bmr37m7","cm4g2zcg1d","msl000299","iti","","null","img/motor_8.png","76","motor","","","","","","",""
"652","","4457093","HierDy6bmr37m7","cm4g2zcg1d","msl000299","motor","","70","img/motor_4.png","70","motor","4","274","1","0","0","",""
"null","","4457202","HierDy6bmr37m7","cm4g2zcg1d","msl000299","iti","","null","img/motor_4.png","70","motor","","","","","","",""
"475","","4457684","HierDy6bmr37m7","cm4g2zcg1d","msl000299","motor","","65","img/motor_1.png","65","motor","1","275","1","0","0","",""
"null","","4457802","HierDy6bmr37m7","cm4g2zcg1d","msl000299","iti","","null","img/motor_1.png","65","motor","","","","","","",""
"515","","4458324","HierDy6bmr37m7","cm4g2zcg1d","msl000299","motor","","72","img/motor_5.png","72","motor","5","276","1","0","0","",""
"null","","4458442","HierDy6bmr37m7","cm4g2zcg1d","msl000299","iti","","null","img/motor_5.png","72","motor","","","","","","",""
"627","","4459077","HierDy6bmr37m7","cm4g2zcg1d","msl000299","motor","","83","img/motor_2.png","83","motor","2","277","1","0","0","",""
"null","","4459195","HierDy6bmr37m7","cm4g2zcg1d","msl000299","iti","","null","img/motor_2.png","83","motor","","","","","","",""
"489","","4459699","HierDy6bmr37m7","cm4g2zcg1d","msl000299","motor","","65","img/motor_1.png","65","motor","1","278","1","0","0","",""
"null","","4459816","HierDy6bmr37m7","cm4g2zcg1d","msl000299","iti","","null","img/motor_1.png","65","motor","","","","","","",""
"498","","4460331","HierDy6bmr37m7","cm4g2zcg1d","msl000299","motor","","76","img/motor_8.png","76","motor","8","279","1","0","0","",""
"null","","4460441","HierDy6bmr37m7","cm4g2zcg1d","msl000299","iti","","null","img/motor_8.png","76","motor","","","","","","",""
"571","","4461019","HierDy6bmr37m7","cm4g2zcg1d","msl000299","motor","","83","img/motor_2.png","83","motor","2","280","1","0","0","",""
"null","","4461128","HierDy6bmr37m7","cm4g2zcg1d","msl000299","iti","","null","img/motor_2.png","83","motor","","","","","","",""
"579","","4461715","HierDy6bmr37m7","cm4g2zcg1d","msl000299","motor","","65","img/motor_1.png","65","motor","1","281","1","0","0","",""
"null","","4461833","HierDy6bmr37m7","cm4g2zcg1d","msl000299","iti","","null","img/motor_1.png","65","motor","","","","","","",""
"762","","4462604","HierDy6bmr37m7","cm4g2zcg1d","msl000299","motor","","72","img/motor_5.png","72","motor","5","282","1","0","0","",""
"null","","4462721","HierDy6bmr37m7","cm4g2zcg1d","msl000299","iti","","null","img/motor_5.png","72","motor","","","","","","",""
"618","","4463355","HierDy6bmr37m7","cm4g2zcg1d","msl000299","motor","","70","img/motor_4.png","70","motor","4","283","1","0","0","",""
"null","","4463473","HierDy6bmr37m7","cm4g2zcg1d","msl000299","iti","","null","img/motor_4.png","70","motor","","","","","","",""
"682","","4464165","HierDy6bmr37m7","cm4g2zcg1d","msl000299","motor","","83","img/motor_2.png","83","motor","2","284","1","0","0","",""
"88","","4464282","HierDy6bmr37m7","cm4g2zcg1d","msl000299","iti","","83","img/motor_2.png","83","motor","","","","","","",""
"538","","4464828","HierDy6bmr37m7","cm4g2zcg1d","msl000299","motor","","75","img/motor_7.png","75","motor","7","285","1","0","0","",""
"null","","4464946","HierDy6bmr37m7","cm4g2zcg1d","msl000299","iti","","null","img/motor_7.png","75","motor","","","","","","",""
"538","","4465499","HierDy6bmr37m7","cm4g2zcg1d","msl000299","motor","","83","img/motor_3.png","68","motor","3","286","0","1","0","",""
"289","","4465803","HierDy6bmr37m7","cm4g2zcg1d","msl000299","motorRepeat","","68","img/motor_3.png","68","motor","3","286","1","0","0","",""
"null","","4465921","HierDy6bmr37m7","cm4g2zcg1d","msl000299","iti","","null","img/motor_3.png","68","motor","","","","","","",""
"595","","4466531","HierDy6bmr37m7","cm4g2zcg1d","msl000299","motor","","74","img/motor_6.png","74","motor","6","287","1","0","0","",""
"null","","4466641","HierDy6bmr37m7","cm4g2zcg1d","msl000299","iti","","null","img/motor_6.png","74","motor","","","","","","",""
"435","","4467085","HierDy6bmr37m7","cm4g2zcg1d","msl000299","motor","","72","img/motor_5.png","72","motor","5","288","1","0","0","",""
"null","","4467202","HierDy6bmr37m7","cm4g2zcg1d","msl000299","iti","","null","img/motor_5.png","72","motor","","","","","","",""
"666","","4467876","HierDy6bmr37m7","cm4g2zcg1d","msl000299","motor","","74","img/motor_6.png","74","motor","6","289","1","0","0","",""
"null","","4467986","HierDy6bmr37m7","cm4g2zcg1d","msl000299","iti","","null","img/motor_6.png","74","motor","","","","","","",""
"915","","4468915","HierDy6bmr37m7","cm4g2zcg1d","msl000299","motor","","65","img/motor_1.png","65","motor","1","290","1","0","0","",""
"null","","4469026","HierDy6bmr37m7","cm4g2zcg1d","msl000299","iti","","null","img/motor_1.png","65","motor","","","","","","",""
"523","","4469557","HierDy6bmr37m7","cm4g2zcg1d","msl000299","motor","","76","img/motor_8.png","76","motor","8","291","1","0","0","",""
"null","","4469674","HierDy6bmr37m7","cm4g2zcg1d","msl000299","iti","","null","img/motor_8.png","76","motor","","","","","","",""
"642","","4470332","HierDy6bmr37m7","cm4g2zcg1d","msl000299","motor","","83","img/motor_3.png","68","motor","3","292","0","1","0","",""
"241","","4470581","HierDy6bmr37m7","cm4g2zcg1d","msl000299","motorRepeat","","68","img/motor_3.png","68","motor","3","292","1","0","0","",""
"null","","4470690","HierDy6bmr37m7","cm4g2zcg1d","msl000299","iti","","null","img/motor_3.png","68","motor","","","","","","",""
"538","","4471237","HierDy6bmr37m7","cm4g2zcg1d","msl000299","motor","","74","img/motor_6.png","74","motor","6","293","1","0","0","",""
"null","","4471354","HierDy6bmr37m7","cm4g2zcg1d","msl000299","iti","","null","img/motor_6.png","74","motor","","","","","","",""
"577","","4471941","HierDy6bmr37m7","cm4g2zcg1d","msl000299","motor","","68","img/motor_3.png","68","motor","3","294","1","0","0","",""
"null","","4472058","HierDy6bmr37m7","cm4g2zcg1d","msl000299","iti","","null","img/motor_3.png","68","motor","","","","","","",""
"561","","4472628","HierDy6bmr37m7","cm4g2zcg1d","msl000299","motor","","68","img/motor_3.png","68","motor","3","295","1","0","0","",""
"null","","4472738","HierDy6bmr37m7","cm4g2zcg1d","msl000299","iti","","null","img/motor_3.png","68","motor","","","","","","",""
"499","","4473245","HierDy6bmr37m7","cm4g2zcg1d","msl000299","motor","","74","img/motor_6.png","74","motor","6","296","1","0","0","",""
"null","","4473354","HierDy6bmr37m7","cm4g2zcg1d","msl000299","iti","","null","img/motor_6.png","74","motor","","","","","","",""
"499","","4473868","HierDy6bmr37m7","cm4g2zcg1d","msl000299","motor","","75","img/motor_7.png","75","motor","7","297","1","0","0","",""
"null","","4473977","HierDy6bmr37m7","cm4g2zcg1d","msl000299","iti","","null","img/motor_7.png","75","motor","","","","","","",""
"618","","4474612","HierDy6bmr37m7","cm4g2zcg1d","msl000299","motor","","83","img/motor_2.png","83","motor","2","298","1","0","0","",""
"null","","4474722","HierDy6bmr37m7","cm4g2zcg1d","msl000299","iti","","null","img/motor_2.png","83","motor","","","","","","",""
"546","","4475276","HierDy6bmr37m7","cm4g2zcg1d","msl000299","motor","","65","img/motor_1.png","65","motor","1","299","1","0","0","",""
"null","","4475385","HierDy6bmr37m7","cm4g2zcg1d","msl000299","iti","","null","img/motor_1.png","65","motor","","","","","","",""
"532","","4475932","HierDy6bmr37m7","cm4g2zcg1d","msl000299","motor","","72","img/motor_5.png","72","motor","5","300","1","0","0","",""
"null","","4476049","HierDy6bmr37m7","cm4g2zcg1d","msl000299","iti","","null","img/motor_5.png","72","motor","","","","","","",""
"531","","4476589","HierDy6bmr37m7","cm4g2zcg1d","msl000299","motor","","74","img/motor_6.png","74","motor","6","301","1","0","0","",""
"null","","4476706","HierDy6bmr37m7","cm4g2zcg1d","msl000299","iti","","null","img/motor_6.png","74","motor","","","","","","",""
"602","","4477324","HierDy6bmr37m7","cm4g2zcg1d","msl000299","motor","","70","img/motor_4.png","70","motor","4","302","1","0","0","",""
"null","","4477434","HierDy6bmr37m7","cm4g2zcg1d","msl000299","iti","","null","img/motor_4.png","70","motor","","","","","","",""
"570","","4478020","HierDy6bmr37m7","cm4g2zcg1d","msl000299","motor","","65","img/motor_1.png","65","motor","1","303","1","0","0","",""
"null","","4478129","HierDy6bmr37m7","cm4g2zcg1d","msl000299","iti","","null","img/motor_1.png","65","motor","","","","","","",""
"563","","4478700","HierDy6bmr37m7","cm4g2zcg1d","msl000299","motor","","68","img/motor_3.png","68","motor","3","304","1","0","0","",""
"null","","4478811","HierDy6bmr37m7","cm4g2zcg1d","msl000299","iti","","null","img/motor_3.png","68","motor","","","","","","",""
"466","","4479291","HierDy6bmr37m7","cm4g2zcg1d","msl000299","motor","","72","img/motor_5.png","72","motor","5","305","1","0","0","",""
"null","","4479401","HierDy6bmr37m7","cm4g2zcg1d","msl000299","iti","","null","img/motor_5.png","72","motor","","","","","","",""
"468","","4479884","HierDy6bmr37m7","cm4g2zcg1d","msl000299","motor","","75","img/motor_7.png","75","motor","7","306","1","0","0","",""
"null","","4479993","HierDy6bmr37m7","cm4g2zcg1d","msl000299","iti","","null","img/motor_7.png","75","motor","","","","","","",""
"499","","4480507","HierDy6bmr37m7","cm4g2zcg1d","msl000299","motor","","75","img/motor_7.png","75","motor","7","307","1","0","0","",""
"null","","4480625","HierDy6bmr37m7","cm4g2zcg1d","msl000299","iti","","null","img/motor_7.png","75","motor","","","","","","",""
"474","","4481109","HierDy6bmr37m7","cm4g2zcg1d","msl000299","motor","","72","img/motor_6.png","74","motor","6","308","0","1","0","",""
"16","","4481134","HierDy6bmr37m7","cm4g2zcg1d","msl000299","motorRepeat","","74","img/motor_6.png","74","motor","6","308","1","0","0","",""
"null","","4481252","HierDy6bmr37m7","cm4g2zcg1d","msl000299","iti","","null","img/motor_6.png","74","motor","","","","","","",""
"576","","4481837","HierDy6bmr37m7","cm4g2zcg1d","msl000299","motor","","83","img/motor_2.png","83","motor","2","309","1","0","0","",""
"null","","4481955","HierDy6bmr37m7","cm4g2zcg1d","msl000299","iti","","null","img/motor_2.png","83","motor","","","","","","",""
"553","","4482517","HierDy6bmr37m7","cm4g2zcg1d","msl000299","motor","","76","img/motor_8.png","76","motor","8","310","1","0","0","",""
"null","","4482635","HierDy6bmr37m7","cm4g2zcg1d","msl000299","iti","","null","img/motor_8.png","76","motor","","","","","","",""
"546","","4483195","HierDy6bmr37m7","cm4g2zcg1d","msl000299","motor","","72","img/motor_5.png","72","motor","5","311","1","0","0","",""
"null","","4483305","HierDy6bmr37m7","cm4g2zcg1d","msl000299","iti","","null","img/motor_5.png","72","motor","","","","","","",""
"524","","4483837","HierDy6bmr37m7","cm4g2zcg1d","msl000299","motor","","76","img/motor_8.png","76","motor","8","312","1","0","0","",""
"null","","4483947","HierDy6bmr37m7","cm4g2zcg1d","msl000299","iti","","null","img/motor_8.png","76","motor","","","","","","",""
"537","","4484500","HierDy6bmr37m7","cm4g2zcg1d","msl000299","motor","","74","img/motor_6.png","74","motor","6","313","1","0","0","",""
"null","","4484617","HierDy6bmr37m7","cm4g2zcg1d","msl000299","iti","","null","img/motor_6.png","74","motor","","","","","","",""
"523","","4485149","HierDy6bmr37m7","cm4g2zcg1d","msl000299","motor","","83","img/motor_2.png","83","motor","2","314","1","0","0","",""
"null","","4485266","HierDy6bmr37m7","cm4g2zcg1d","msl000299","iti","","null","img/motor_2.png","83","motor","","","","","","",""
"514","","4485788","HierDy6bmr37m7","cm4g2zcg1d","msl000299","motor","","72","img/motor_5.png","72","motor","5","315","1","0","0","",""
"null","","4485906","HierDy6bmr37m7","cm4g2zcg1d","msl000299","iti","","null","img/motor_5.png","72","motor","","","","","","",""
"410","","4486332","HierDy6bmr37m7","cm4g2zcg1d","msl000299","motor","","76","img/motor_8.png","76","motor","8","316","1","0","0","",""
"null","","4486441","HierDy6bmr37m7","cm4g2zcg1d","msl000299","iti","","null","img/motor_8.png","76","motor","","","","","","",""
"524","","4486973","HierDy6bmr37m7","cm4g2zcg1d","msl000299","motor","","70","img/motor_4.png","70","motor","4","317","1","0","0","",""
"null","","4487082","HierDy6bmr37m7","cm4g2zcg1d","msl000299","iti","","null","img/motor_4.png","70","motor","","","","","","",""
"402","","4487500","HierDy6bmr37m7","cm4g2zcg1d","msl000299","motor","","65","img/motor_1.png","65","motor","1","318","1","0","0","",""
"null","","4487618","HierDy6bmr37m7","cm4g2zcg1d","msl000299","iti","","null","img/motor_1.png","65","motor","","","","","","",""
"506","","4488139","HierDy6bmr37m7","cm4g2zcg1d","msl000299","motor","","70","img/motor_4.png","70","motor","4","319","1","0","0","",""
"null","","4488257","HierDy6bmr37m7","cm4g2zcg1d","msl000299","iti","","null","img/motor_4.png","70","motor","","","","","","",""
"403","","4488675","HierDy6bmr37m7","cm4g2zcg1d","msl000299","motor","","65","img/motor_1.png","65","motor","1","320","1","0","0","",""
"null","","4488786","HierDy6bmr37m7","cm4g2zcg1d","msl000299","iti","","null","img/motor_1.png","65","motor","","","","","","",""
"395","","4489195","HierDy6bmr37m7","cm4g2zcg1d","msl000299","motor","","70","img/motor_4.png","70","motor","4","321","1","0","0","",""
"null","","4489305","HierDy6bmr37m7","cm4g2zcg1d","msl000299","iti","","null","img/motor_4.png","70","motor","","","","","","",""
"452","","4489763","HierDy6bmr37m7","cm4g2zcg1d","msl000299","motor","","75","img/motor_7.png","75","motor","7","322","1","0","0","",""
"null","","4489873","HierDy6bmr37m7","cm4g2zcg1d","msl000299","iti","","null","img/motor_7.png","75","motor","","","","","","",""
"533","","4490413","HierDy6bmr37m7","cm4g2zcg1d","msl000299","motor","","72","img/motor_5.png","72","motor","5","323","1","0","0","",""
"null","","4490523","HierDy6bmr37m7","cm4g2zcg1d","msl000299","iti","","null","img/motor_5.png","72","motor","","","","","","",""
"682","","4491220","HierDy6bmr37m7","cm4g2zcg1d","msl000299","motor","","65","img/motor_1.png","65","motor","1","324","1","0","0","",""
"null","","4491338","HierDy6bmr37m7","cm4g2zcg1d","msl000299","iti","","null","img/motor_1.png","65","motor","","","","","","",""
"491","","4491837","HierDy6bmr37m7","cm4g2zcg1d","msl000299","motor","","74","img/motor_6.png","74","motor","6","325","1","0","0","",""
"null","","4491955","HierDy6bmr37m7","cm4g2zcg1d","msl000299","iti","","null","img/motor_6.png","74","motor","","","","","","",""
"873","","4492837","HierDy6bmr37m7","cm4g2zcg1d","msl000299","motor","","68","img/motor_3.png","68","motor","3","326","1","0","0","",""
"null","","4492955","HierDy6bmr37m7","cm4g2zcg1d","msl000299","iti","","null","img/motor_3.png","68","motor","","","","","","",""
"450","","4493414","HierDy6bmr37m7","cm4g2zcg1d","msl000299","motor","","65","img/motor_1.png","65","motor","1","327","1","0","0","",""
"null","","4493523","HierDy6bmr37m7","cm4g2zcg1d","msl000299","iti","","null","img/motor_1.png","65","motor","","","","","","",""
"555","","4494090","HierDy6bmr37m7","cm4g2zcg1d","msl000299","motor","","72","img/motor_5.png","72","motor","5","328","1","0","0","",""
"null","","4494208","HierDy6bmr37m7","cm4g2zcg1d","msl000299","iti","","null","img/motor_5.png","72","motor","","","","","","",""
"644","","4494861","HierDy6bmr37m7","cm4g2zcg1d","msl000299","motor","","68","img/motor_3.png","68","motor","3","329","1","0","0","",""
"null","","4494970","HierDy6bmr37m7","cm4g2zcg1d","msl000299","iti","","null","img/motor_3.png","68","motor","","","","","","",""
"419","","4495397","HierDy6bmr37m7","cm4g2zcg1d","msl000299","motor","","75","img/motor_7.png","75","motor","7","330","1","0","0","",""
"null","","4495506","HierDy6bmr37m7","cm4g2zcg1d","msl000299","iti","","null","img/motor_7.png","75","motor","","","","","","",""
"531","","4496045","HierDy6bmr37m7","cm4g2zcg1d","msl000299","motor","","65","img/motor_1.png","65","motor","1","331","1","0","0","",""
"null","","4496155","HierDy6bmr37m7","cm4g2zcg1d","msl000299","iti","","null","img/motor_1.png","65","motor","","","","","","",""
"1051","","4497213","HierDy6bmr37m7","cm4g2zcg1d","msl000299","motor","","75","img/motor_7.png","75","motor","7","332","1","0","0","",""
"null","","4497322","HierDy6bmr37m7","cm4g2zcg1d","msl000299","iti","","null","img/motor_7.png","75","motor","","","","","","",""
"451","","4497788","HierDy6bmr37m7","cm4g2zcg1d","msl000299","motor","","76","img/motor_8.png","76","motor","8","333","1","0","0","",""
"null","","4497906","HierDy6bmr37m7","cm4g2zcg1d","msl000299","iti","","null","img/motor_8.png","76","motor","","","","","","",""
"538","","4498454","HierDy6bmr37m7","cm4g2zcg1d","msl000299","motor","","76","img/motor_8.png","76","motor","8","334","1","0","0","",""
"null","","4498563","HierDy6bmr37m7","cm4g2zcg1d","msl000299","iti","","null","img/motor_8.png","76","motor","","","","","","",""
"651","","4499221","HierDy6bmr37m7","cm4g2zcg1d","msl000299","motor","","70","img/motor_4.png","70","motor","4","335","1","0","0","",""
"null","","4499338","HierDy6bmr37m7","cm4g2zcg1d","msl000299","iti","","null","img/motor_4.png","70","motor","","","","","","",""
"723","","4500075","HierDy6bmr37m7","cm4g2zcg1d","msl000299","motor","","68","img/motor_3.png","68","motor","3","336","1","0","0","",""
"null","","4500193","HierDy6bmr37m7","cm4g2zcg1d","msl000299","iti","","null","img/motor_3.png","68","motor","","","","","","",""
"667","","4500875","HierDy6bmr37m7","cm4g2zcg1d","msl000299","motor","","65","img/motor_1.png","65","motor","1","337","1","0","0","",""
"null","","4500985","HierDy6bmr37m7","cm4g2zcg1d","msl000299","iti","","null","img/motor_1.png","65","motor","","","","","","",""
"603","","4501597","HierDy6bmr37m7","cm4g2zcg1d","msl000299","motor","","83","img/motor_2.png","83","motor","2","338","1","0","0","",""
"null","","4501706","HierDy6bmr37m7","cm4g2zcg1d","msl000299","iti","","null","img/motor_2.png","83","motor","","","","","","",""
"931","","4502645","HierDy6bmr37m7","cm4g2zcg1d","msl000299","motor","","83","img/motor_2.png","83","motor","2","339","1","0","0","",""
"null","","4502762","HierDy6bmr37m7","cm4g2zcg1d","msl000299","iti","","null","img/motor_2.png","83","motor","","","","","","",""
"515","","4503292","HierDy6bmr37m7","cm4g2zcg1d","msl000299","motor","","72","img/motor_5.png","72","motor","5","340","1","0","0","",""
"null","","4503402","HierDy6bmr37m7","cm4g2zcg1d","msl000299","iti","","null","img/motor_5.png","72","motor","","","","","","",""
"515","","4503924","HierDy6bmr37m7","cm4g2zcg1d","msl000299","motor","","83","img/motor_2.png","83","motor","2","341","1","0","0","",""
"null","","4504042","HierDy6bmr37m7","cm4g2zcg1d","msl000299","iti","","null","img/motor_2.png","83","motor","","","","","","",""
"546","","4504597","HierDy6bmr37m7","cm4g2zcg1d","msl000299","motor","","68","img/motor_3.png","68","motor","3","342","1","0","0","",""
"null","","4504715","HierDy6bmr37m7","cm4g2zcg1d","msl000299","iti","","null","img/motor_3.png","68","motor","","","","","","",""
"697","","4505427","HierDy6bmr37m7","cm4g2zcg1d","msl000299","motor","","70","img/motor_4.png","70","motor","4","343","1","0","0","",""
"null","","4505546","HierDy6bmr37m7","cm4g2zcg1d","msl000299","iti","","null","img/motor_4.png","70","motor","","","","","","",""
"1346","","4506908","HierDy6bmr37m7","cm4g2zcg1d","msl000299","motor","","70","img/motor_4.png","70","motor","4","344","1","0","0","",""
"null","","4507018","HierDy6bmr37m7","cm4g2zcg1d","msl000299","iti","","null","img/motor_4.png","70","motor","","","","","","",""
"482","","4507509","HierDy6bmr37m7","cm4g2zcg1d","msl000299","motor","","76","img/motor_8.png","76","motor","8","345","1","0","0","",""
"null","","4507627","HierDy6bmr37m7","cm4g2zcg1d","msl000299","iti","","null","img/motor_8.png","76","motor","","","","","","",""
"465","","4508101","HierDy6bmr37m7","cm4g2zcg1d","msl000299","motor","","65","img/motor_1.png","65","motor","1","346","1","0","0","",""
"null","","4508211","HierDy6bmr37m7","cm4g2zcg1d","msl000299","iti","","null","img/motor_1.png","65","motor","","","","","","",""
"506","","4508725","HierDy6bmr37m7","cm4g2zcg1d","msl000299","motor","","74","img/motor_6.png","74","motor","6","347","1","0","0","",""
"null","","4508834","HierDy6bmr37m7","cm4g2zcg1d","msl000299","iti","","null","img/motor_6.png","74","motor","","","","","","",""
"658","","4509501","HierDy6bmr37m7","cm4g2zcg1d","msl000299","motor","","83","img/motor_2.png","83","motor","2","348","1","0","0","",""
"null","","4509610","HierDy6bmr37m7","cm4g2zcg1d","msl000299","iti","","null","img/motor_2.png","83","motor","","","","","","",""
"537","","4510157","HierDy6bmr37m7","cm4g2zcg1d","msl000299","motor","","76","img/motor_8.png","76","motor","8","349","1","0","0","",""
"null","","4510267","HierDy6bmr37m7","cm4g2zcg1d","msl000299","iti","","null","img/motor_8.png","76","motor","","","","","","",""
"530","","4510805","HierDy6bmr37m7","cm4g2zcg1d","msl000299","motor","","75","img/motor_7.png","75","motor","7","350","1","0","0","",""
"null","","4510915","HierDy6bmr37m7","cm4g2zcg1d","msl000299","iti","","null","img/motor_7.png","75","motor","","","","","","",""
"571","","4511493","HierDy6bmr37m7","cm4g2zcg1d","msl000299","motor","","75","img/motor_7.png","75","motor","7","351","1","0","0","",""
"null","","4511611","HierDy6bmr37m7","cm4g2zcg1d","msl000299","iti","","null","img/motor_7.png","75","motor","","","","","","",""
"537","","4512157","HierDy6bmr37m7","cm4g2zcg1d","msl000299","motor","","72","img/motor_5.png","72","motor","5","352","1","0","0","",""
"null","","4512267","HierDy6bmr37m7","cm4g2zcg1d","msl000299","iti","","null","img/motor_5.png","72","motor","","","","","","",""
"498","","4512773","HierDy6bmr37m7","cm4g2zcg1d","msl000299","motor","","75","img/motor_7.png","75","motor","7","353","1","0","0","",""
"null","","4512883","HierDy6bmr37m7","cm4g2zcg1d","msl000299","iti","","null","img/motor_7.png","75","motor","","","","","","",""
"443","","4513340","HierDy6bmr37m7","cm4g2zcg1d","msl000299","motor","","72","img/motor_5.png","72","motor","5","354","1","0","0","",""
"null","","4513457","HierDy6bmr37m7","cm4g2zcg1d","msl000299","iti","","null","img/motor_5.png","72","motor","","","","","","",""
"626","","4514100","HierDy6bmr37m7","cm4g2zcg1d","msl000299","motor","","68","img/motor_3.png","68","motor","3","355","1","0","0","",""
"null","","4514219","HierDy6bmr37m7","cm4g2zcg1d","msl000299","iti","","null","img/motor_3.png","68","motor","","","","","","",""
"530","","4514764","HierDy6bmr37m7","cm4g2zcg1d","msl000299","motor","","83","img/motor_2.png","83","motor","2","356","1","0","0","",""
"null","","4514874","HierDy6bmr37m7","cm4g2zcg1d","msl000299","iti","","null","img/motor_2.png","83","motor","","","","","","",""
"483","","4515365","HierDy6bmr37m7","cm4g2zcg1d","msl000299","motor","","72","img/motor_6.png","74","motor","6","357","0","1","0","",""
"279","","4515654","HierDy6bmr37m7","cm4g2zcg1d","msl000299","motorRepeat","","74","img/motor_6.png","74","motor","6","357","1","0","0","",""
