"rt","responses","time_elapsed","subject","prolificID","demoID","trialType","question_order","key_press","stim","corrresp","phase","stimNum","trialNum","corr","repeatTrial","motorSwitch","pracCounter","hierarchy"
"254775","{""Q0"":""msl000395""}","254815","HierDy9zct650c","mavjspfhsm","msl000395","","","","","","","","","","","","",""
"204291","","459122","HierDy9zct650c","mavjspfhsm","msl000395","","","","","","","","","","","","",""
"","","461543","HierDy9zct650c","mavjspfhsm","msl000395","fullscreen","","","","","","","","","","","",""
"9778","{""Vision"":""Yes"",""Handedness"":""Right"",""Gender"":""female""}","471332","HierDy9zct650c","mavjspfhsm","msl000395","","[0,1,2]","","","","","","","","","","",""
"3278","{""Q0"":""19""}","474625","HierDy9zct650c","mavjspfhsm","msl000395","","","","","","","","","","","","",""
"20554","","495191","HierDy9zct650c","mavjspfhsm","msl000395","","","","","","","","","","","","",""
"3212","","498415","HierDy9zct650c","mavjspfhsm","msl000395","motor","","75","img/motor_7.png","75","motor","7","1","1","0","0","",""
"null","","498528","HierDy9zct650c","mavjspfhsm","msl000395","iti","","null","img/motor_7.png","75","motor","","","","","","",""
"768","","499307","HierDy9zct650c","mavjspfhsm","msl000395","motor","","76","img/motor_8.png","76","motor","8","2","1","0","0","",""
"null","","499420","HierDy9zct650c","mavjspfhsm","msl000395","iti","","null","img/motor_8.png","76","motor","","","","","","",""
"739","","500171","HierDy9zct650c","mavjspfhsm","msl000395","motor","","72","img/motor_5.png","72","motor","5","3","1","0","0","",""
"null","","500283","HierDy9zct650c","mavjspfhsm","msl000395","iti","","null","img/motor_5.png","72","motor","","","","","","",""
"636","","500932","HierDy9zct650c","mavjspfhsm","msl000395","motor","","74","img/motor_6.png","74","motor","6","4","1","0","0","",""
"null","","501044","HierDy9zct650c","mavjspfhsm","msl000395","iti","","null","img/motor_6.png","74","motor","","","","","","",""
"650","","501705","HierDy9zct650c","mavjspfhsm","msl000395","motor","","76","img/motor_8.png","76","motor","8","5","1","0","0","",""
"null","","501817","HierDy9zct650c","mavjspfhsm","msl000395","iti","","null","img/motor_8.png","76","motor","","","","","","",""
"558","","502388","HierDy9zct650c","mavjspfhsm","msl000395","motor","","75","img/motor_7.png","75","motor","7","6","1","0","0","",""
"null","","502501","HierDy9zct650c","mavjspfhsm","msl000395","iti","","null","img/motor_7.png","75","motor","","","","","","",""
"498","","503010","HierDy9zct650c","mavjspfhsm","msl000395","motor","","72","img/motor_5.png","72","motor","5","7","1","0","0","",""
"null","","503123","HierDy9zct650c","mavjspfhsm","msl000395","iti","","null","img/motor_5.png","72","motor","","","","","","",""
"446","","503581","HierDy9zct650c","mavjspfhsm","msl000395","motor","","74","img/motor_6.png","74","motor","6","8","1","0","0","",""
"null","","503694","HierDy9zct650c","mavjspfhsm","msl000395","iti","","null","img/motor_6.png","74","motor","","","","","","",""
"609","","504314","HierDy9zct650c","mavjspfhsm","msl000395","motor","","65","img/motor_1.png","65","motor","1","9","1","0","0","",""
"null","","504427","HierDy9zct650c","mavjspfhsm","msl000395","iti","","null","img/motor_1.png","65","motor","","","","","","",""
"486","","504923","HierDy9zct650c","mavjspfhsm","msl000395","motor","","83","img/motor_2.png","83","motor","2","10","1","0","0","",""
"null","","505036","HierDy9zct650c","mavjspfhsm","msl000395","iti","","null","img/motor_2.png","83","motor","","","","","","",""
"582","","505631","HierDy9zct650c","mavjspfhsm","msl000395","motor","","72","img/motor_5.png","72","motor","5","11","1","0","0","",""
"null","","505744","HierDy9zct650c","mavjspfhsm","msl000395","iti","","null","img/motor_5.png","72","motor","","","","","","",""
"657","","506412","HierDy9zct650c","mavjspfhsm","msl000395","motor","","83","img/motor_2.png","83","motor","2","12","1","0","0","",""
"null","","506524","HierDy9zct650c","mavjspfhsm","msl000395","iti","","null","img/motor_2.png","83","motor","","","","","","",""
"740","","507276","HierDy9zct650c","mavjspfhsm","msl000395","motor","","75","img/motor_7.png","75","motor","7","13","1","0","0","",""
"null","","507389","HierDy9zct650c","mavjspfhsm","msl000395","iti","","null","img/motor_7.png","75","motor","","","","","","",""
"698","","508098","HierDy9zct650c","mavjspfhsm","msl000395","motor","","70","img/motor_4.png","70","motor","4","14","1","0","0","",""
"null","","508211","HierDy9zct650c","mavjspfhsm","msl000395","iti","","null","img/motor_4.png","70","motor","","","","","","",""
"557","","508780","HierDy9zct650c","mavjspfhsm","msl000395","motor","","70","img/motor_4.png","70","motor","4","15","1","0","0","",""
"null","","508892","HierDy9zct650c","mavjspfhsm","msl000395","iti","","null","img/motor_4.png","70","motor","","","","","","",""
"533","","509437","HierDy9zct650c","mavjspfhsm","msl000395","motor","","65","img/motor_1.png","65","motor","1","16","1","0","0","",""
"null","","509549","HierDy9zct650c","mavjspfhsm","msl000395","iti","","null","img/motor_1.png","65","motor","","","","","","",""
"1251","","510812","HierDy9zct650c","mavjspfhsm","msl000395","motor","","65","img/motor_1.png","65","motor","1","17","1","0","0","",""
"null","","510924","HierDy9zct650c","mavjspfhsm","msl000395","iti","","null","img/motor_1.png","65","motor","","","","","","",""
"729","","511664","HierDy9zct650c","mavjspfhsm","msl000395","motor","","74","img/motor_6.png","74","motor","6","18","1","0","0","",""
"null","","511776","HierDy9zct650c","mavjspfhsm","msl000395","iti","","null","img/motor_6.png","74","motor","","","","","","",""
"479","","512267","HierDy9zct650c","mavjspfhsm","msl000395","motor","","76","img/motor_8.png","76","motor","8","19","1","0","0","",""
"null","","512379","HierDy9zct650c","mavjspfhsm","msl000395","iti","","null","img/motor_8.png","76","motor","","","","","","",""
"556","","512946","HierDy9zct650c","mavjspfhsm","msl000395","motor","","83","img/motor_2.png","83","motor","2","20","1","0","0","",""
"null","","513059","HierDy9zct650c","mavjspfhsm","msl000395","iti","","null","img/motor_2.png","83","motor","","","","","","",""
"516","","513586","HierDy9zct650c","mavjspfhsm","msl000395","motor","","76","img/motor_8.png","76","motor","8","21","1","0","0","",""
"null","","513698","HierDy9zct650c","mavjspfhsm","msl000395","iti","","null","img/motor_8.png","76","motor","","","","","","",""
"541","","514250","HierDy9zct650c","mavjspfhsm","msl000395","motor","","76","img/motor_8.png","76","motor","8","22","1","0","0","",""
"null","","514362","HierDy9zct650c","mavjspfhsm","msl000395","iti","","null","img/motor_8.png","76","motor","","","","","","",""
"579","","514953","HierDy9zct650c","mavjspfhsm","msl000395","motor","","72","img/motor_5.png","72","motor","5","23","1","0","0","",""
"null","","515064","HierDy9zct650c","mavjspfhsm","msl000395","iti","","null","img/motor_5.png","72","motor","","","","","","",""
"496","","515573","HierDy9zct650c","mavjspfhsm","msl000395","motor","","68","img/motor_2.png","83","motor","2","24","0","1","0","",""
"258","","515844","HierDy9zct650c","mavjspfhsm","msl000395","motorRepeat","","83","img/motor_2.png","83","motor","2","24","1","0","0","",""
"null","","515956","HierDy9zct650c","mavjspfhsm","msl000395","iti","","null","img/motor_2.png","83","motor","","","","","","",""
"913","","516881","HierDy9zct650c","mavjspfhsm","msl000395","motor","","75","img/motor_7.png","75","motor","7","25","1","0","0","",""
"null","","516993","HierDy9zct650c","mavjspfhsm","msl000395","iti","","null","img/motor_7.png","75","motor","","","","","","",""
"420","","517426","HierDy9zct650c","mavjspfhsm","msl000395","motor","","74","img/motor_6.png","74","motor","6","26","1","0","0","",""
"null","","517538","HierDy9zct650c","mavjspfhsm","msl000395","iti","","null","img/motor_6.png","74","motor","","","","","","",""
"448","","517997","HierDy9zct650c","mavjspfhsm","msl000395","motor","","74","img/motor_6.png","74","motor","6","27","1","0","0","",""
"null","","518110","HierDy9zct650c","mavjspfhsm","msl000395","iti","","null","img/motor_6.png","74","motor","","","","","","",""
"542","","518667","HierDy9zct650c","mavjspfhsm","msl000395","motor","","72","img/motor_5.png","72","motor","5","28","1","0","0","",""
"null","","518780","HierDy9zct650c","mavjspfhsm","msl000395","iti","","null","img/motor_5.png","72","motor","","","","","","",""
"593","","519386","HierDy9zct650c","mavjspfhsm","msl000395","motor","","75","img/motor_7.png","75","motor","7","29","1","0","0","",""
"null","","519499","HierDy9zct650c","mavjspfhsm","msl000395","iti","","null","img/motor_7.png","75","motor","","","","","","",""
"600","","520111","HierDy9zct650c","mavjspfhsm","msl000395","motor","","83","img/motor_2.png","83","motor","2","30","1","0","0","",""
"null","","520224","HierDy9zct650c","mavjspfhsm","msl000395","iti","","null","img/motor_2.png","83","motor","","","","","","",""
"601","","520837","HierDy9zct650c","mavjspfhsm","msl000395","motor","","70","img/motor_4.png","70","motor","4","31","1","0","0","",""
"null","","520950","HierDy9zct650c","mavjspfhsm","msl000395","iti","","null","img/motor_4.png","70","motor","","","","","","",""
"532","","521494","HierDy9zct650c","mavjspfhsm","msl000395","motor","","68","img/motor_3.png","68","motor","3","32","1","0","0","",""
"null","","521606","HierDy9zct650c","mavjspfhsm","msl000395","iti","","null","img/motor_3.png","68","motor","","","","","","",""
"529","","522149","HierDy9zct650c","mavjspfhsm","msl000395","motor","","72","img/motor_5.png","72","motor","5","33","1","0","0","",""
"null","","522260","HierDy9zct650c","mavjspfhsm","msl000395","iti","","null","img/motor_5.png","72","motor","","","","","","",""
"682","","522958","HierDy9zct650c","mavjspfhsm","msl000395","motor","","68","img/motor_3.png","68","motor","3","34","1","0","0","",""
"null","","523071","HierDy9zct650c","mavjspfhsm","msl000395","iti","","null","img/motor_3.png","68","motor","","","","","","",""
"458","","523541","HierDy9zct650c","mavjspfhsm","msl000395","motor","","70","img/motor_4.png","70","motor","4","35","1","0","0","",""
"null","","523653","HierDy9zct650c","mavjspfhsm","msl000395","iti","","null","img/motor_4.png","70","motor","","","","","","",""
"372","","524038","HierDy9zct650c","mavjspfhsm","msl000395","motor","","68","img/motor_3.png","68","motor","3","36","1","0","0","",""
"null","","524151","HierDy9zct650c","mavjspfhsm","msl000395","iti","","null","img/motor_3.png","68","motor","","","","","","",""
"438","","524602","HierDy9zct650c","mavjspfhsm","msl000395","motor","","74","img/motor_6.png","74","motor","6","37","1","0","0","",""
"null","","524714","HierDy9zct650c","mavjspfhsm","msl000395","iti","","null","img/motor_6.png","74","motor","","","","","","",""
"40","","524766","HierDy9zct650c","mavjspfhsm","msl000395","motor","","74","img/motor_8.png","76","motor","8","38","0","1","0","",""
"458","","525237","HierDy9zct650c","mavjspfhsm","msl000395","motorRepeat","","75","img/motor_8.png","76","motor","8","38","0","1","0","",""
"183","","525433","HierDy9zct650c","mavjspfhsm","msl000395","motorRepeat","","76","img/motor_8.png","76","motor","8","38","1","0","0","",""
"null","","525545","HierDy9zct650c","mavjspfhsm","msl000395","iti","","null","img/motor_8.png","76","motor","","","","","","",""
"548","","526104","HierDy9zct650c","mavjspfhsm","msl000395","motor","","70","img/motor_4.png","70","motor","4","39","1","0","0","",""
"null","","526216","HierDy9zct650c","mavjspfhsm","msl000395","iti","","null","img/motor_4.png","70","motor","","","","","","",""
"431","","526660","HierDy9zct650c","mavjspfhsm","msl000395","motor","","76","img/motor_8.png","76","motor","8","40","1","0","0","",""
"null","","526772","HierDy9zct650c","mavjspfhsm","msl000395","iti","","null","img/motor_8.png","76","motor","","","","","","",""
"577","","527360","HierDy9zct650c","mavjspfhsm","msl000395","motor","","68","img/motor_3.png","68","motor","3","41","1","0","0","",""
"null","","527472","HierDy9zct650c","mavjspfhsm","msl000395","iti","","null","img/motor_3.png","68","motor","","","","","","",""
"462","","527947","HierDy9zct650c","mavjspfhsm","msl000395","motor","","83","img/motor_2.png","83","motor","2","42","1","0","0","",""
"null","","528058","HierDy9zct650c","mavjspfhsm","msl000395","iti","","null","img/motor_2.png","83","motor","","","","","","",""
"468","","528538","HierDy9zct650c","mavjspfhsm","msl000395","motor","","68","img/motor_3.png","68","motor","3","43","1","0","0","",""
"null","","528651","HierDy9zct650c","mavjspfhsm","msl000395","iti","","null","img/motor_3.png","68","motor","","","","","","",""
"434","","529097","HierDy9zct650c","mavjspfhsm","msl000395","motor","","65","img/motor_1.png","65","motor","1","44","1","0","0","",""
"null","","529209","HierDy9zct650c","mavjspfhsm","msl000395","iti","","null","img/motor_1.png","65","motor","","","","","","",""
"526","","529747","HierDy9zct650c","mavjspfhsm","msl000395","motor","","72","img/motor_5.png","72","motor","5","45","1","0","0","",""
"null","","529860","HierDy9zct650c","mavjspfhsm","msl000395","iti","","null","img/motor_5.png","72","motor","","","","","","",""
"473","","530345","HierDy9zct650c","mavjspfhsm","msl000395","motor","","68","img/motor_3.png","68","motor","3","46","1","0","0","",""
"null","","530457","HierDy9zct650c","mavjspfhsm","msl000395","iti","","null","img/motor_3.png","68","motor","","","","","","",""
"445","","530914","HierDy9zct650c","mavjspfhsm","msl000395","motor","","72","img/motor_5.png","72","motor","5","47","1","0","0","",""
"null","","531026","HierDy9zct650c","mavjspfhsm","msl000395","iti","","null","img/motor_5.png","72","motor","","","","","","",""
"551","","531589","HierDy9zct650c","mavjspfhsm","msl000395","motor","","75","img/motor_7.png","75","motor","7","48","1","0","0","",""
"null","","531702","HierDy9zct650c","mavjspfhsm","msl000395","iti","","null","img/motor_7.png","75","motor","","","","","","",""
"498","","532211","HierDy9zct650c","mavjspfhsm","msl000395","motor","","68","img/motor_4.png","70","motor","4","49","0","1","0","",""
"229","","532453","HierDy9zct650c","mavjspfhsm","msl000395","motorRepeat","","70","img/motor_4.png","70","motor","4","49","1","0","0","",""
"null","","532565","HierDy9zct650c","mavjspfhsm","msl000395","iti","","null","img/motor_4.png","70","motor","","","","","","",""
"442","","533019","HierDy9zct650c","mavjspfhsm","msl000395","motor","","72","img/motor_5.png","72","motor","5","50","1","0","0","",""
"null","","533131","HierDy9zct650c","mavjspfhsm","msl000395","iti","","null","img/motor_5.png","72","motor","","","","","","",""
"541","","533683","HierDy9zct650c","mavjspfhsm","msl000395","motor","","83","img/motor_3.png","68","motor","3","51","0","1","0","",""
"192","","533889","HierDy9zct650c","mavjspfhsm","msl000395","motorRepeat","","68","img/motor_3.png","68","motor","3","51","1","0","0","",""
"null","","534001","HierDy9zct650c","mavjspfhsm","msl000395","iti","","null","img/motor_3.png","68","motor","","","","","","",""
"498","","534512","HierDy9zct650c","mavjspfhsm","msl000395","motor","","70","img/motor_4.png","70","motor","4","52","1","0","0","",""
"null","","534624","HierDy9zct650c","mavjspfhsm","msl000395","iti","","null","img/motor_4.png","70","motor","","","","","","",""
"719","","535354","HierDy9zct650c","mavjspfhsm","msl000395","motor","","74","img/motor_7.png","75","motor","7","53","0","1","0","",""
"274","","535640","HierDy9zct650c","mavjspfhsm","msl000395","motorRepeat","","75","img/motor_7.png","75","motor","7","53","1","0","0","",""
"null","","535754","HierDy9zct650c","mavjspfhsm","msl000395","iti","","null","img/motor_7.png","75","motor","","","","","","",""
"496","","536260","HierDy9zct650c","mavjspfhsm","msl000395","motor","","75","img/motor_7.png","75","motor","7","54","1","0","0","",""
"null","","536372","HierDy9zct650c","mavjspfhsm","msl000395","iti","","null","img/motor_7.png","75","motor","","","","","","",""
"488","","536872","HierDy9zct650c","mavjspfhsm","msl000395","motor","","74","img/motor_6.png","74","motor","6","55","1","0","0","",""
"null","","536984","HierDy9zct650c","mavjspfhsm","msl000395","iti","","null","img/motor_6.png","74","motor","","","","","","",""
"345","","537341","HierDy9zct650c","mavjspfhsm","msl000395","motor","","74","img/motor_6.png","74","motor","6","56","1","0","0","",""
"null","","537453","HierDy9zct650c","mavjspfhsm","msl000395","iti","","null","img/motor_6.png","74","motor","","","","","","",""
"717","","538182","HierDy9zct650c","mavjspfhsm","msl000395","motor","","68","img/motor_3.png","68","motor","3","57","1","0","0","",""
"null","","538295","HierDy9zct650c","mavjspfhsm","msl000395","iti","","null","img/motor_3.png","68","motor","","","","","","",""
"483","","538789","HierDy9zct650c","mavjspfhsm","msl000395","motor","","65","img/motor_1.png","65","motor","1","58","1","0","0","",""
"null","","538902","HierDy9zct650c","mavjspfhsm","msl000395","iti","","null","img/motor_1.png","65","motor","","","","","","",""
"493","","539407","HierDy9zct650c","mavjspfhsm","msl000395","motor","","76","img/motor_8.png","76","motor","8","59","1","0","0","",""
"null","","539518","HierDy9zct650c","mavjspfhsm","msl000395","iti","","null","img/motor_8.png","76","motor","","","","","","",""
"599","","540131","HierDy9zct650c","mavjspfhsm","msl000395","motor","","83","img/motor_2.png","83","motor","2","60","1","0","0","",""
"null","","540243","HierDy9zct650c","mavjspfhsm","msl000395","iti","","null","img/motor_2.png","83","motor","","","","","","",""
"430","","540686","HierDy9zct650c","mavjspfhsm","msl000395","motor","","74","img/motor_5.png","72","motor","5","61","0","1","0","",""
"189","","540886","HierDy9zct650c","mavjspfhsm","msl000395","motorRepeat","","72","img/motor_5.png","72","motor","5","61","1","0","0","",""
"null","","540999","HierDy9zct650c","mavjspfhsm","msl000395","iti","","null","img/motor_5.png","72","motor","","","","","","",""
"634","","541645","HierDy9zct650c","mavjspfhsm","msl000395","motor","","83","img/motor_2.png","83","motor","2","62","1","0","0","",""
"null","","541757","HierDy9zct650c","mavjspfhsm","msl000395","iti","","null","img/motor_2.png","83","motor","","","","","","",""
"502","","542271","HierDy9zct650c","mavjspfhsm","msl000395","motor","","74","img/motor_6.png","74","motor","6","63","1","0","0","",""
"null","","542384","HierDy9zct650c","mavjspfhsm","msl000395","iti","","null","img/motor_6.png","74","motor","","","","","","",""
"457","","542854","HierDy9zct650c","mavjspfhsm","msl000395","motor","","72","img/motor_5.png","72","motor","5","64","1","0","0","",""
"null","","542966","HierDy9zct650c","mavjspfhsm","msl000395","iti","","null","img/motor_5.png","72","motor","","","","","","",""
"409","","543388","HierDy9zct650c","mavjspfhsm","msl000395","motor","","76","img/motor_8.png","76","motor","8","65","1","0","0","",""
"null","","543500","HierDy9zct650c","mavjspfhsm","msl000395","iti","","null","img/motor_8.png","76","motor","","","","","","",""
"686","","544199","HierDy9zct650c","mavjspfhsm","msl000395","motor","","76","img/motor_8.png","76","motor","8","66","1","0","0","",""
"null","","544313","HierDy9zct650c","mavjspfhsm","msl000395","iti","","null","img/motor_8.png","76","motor","","","","","","",""
"484","","544810","HierDy9zct650c","mavjspfhsm","msl000395","motor","","72","img/motor_5.png","72","motor","5","67","1","0","0","",""
"null","","544922","HierDy9zct650c","mavjspfhsm","msl000395","iti","","null","img/motor_5.png","72","motor","","","","","","",""
"493","","545428","HierDy9zct650c","mavjspfhsm","msl000395","motor","","70","img/motor_4.png","70","motor","4","68","1","0","0","",""
"null","","545541","HierDy9zct650c","mavjspfhsm","msl000395","iti","","null","img/motor_4.png","70","motor","","","","","","",""
"413","","545967","HierDy9zct650c","mavjspfhsm","msl000395","motor","","76","img/motor_8.png","76","motor","8","69","1","0","0","",""
"null","","546079","HierDy9zct650c","mavjspfhsm","msl000395","iti","","null","img/motor_8.png","76","motor","","","","","","",""
"486","","546577","HierDy9zct650c","mavjspfhsm","msl000395","motor","","65","img/motor_1.png","65","motor","1","70","1","0","0","",""
"null","","546690","HierDy9zct650c","mavjspfhsm","msl000395","iti","","null","img/motor_1.png","65","motor","","","","","","",""
"642","","547346","HierDy9zct650c","mavjspfhsm","msl000395","motor","","72","img/motor_5.png","72","motor","5","71","1","0","0","",""
"null","","547458","HierDy9zct650c","mavjspfhsm","msl000395","iti","","null","img/motor_5.png","72","motor","","","","","","",""
"472","","547943","HierDy9zct650c","mavjspfhsm","msl000395","motor","","76","img/motor_8.png","76","motor","8","72","1","0","0","",""
"null","","548055","HierDy9zct650c","mavjspfhsm","msl000395","iti","","null","img/motor_8.png","76","motor","","","","","","",""
"423","","548490","HierDy9zct650c","mavjspfhsm","msl000395","motor","","65","img/motor_1.png","65","motor","1","73","1","0","0","",""
"null","","548602","HierDy9zct650c","mavjspfhsm","msl000395","iti","","null","img/motor_1.png","65","motor","","","","","","",""
"585","","549198","HierDy9zct650c","mavjspfhsm","msl000395","motor","","74","img/motor_6.png","74","motor","6","74","1","0","0","",""
"null","","549311","HierDy9zct650c","mavjspfhsm","msl000395","iti","","null","img/motor_6.png","74","motor","","","","","","",""
"506","","549828","HierDy9zct650c","mavjspfhsm","msl000395","motor","","83","img/motor_2.png","83","motor","2","75","1","0","0","",""
"null","","549941","HierDy9zct650c","mavjspfhsm","msl000395","iti","","null","img/motor_2.png","83","motor","","","","","","",""
"454","","550407","HierDy9zct650c","mavjspfhsm","msl000395","motor","","65","img/motor_1.png","65","motor","1","76","1","0","0","",""
"null","","550520","HierDy9zct650c","mavjspfhsm","msl000395","iti","","null","img/motor_1.png","65","motor","","","","","","",""
"405","","550939","HierDy9zct650c","mavjspfhsm","msl000395","motor","","76","img/motor_8.png","76","motor","8","77","1","0","0","",""
"null","","551050","HierDy9zct650c","mavjspfhsm","msl000395","iti","","null","img/motor_8.png","76","motor","","","","","","",""
"431","","551494","HierDy9zct650c","mavjspfhsm","msl000395","motor","","68","img/motor_3.png","68","motor","3","78","1","0","0","",""
"null","","551607","HierDy9zct650c","mavjspfhsm","msl000395","iti","","null","img/motor_3.png","68","motor","","","","","","",""
"463","","552082","HierDy9zct650c","mavjspfhsm","msl000395","motor","","83","img/motor_2.png","83","motor","2","79","1","0","0","",""
"null","","552195","HierDy9zct650c","mavjspfhsm","msl000395","iti","","null","img/motor_2.png","83","motor","","","","","","",""
"522","","552729","HierDy9zct650c","mavjspfhsm","msl000395","motor","","75","img/motor_7.png","75","motor","7","80","1","0","0","",""
"null","","552841","HierDy9zct650c","mavjspfhsm","msl000395","iti","","null","img/motor_7.png","75","motor","","","","","","",""
"432","","553285","HierDy9zct650c","mavjspfhsm","msl000395","motor","","68","img/motor_2.png","83","motor","2","81","0","1","0","",""
"223","","553523","HierDy9zct650c","mavjspfhsm","msl000395","motorRepeat","","83","img/motor_2.png","83","motor","2","81","1","0","0","",""
"null","","553634","HierDy9zct650c","mavjspfhsm","msl000395","iti","","null","img/motor_2.png","83","motor","","","","","","",""
"388","","554035","HierDy9zct650c","mavjspfhsm","msl000395","motor","","68","img/motor_3.png","68","motor","3","82","1","0","0","",""
"null","","554147","HierDy9zct650c","mavjspfhsm","msl000395","iti","","null","img/motor_3.png","68","motor","","","","","","",""
"426","","554585","HierDy9zct650c","mavjspfhsm","msl000395","motor","","74","img/motor_6.png","74","motor","6","83","1","0","0","",""
"null","","554698","HierDy9zct650c","mavjspfhsm","msl000395","iti","","null","img/motor_6.png","74","motor","","","","","","",""
"392","","555103","HierDy9zct650c","mavjspfhsm","msl000395","motor","","68","img/motor_2.png","83","motor","2","84","0","1","0","",""
"173","","555287","HierDy9zct650c","mavjspfhsm","msl000395","motorRepeat","","83","img/motor_2.png","83","motor","2","84","1","0","0","",""
"null","","555400","HierDy9zct650c","mavjspfhsm","msl000395","iti","","null","img/motor_2.png","83","motor","","","","","","",""
"373","","555787","HierDy9zct650c","mavjspfhsm","msl000395","motor","","70","img/motor_4.png","70","motor","4","85","1","0","0","",""
"null","","555898","HierDy9zct650c","mavjspfhsm","msl000395","iti","","null","img/motor_4.png","70","motor","","","","","","",""
"417","","556327","HierDy9zct650c","mavjspfhsm","msl000395","motor","","65","img/motor_1.png","65","motor","1","86","1","0","0","",""
"null","","556440","HierDy9zct650c","mavjspfhsm","msl000395","iti","","null","img/motor_1.png","65","motor","","","","","","",""
"377","","556830","HierDy9zct650c","mavjspfhsm","msl000395","motor","","65","img/motor_1.png","65","motor","1","87","1","0","0","",""
"null","","556942","HierDy9zct650c","mavjspfhsm","msl000395","iti","","null","img/motor_1.png","65","motor","","","","","","",""
"428","","557381","HierDy9zct650c","mavjspfhsm","msl000395","motor","","76","img/motor_8.png","76","motor","8","88","1","0","0","",""
"null","","557494","HierDy9zct650c","mavjspfhsm","msl000395","iti","","null","img/motor_8.png","76","motor","","","","","","",""
"441","","557946","HierDy9zct650c","mavjspfhsm","msl000395","motor","","65","img/motor_1.png","65","motor","1","89","1","0","0","",""
"null","","558059","HierDy9zct650c","mavjspfhsm","msl000395","iti","","null","img/motor_1.png","65","motor","","","","","","",""
"393","","558463","HierDy9zct650c","mavjspfhsm","msl000395","motor","","83","img/motor_3.png","68","motor","3","90","0","1","0","",""
"159","","558635","HierDy9zct650c","mavjspfhsm","msl000395","motorRepeat","","68","img/motor_3.png","68","motor","3","90","1","0","0","",""
"null","","558748","HierDy9zct650c","mavjspfhsm","msl000395","iti","","null","img/motor_3.png","68","motor","","","","","","",""
"402","","559162","HierDy9zct650c","mavjspfhsm","msl000395","motor","","76","img/motor_7.png","75","motor","7","91","0","1","0","",""
"145","","559318","HierDy9zct650c","mavjspfhsm","msl000395","motorRepeat","","74","img/motor_7.png","75","motor","7","91","0","1","0","",""
"158","","559487","HierDy9zct650c","mavjspfhsm","msl000395","motorRepeat","","75","img/motor_7.png","75","motor","7","91","1","0","0","",""
"null","","559599","HierDy9zct650c","mavjspfhsm","msl000395","iti","","null","img/motor_7.png","75","motor","","","","","","",""
"377","","559989","HierDy9zct650c","mavjspfhsm","msl000395","motor","","68","img/motor_3.png","68","motor","3","92","1","0","0","",""
"null","","560101","HierDy9zct650c","mavjspfhsm","msl000395","iti","","null","img/motor_3.png","68","motor","","","","","","",""
"463","","560577","HierDy9zct650c","mavjspfhsm","msl000395","motor","","70","img/motor_5.png","72","motor","5","93","0","1","0","",""
"293","","560882","HierDy9zct650c","mavjspfhsm","msl000395","motorRepeat","","74","img/motor_5.png","72","motor","5","93","0","1","0","",""
"254","","561147","HierDy9zct650c","mavjspfhsm","msl000395","motorRepeat","","72","img/motor_5.png","72","motor","5","93","1","0","0","",""
"null","","561259","HierDy9zct650c","mavjspfhsm","msl000395","iti","","null","img/motor_5.png","72","motor","","","","","","",""
"366","","561637","HierDy9zct650c","mavjspfhsm","msl000395","motor","","76","img/motor_8.png","76","motor","8","94","1","0","0","",""
"null","","561750","HierDy9zct650c","mavjspfhsm","msl000395","iti","","null","img/motor_8.png","76","motor","","","","","","",""
"435","","562198","HierDy9zct650c","mavjspfhsm","msl000395","motor","","70","img/motor_4.png","70","motor","4","95","1","0","0","",""
"null","","562310","HierDy9zct650c","mavjspfhsm","msl000395","iti","","null","img/motor_4.png","70","motor","","","","","","",""
"430","","562751","HierDy9zct650c","mavjspfhsm","msl000395","motor","","68","img/motor_2.png","83","motor","2","96","0","1","0","",""
"137","","562899","HierDy9zct650c","mavjspfhsm","msl000395","motorRepeat","","83","img/motor_2.png","83","motor","2","96","1","0","0","",""
"null","","563013","HierDy9zct650c","mavjspfhsm","msl000395","iti","","null","img/motor_2.png","83","motor","","","","","","",""
"572","","563597","HierDy9zct650c","mavjspfhsm","msl000395","motor","","83","img/motor_5.png","72","motor","5","97","0","1","0","",""
"77","","563688","HierDy9zct650c","mavjspfhsm","msl000395","motorRepeat","","72","img/motor_5.png","72","motor","5","97","1","0","0","",""
"null","","563799","HierDy9zct650c","mavjspfhsm","msl000395","iti","","null","img/motor_5.png","72","motor","","","","","","",""
"376","","564188","HierDy9zct650c","mavjspfhsm","msl000395","motor","","72","img/motor_5.png","72","motor","5","98","1","0","0","",""
"null","","564300","HierDy9zct650c","mavjspfhsm","msl000395","iti","","null","img/motor_5.png","72","motor","","","","","","",""
"459","","564771","HierDy9zct650c","mavjspfhsm","msl000395","motor","","70","img/motor_4.png","70","motor","4","99","1","0","0","",""
"null","","564884","HierDy9zct650c","mavjspfhsm","msl000395","iti","","null","img/motor_4.png","70","motor","","","","","","",""
"317","","565212","HierDy9zct650c","mavjspfhsm","msl000395","motor","","70","img/motor_4.png","70","motor","4","100","1","0","0","",""
"null","","565324","HierDy9zct650c","mavjspfhsm","msl000395","iti","","null","img/motor_4.png","70","motor","","","","","","",""
"550","","565886","HierDy9zct650c","mavjspfhsm","msl000395","motor","","75","img/motor_7.png","75","motor","7","101","1","0","0","",""
"null","","565999","HierDy9zct650c","mavjspfhsm","msl000395","iti","","null","img/motor_7.png","75","motor","","","","","","",""
"455","","566468","HierDy9zct650c","mavjspfhsm","msl000395","motor","","65","img/motor_1.png","65","motor","1","102","1","0","0","",""
"null","","566580","HierDy9zct650c","mavjspfhsm","msl000395","iti","","null","img/motor_1.png","65","motor","","","","","","",""
"558","","567150","HierDy9zct650c","mavjspfhsm","msl000395","motor","","68","img/motor_3.png","68","motor","3","103","1","0","0","",""
"null","","567263","HierDy9zct650c","mavjspfhsm","msl000395","iti","","null","img/motor_3.png","68","motor","","","","","","",""
"330","","567606","HierDy9zct650c","mavjspfhsm","msl000395","motor","","68","img/motor_3.png","68","motor","3","104","1","0","0","",""
"null","","567719","HierDy9zct650c","mavjspfhsm","msl000395","iti","","null","img/motor_3.png","68","motor","","","","","","",""
"429","","568160","HierDy9zct650c","mavjspfhsm","msl000395","motor","","83","img/motor_2.png","83","motor","2","105","1","0","0","",""
"null","","568272","HierDy9zct650c","mavjspfhsm","msl000395","iti","","null","img/motor_2.png","83","motor","","","","","","",""
"476","","568760","HierDy9zct650c","mavjspfhsm","msl000395","motor","","75","img/motor_7.png","75","motor","7","106","1","0","0","",""
"null","","568872","HierDy9zct650c","mavjspfhsm","msl000395","iti","","null","img/motor_7.png","75","motor","","","","","","",""
"413","","569297","HierDy9zct650c","mavjspfhsm","msl000395","motor","","74","img/motor_6.png","74","motor","6","107","1","0","0","",""
"null","","569409","HierDy9zct650c","mavjspfhsm","msl000395","iti","","null","img/motor_6.png","74","motor","","","","","","",""
"334","","569755","HierDy9zct650c","mavjspfhsm","msl000395","motor","","76","img/motor_8.png","76","motor","8","108","1","0","0","",""
"null","","569867","HierDy9zct650c","mavjspfhsm","msl000395","iti","","null","img/motor_8.png","76","motor","","","","","","",""
"394","","570273","HierDy9zct650c","mavjspfhsm","msl000395","motor","","75","img/motor_7.png","75","motor","7","109","1","0","0","",""
"null","","570386","HierDy9zct650c","mavjspfhsm","msl000395","iti","","null","img/motor_7.png","75","motor","","","","","","",""
"389","","570788","HierDy9zct650c","mavjspfhsm","msl000395","motor","","76","img/motor_8.png","76","motor","8","110","1","0","0","",""
"null","","570901","HierDy9zct650c","mavjspfhsm","msl000395","iti","","null","img/motor_8.png","76","motor","","","","","","",""
"429","","571342","HierDy9zct650c","mavjspfhsm","msl000395","motor","","70","img/motor_4.png","70","motor","4","111","1","0","0","",""
"null","","571455","HierDy9zct650c","mavjspfhsm","msl000395","iti","","null","img/motor_4.png","70","motor","","","","","","",""
"499","","571966","HierDy9zct650c","mavjspfhsm","msl000395","motor","","74","img/motor_6.png","74","motor","6","112","1","0","0","",""
"null","","572078","HierDy9zct650c","mavjspfhsm","msl000395","iti","","null","img/motor_6.png","74","motor","","","","","","",""
"331","","572422","HierDy9zct650c","mavjspfhsm","msl000395","motor","","70","img/motor_4.png","70","motor","4","113","1","0","0","",""
"null","","572535","HierDy9zct650c","mavjspfhsm","msl000395","iti","","null","img/motor_4.png","70","motor","","","","","","",""
"745","","573291","HierDy9zct650c","mavjspfhsm","msl000395","motor","","83","img/motor_2.png","83","motor","2","114","1","0","0","",""
"null","","573403","HierDy9zct650c","mavjspfhsm","msl000395","iti","","null","img/motor_2.png","83","motor","","","","","","",""
"438","","573853","HierDy9zct650c","mavjspfhsm","msl000395","motor","","72","img/motor_5.png","72","motor","5","115","1","0","0","",""
"null","","573966","HierDy9zct650c","mavjspfhsm","msl000395","iti","","null","img/motor_5.png","72","motor","","","","","","",""
"392","","574371","HierDy9zct650c","mavjspfhsm","msl000395","motor","","83","img/motor_2.png","83","motor","2","116","1","0","0","",""
"null","","574482","HierDy9zct650c","mavjspfhsm","msl000395","iti","","null","img/motor_2.png","83","motor","","","","","","",""
"393","","574886","HierDy9zct650c","mavjspfhsm","msl000395","motor","","65","img/motor_1.png","65","motor","1","117","1","0","0","",""
"null","","574999","HierDy9zct650c","mavjspfhsm","msl000395","iti","","null","img/motor_1.png","65","motor","","","","","","",""
"415","","575427","HierDy9zct650c","mavjspfhsm","msl000395","motor","","70","img/motor_5.png","72","motor","5","118","0","1","0","",""
"100","","575539","HierDy9zct650c","mavjspfhsm","msl000395","motorRepeat","","72","img/motor_5.png","72","motor","5","118","1","0","0","",""
"null","","575651","HierDy9zct650c","mavjspfhsm","msl000395","iti","","null","img/motor_5.png","72","motor","","","","","","",""
"353","","576016","HierDy9zct650c","mavjspfhsm","msl000395","motor","","74","img/motor_6.png","74","motor","6","119","1","0","0","",""
"null","","576129","HierDy9zct650c","mavjspfhsm","msl000395","iti","","null","img/motor_6.png","74","motor","","","","","","",""
"446","","576588","HierDy9zct650c","mavjspfhsm","msl000395","motor","","72","img/motor_5.png","72","motor","5","120","1","0","0","",""
"null","","576699","HierDy9zct650c","mavjspfhsm","msl000395","iti","","null","img/motor_5.png","72","motor","","","","","","",""
"427","","577139","HierDy9zct650c","mavjspfhsm","msl000395","motor","","70","img/motor_4.png","70","motor","4","121","1","0","0","",""
"null","","577251","HierDy9zct650c","mavjspfhsm","msl000395","iti","","null","img/motor_4.png","70","motor","","","","","","",""
"288","","577551","HierDy9zct650c","mavjspfhsm","msl000395","motor","","68","img/motor_3.png","68","motor","3","122","1","0","0","",""
"null","","577664","HierDy9zct650c","mavjspfhsm","msl000395","iti","","null","img/motor_3.png","68","motor","","","","","","",""
"350","","578025","HierDy9zct650c","mavjspfhsm","msl000395","motor","","76","img/motor_8.png","76","motor","8","123","1","0","0","",""
"null","","578137","HierDy9zct650c","mavjspfhsm","msl000395","iti","","null","img/motor_8.png","76","motor","","","","","","",""
"441","","578589","HierDy9zct650c","mavjspfhsm","msl000395","motor","","65","img/motor_1.png","65","motor","1","124","1","0","0","",""
"null","","578701","HierDy9zct650c","mavjspfhsm","msl000395","iti","","null","img/motor_1.png","65","motor","","","","","","",""
"375","","579089","HierDy9zct650c","mavjspfhsm","msl000395","motor","","70","img/motor_4.png","70","motor","4","125","1","0","0","",""
"null","","579201","HierDy9zct650c","mavjspfhsm","msl000395","iti","","null","img/motor_4.png","70","motor","","","","","","",""
"412","","579624","HierDy9zct650c","mavjspfhsm","msl000395","motor","","72","img/motor_5.png","72","motor","5","126","1","0","0","",""
"null","","579736","HierDy9zct650c","mavjspfhsm","msl000395","iti","","null","img/motor_5.png","72","motor","","","","","","",""
"362","","580110","HierDy9zct650c","mavjspfhsm","msl000395","motor","","70","img/motor_5.png","72","motor","5","127","0","1","0","",""
"59","","580179","HierDy9zct650c","mavjspfhsm","msl000395","motorRepeat","","72","img/motor_5.png","72","motor","5","127","1","0","0","",""
"null","","580292","HierDy9zct650c","mavjspfhsm","msl000395","iti","","null","img/motor_5.png","72","motor","","","","","","",""
"373","","580676","HierDy9zct650c","mavjspfhsm","msl000395","motor","","76","img/motor_8.png","76","motor","8","128","1","0","0","",""
"null","","580789","HierDy9zct650c","mavjspfhsm","msl000395","iti","","null","img/motor_8.png","76","motor","","","","","","",""
"384","","581184","HierDy9zct650c","mavjspfhsm","msl000395","motor","","70","img/motor_2.png","83","motor","2","129","0","1","0","",""
"184","","581380","HierDy9zct650c","mavjspfhsm","msl000395","motorRepeat","","83","img/motor_2.png","83","motor","2","129","1","0","0","",""
"null","","581493","HierDy9zct650c","mavjspfhsm","msl000395","iti","","null","img/motor_2.png","83","motor","","","","","","",""
"381","","581887","HierDy9zct650c","mavjspfhsm","msl000395","motor","","65","img/motor_1.png","65","motor","1","130","1","0","0","",""
"null","","581998","HierDy9zct650c","mavjspfhsm","msl000395","iti","","null","img/motor_1.png","65","motor","","","","","","",""
"387","","582398","HierDy9zct650c","mavjspfhsm","msl000395","motor","","74","img/motor_6.png","74","motor","6","131","1","0","0","",""
"null","","582511","HierDy9zct650c","mavjspfhsm","msl000395","iti","","null","img/motor_6.png","74","motor","","","","","","",""
"527","","583053","HierDy9zct650c","mavjspfhsm","msl000395","motor","","83","img/motor_3.png","68","motor","3","132","0","1","0","",""
"134","","583200","HierDy9zct650c","mavjspfhsm","msl000395","motorRepeat","","68","img/motor_3.png","68","motor","3","132","1","0","0","",""
"null","","583314","HierDy9zct650c","mavjspfhsm","msl000395","iti","","null","img/motor_3.png","68","motor","","","","","","",""
"387","","583712","HierDy9zct650c","mavjspfhsm","msl000395","motor","","65","img/motor_1.png","65","motor","1","133","1","0","0","",""
"null","","583825","HierDy9zct650c","mavjspfhsm","msl000395","iti","","null","img/motor_1.png","65","motor","","","","","","",""
"386","","584226","HierDy9zct650c","mavjspfhsm","msl000395","motor","","70","img/motor_4.png","70","motor","4","134","1","0","0","",""
"null","","584338","HierDy9zct650c","mavjspfhsm","msl000395","iti","","null","img/motor_4.png","70","motor","","","","","","",""
"436","","584786","HierDy9zct650c","mavjspfhsm","msl000395","motor","","72","img/motor_6.png","74","motor","6","135","0","1","0","",""
"115","","584911","HierDy9zct650c","mavjspfhsm","msl000395","motorRepeat","","74","img/motor_6.png","74","motor","6","135","1","0","0","",""
"null","","585025","HierDy9zct650c","mavjspfhsm","msl000395","iti","","null","img/motor_6.png","74","motor","","","","","","",""
"409","","585446","HierDy9zct650c","mavjspfhsm","msl000395","motor","","76","img/motor_8.png","76","motor","8","136","1","0","0","",""
"null","","585560","HierDy9zct650c","mavjspfhsm","msl000395","iti","","null","img/motor_8.png","76","motor","","","","","","",""
"565","","586136","HierDy9zct650c","mavjspfhsm","msl000395","motor","","83","img/motor_2.png","83","motor","2","137","1","0","0","",""
"null","","586249","HierDy9zct650c","mavjspfhsm","msl000395","iti","","null","img/motor_2.png","83","motor","","","","","","",""
"347","","586608","HierDy9zct650c","mavjspfhsm","msl000395","motor","","76","img/motor_8.png","76","motor","8","138","1","0","0","",""
"null","","586720","HierDy9zct650c","mavjspfhsm","msl000395","iti","","null","img/motor_8.png","76","motor","","","","","","",""
"537","","587273","HierDy9zct650c","mavjspfhsm","msl000395","motor","","72","img/motor_5.png","72","motor","5","139","1","0","0","",""
"null","","587386","HierDy9zct650c","mavjspfhsm","msl000395","iti","","null","img/motor_5.png","72","motor","","","","","","",""
"429","","587828","HierDy9zct650c","mavjspfhsm","msl000395","motor","","65","img/motor_1.png","65","motor","1","140","1","0","0","",""
"null","","587941","HierDy9zct650c","mavjspfhsm","msl000395","iti","","null","img/motor_1.png","65","motor","","","","","","",""
"576","","588530","HierDy9zct650c","mavjspfhsm","msl000395","motor","","68","img/motor_3.png","68","motor","3","141","1","0","0","",""
"null","","588643","HierDy9zct650c","mavjspfhsm","msl000395","iti","","null","img/motor_3.png","68","motor","","","","","","",""
"518","","589173","HierDy9zct650c","mavjspfhsm","msl000395","motor","","74","img/motor_6.png","74","motor","6","142","1","0","0","",""
"null","","589286","HierDy9zct650c","mavjspfhsm","msl000395","iti","","null","img/motor_6.png","74","motor","","","","","","",""
"110","","589409","HierDy9zct650c","mavjspfhsm","msl000395","motor","","74","img/motor_1.png","65","motor","1","143","0","1","0","",""
"279","","589700","HierDy9zct650c","mavjspfhsm","msl000395","motorRepeat","","65","img/motor_1.png","65","motor","1","143","1","0","0","",""
"null","","589812","HierDy9zct650c","mavjspfhsm","msl000395","iti","","null","img/motor_1.png","65","motor","","","","","","",""
"304","","590130","HierDy9zct650c","mavjspfhsm","msl000395","motor","","65","img/motor_1.png","65","motor","1","144","1","0","0","",""
"null","","590242","HierDy9zct650c","mavjspfhsm","msl000395","iti","","null","img/motor_1.png","65","motor","","","","","","",""
"439","","590692","HierDy9zct650c","mavjspfhsm","msl000395","motor","","72","img/motor_5.png","72","motor","5","145","1","0","0","",""
"null","","590805","HierDy9zct650c","mavjspfhsm","msl000395","iti","","null","img/motor_5.png","72","motor","","","","","","",""
"362","","591179","HierDy9zct650c","mavjspfhsm","msl000395","motor","","72","img/motor_5.png","72","motor","5","146","1","0","0","",""
"null","","591291","HierDy9zct650c","mavjspfhsm","msl000395","iti","","null","img/motor_5.png","72","motor","","","","","","",""
"325","","591627","HierDy9zct650c","mavjspfhsm","msl000395","motor","","76","img/motor_7.png","75","motor","7","147","0","1","0","",""
"189","","591830","HierDy9zct650c","mavjspfhsm","msl000395","motorRepeat","","74","img/motor_7.png","75","motor","7","147","0","1","0","",""
"291","","592133","HierDy9zct650c","mavjspfhsm","msl000395","motorRepeat","","75","img/motor_7.png","75","motor","7","147","1","0","0","",""
"null","","592246","HierDy9zct650c","mavjspfhsm","msl000395","iti","","null","img/motor_7.png","75","motor","","","","","","",""
"351","","592610","HierDy9zct650c","mavjspfhsm","msl000395","motor","","76","img/motor_8.png","76","motor","8","148","1","0","0","",""
"null","","592723","HierDy9zct650c","mavjspfhsm","msl000395","iti","","null","img/motor_8.png","76","motor","","","","","","",""
"403","","593138","HierDy9zct650c","mavjspfhsm","msl000395","motor","","72","img/motor_5.png","72","motor","5","149","1","0","0","",""
"null","","593250","HierDy9zct650c","mavjspfhsm","msl000395","iti","","null","img/motor_5.png","72","motor","","","","","","",""
"427","","593688","HierDy9zct650c","mavjspfhsm","msl000395","motor","","70","img/motor_3.png","68","motor","3","150","0","1","0","",""
"148","","593849","HierDy9zct650c","mavjspfhsm","msl000395","motorRepeat","","68","img/motor_3.png","68","motor","3","150","1","0","0","",""
"null","","593961","HierDy9zct650c","mavjspfhsm","msl000395","iti","","null","img/motor_3.png","68","motor","","","","","","",""
"343","","594317","HierDy9zct650c","mavjspfhsm","msl000395","motor","","68","img/motor_3.png","68","motor","3","151","1","0","0","",""
"null","","594430","HierDy9zct650c","mavjspfhsm","msl000395","iti","","null","img/motor_3.png","68","motor","","","","","","",""
"395","","594837","HierDy9zct650c","mavjspfhsm","msl000395","motor","","83","img/motor_2.png","83","motor","2","152","1","0","0","",""
"null","","594949","HierDy9zct650c","mavjspfhsm","msl000395","iti","","null","img/motor_2.png","83","motor","","","","","","",""
"428","","595389","HierDy9zct650c","mavjspfhsm","msl000395","motor","","72","img/motor_5.png","72","motor","5","153","1","0","0","",""
"null","","595501","HierDy9zct650c","mavjspfhsm","msl000395","iti","","null","img/motor_5.png","72","motor","","","","","","",""
"400","","595913","HierDy9zct650c","mavjspfhsm","msl000395","motor","","75","img/motor_7.png","75","motor","7","154","1","0","0","",""
"22","","596025","HierDy9zct650c","mavjspfhsm","msl000395","iti","","74","img/motor_7.png","75","motor","","","","","","",""
"445","","596482","HierDy9zct650c","mavjspfhsm","msl000395","motor","","74","img/motor_3.png","68","motor","3","155","0","1","0","",""
"115","","596609","HierDy9zct650c","mavjspfhsm","msl000395","motorRepeat","","68","img/motor_3.png","68","motor","3","155","1","0","0","",""
"null","","596722","HierDy9zct650c","mavjspfhsm","msl000395","iti","","null","img/motor_3.png","68","motor","","","","","","",""
"431","","597165","HierDy9zct650c","mavjspfhsm","msl000395","motor","","74","img/motor_6.png","74","motor","6","156","1","0","0","",""
"65","","597277","HierDy9zct650c","mavjspfhsm","msl000395","iti","","75","img/motor_6.png","74","motor","","","","","","",""
"494","","597784","HierDy9zct650c","mavjspfhsm","msl000395","motor","","83","img/motor_2.png","83","motor","2","157","1","0","0","",""
"null","","597896","HierDy9zct650c","mavjspfhsm","msl000395","iti","","null","img/motor_2.png","83","motor","","","","","","",""
"386","","598293","HierDy9zct650c","mavjspfhsm","msl000395","motor","","65","img/motor_1.png","65","motor","1","158","1","0","0","",""
"null","","598406","HierDy9zct650c","mavjspfhsm","msl000395","iti","","null","img/motor_1.png","65","motor","","","","","","",""
"524","","598942","HierDy9zct650c","mavjspfhsm","msl000395","motor","","83","img/motor_2.png","83","motor","2","159","1","0","0","",""
"null","","599054","HierDy9zct650c","mavjspfhsm","msl000395","iti","","null","img/motor_2.png","83","motor","","","","","","",""
"353","","599418","HierDy9zct650c","mavjspfhsm","msl000395","motor","","68","img/motor_3.png","68","motor","3","160","1","0","0","",""
"null","","599531","HierDy9zct650c","mavjspfhsm","msl000395","iti","","null","img/motor_3.png","68","motor","","","","","","",""
"527","","600071","HierDy9zct650c","mavjspfhsm","msl000395","motor","","76","img/motor_8.png","76","motor","8","161","1","0","0","",""
"null","","600183","HierDy9zct650c","mavjspfhsm","msl000395","iti","","null","img/motor_8.png","76","motor","","","","","","",""
"396","","600590","HierDy9zct650c","mavjspfhsm","msl000395","motor","","74","img/motor_6.png","74","motor","6","162","1","0","0","",""
"null","","600703","HierDy9zct650c","mavjspfhsm","msl000395","iti","","null","img/motor_6.png","74","motor","","","","","","",""
"430","","601146","HierDy9zct650c","mavjspfhsm","msl000395","motor","","70","img/motor_5.png","72","motor","5","163","0","1","0","",""
"67","","601225","HierDy9zct650c","mavjspfhsm","msl000395","motorRepeat","","72","img/motor_5.png","72","motor","5","163","1","0","0","",""
"null","","601337","HierDy9zct650c","mavjspfhsm","msl000395","iti","","null","img/motor_5.png","72","motor","","","","","","",""
"412","","601762","HierDy9zct650c","mavjspfhsm","msl000395","motor","","74","img/motor_7.png","75","motor","7","164","0","1","0","",""
"154","","601928","HierDy9zct650c","mavjspfhsm","msl000395","motorRepeat","","75","img/motor_7.png","75","motor","7","164","1","0","0","",""
"null","","602040","HierDy9zct650c","mavjspfhsm","msl000395","iti","","null","img/motor_7.png","75","motor","","","","","","",""
"527","","602581","HierDy9zct650c","mavjspfhsm","msl000395","motor","","70","img/motor_4.png","70","motor","4","165","1","0","0","",""
"null","","602695","HierDy9zct650c","mavjspfhsm","msl000395","iti","","null","img/motor_4.png","70","motor","","","","","","",""
"397","","603103","HierDy9zct650c","mavjspfhsm","msl000395","motor","","76","img/motor_8.png","76","motor","8","166","1","0","0","",""
"null","","603215","HierDy9zct650c","mavjspfhsm","msl000395","iti","","null","img/motor_8.png","76","motor","","","","","","",""
"390","","603620","HierDy9zct650c","mavjspfhsm","msl000395","motor","","74","img/motor_7.png","75","motor","7","167","0","1","0","",""
"214","","603845","HierDy9zct650c","mavjspfhsm","msl000395","motorRepeat","","75","img/motor_7.png","75","motor","7","167","1","0","0","",""
"null","","603958","HierDy9zct650c","mavjspfhsm","msl000395","iti","","null","img/motor_7.png","75","motor","","","","","","",""
"548","","604518","HierDy9zct650c","mavjspfhsm","msl000395","motor","","83","img/motor_2.png","83","motor","2","168","1","0","0","",""
"null","","604630","HierDy9zct650c","mavjspfhsm","msl000395","iti","","null","img/motor_2.png","83","motor","","","","","","",""
"336","","604978","HierDy9zct650c","mavjspfhsm","msl000395","motor","","74","img/motor_6.png","74","motor","6","169","1","0","0","",""
"null","","605091","HierDy9zct650c","mavjspfhsm","msl000395","iti","","null","img/motor_6.png","74","motor","","","","","","",""
"593","","605698","HierDy9zct650c","mavjspfhsm","msl000395","motor","","83","img/motor_2.png","83","motor","2","170","1","0","0","",""
"null","","605811","HierDy9zct650c","mavjspfhsm","msl000395","iti","","null","img/motor_2.png","83","motor","","","","","","",""
"420","","606243","HierDy9zct650c","mavjspfhsm","msl000395","motor","","76","img/motor_7.png","75","motor","7","171","0","1","0","",""
"192","","606448","HierDy9zct650c","mavjspfhsm","msl000395","motorRepeat","","75","img/motor_7.png","75","motor","7","171","1","0","0","",""
"null","","606560","HierDy9zct650c","mavjspfhsm","msl000395","iti","","null","img/motor_7.png","75","motor","","","","","","",""
"429","","607002","HierDy9zct650c","mavjspfhsm","msl000395","motor","","72","img/motor_5.png","72","motor","5","172","1","0","0","",""
"null","","607115","HierDy9zct650c","mavjspfhsm","msl000395","iti","","null","img/motor_5.png","72","motor","","","","","","",""
"416","","607543","HierDy9zct650c","mavjspfhsm","msl000395","motor","","65","img/motor_1.png","65","motor","1","173","1","0","0","",""
"null","","607655","HierDy9zct650c","mavjspfhsm","msl000395","iti","","null","img/motor_1.png","65","motor","","","","","","",""
"357","","608025","HierDy9zct650c","mavjspfhsm","msl000395","motor","","83","img/motor_2.png","83","motor","2","174","1","0","0","",""
"null","","608137","HierDy9zct650c","mavjspfhsm","msl000395","iti","","null","img/motor_2.png","83","motor","","","","","","",""
"413","","608563","HierDy9zct650c","mavjspfhsm","msl000395","motor","","72","img/motor_5.png","72","motor","5","175","1","0","0","",""
"null","","608675","HierDy9zct650c","mavjspfhsm","msl000395","iti","","null","img/motor_5.png","72","motor","","","","","","",""
"392","","609080","HierDy9zct650c","mavjspfhsm","msl000395","motor","","83","img/motor_1.png","65","motor","1","176","0","1","0","",""
"272","","609365","HierDy9zct650c","mavjspfhsm","msl000395","motorRepeat","","65","img/motor_1.png","65","motor","1","176","1","0","0","",""
"null","","609476","HierDy9zct650c","mavjspfhsm","msl000395","iti","","null","img/motor_1.png","65","motor","","","","","","",""
"397","","609886","HierDy9zct650c","mavjspfhsm","msl000395","motor","","83","img/motor_2.png","83","motor","2","177","1","0","0","",""
"null","","609998","HierDy9zct650c","mavjspfhsm","msl000395","iti","","null","img/motor_2.png","83","motor","","","","","","",""
"493","","610504","HierDy9zct650c","mavjspfhsm","msl000395","motor","","70","img/motor_4.png","70","motor","4","178","1","0","0","",""
"null","","610616","HierDy9zct650c","mavjspfhsm","msl000395","iti","","null","img/motor_4.png","70","motor","","","","","","",""
"332","","610961","HierDy9zct650c","mavjspfhsm","msl000395","motor","","65","img/motor_1.png","65","motor","1","179","1","0","0","",""
"null","","611074","HierDy9zct650c","mavjspfhsm","msl000395","iti","","null","img/motor_1.png","65","motor","","","","","","",""
"477","","611564","HierDy9zct650c","mavjspfhsm","msl000395","motor","","68","img/motor_3.png","68","motor","3","180","1","0","0","",""
"null","","611677","HierDy9zct650c","mavjspfhsm","msl000395","iti","","null","img/motor_3.png","68","motor","","","","","","",""
"370","","612057","HierDy9zct650c","mavjspfhsm","msl000395","motor","","68","img/motor_3.png","68","motor","3","181","1","0","0","",""
"null","","612171","HierDy9zct650c","mavjspfhsm","msl000395","iti","","null","img/motor_3.png","68","motor","","","","","","",""
"398","","612581","HierDy9zct650c","mavjspfhsm","msl000395","motor","","72","img/motor_5.png","72","motor","5","182","1","0","0","",""
"3","","612693","HierDy9zct650c","mavjspfhsm","msl000395","iti","","74","img/motor_5.png","72","motor","","","","","","",""
"478","","613182","HierDy9zct650c","mavjspfhsm","msl000395","motor","","74","img/motor_6.png","74","motor","6","183","1","0","0","",""
"null","","613295","HierDy9zct650c","mavjspfhsm","msl000395","iti","","null","img/motor_6.png","74","motor","","","","","","",""
"625","","613932","HierDy9zct650c","mavjspfhsm","msl000395","motor","","74","img/motor_7.png","75","motor","7","184","0","1","0","",""
"252","","614197","HierDy9zct650c","mavjspfhsm","msl000395","motorRepeat","","75","img/motor_7.png","75","motor","7","184","1","0","0","",""
"null","","614310","HierDy9zct650c","mavjspfhsm","msl000395","iti","","null","img/motor_7.png","75","motor","","","","","","",""
"517","","614839","HierDy9zct650c","mavjspfhsm","msl000395","motor","","74","img/motor_6.png","74","motor","6","185","1","0","0","",""
"null","","614952","HierDy9zct650c","mavjspfhsm","msl000395","iti","","null","img/motor_6.png","74","motor","","","","","","",""
"562","","615526","HierDy9zct650c","mavjspfhsm","msl000395","motor","","70","img/motor_4.png","70","motor","4","186","1","0","0","",""
"null","","615639","HierDy9zct650c","mavjspfhsm","msl000395","iti","","null","img/motor_4.png","70","motor","","","","","","",""
"589","","616240","HierDy9zct650c","mavjspfhsm","msl000395","motor","","83","img/motor_2.png","83","motor","2","187","1","0","0","",""
"null","","616353","HierDy9zct650c","mavjspfhsm","msl000395","iti","","null","img/motor_2.png","83","motor","","","","","","",""
"633","","616997","HierDy9zct650c","mavjspfhsm","msl000395","motor","","76","img/motor_8.png","76","motor","8","188","1","0","0","",""
"null","","617109","HierDy9zct650c","mavjspfhsm","msl000395","iti","","null","img/motor_8.png","76","motor","","","","","","",""
"618","","617740","HierDy9zct650c","mavjspfhsm","msl000395","motor","","70","img/motor_4.png","70","motor","4","189","1","0","0","",""
"null","","617852","HierDy9zct650c","mavjspfhsm","msl000395","iti","","null","img/motor_4.png","70","motor","","","","","","",""
"337","","618201","HierDy9zct650c","mavjspfhsm","msl000395","motor","","70","img/motor_4.png","70","motor","4","190","1","0","0","",""
"null","","618314","HierDy9zct650c","mavjspfhsm","msl000395","iti","","null","img/motor_4.png","70","motor","","","","","","",""
"760","","619086","HierDy9zct650c","mavjspfhsm","msl000395","motor","","74","img/motor_6.png","74","motor","6","191","1","0","0","",""
"null","","619198","HierDy9zct650c","mavjspfhsm","msl000395","iti","","null","img/motor_6.png","74","motor","","","","","","",""
"752","","619962","HierDy9zct650c","mavjspfhsm","msl000395","motor","","65","img/motor_2.png","83","motor","2","192","0","1","0","",""
"195","","620168","HierDy9zct650c","mavjspfhsm","msl000395","motorRepeat","","83","img/motor_2.png","83","motor","2","192","1","0","0","",""
"null","","620282","HierDy9zct650c","mavjspfhsm","msl000395","iti","","null","img/motor_2.png","83","motor","","","","","","",""
"518","","620812","HierDy9zct650c","mavjspfhsm","msl000395","motor","","74","img/motor_6.png","74","motor","6","193","1","0","0","",""
"null","","620925","HierDy9zct650c","mavjspfhsm","msl000395","iti","","null","img/motor_6.png","74","motor","","","","","","",""
"405","","621342","HierDy9zct650c","mavjspfhsm","msl000395","motor","","75","img/motor_7.png","75","motor","7","194","1","0","0","",""
"null","","621454","HierDy9zct650c","mavjspfhsm","msl000395","iti","","null","img/motor_7.png","75","motor","","","","","","",""
"398","","621864","HierDy9zct650c","mavjspfhsm","msl000395","motor","","72","img/motor_5.png","72","motor","5","195","1","0","0","",""
"null","","621977","HierDy9zct650c","mavjspfhsm","msl000395","iti","","null","img/motor_5.png","72","motor","","","","","","",""
"377","","622366","HierDy9zct650c","mavjspfhsm","msl000395","motor","","74","img/motor_6.png","74","motor","6","196","1","0","0","",""
"null","","622478","HierDy9zct650c","mavjspfhsm","msl000395","iti","","null","img/motor_6.png","74","motor","","","","","","",""
"393","","622882","HierDy9zct650c","mavjspfhsm","msl000395","motor","","83","img/motor_3.png","68","motor","3","197","0","1","0","",""
"260","","623154","HierDy9zct650c","mavjspfhsm","msl000395","motorRepeat","","68","img/motor_3.png","68","motor","3","197","1","0","0","",""
"null","","623268","HierDy9zct650c","mavjspfhsm","msl000395","iti","","null","img/motor_3.png","68","motor","","","","","","",""
"295","","623576","HierDy9zct650c","mavjspfhsm","msl000395","motor","","68","img/motor_3.png","68","motor","3","198","1","0","0","",""
"null","","623689","HierDy9zct650c","mavjspfhsm","msl000395","iti","","null","img/motor_3.png","68","motor","","","","","","",""
"403","","624105","HierDy9zct650c","mavjspfhsm","msl000395","motor","","74","img/motor_7.png","75","motor","7","199","0","1","0","",""
"161","","624280","HierDy9zct650c","mavjspfhsm","msl000395","motorRepeat","","75","img/motor_7.png","75","motor","7","199","1","0","0","",""
"null","","624392","HierDy9zct650c","mavjspfhsm","msl000395","iti","","null","img/motor_7.png","75","motor","","","","","","",""
"407","","624812","HierDy9zct650c","mavjspfhsm","msl000395","motor","","70","img/motor_4.png","70","motor","4","200","1","0","0","",""
"7","","624925","HierDy9zct650c","mavjspfhsm","msl000395","iti","","68","img/motor_4.png","70","motor","","","","","","",""
"470","","625408","HierDy9zct650c","mavjspfhsm","msl000395","motor","","75","img/motor_7.png","75","motor","7","201","1","0","0","",""
"null","","625521","HierDy9zct650c","mavjspfhsm","msl000395","iti","","null","img/motor_7.png","75","motor","","","","","","",""
"433","","625965","HierDy9zct650c","mavjspfhsm","msl000395","motor","","74","img/motor_6.png","74","motor","6","202","1","0","0","",""
"null","","626078","HierDy9zct650c","mavjspfhsm","msl000395","iti","","null","img/motor_6.png","74","motor","","","","","","",""
"403","","626491","HierDy9zct650c","mavjspfhsm","msl000395","motor","","75","img/motor_7.png","75","motor","7","203","1","0","0","",""
"null","","626604","HierDy9zct650c","mavjspfhsm","msl000395","iti","","null","img/motor_7.png","75","motor","","","","","","",""
"382","","626999","HierDy9zct650c","mavjspfhsm","msl000395","motor","","70","img/motor_3.png","68","motor","3","204","0","1","0","",""
"159","","627170","HierDy9zct650c","mavjspfhsm","msl000395","motorRepeat","","68","img/motor_3.png","68","motor","3","204","1","0","0","",""
"null","","627283","HierDy9zct650c","mavjspfhsm","msl000395","iti","","null","img/motor_3.png","68","motor","","","","","","",""
"531","","627826","HierDy9zct650c","mavjspfhsm","msl000395","motor","","72","img/motor_5.png","72","motor","5","205","1","0","0","",""
"null","","627938","HierDy9zct650c","mavjspfhsm","msl000395","iti","","null","img/motor_5.png","72","motor","","","","","","",""
"382","","628333","HierDy9zct650c","mavjspfhsm","msl000395","motor","","68","img/motor_3.png","68","motor","3","206","1","0","0","",""
"null","","628446","HierDy9zct650c","mavjspfhsm","msl000395","iti","","null","img/motor_3.png","68","motor","","","","","","",""
"492","","628951","HierDy9zct650c","mavjspfhsm","msl000395","motor","","75","img/motor_7.png","75","motor","7","207","1","0","0","",""
"null","","629063","HierDy9zct650c","mavjspfhsm","msl000395","iti","","null","img/motor_7.png","75","motor","","","","","","",""
"393","","629468","HierDy9zct650c","mavjspfhsm","msl000395","motor","","74","img/motor_5.png","72","motor","5","208","0","1","0","",""
"182","","629662","HierDy9zct650c","mavjspfhsm","msl000395","motorRepeat","","72","img/motor_5.png","72","motor","5","208","1","0","0","",""
"null","","629775","HierDy9zct650c","mavjspfhsm","msl000395","iti","","null","img/motor_5.png","72","motor","","","","","","",""
"417","","630206","HierDy9zct650c","mavjspfhsm","msl000395","motor","","76","img/motor_8.png","76","motor","8","209","1","0","0","",""
"null","","630319","HierDy9zct650c","mavjspfhsm","msl000395","iti","","null","img/motor_8.png","76","motor","","","","","","",""
"395","","630727","HierDy9zct650c","mavjspfhsm","msl000395","motor","","70","img/motor_4.png","70","motor","4","210","1","0","0","",""
"null","","630839","HierDy9zct650c","mavjspfhsm","msl000395","iti","","null","img/motor_4.png","70","motor","","","","","","",""
"427","","631279","HierDy9zct650c","mavjspfhsm","msl000395","motor","","74","img/motor_6.png","74","motor","6","211","1","0","0","",""
"null","","631392","HierDy9zct650c","mavjspfhsm","msl000395","iti","","null","img/motor_6.png","74","motor","","","","","","",""
"485","","631891","HierDy9zct650c","mavjspfhsm","msl000395","motor","","72","img/motor_5.png","72","motor","5","212","1","0","0","",""
"null","","632003","HierDy9zct650c","mavjspfhsm","msl000395","iti","","null","img/motor_5.png","72","motor","","","","","","",""
"352","","632368","HierDy9zct650c","mavjspfhsm","msl000395","motor","","72","img/motor_5.png","72","motor","5","213","1","0","0","",""
"null","","632480","HierDy9zct650c","mavjspfhsm","msl000395","iti","","null","img/motor_5.png","72","motor","","","","","","",""
"397","","632889","HierDy9zct650c","mavjspfhsm","msl000395","motor","","74","img/motor_6.png","74","motor","6","214","1","0","0","",""
"null","","633001","HierDy9zct650c","mavjspfhsm","msl000395","iti","","null","img/motor_6.png","74","motor","","","","","","",""
"502","","633517","HierDy9zct650c","mavjspfhsm","msl000395","motor","","68","img/motor_3.png","68","motor","3","215","1","0","0","",""
"null","","633629","HierDy9zct650c","mavjspfhsm","msl000395","iti","","null","img/motor_3.png","68","motor","","","","","","",""
"599","","634239","HierDy9zct650c","mavjspfhsm","msl000395","motor","","65","img/motor_1.png","65","motor","1","216","1","0","0","",""
"null","","634353","HierDy9zct650c","mavjspfhsm","msl000395","iti","","null","img/motor_1.png","65","motor","","","","","","",""
"562","","634926","HierDy9zct650c","mavjspfhsm","msl000395","motor","","75","img/motor_7.png","75","motor","7","217","1","0","0","",""
"null","","635038","HierDy9zct650c","mavjspfhsm","msl000395","iti","","null","img/motor_7.png","75","motor","","","","","","",""
"483","","635534","HierDy9zct650c","mavjspfhsm","msl000395","motor","","68","img/motor_3.png","68","motor","3","218","1","0","0","",""
"null","","635647","HierDy9zct650c","mavjspfhsm","msl000395","iti","","null","img/motor_3.png","68","motor","","","","","","",""
"381","","636040","HierDy9zct650c","mavjspfhsm","msl000395","motor","","70","img/motor_4.png","70","motor","4","219","1","0","0","",""
"null","","636153","HierDy9zct650c","mavjspfhsm","msl000395","iti","","null","img/motor_4.png","70","motor","","","","","","",""
"311","","636477","HierDy9zct650c","mavjspfhsm","msl000395","motor","","68","img/motor_3.png","68","motor","3","220","1","0","0","",""
"null","","636589","HierDy9zct650c","mavjspfhsm","msl000395","iti","","null","img/motor_3.png","68","motor","","","","","","",""
"410","","637011","HierDy9zct650c","mavjspfhsm","msl000395","motor","","70","img/motor_4.png","70","motor","4","221","1","0","0","",""
"null","","637124","HierDy9zct650c","mavjspfhsm","msl000395","iti","","null","img/motor_4.png","70","motor","","","","","","",""
"379","","637515","HierDy9zct650c","mavjspfhsm","msl000395","motor","","74","img/motor_6.png","74","motor","6","222","1","0","0","",""
"null","","637628","HierDy9zct650c","mavjspfhsm","msl000395","iti","","null","img/motor_6.png","74","motor","","","","","","",""
"461","","638101","HierDy9zct650c","mavjspfhsm","msl000395","motor","","75","img/motor_7.png","75","motor","7","223","1","0","0","",""
"null","","638213","HierDy9zct650c","mavjspfhsm","msl000395","iti","","null","img/motor_7.png","75","motor","","","","","","",""
"411","","638635","HierDy9zct650c","mavjspfhsm","msl000395","motor","","70","img/motor_4.png","70","motor","4","224","1","0","0","",""
"null","","638748","HierDy9zct650c","mavjspfhsm","msl000395","iti","","null","img/motor_4.png","70","motor","","","","","","",""
"398","","639160","HierDy9zct650c","mavjspfhsm","msl000395","motor","","83","img/motor_2.png","83","motor","2","225","1","0","0","",""
"null","","639273","HierDy9zct650c","mavjspfhsm","msl000395","iti","","null","img/motor_2.png","83","motor","","","","","","",""
"343","","639628","HierDy9zct650c","mavjspfhsm","msl000395","motor","","70","img/motor_4.png","70","motor","4","226","1","0","0","",""
"null","","639740","HierDy9zct650c","mavjspfhsm","msl000395","iti","","null","img/motor_4.png","70","motor","","","","","","",""
"377","","640129","HierDy9zct650c","mavjspfhsm","msl000395","motor","","72","img/motor_5.png","72","motor","5","227","1","0","0","",""
"null","","640242","HierDy9zct650c","mavjspfhsm","msl000395","iti","","null","img/motor_5.png","72","motor","","","","","","",""
"353","","640607","HierDy9zct650c","mavjspfhsm","msl000395","motor","","68","img/motor_4.png","70","motor","4","228","0","1","0","",""
"279","","640899","HierDy9zct650c","mavjspfhsm","msl000395","motorRepeat","","70","img/motor_4.png","70","motor","4","228","1","0","0","",""
"null","","641012","HierDy9zct650c","mavjspfhsm","msl000395","iti","","null","img/motor_4.png","70","motor","","","","","","",""
"347","","641370","HierDy9zct650c","mavjspfhsm","msl000395","motor","","72","img/motor_5.png","72","motor","5","229","1","0","0","",""
"null","","641483","HierDy9zct650c","mavjspfhsm","msl000395","iti","","null","img/motor_5.png","72","motor","","","","","","",""
"271","","641767","HierDy9zct650c","mavjspfhsm","msl000395","motor","","70","img/motor_4.png","70","motor","4","230","1","0","0","",""
"null","","641879","HierDy9zct650c","mavjspfhsm","msl000395","iti","","null","img/motor_4.png","70","motor","","","","","","",""
"333","","642224","HierDy9zct650c","mavjspfhsm","msl000395","motor","","76","img/motor_8.png","76","motor","8","231","1","0","0","",""
"null","","642337","HierDy9zct650c","mavjspfhsm","msl000395","iti","","null","img/motor_8.png","76","motor","","","","","","",""
"433","","642783","HierDy9zct650c","mavjspfhsm","msl000395","motor","","65","img/motor_1.png","65","motor","1","232","1","0","0","",""
"null","","642895","HierDy9zct650c","mavjspfhsm","msl000395","iti","","null","img/motor_1.png","65","motor","","","","","","",""
"299","","643206","HierDy9zct650c","mavjspfhsm","msl000395","motor","","76","img/motor_6.png","74","motor","6","233","0","1","0","",""
"215","","643434","HierDy9zct650c","mavjspfhsm","msl000395","motorRepeat","","74","img/motor_6.png","74","motor","6","233","1","0","0","",""
"null","","643546","HierDy9zct650c","mavjspfhsm","msl000395","iti","","null","img/motor_6.png","74","motor","","","","","","",""
"535","","644094","HierDy9zct650c","mavjspfhsm","msl000395","motor","","65","img/motor_1.png","65","motor","1","234","1","0","0","",""
"null","","644207","HierDy9zct650c","mavjspfhsm","msl000395","iti","","null","img/motor_1.png","65","motor","","","","","","",""
"430","","644648","HierDy9zct650c","mavjspfhsm","msl000395","motor","","70","img/motor_4.png","70","motor","4","235","1","0","0","",""
"null","","644761","HierDy9zct650c","mavjspfhsm","msl000395","iti","","null","img/motor_4.png","70","motor","","","","","","",""
"446","","645218","HierDy9zct650c","mavjspfhsm","msl000395","motor","","76","img/motor_8.png","76","motor","8","236","1","0","0","",""
"null","","645331","HierDy9zct650c","mavjspfhsm","msl000395","iti","","null","img/motor_8.png","76","motor","","","","","","",""
"440","","645783","HierDy9zct650c","mavjspfhsm","msl000395","motor","","65","img/motor_1.png","65","motor","1","237","1","0","0","",""
"null","","645895","HierDy9zct650c","mavjspfhsm","msl000395","iti","","null","img/motor_1.png","65","motor","","","","","","",""
"355","","646263","HierDy9zct650c","mavjspfhsm","msl000395","motor","","65","img/motor_1.png","65","motor","1","238","1","0","0","",""
"null","","646376","HierDy9zct650c","mavjspfhsm","msl000395","iti","","null","img/motor_1.png","65","motor","","","","","","",""
"371","","646760","HierDy9zct650c","mavjspfhsm","msl000395","motor","","74","img/motor_7.png","75","motor","7","239","0","1","0","",""
"169","","646939","HierDy9zct650c","mavjspfhsm","msl000395","motorRepeat","","75","img/motor_7.png","75","motor","7","239","1","0","0","",""
"null","","647054","HierDy9zct650c","mavjspfhsm","msl000395","iti","","null","img/motor_7.png","75","motor","","","","","","",""
"431","","647501","HierDy9zct650c","mavjspfhsm","msl000395","motor","","74","img/motor_6.png","74","motor","6","240","1","0","0","",""
"null","","647613","HierDy9zct650c","mavjspfhsm","msl000395","iti","","null","img/motor_6.png","74","motor","","","","","","",""
"278","","647904","HierDy9zct650c","mavjspfhsm","msl000395","motor","","75","img/motor_8.png","76","motor","8","241","0","1","0","",""
"195","","648111","HierDy9zct650c","mavjspfhsm","msl000395","motorRepeat","","76","img/motor_8.png","76","motor","8","241","1","0","0","",""
"null","","648224","HierDy9zct650c","mavjspfhsm","msl000395","iti","","null","img/motor_8.png","76","motor","","","","","","",""
"465","","648701","HierDy9zct650c","mavjspfhsm","msl000395","motor","","70","img/motor_4.png","70","motor","4","242","1","0","0","",""
"null","","648814","HierDy9zct650c","mavjspfhsm","msl000395","iti","","null","img/motor_4.png","70","motor","","","","","","",""
"333","","649160","HierDy9zct650c","mavjspfhsm","msl000395","motor","","68","img/motor_3.png","68","motor","3","243","1","0","0","",""
"null","","649273","HierDy9zct650c","mavjspfhsm","msl000395","iti","","null","img/motor_3.png","68","motor","","","","","","",""
"547","","649832","HierDy9zct650c","mavjspfhsm","msl000395","motor","","65","img/motor_1.png","65","motor","1","244","1","0","0","",""
"null","","649945","HierDy9zct650c","mavjspfhsm","msl000395","iti","","null","img/motor_1.png","65","motor","","","","","","",""
"345","","650303","HierDy9zct650c","mavjspfhsm","msl000395","motor","","76","img/motor_8.png","76","motor","8","245","1","0","0","",""
"null","","650416","HierDy9zct650c","mavjspfhsm","msl000395","iti","","null","img/motor_8.png","76","motor","","","","","","",""
"361","","650789","HierDy9zct650c","mavjspfhsm","msl000395","motor","","68","img/motor_3.png","68","motor","3","246","1","0","0","",""
"null","","650902","HierDy9zct650c","mavjspfhsm","msl000395","iti","","null","img/motor_3.png","68","motor","","","","","","",""
"426","","651340","HierDy9zct650c","mavjspfhsm","msl000395","motor","","72","img/motor_5.png","72","motor","5","247","1","0","0","",""
"null","","651456","HierDy9zct650c","mavjspfhsm","msl000395","iti","","null","img/motor_5.png","72","motor","","","","","","",""
"610","","652082","HierDy9zct650c","mavjspfhsm","msl000395","motor","","65","img/motor_1.png","65","motor","1","248","1","0","0","",""
"null","","652196","HierDy9zct650c","mavjspfhsm","msl000395","iti","","null","img/motor_1.png","65","motor","","","","","","",""
"464","","652673","HierDy9zct650c","mavjspfhsm","msl000395","motor","","68","img/motor_3.png","68","motor","3","249","1","0","0","",""
"null","","652786","HierDy9zct650c","mavjspfhsm","msl000395","iti","","null","img/motor_3.png","68","motor","","","","","","",""
"343","","653143","HierDy9zct650c","mavjspfhsm","msl000395","motor","","76","img/motor_8.png","76","motor","8","250","1","0","0","",""
"null","","653256","HierDy9zct650c","mavjspfhsm","msl000395","iti","","null","img/motor_8.png","76","motor","","","","","","",""
"532","","653800","HierDy9zct650c","mavjspfhsm","msl000395","motor","","70","img/motor_4.png","70","motor","4","251","1","0","0","",""
"null","","653913","HierDy9zct650c","mavjspfhsm","msl000395","iti","","null","img/motor_4.png","70","motor","","","","","","",""
"653","","654579","HierDy9zct650c","mavjspfhsm","msl000395","motor","","83","img/motor_2.png","83","motor","2","252","1","0","0","",""
"null","","654692","HierDy9zct650c","mavjspfhsm","msl000395","iti","","null","img/motor_2.png","83","motor","","","","","","",""
"384","","655090","HierDy9zct650c","mavjspfhsm","msl000395","motor","","65","img/motor_1.png","65","motor","1","253","1","0","0","",""
"null","","655202","HierDy9zct650c","mavjspfhsm","msl000395","iti","","null","img/motor_1.png","65","motor","","","","","","",""
"368","","655582","HierDy9zct650c","mavjspfhsm","msl000395","motor","","65","img/motor_1.png","65","motor","1","254","1","0","0","",""
"null","","655696","HierDy9zct650c","mavjspfhsm","msl000395","iti","","null","img/motor_1.png","65","motor","","","","","","",""
"495","","656203","HierDy9zct650c","mavjspfhsm","msl000395","motor","","83","img/motor_3.png","68","motor","3","255","0","1","0","",""
"203","","656420","HierDy9zct650c","mavjspfhsm","msl000395","motorRepeat","","68","img/motor_3.png","68","motor","3","255","1","0","0","",""
"null","","656533","HierDy9zct650c","mavjspfhsm","msl000395","iti","","null","img/motor_3.png","68","motor","","","","","","",""
"362","","656907","HierDy9zct650c","mavjspfhsm","msl000395","motor","","65","img/motor_1.png","65","motor","1","256","1","0","0","",""
"null","","657019","HierDy9zct650c","mavjspfhsm","msl000395","iti","","null","img/motor_1.png","65","motor","","","","","","",""
"371","","657402","HierDy9zct650c","mavjspfhsm","msl000395","motor","","76","img/motor_7.png","75","motor","7","257","0","1","0","",""
"179","","657594","HierDy9zct650c","mavjspfhsm","msl000395","motorRepeat","","75","img/motor_7.png","75","motor","7","257","1","0","0","",""
"null","","657706","HierDy9zct650c","mavjspfhsm","msl000395","iti","","null","img/motor_7.png","75","motor","","","","","","",""
"520","","658237","HierDy9zct650c","mavjspfhsm","msl000395","motor","","76","img/motor_8.png","76","motor","8","258","1","0","0","",""
"null","","658350","HierDy9zct650c","mavjspfhsm","msl000395","iti","","null","img/motor_8.png","76","motor","","","","","","",""
"303","","658665","HierDy9zct650c","mavjspfhsm","msl000395","motor","","76","img/motor_8.png","76","motor","8","259","1","0","0","",""
"null","","658779","HierDy9zct650c","mavjspfhsm","msl000395","iti","","null","img/motor_8.png","76","motor","","","","","","",""
"408","","659199","HierDy9zct650c","mavjspfhsm","msl000395","motor","","68","img/motor_2.png","83","motor","2","260","0","1","0","",""
"269","","659481","HierDy9zct650c","mavjspfhsm","msl000395","motorRepeat","","83","img/motor_2.png","83","motor","2","260","1","0","0","",""
"null","","659593","HierDy9zct650c","mavjspfhsm","msl000395","iti","","null","img/motor_2.png","83","motor","","","","","","",""
"483","","660088","HierDy9zct650c","mavjspfhsm","msl000395","motor","","65","img/motor_1.png","65","motor","1","261","1","0","0","",""
"null","","660201","HierDy9zct650c","mavjspfhsm","msl000395","iti","","null","img/motor_1.png","65","motor","","","","","","",""
"478","","660690","HierDy9zct650c","mavjspfhsm","msl000395","motor","","72","img/motor_5.png","72","motor","5","262","1","0","0","",""
"null","","660803","HierDy9zct650c","mavjspfhsm","msl000395","iti","","null","img/motor_5.png","72","motor","","","","","","",""
"372","","661187","HierDy9zct650c","mavjspfhsm","msl000395","motor","","76","img/motor_8.png","76","motor","8","263","1","0","0","",""
"null","","661300","HierDy9zct650c","mavjspfhsm","msl000395","iti","","null","img/motor_8.png","76","motor","","","","","","",""
"396","","661709","HierDy9zct650c","mavjspfhsm","msl000395","motor","","72","img/motor_5.png","72","motor","5","264","1","0","0","",""
"null","","661821","HierDy9zct650c","mavjspfhsm","msl000395","iti","","null","img/motor_5.png","72","motor","","","","","","",""
"414","","662247","HierDy9zct650c","mavjspfhsm","msl000395","motor","","65","img/motor_1.png","65","motor","1","265","1","0","0","",""
"null","","662359","HierDy9zct650c","mavjspfhsm","msl000395","iti","","null","img/motor_1.png","65","motor","","","","","","",""
"370","","662742","HierDy9zct650c","mavjspfhsm","msl000395","motor","","76","img/motor_8.png","76","motor","8","266","1","0","0","",""
"null","","662856","HierDy9zct650c","mavjspfhsm","msl000395","iti","","null","img/motor_8.png","76","motor","","","","","","",""
"307","","663174","HierDy9zct650c","mavjspfhsm","msl000395","motor","","74","img/motor_6.png","74","motor","6","267","1","0","0","",""
"null","","663287","HierDy9zct650c","mavjspfhsm","msl000395","iti","","null","img/motor_6.png","74","motor","","","","","","",""
"317","","663615","HierDy9zct650c","mavjspfhsm","msl000395","motor","","74","img/motor_6.png","74","motor","6","268","1","0","0","",""
"null","","663729","HierDy9zct650c","mavjspfhsm","msl000395","iti","","null","img/motor_6.png","74","motor","","","","","","",""
"480","","664222","HierDy9zct650c","mavjspfhsm","msl000395","motor","","68","img/motor_3.png","68","motor","3","269","1","0","0","",""
"null","","664336","HierDy9zct650c","mavjspfhsm","msl000395","iti","","null","img/motor_3.png","68","motor","","","","","","",""
"371","","664719","HierDy9zct650c","mavjspfhsm","msl000395","motor","","74","img/motor_6.png","74","motor","6","270","1","0","0","",""
"null","","664834","HierDy9zct650c","mavjspfhsm","msl000395","iti","","null","img/motor_6.png","74","motor","","","","","","",""
"303","","665149","HierDy9zct650c","mavjspfhsm","msl000395","motor","","68","img/motor_5.png","72","motor","5","271","0","1","0","",""
"216","","665377","HierDy9zct650c","mavjspfhsm","msl000395","motorRepeat","","72","img/motor_5.png","72","motor","5","271","1","0","0","",""
"null","","665490","HierDy9zct650c","mavjspfhsm","msl000395","iti","","null","img/motor_5.png","72","motor","","","","","","",""
"325","","665828","HierDy9zct650c","mavjspfhsm","msl000395","motor","","68","img/motor_4.png","70","motor","4","272","0","1","0","",""
"269","","666109","HierDy9zct650c","mavjspfhsm","msl000395","motorRepeat","","70","img/motor_4.png","70","motor","4","272","1","0","0","",""
"null","","666222","HierDy9zct650c","mavjspfhsm","msl000395","iti","","null","img/motor_4.png","70","motor","","","","","","",""
"475","","666710","HierDy9zct650c","mavjspfhsm","msl000395","motor","","83","img/motor_2.png","83","motor","2","273","1","0","0","",""
"null","","666825","HierDy9zct650c","mavjspfhsm","msl000395","iti","","null","img/motor_2.png","83","motor","","","","","","",""
"368","","667209","HierDy9zct650c","mavjspfhsm","msl000395","motor","","74","img/motor_6.png","74","motor","6","274","1","0","0","",""
"null","","667323","HierDy9zct650c","mavjspfhsm","msl000395","iti","","null","img/motor_6.png","74","motor","","","","","","",""
"359","","667694","HierDy9zct650c","mavjspfhsm","msl000395","motor","","68","img/motor_5.png","72","motor","5","275","0","1","0","",""
"213","","667920","HierDy9zct650c","mavjspfhsm","msl000395","motorRepeat","","72","img/motor_5.png","72","motor","5","275","1","0","0","",""
"null","","668032","HierDy9zct650c","mavjspfhsm","msl000395","iti","","null","img/motor_5.png","72","motor","","","","","","",""
"437","","668483","HierDy9zct650c","mavjspfhsm","msl000395","motor","","83","img/motor_2.png","83","motor","2","276","1","0","0","",""
"null","","668595","HierDy9zct650c","mavjspfhsm","msl000395","iti","","null","img/motor_2.png","83","motor","","","","","","",""
"834","","669443","HierDy9zct650c","mavjspfhsm","msl000395","motor","","75","img/motor_7.png","75","motor","7","277","1","0","0","",""
"null","","669556","HierDy9zct650c","mavjspfhsm","msl000395","iti","","null","img/motor_7.png","75","motor","","","","","","",""
"320","","669889","HierDy9zct650c","mavjspfhsm","msl000395","motor","","76","img/motor_8.png","76","motor","8","278","1","0","0","",""
"null","","670002","HierDy9zct650c","mavjspfhsm","msl000395","iti","","null","img/motor_8.png","76","motor","","","","","","",""
"411","","670426","HierDy9zct650c","mavjspfhsm","msl000395","motor","","75","img/motor_7.png","75","motor","7","279","1","0","0","",""
"null","","670538","HierDy9zct650c","mavjspfhsm","msl000395","iti","","null","img/motor_7.png","75","motor","","","","","","",""
"340","","670891","HierDy9zct650c","mavjspfhsm","msl000395","motor","","74","img/motor_6.png","74","motor","6","280","1","0","0","",""
"null","","671004","HierDy9zct650c","mavjspfhsm","msl000395","iti","","null","img/motor_6.png","74","motor","","","","","","",""
"355","","671371","HierDy9zct650c","mavjspfhsm","msl000395","motor","","83","img/motor_4.png","70","motor","4","281","0","1","0","",""
"216","","671600","HierDy9zct650c","mavjspfhsm","msl000395","motorRepeat","","70","img/motor_4.png","70","motor","4","281","1","0","0","",""
"null","","671713","HierDy9zct650c","mavjspfhsm","msl000395","iti","","null","img/motor_4.png","70","motor","","","","","","",""
"537","","672261","HierDy9zct650c","mavjspfhsm","msl000395","motor","","83","img/motor_2.png","83","motor","2","282","1","0","0","",""
"null","","672374","HierDy9zct650c","mavjspfhsm","msl000395","iti","","null","img/motor_2.png","83","motor","","","","","","",""
"511","","672899","HierDy9zct650c","mavjspfhsm","msl000395","motor","","76","img/motor_8.png","76","motor","8","283","1","0","0","",""
"null","","673012","HierDy9zct650c","mavjspfhsm","msl000395","iti","","null","img/motor_8.png","76","motor","","","","","","",""
"396","","673421","HierDy9zct650c","mavjspfhsm","msl000395","motor","","83","img/motor_2.png","83","motor","2","284","1","0","0","",""
"null","","673536","HierDy9zct650c","mavjspfhsm","msl000395","iti","","null","img/motor_2.png","83","motor","","","","","","",""
"390","","673937","HierDy9zct650c","mavjspfhsm","msl000395","motor","","70","img/motor_4.png","70","motor","4","285","1","0","0","",""
"null","","674049","HierDy9zct650c","mavjspfhsm","msl000395","iti","","null","img/motor_4.png","70","motor","","","","","","",""
"352","","674414","HierDy9zct650c","mavjspfhsm","msl000395","motor","","70","img/motor_4.png","70","motor","4","286","1","0","0","",""
"null","","674527","HierDy9zct650c","mavjspfhsm","msl000395","iti","","null","img/motor_4.png","70","motor","","","","","","",""
"441","","674981","HierDy9zct650c","mavjspfhsm","msl000395","motor","","68","img/motor_3.png","68","motor","3","287","1","0","0","",""
"null","","675094","HierDy9zct650c","mavjspfhsm","msl000395","iti","","null","img/motor_3.png","68","motor","","","","","","",""
"373","","675479","HierDy9zct650c","mavjspfhsm","msl000395","motor","","70","img/motor_4.png","70","motor","4","288","1","0","0","",""
"null","","675592","HierDy9zct650c","mavjspfhsm","msl000395","iti","","null","img/motor_4.png","70","motor","","","","","","",""
"432","","676037","HierDy9zct650c","mavjspfhsm","msl000395","motor","","74","img/motor_7.png","75","motor","7","289","0","1","0","",""
"107","","676157","HierDy9zct650c","mavjspfhsm","msl000395","motorRepeat","","75","img/motor_7.png","75","motor","7","289","1","0","0","",""
"null","","676271","HierDy9zct650c","mavjspfhsm","msl000395","iti","","null","img/motor_7.png","75","motor","","","","","","",""
"467","","676752","HierDy9zct650c","mavjspfhsm","msl000395","motor","","72","img/motor_5.png","72","motor","5","290","1","0","0","",""
"null","","676865","HierDy9zct650c","mavjspfhsm","msl000395","iti","","null","img/motor_5.png","72","motor","","","","","","",""
"472","","677351","HierDy9zct650c","mavjspfhsm","msl000395","motor","","68","img/motor_3.png","68","motor","3","291","1","0","0","",""
"null","","677464","HierDy9zct650c","mavjspfhsm","msl000395","iti","","null","img/motor_3.png","68","motor","","","","","","",""
"350","","677827","HierDy9zct650c","mavjspfhsm","msl000395","motor","","76","img/motor_8.png","76","motor","8","292","1","0","0","",""
"null","","677939","HierDy9zct650c","mavjspfhsm","msl000395","iti","","null","img/motor_8.png","76","motor","","","","","","",""
"403","","678355","HierDy9zct650c","mavjspfhsm","msl000395","motor","","68","img/motor_3.png","68","motor","3","293","1","0","0","",""
"null","","678468","HierDy9zct650c","mavjspfhsm","msl000395","iti","","null","img/motor_3.png","68","motor","","","","","","",""
"451","","678932","HierDy9zct650c","mavjspfhsm","msl000395","motor","","83","img/motor_2.png","83","motor","2","294","1","0","0","",""
"null","","679044","HierDy9zct650c","mavjspfhsm","msl000395","iti","","null","img/motor_2.png","83","motor","","","","","","",""
"491","","679548","HierDy9zct650c","mavjspfhsm","msl000395","motor","","74","img/motor_7.png","75","motor","7","295","0","1","0","",""
"150","","679710","HierDy9zct650c","mavjspfhsm","msl000395","motorRepeat","","75","img/motor_7.png","75","motor","7","295","1","0","0","",""
"null","","679822","HierDy9zct650c","mavjspfhsm","msl000395","iti","","null","img/motor_7.png","75","motor","","","","","","",""
"517","","680353","HierDy9zct650c","mavjspfhsm","msl000395","motor","","65","img/motor_1.png","65","motor","1","296","1","0","0","",""
"null","","680465","HierDy9zct650c","mavjspfhsm","msl000395","iti","","null","img/motor_1.png","65","motor","","","","","","",""
"350","","680826","HierDy9zct650c","mavjspfhsm","msl000395","motor","","70","img/motor_4.png","70","motor","4","297","1","0","0","",""
"null","","680941","HierDy9zct650c","mavjspfhsm","msl000395","iti","","null","img/motor_4.png","70","motor","","","","","","",""
"362","","681315","HierDy9zct650c","mavjspfhsm","msl000395","motor","","65","img/motor_1.png","65","motor","1","298","1","0","0","",""
"null","","681428","HierDy9zct650c","mavjspfhsm","msl000395","iti","","null","img/motor_1.png","65","motor","","","","","","",""
"390","","681830","HierDy9zct650c","mavjspfhsm","msl000395","motor","","72","img/motor_5.png","72","motor","5","299","1","0","0","",""
"null","","681944","HierDy9zct650c","mavjspfhsm","msl000395","iti","","null","img/motor_5.png","72","motor","","","","","","",""
"476","","682433","HierDy9zct650c","mavjspfhsm","msl000395","motor","","65","img/motor_1.png","65","motor","1","300","1","0","0","",""
"null","","682545","HierDy9zct650c","mavjspfhsm","msl000395","iti","","null","img/motor_1.png","65","motor","","","","","","",""
"498","","683056","HierDy9zct650c","mavjspfhsm","msl000395","motor","","83","img/motor_2.png","83","motor","2","301","1","0","0","",""
"null","","683170","HierDy9zct650c","mavjspfhsm","msl000395","iti","","null","img/motor_2.png","83","motor","","","","","","",""
"381","","683564","HierDy9zct650c","mavjspfhsm","msl000395","motor","","76","img/motor_8.png","76","motor","8","302","1","0","0","",""
"null","","683677","HierDy9zct650c","mavjspfhsm","msl000395","iti","","null","img/motor_8.png","76","motor","","","","","","",""
"409","","684099","HierDy9zct650c","mavjspfhsm","msl000395","motor","","72","img/motor_4.png","70","motor","4","303","0","1","0","",""
"168","","684280","HierDy9zct650c","mavjspfhsm","msl000395","motorRepeat","","70","img/motor_4.png","70","motor","4","303","1","0","0","",""
"null","","684394","HierDy9zct650c","mavjspfhsm","msl000395","iti","","null","img/motor_4.png","70","motor","","","","","","",""
"371","","684778","HierDy9zct650c","mavjspfhsm","msl000395","motor","","76","img/motor_8.png","76","motor","8","304","1","0","0","",""
"null","","684892","HierDy9zct650c","mavjspfhsm","msl000395","iti","","null","img/motor_8.png","76","motor","","","","","","",""
"440","","685345","HierDy9zct650c","mavjspfhsm","msl000395","motor","","75","img/motor_6.png","74","motor","6","305","0","1","0","",""
"77","","685434","HierDy9zct650c","mavjspfhsm","msl000395","motorRepeat","","74","img/motor_6.png","74","motor","6","305","1","0","0","",""
"null","","685547","HierDy9zct650c","mavjspfhsm","msl000395","iti","","null","img/motor_6.png","74","motor","","","","","","",""
"422","","685982","HierDy9zct650c","mavjspfhsm","msl000395","motor","","76","img/motor_8.png","76","motor","8","306","1","0","0","",""
"null","","686095","HierDy9zct650c","mavjspfhsm","msl000395","iti","","null","img/motor_8.png","76","motor","","","","","","",""
"844","","686952","HierDy9zct650c","mavjspfhsm","msl000395","motor","","75","img/motor_6.png","74","motor","6","307","0","1","0","",""
"328","","687291","HierDy9zct650c","mavjspfhsm","msl000395","motorRepeat","","74","img/motor_6.png","74","motor","6","307","1","0","0","",""
"null","","687405","HierDy9zct650c","mavjspfhsm","msl000395","iti","","null","img/motor_6.png","74","motor","","","","","","",""
"325","","687743","HierDy9zct650c","mavjspfhsm","msl000395","motor","","76","img/motor_7.png","75","motor","7","308","0","1","0","",""
"79","","687835","HierDy9zct650c","mavjspfhsm","msl000395","motorRepeat","","74","img/motor_7.png","75","motor","7","308","0","1","0","",""
"107","","687955","HierDy9zct650c","mavjspfhsm","msl000395","motorRepeat","","75","img/motor_7.png","75","motor","7","308","1","0","0","",""
"null","","688067","HierDy9zct650c","mavjspfhsm","msl000395","iti","","null","img/motor_7.png","75","motor","","","","","","",""
"366","","688446","HierDy9zct650c","mavjspfhsm","msl000395","motor","","70","img/motor_4.png","70","motor","4","309","1","0","0","",""
"null","","688559","HierDy9zct650c","mavjspfhsm","msl000395","iti","","null","img/motor_4.png","70","motor","","","","","","",""
"500","","689072","HierDy9zct650c","mavjspfhsm","msl000395","motor","","76","img/motor_8.png","76","motor","8","310","1","0","0","",""
"null","","689186","HierDy9zct650c","mavjspfhsm","msl000395","iti","","null","img/motor_8.png","76","motor","","","","","","",""
"415","","689614","HierDy9zct650c","mavjspfhsm","msl000395","motor","","83","img/motor_2.png","83","motor","2","311","1","0","0","",""
"null","","689727","HierDy9zct650c","mavjspfhsm","msl000395","iti","","null","img/motor_2.png","83","motor","","","","","","",""
"418","","690157","HierDy9zct650c","mavjspfhsm","msl000395","motor","","68","img/motor_3.png","68","motor","3","312","1","0","0","",""
"null","","690270","HierDy9zct650c","mavjspfhsm","msl000395","iti","","null","img/motor_3.png","68","motor","","","","","","",""
"452","","690734","HierDy9zct650c","mavjspfhsm","msl000395","motor","","83","img/motor_2.png","83","motor","2","313","1","0","0","",""
"null","","690846","HierDy9zct650c","mavjspfhsm","msl000395","iti","","null","img/motor_2.png","83","motor","","","","","","",""
"401","","691261","HierDy9zct650c","mavjspfhsm","msl000395","motor","","76","img/motor_8.png","76","motor","8","314","1","0","0","",""
"null","","691372","HierDy9zct650c","mavjspfhsm","msl000395","iti","","null","img/motor_8.png","76","motor","","","","","","",""
"544","","691929","HierDy9zct650c","mavjspfhsm","msl000395","motor","","72","img/motor_5.png","72","motor","5","315","1","0","0","",""
"null","","692042","HierDy9zct650c","mavjspfhsm","msl000395","iti","","null","img/motor_5.png","72","motor","","","","","","",""
"571","","692625","HierDy9zct650c","mavjspfhsm","msl000395","motor","","70","img/motor_3.png","68","motor","3","316","0","1","0","",""
"144","","692780","HierDy9zct650c","mavjspfhsm","msl000395","motorRepeat","","68","img/motor_3.png","68","motor","3","316","1","0","0","",""
"null","","692892","HierDy9zct650c","mavjspfhsm","msl000395","iti","","null","img/motor_3.png","68","motor","","","","","","",""
"454","","693358","HierDy9zct650c","mavjspfhsm","msl000395","motor","","83","img/motor_2.png","83","motor","2","317","1","0","0","",""
"null","","693471","HierDy9zct650c","mavjspfhsm","msl000395","iti","","null","img/motor_2.png","83","motor","","","","","","",""
"286","","693768","HierDy9zct650c","mavjspfhsm","msl000395","motor","","76","img/motor_8.png","76","motor","8","318","1","0","0","",""
"null","","693882","HierDy9zct650c","mavjspfhsm","msl000395","iti","","null","img/motor_8.png","76","motor","","","","","","",""
"471","","694365","HierDy9zct650c","mavjspfhsm","msl000395","motor","","75","img/motor_7.png","75","motor","7","319","1","0","0","",""
"null","","694477","HierDy9zct650c","mavjspfhsm","msl000395","iti","","null","img/motor_7.png","75","motor","","","","","","",""
"464","","694953","HierDy9zct650c","mavjspfhsm","msl000395","motor","","70","img/motor_4.png","70","motor","4","320","1","0","0","",""
"null","","695067","HierDy9zct650c","mavjspfhsm","msl000395","iti","","null","img/motor_4.png","70","motor","","","","","","",""
"386","","695464","HierDy9zct650c","mavjspfhsm","msl000395","motor","","68","img/motor_3.png","68","motor","3","321","1","0","0","",""
"null","","695576","HierDy9zct650c","mavjspfhsm","msl000395","iti","","null","img/motor_3.png","68","motor","","","","","","",""
"292","","695882","HierDy9zct650c","mavjspfhsm","msl000395","motor","","76","img/motor_7.png","75","motor","7","322","0","1","0","",""
"239","","696133","HierDy9zct650c","mavjspfhsm","msl000395","motorRepeat","","75","img/motor_7.png","75","motor","7","322","1","0","0","",""
"null","","696246","HierDy9zct650c","mavjspfhsm","msl000395","iti","","null","img/motor_7.png","75","motor","","","","","","",""
"313","","696572","HierDy9zct650c","mavjspfhsm","msl000395","motor","","75","img/motor_7.png","75","motor","7","323","1","0","0","",""
"null","","696684","HierDy9zct650c","mavjspfhsm","msl000395","iti","","null","img/motor_7.png","75","motor","","","","","","",""
"356","","697051","HierDy9zct650c","mavjspfhsm","msl000395","motor","","65","img/motor_1.png","65","motor","1","324","1","0","0","",""
"null","","697165","HierDy9zct650c","mavjspfhsm","msl000395","iti","","null","img/motor_1.png","65","motor","","","","","","",""
"434","","697613","HierDy9zct650c","mavjspfhsm","msl000395","motor","","72","img/motor_6.png","74","motor","6","325","0","1","0","",""
"214","","697840","HierDy9zct650c","mavjspfhsm","msl000395","motorRepeat","","74","img/motor_6.png","74","motor","6","325","1","0","0","",""
"null","","697954","HierDy9zct650c","mavjspfhsm","msl000395","iti","","null","img/motor_6.png","74","motor","","","","","","",""
"480","","698446","HierDy9zct650c","mavjspfhsm","msl000395","motor","","68","img/motor_4.png","70","motor","4","326","0","1","0","",""
"214","","698673","HierDy9zct650c","mavjspfhsm","msl000395","motorRepeat","","70","img/motor_4.png","70","motor","4","326","1","0","0","",""
"null","","698786","HierDy9zct650c","mavjspfhsm","msl000395","iti","","null","img/motor_4.png","70","motor","","","","","","",""
"421","","699219","HierDy9zct650c","mavjspfhsm","msl000395","motor","","72","img/motor_5.png","72","motor","5","327","1","0","0","",""
"null","","699333","HierDy9zct650c","mavjspfhsm","msl000395","iti","","null","img/motor_5.png","72","motor","","","","","","",""
"434","","699779","HierDy9zct650c","mavjspfhsm","msl000395","motor","","65","img/motor_1.png","65","motor","1","328","1","0","0","",""
"null","","699893","HierDy9zct650c","mavjspfhsm","msl000395","iti","","null","img/motor_1.png","65","motor","","","","","","",""
"477","","700382","HierDy9zct650c","mavjspfhsm","msl000395","motor","","74","img/motor_6.png","74","motor","6","329","1","0","0","",""
"null","","700495","HierDy9zct650c","mavjspfhsm","msl000395","iti","","null","img/motor_6.png","74","motor","","","","","","",""
"307","","700813","HierDy9zct650c","mavjspfhsm","msl000395","motor","","74","img/motor_6.png","74","motor","6","330","1","0","0","",""
"null","","700926","HierDy9zct650c","mavjspfhsm","msl000395","iti","","null","img/motor_6.png","74","motor","","","","","","",""
"473","","701412","HierDy9zct650c","mavjspfhsm","msl000395","motor","","70","img/motor_4.png","70","motor","4","331","1","0","0","",""
"null","","701525","HierDy9zct650c","mavjspfhsm","msl000395","iti","","null","img/motor_4.png","70","motor","","","","","","",""
"341","","701879","HierDy9zct650c","mavjspfhsm","msl000395","motor","","74","img/motor_6.png","74","motor","6","332","1","0","0","",""
"null","","701991","HierDy9zct650c","mavjspfhsm","msl000395","iti","","null","img/motor_6.png","74","motor","","","","","","",""
"464","","702467","HierDy9zct650c","mavjspfhsm","msl000395","motor","","83","img/motor_3.png","68","motor","3","333","0","1","0","",""
"196","","702676","HierDy9zct650c","mavjspfhsm","msl000395","motorRepeat","","68","img/motor_3.png","68","motor","3","333","1","0","0","",""
"null","","702788","HierDy9zct650c","mavjspfhsm","msl000395","iti","","null","img/motor_3.png","68","motor","","","","","","",""
"378","","703179","HierDy9zct650c","mavjspfhsm","msl000395","motor","","70","img/motor_4.png","70","motor","4","334","1","0","0","",""
"null","","703294","HierDy9zct650c","mavjspfhsm","msl000395","iti","","null","img/motor_4.png","70","motor","","","","","","",""
"511","","703817","HierDy9zct650c","mavjspfhsm","msl000395","motor","","70","img/motor_1.png","65","motor","1","335","0","1","0","",""
"279","","704108","HierDy9zct650c","mavjspfhsm","msl000395","motorRepeat","","68","img/motor_1.png","65","motor","1","335","0","1","0","",""
"68","","704189","HierDy9zct650c","mavjspfhsm","msl000395","motorRepeat","","65","img/motor_1.png","65","motor","1","335","1","0","0","",""
"null","","704304","HierDy9zct650c","mavjspfhsm","msl000395","iti","","null","img/motor_1.png","65","motor","","","","","","",""
"715","","705030","HierDy9zct650c","mavjspfhsm","msl000395","motor","","75","img/motor_7.png","75","motor","7","336","1","0","0","",""
"null","","705145","HierDy9zct650c","mavjspfhsm","msl000395","iti","","null","img/motor_7.png","75","motor","","","","","","",""
"489","","705646","HierDy9zct650c","mavjspfhsm","msl000395","motor","","72","img/motor_5.png","72","motor","5","337","1","0","0","",""
"null","","705760","HierDy9zct650c","mavjspfhsm","msl000395","iti","","null","img/motor_5.png","72","motor","","","","","","",""
"613","","706385","HierDy9zct650c","mavjspfhsm","msl000395","motor","","83","img/motor_2.png","83","motor","2","338","1","0","0","",""
"null","","706500","HierDy9zct650c","mavjspfhsm","msl000395","iti","","null","img/motor_2.png","83","motor","","","","","","",""
"344","","706856","HierDy9zct650c","mavjspfhsm","msl000395","motor","","83","img/motor_2.png","83","motor","2","339","1","0","0","",""
"null","","706969","HierDy9zct650c","mavjspfhsm","msl000395","iti","","null","img/motor_2.png","83","motor","","","","","","",""
"537","","707519","HierDy9zct650c","mavjspfhsm","msl000395","motor","","68","img/motor_3.png","68","motor","3","340","1","0","0","",""
