"rt","responses","time_elapsed","subject","prolificID","demoID","trialType","question_order","key_press","stim","corrresp","phase","stimNum","trialNum","corr","repeatTrial","motorSwitch","pracCounter","hierarchy"
"8116","{""Q0"":""ms1000356""}","8142","HierDyxt06ao5w","1wslur47e8","ms1000356","","","","","","","","","","","","",""
"3720","","11870","HierDyxt06ao5w","1wslur47e8","ms1000356","","","","","","","","","","","","",""
"","","14061","HierDyxt06ao5w","1wslur47e8","ms1000356","fullscreen","","","","","","","","","","","",""
"12628","{""Vision"":""Yes"",""Handedness"":""Right"",""Gender"":""nonbinary""}","26696","HierDyxt06ao5w","1wslur47e8","ms1000356","","[0,1,2]","","","","","","","","","","",""
"4435","{""Q0"":""19""}","31138","HierDyxt06ao5w","1wslur47e8","ms1000356","","","","","","","","","","","","",""
"114799","","145947","HierDyxt06ao5w","1wslur47e8","ms1000356","","","","","","","","","","","","",""
"909","","146872","HierDyxt06ao5w","1wslur47e8","ms1000356","motor","","83","img/motor_2.png","83","motor","2","1","1","0","0","",""
"null","","146981","HierDyxt06ao5w","1wslur47e8","ms1000356","iti","","null","img/motor_2.png","83","motor","","","","","","",""
"812","","147801","HierDyxt06ao5w","1wslur47e8","ms1000356","motor","","75","img/motor_6.png","74","motor","6","2","0","1","0","",""
"1199","","149008","HierDyxt06ao5w","1wslur47e8","ms1000356","motorRepeat","","75","img/motor_6.png","74","motor","6","2","0","1","0","",""
"2983","","152000","HierDyxt06ao5w","1wslur47e8","ms1000356","motorRepeat","","74","img/motor_6.png","74","motor","6","2","1","0","0","",""
"null","","152108","HierDyxt06ao5w","1wslur47e8","ms1000356","iti","","null","img/motor_6.png","74","motor","","","","","","",""
"1027","","153144","HierDyxt06ao5w","1wslur47e8","ms1000356","motor","","70","img/motor_4.png","70","motor","4","3","1","0","0","",""
"null","","153259","HierDyxt06ao5w","1wslur47e8","ms1000356","iti","","null","img/motor_4.png","70","motor","","","","","","",""
"612","","153880","HierDyxt06ao5w","1wslur47e8","ms1000356","motor","","70","img/motor_4.png","70","motor","4","4","1","0","0","",""
"null","","153989","HierDyxt06ao5w","1wslur47e8","ms1000356","iti","","null","img/motor_4.png","70","motor","","","","","","",""
"955","","154952","HierDyxt06ao5w","1wslur47e8","ms1000356","motor","","72","img/motor_5.png","72","motor","5","5","1","0","0","",""
"null","","155061","HierDyxt06ao5w","1wslur47e8","ms1000356","iti","","null","img/motor_5.png","72","motor","","","","","","",""
"634","","155704","HierDyxt06ao5w","1wslur47e8","ms1000356","motor","","83","img/motor_2.png","83","motor","2","6","1","0","0","",""
"null","","155819","HierDyxt06ao5w","1wslur47e8","ms1000356","iti","","null","img/motor_2.png","83","motor","","","","","","",""
"556","","156384","HierDyxt06ao5w","1wslur47e8","ms1000356","motor","","65","img/motor_1.png","65","motor","1","7","1","0","0","",""
"null","","156492","HierDyxt06ao5w","1wslur47e8","ms1000356","iti","","null","img/motor_1.png","65","motor","","","","","","",""
"1762","","158264","HierDyxt06ao5w","1wslur47e8","ms1000356","motor","","68","img/motor_3.png","68","motor","3","8","1","0","0","",""
"null","","158372","HierDyxt06ao5w","1wslur47e8","ms1000356","iti","","null","img/motor_3.png","68","motor","","","","","","",""
"539","","158927","HierDyxt06ao5w","1wslur47e8","ms1000356","motor","","70","img/motor_4.png","70","motor","4","9","1","0","0","",""
"null","","159043","HierDyxt06ao5w","1wslur47e8","ms1000356","iti","","null","img/motor_4.png","70","motor","","","","","","",""
"526","","159583","HierDyxt06ao5w","1wslur47e8","ms1000356","motor","","65","img/motor_1.png","65","motor","1","10","1","0","0","",""
"null","","159699","HierDyxt06ao5w","1wslur47e8","ms1000356","iti","","null","img/motor_1.png","65","motor","","","","","","",""
"1094","","160800","HierDyxt06ao5w","1wslur47e8","ms1000356","motor","","68","img/motor_3.png","68","motor","3","11","1","0","0","",""
"null","","160908","HierDyxt06ao5w","1wslur47e8","ms1000356","iti","","null","img/motor_3.png","68","motor","","","","","","",""
"1020","","161936","HierDyxt06ao5w","1wslur47e8","ms1000356","motor","","74","img/motor_6.png","74","motor","6","12","1","0","0","",""
"null","","162051","HierDyxt06ao5w","1wslur47e8","ms1000356","iti","","null","img/motor_6.png","74","motor","","","","","","",""
"693","","162752","HierDyxt06ao5w","1wslur47e8","ms1000356","motor","","68","img/motor_3.png","68","motor","3","13","1","0","0","",""
"null","","162861","HierDyxt06ao5w","1wslur47e8","ms1000356","iti","","null","img/motor_3.png","68","motor","","","","","","",""
"659","","163528","HierDyxt06ao5w","1wslur47e8","ms1000356","motor","","76","img/motor_8.png","76","motor","8","14","1","0","0","",""
"null","","163643","HierDyxt06ao5w","1wslur47e8","ms1000356","iti","","null","img/motor_8.png","76","motor","","","","","","",""
"692","","164344","HierDyxt06ao5w","1wslur47e8","ms1000356","motor","","83","img/motor_2.png","83","motor","2","15","1","0","0","",""
"null","","164459","HierDyxt06ao5w","1wslur47e8","ms1000356","iti","","null","img/motor_2.png","83","motor","","","","","","",""
"654","","165120","HierDyxt06ao5w","1wslur47e8","ms1000356","motor","","76","img/motor_8.png","76","motor","8","16","1","0","0","",""
"null","","165229","HierDyxt06ao5w","1wslur47e8","ms1000356","iti","","null","img/motor_8.png","76","motor","","","","","","",""
"707","","165951","HierDyxt06ao5w","1wslur47e8","ms1000356","motor","","72","img/motor_5.png","72","motor","5","17","1","0","0","",""
"null","","166066","HierDyxt06ao5w","1wslur47e8","ms1000356","iti","","null","img/motor_5.png","72","motor","","","","","","",""
"598","","166671","HierDyxt06ao5w","1wslur47e8","ms1000356","motor","","76","img/motor_8.png","76","motor","8","18","1","0","0","",""
"null","","166785","HierDyxt06ao5w","1wslur47e8","ms1000356","iti","","null","img/motor_8.png","76","motor","","","","","","",""
"678","","167472","HierDyxt06ao5w","1wslur47e8","ms1000356","motor","","83","img/motor_2.png","83","motor","2","19","1","0","0","",""
"null","","167587","HierDyxt06ao5w","1wslur47e8","ms1000356","iti","","null","img/motor_2.png","83","motor","","","","","","",""
"557","","168152","HierDyxt06ao5w","1wslur47e8","ms1000356","motor","","72","img/motor_5.png","72","motor","5","20","1","0","0","",""
"null","","168266","HierDyxt06ao5w","1wslur47e8","ms1000356","iti","","null","img/motor_5.png","72","motor","","","","","","",""
"453","","168728","HierDyxt06ao5w","1wslur47e8","ms1000356","motor","","76","img/motor_8.png","76","motor","8","21","1","0","0","",""
"null","","168837","HierDyxt06ao5w","1wslur47e8","ms1000356","iti","","null","img/motor_8.png","76","motor","","","","","","",""
"507","","169358","HierDyxt06ao5w","1wslur47e8","ms1000356","motor","","72","img/motor_5.png","72","motor","5","22","1","0","0","",""
"null","","169467","HierDyxt06ao5w","1wslur47e8","ms1000356","iti","","null","img/motor_5.png","72","motor","","","","","","",""
"621","","170096","HierDyxt06ao5w","1wslur47e8","ms1000356","motor","","83","img/motor_2.png","83","motor","2","23","1","0","0","",""
"null","","170211","HierDyxt06ao5w","1wslur47e8","ms1000356","iti","","null","img/motor_2.png","83","motor","","","","","","",""
"404","","170624","HierDyxt06ao5w","1wslur47e8","ms1000356","motor","","76","img/motor_8.png","76","motor","8","24","1","0","0","",""
"null","","170738","HierDyxt06ao5w","1wslur47e8","ms1000356","iti","","null","img/motor_8.png","76","motor","","","","","","",""
"653","","171399","HierDyxt06ao5w","1wslur47e8","ms1000356","motor","","70","img/motor_4.png","70","motor","4","25","1","0","0","",""
"null","","171508","HierDyxt06ao5w","1wslur47e8","ms1000356","iti","","null","img/motor_4.png","70","motor","","","","","","",""
"660","","172175","HierDyxt06ao5w","1wslur47e8","ms1000356","motor","","75","img/motor_7.png","75","motor","7","26","1","0","0","",""
"null","","172289","HierDyxt06ao5w","1wslur47e8","ms1000356","iti","","null","img/motor_7.png","75","motor","","","","","","",""
"862","","173160","HierDyxt06ao5w","1wslur47e8","ms1000356","motor","","83","img/motor_2.png","83","motor","2","27","1","0","0","",""
"null","","173268","HierDyxt06ao5w","1wslur47e8","ms1000356","iti","","null","img/motor_2.png","83","motor","","","","","","",""
"892","","174169","HierDyxt06ao5w","1wslur47e8","ms1000356","motor","","74","img/motor_6.png","74","motor","6","28","1","0","0","",""
"null","","174277","HierDyxt06ao5w","1wslur47e8","ms1000356","iti","","null","img/motor_6.png","74","motor","","","","","","",""
"603","","174888","HierDyxt06ao5w","1wslur47e8","ms1000356","motor","","83","img/motor_2.png","83","motor","2","29","1","0","0","",""
"null","","174996","HierDyxt06ao5w","1wslur47e8","ms1000356","iti","","null","img/motor_2.png","83","motor","","","","","","",""
"581","","175584","HierDyxt06ao5w","1wslur47e8","ms1000356","motor","","76","img/motor_8.png","76","motor","8","30","1","0","0","",""
"null","","175693","HierDyxt06ao5w","1wslur47e8","ms1000356","iti","","null","img/motor_8.png","76","motor","","","","","","",""
"1347","","177049","HierDyxt06ao5w","1wslur47e8","ms1000356","motor","","76","img/motor_8.png","76","motor","8","31","1","0","0","",""
"null","","177157","HierDyxt06ao5w","1wslur47e8","ms1000356","iti","","null","img/motor_8.png","76","motor","","","","","","",""
"611","","177777","HierDyxt06ao5w","1wslur47e8","ms1000356","motor","","65","img/motor_1.png","65","motor","1","32","1","0","0","",""
"null","","177891","HierDyxt06ao5w","1wslur47e8","ms1000356","iti","","null","img/motor_1.png","65","motor","","","","","","",""
"748","","178647","HierDyxt06ao5w","1wslur47e8","ms1000356","motor","","72","img/motor_5.png","72","motor","5","33","1","0","0","",""
"null","","178757","HierDyxt06ao5w","1wslur47e8","ms1000356","iti","","null","img/motor_5.png","72","motor","","","","","","",""
"573","","179336","HierDyxt06ao5w","1wslur47e8","ms1000356","motor","","70","img/motor_4.png","70","motor","4","34","1","0","0","",""
"null","","179445","HierDyxt06ao5w","1wslur47e8","ms1000356","iti","","null","img/motor_4.png","70","motor","","","","","","",""
"539","","179992","HierDyxt06ao5w","1wslur47e8","ms1000356","motor","","74","img/motor_6.png","74","motor","6","35","1","0","0","",""
"null","","180107","HierDyxt06ao5w","1wslur47e8","ms1000356","iti","","null","img/motor_6.png","74","motor","","","","","","",""
"669","","180783","HierDyxt06ao5w","1wslur47e8","ms1000356","motor","","83","img/motor_3.png","68","motor","3","36","0","1","0","",""
"393","","181184","HierDyxt06ao5w","1wslur47e8","ms1000356","motorRepeat","","70","img/motor_3.png","68","motor","3","36","0","1","0","",""
"368","","181559","HierDyxt06ao5w","1wslur47e8","ms1000356","motorRepeat","","68","img/motor_3.png","68","motor","3","36","1","0","0","",""
"null","","181667","HierDyxt06ao5w","1wslur47e8","ms1000356","iti","","null","img/motor_3.png","68","motor","","","","","","",""
"549","","182224","HierDyxt06ao5w","1wslur47e8","ms1000356","motor","","65","img/motor_1.png","65","motor","1","37","1","0","0","",""
"null","","182333","HierDyxt06ao5w","1wslur47e8","ms1000356","iti","","null","img/motor_1.png","65","motor","","","","","","",""
"660","","183007","HierDyxt06ao5w","1wslur47e8","ms1000356","motor","","72","img/motor_5.png","72","motor","5","38","1","0","0","",""
"null","","183121","HierDyxt06ao5w","1wslur47e8","ms1000356","iti","","null","img/motor_5.png","72","motor","","","","","","",""
"534","","183664","HierDyxt06ao5w","1wslur47e8","ms1000356","motor","","70","img/motor_4.png","70","motor","4","39","1","0","0","",""
"null","","183773","HierDyxt06ao5w","1wslur47e8","ms1000356","iti","","null","img/motor_4.png","70","motor","","","","","","",""
"643","","184423","HierDyxt06ao5w","1wslur47e8","ms1000356","motor","","75","img/motor_7.png","75","motor","7","40","1","0","0","",""
"null","","184532","HierDyxt06ao5w","1wslur47e8","ms1000356","iti","","null","img/motor_7.png","75","motor","","","","","","",""
"557","","185096","HierDyxt06ao5w","1wslur47e8","ms1000356","motor","","72","img/motor_5.png","72","motor","5","41","1","0","0","",""
"null","","185204","HierDyxt06ao5w","1wslur47e8","ms1000356","iti","","null","img/motor_5.png","72","motor","","","","","","",""
"605","","185815","HierDyxt06ao5w","1wslur47e8","ms1000356","motor","","65","img/motor_1.png","65","motor","1","42","1","0","0","",""
"null","","185923","HierDyxt06ao5w","1wslur47e8","ms1000356","iti","","null","img/motor_1.png","65","motor","","","","","","",""
"1445","","187376","HierDyxt06ao5w","1wslur47e8","ms1000356","motor","","68","img/motor_3.png","68","motor","3","43","1","0","0","",""
"null","","187485","HierDyxt06ao5w","1wslur47e8","ms1000356","iti","","null","img/motor_3.png","68","motor","","","","","","",""
"534","","188032","HierDyxt06ao5w","1wslur47e8","ms1000356","motor","","83","img/motor_2.png","83","motor","2","44","1","0","0","",""
"null","","188142","HierDyxt06ao5w","1wslur47e8","ms1000356","iti","","null","img/motor_2.png","83","motor","","","","","","",""
"539","","188688","HierDyxt06ao5w","1wslur47e8","ms1000356","motor","","68","img/motor_3.png","68","motor","3","45","1","0","0","",""
"null","","188796","HierDyxt06ao5w","1wslur47e8","ms1000356","iti","","null","img/motor_3.png","68","motor","","","","","","",""
"644","","189454","HierDyxt06ao5w","1wslur47e8","ms1000356","motor","","74","img/motor_6.png","74","motor","6","46","1","0","0","",""
"null","","189571","HierDyxt06ao5w","1wslur47e8","ms1000356","iti","","null","img/motor_6.png","74","motor","","","","","","",""
"532","","190119","HierDyxt06ao5w","1wslur47e8","ms1000356","motor","","72","img/motor_5.png","72","motor","5","47","1","0","0","",""
"null","","190228","HierDyxt06ao5w","1wslur47e8","ms1000356","iti","","null","img/motor_5.png","72","motor","","","","","","",""
"533","","190767","HierDyxt06ao5w","1wslur47e8","ms1000356","motor","","76","img/motor_8.png","76","motor","8","48","1","0","0","",""
"null","","190883","HierDyxt06ao5w","1wslur47e8","ms1000356","iti","","null","img/motor_8.png","76","motor","","","","","","",""
"484","","191382","HierDyxt06ao5w","1wslur47e8","ms1000356","motor","","72","img/motor_5.png","72","motor","5","49","1","0","0","",""
"null","","191491","HierDyxt06ao5w","1wslur47e8","ms1000356","iti","","null","img/motor_5.png","72","motor","","","","","","",""
"524","","192024","HierDyxt06ao5w","1wslur47e8","ms1000356","motor","","76","img/motor_8.png","76","motor","8","50","1","0","0","",""
"null","","192138","HierDyxt06ao5w","1wslur47e8","ms1000356","iti","","null","img/motor_8.png","76","motor","","","","","","",""
"612","","192766","HierDyxt06ao5w","1wslur47e8","ms1000356","motor","","65","img/motor_1.png","65","motor","1","51","1","0","0","",""
"null","","192875","HierDyxt06ao5w","1wslur47e8","ms1000356","iti","","null","img/motor_1.png","65","motor","","","","","","",""
"492","","193376","HierDyxt06ao5w","1wslur47e8","ms1000356","motor","","76","img/motor_8.png","76","motor","8","52","1","0","0","",""
"null","","193484","HierDyxt06ao5w","1wslur47e8","ms1000356","iti","","null","img/motor_8.png","76","motor","","","","","","",""
"796","","194289","HierDyxt06ao5w","1wslur47e8","ms1000356","motor","","74","img/motor_6.png","74","motor","6","53","1","0","0","",""
"null","","194397","HierDyxt06ao5w","1wslur47e8","ms1000356","iti","","null","img/motor_6.png","74","motor","","","","","","",""
"860","","195264","HierDyxt06ao5w","1wslur47e8","ms1000356","motor","","70","img/motor_4.png","70","motor","4","54","1","0","0","",""
"null","","195373","HierDyxt06ao5w","1wslur47e8","ms1000356","iti","","null","img/motor_4.png","70","motor","","","","","","",""
"668","","196054","HierDyxt06ao5w","1wslur47e8","ms1000356","motor","","72","img/motor_5.png","72","motor","5","55","1","0","0","",""
"null","","196169","HierDyxt06ao5w","1wslur47e8","ms1000356","iti","","null","img/motor_5.png","72","motor","","","","","","",""
"503","","196687","HierDyxt06ao5w","1wslur47e8","ms1000356","motor","","76","img/motor_8.png","76","motor","8","56","1","0","0","",""
"null","","196802","HierDyxt06ao5w","1wslur47e8","ms1000356","iti","","null","img/motor_8.png","76","motor","","","","","","",""
"533","","197347","HierDyxt06ao5w","1wslur47e8","ms1000356","motor","","72","img/motor_5.png","72","motor","5","57","1","0","0","",""
"null","","197462","HierDyxt06ao5w","1wslur47e8","ms1000356","iti","","null","img/motor_5.png","72","motor","","","","","","",""
"839","","198313","HierDyxt06ao5w","1wslur47e8","ms1000356","motor","","68","img/motor_3.png","68","motor","3","58","1","0","0","",""
"null","","198428","HierDyxt06ao5w","1wslur47e8","ms1000356","iti","","null","img/motor_3.png","68","motor","","","","","","",""
"641","","199079","HierDyxt06ao5w","1wslur47e8","ms1000356","motor","","70","img/motor_4.png","70","motor","4","59","1","0","0","",""
"null","","199188","HierDyxt06ao5w","1wslur47e8","ms1000356","iti","","null","img/motor_4.png","70","motor","","","","","","",""
"676","","199872","HierDyxt06ao5w","1wslur47e8","ms1000356","motor","","83","img/motor_2.png","83","motor","2","60","1","0","0","",""
"null","","199980","HierDyxt06ao5w","1wslur47e8","ms1000356","iti","","null","img/motor_2.png","83","motor","","","","","","",""
"499","","200488","HierDyxt06ao5w","1wslur47e8","ms1000356","motor","","76","img/motor_8.png","76","motor","8","61","1","0","0","",""
"null","","200603","HierDyxt06ao5w","1wslur47e8","ms1000356","iti","","null","img/motor_8.png","76","motor","","","","","","",""
"460","","201072","HierDyxt06ao5w","1wslur47e8","ms1000356","motor","","83","img/motor_2.png","83","motor","2","62","1","0","0","",""
"null","","201181","HierDyxt06ao5w","1wslur47e8","ms1000356","iti","","null","img/motor_2.png","83","motor","","","","","","",""
"850","","202040","HierDyxt06ao5w","1wslur47e8","ms1000356","motor","","74","img/motor_6.png","74","motor","6","63","1","0","0","",""
"null","","202148","HierDyxt06ao5w","1wslur47e8","ms1000356","iti","","null","img/motor_6.png","74","motor","","","","","","",""
"660","","202816","HierDyxt06ao5w","1wslur47e8","ms1000356","motor","","65","img/motor_1.png","65","motor","1","64","1","0","0","",""
"null","","202924","HierDyxt06ao5w","1wslur47e8","ms1000356","iti","","null","img/motor_1.png","65","motor","","","","","","",""
"677","","203615","HierDyxt06ao5w","1wslur47e8","ms1000356","motor","","72","img/motor_5.png","72","motor","5","65","1","0","0","",""
"null","","203731","HierDyxt06ao5w","1wslur47e8","ms1000356","iti","","null","img/motor_5.png","72","motor","","","","","","",""
"534","","204279","HierDyxt06ao5w","1wslur47e8","ms1000356","motor","","68","img/motor_2.png","83","motor","2","66","0","1","0","",""
"329","","204616","HierDyxt06ao5w","1wslur47e8","ms1000356","motorRepeat","","83","img/motor_2.png","83","motor","2","66","1","0","0","",""
"null","","204725","HierDyxt06ao5w","1wslur47e8","ms1000356","iti","","null","img/motor_2.png","83","motor","","","","","","",""
"723","","205463","HierDyxt06ao5w","1wslur47e8","ms1000356","motor","","68","img/motor_3.png","68","motor","3","67","1","0","0","",""
"null","","205572","HierDyxt06ao5w","1wslur47e8","ms1000356","iti","","null","img/motor_3.png","68","motor","","","","","","",""
"525","","206105","HierDyxt06ao5w","1wslur47e8","ms1000356","motor","","72","img/motor_5.png","72","motor","5","68","1","0","0","",""
"null","","206219","HierDyxt06ao5w","1wslur47e8","ms1000356","iti","","null","img/motor_5.png","72","motor","","","","","","",""
"597","","206825","HierDyxt06ao5w","1wslur47e8","ms1000356","motor","","75","img/motor_7.png","75","motor","7","69","1","0","0","",""
"null","","206939","HierDyxt06ao5w","1wslur47e8","ms1000356","iti","","null","img/motor_7.png","75","motor","","","","","","",""
"764","","207719","HierDyxt06ao5w","1wslur47e8","ms1000356","motor","","68","img/motor_3.png","68","motor","3","70","1","0","0","",""
"null","","207835","HierDyxt06ao5w","1wslur47e8","ms1000356","iti","","null","img/motor_3.png","68","motor","","","","","","",""
"509","","208353","HierDyxt06ao5w","1wslur47e8","ms1000356","motor","","76","img/motor_8.png","76","motor","8","71","1","0","0","",""
"null","","208462","HierDyxt06ao5w","1wslur47e8","ms1000356","iti","","null","img/motor_8.png","76","motor","","","","","","",""
"610","","209080","HierDyxt06ao5w","1wslur47e8","ms1000356","motor","","74","img/motor_7.png","75","motor","7","72","0","1","0","",""
"264","","209352","HierDyxt06ao5w","1wslur47e8","ms1000356","motorRepeat","","75","img/motor_7.png","75","motor","7","72","1","0","0","",""
"null","","209467","HierDyxt06ao5w","1wslur47e8","ms1000356","iti","","null","img/motor_7.png","75","motor","","","","","","",""
"1124","","210600","HierDyxt06ao5w","1wslur47e8","ms1000356","motor","","68","img/motor_3.png","68","motor","3","73","1","0","0","",""
"null","","210708","HierDyxt06ao5w","1wslur47e8","ms1000356","iti","","null","img/motor_3.png","68","motor","","","","","","",""
"845","","211560","HierDyxt06ao5w","1wslur47e8","ms1000356","motor","","72","img/motor_5.png","72","motor","5","74","1","0","0","",""
"null","","211669","HierDyxt06ao5w","1wslur47e8","ms1000356","iti","","null","img/motor_5.png","72","motor","","","","","","",""
"692","","212368","HierDyxt06ao5w","1wslur47e8","ms1000356","motor","","68","img/motor_3.png","68","motor","3","75","1","0","0","",""
"null","","212483","HierDyxt06ao5w","1wslur47e8","ms1000356","iti","","null","img/motor_3.png","68","motor","","","","","","",""
"773","","213264","HierDyxt06ao5w","1wslur47e8","ms1000356","motor","","72","img/motor_5.png","72","motor","5","76","1","0","0","",""
"null","","213379","HierDyxt06ao5w","1wslur47e8","ms1000356","iti","","null","img/motor_5.png","72","motor","","","","","","",""
"676","","214065","HierDyxt06ao5w","1wslur47e8","ms1000356","motor","","68","img/motor_3.png","68","motor","3","77","1","0","0","",""
"null","","214173","HierDyxt06ao5w","1wslur47e8","ms1000356","iti","","null","img/motor_3.png","68","motor","","","","","","",""
"1466","","215649","HierDyxt06ao5w","1wslur47e8","ms1000356","motor","","68","img/motor_3.png","68","motor","3","78","1","0","0","",""
"null","","215762","HierDyxt06ao5w","1wslur47e8","ms1000356","iti","","null","img/motor_3.png","68","motor","","","","","","",""
"869","","216640","HierDyxt06ao5w","1wslur47e8","ms1000356","motor","","70","img/motor_4.png","70","motor","4","79","1","0","0","",""
"null","","216748","HierDyxt06ao5w","1wslur47e8","ms1000356","iti","","null","img/motor_4.png","70","motor","","","","","","",""
"1012","","217775","HierDyxt06ao5w","1wslur47e8","ms1000356","motor","","74","img/motor_6.png","74","motor","6","80","1","0","0","",""
"null","","217885","HierDyxt06ao5w","1wslur47e8","ms1000356","iti","","null","img/motor_6.png","74","motor","","","","","","",""
"644","","218536","HierDyxt06ao5w","1wslur47e8","ms1000356","motor","","70","img/motor_4.png","70","motor","4","81","1","0","0","",""
"null","","218644","HierDyxt06ao5w","1wslur47e8","ms1000356","iti","","null","img/motor_4.png","70","motor","","","","","","",""
"523","","219176","HierDyxt06ao5w","1wslur47e8","ms1000356","motor","","65","img/motor_1.png","65","motor","1","82","1","0","0","",""
"null","","219284","HierDyxt06ao5w","1wslur47e8","ms1000356","iti","","null","img/motor_1.png","65","motor","","","","","","",""
"612","","219904","HierDyxt06ao5w","1wslur47e8","ms1000356","motor","","75","img/motor_7.png","75","motor","7","83","1","0","0","",""
"null","","220020","HierDyxt06ao5w","1wslur47e8","ms1000356","iti","","null","img/motor_7.png","75","motor","","","","","","",""
"717","","220750","HierDyxt06ao5w","1wslur47e8","ms1000356","motor","","65","img/motor_1.png","65","motor","1","84","1","0","0","",""
"null","","220861","HierDyxt06ao5w","1wslur47e8","ms1000356","iti","","null","img/motor_1.png","65","motor","","","","","","",""
"683","","221552","HierDyxt06ao5w","1wslur47e8","ms1000356","motor","","65","img/motor_1.png","65","motor","1","85","1","0","0","",""
"null","","221661","HierDyxt06ao5w","1wslur47e8","ms1000356","iti","","null","img/motor_1.png","65","motor","","","","","","",""
"619","","222287","HierDyxt06ao5w","1wslur47e8","ms1000356","motor","","70","img/motor_3.png","68","motor","3","86","0","1","0","",""
"369","","222664","HierDyxt06ao5w","1wslur47e8","ms1000356","motorRepeat","","68","img/motor_3.png","68","motor","3","86","1","0","0","",""
"null","","222772","HierDyxt06ao5w","1wslur47e8","ms1000356","iti","","null","img/motor_3.png","68","motor","","","","","","",""
"676","","223456","HierDyxt06ao5w","1wslur47e8","ms1000356","motor","","75","img/motor_7.png","75","motor","7","87","1","0","0","",""
"null","","223571","HierDyxt06ao5w","1wslur47e8","ms1000356","iti","","null","img/motor_7.png","75","motor","","","","","","",""
"716","","224303","HierDyxt06ao5w","1wslur47e8","ms1000356","motor","","70","img/motor_4.png","70","motor","4","88","1","0","0","",""
"null","","224419","HierDyxt06ao5w","1wslur47e8","ms1000356","iti","","null","img/motor_4.png","70","motor","","","","","","",""
"558","","224991","HierDyxt06ao5w","1wslur47e8","ms1000356","motor","","72","img/motor_5.png","72","motor","5","89","1","0","0","",""
"null","","225099","HierDyxt06ao5w","1wslur47e8","ms1000356","iti","","null","img/motor_5.png","72","motor","","","","","","",""
"500","","225609","HierDyxt06ao5w","1wslur47e8","ms1000356","motor","","65","img/motor_1.png","65","motor","1","90","1","0","0","",""
"null","","225718","HierDyxt06ao5w","1wslur47e8","ms1000356","iti","","null","img/motor_1.png","65","motor","","","","","","",""
"483","","226208","HierDyxt06ao5w","1wslur47e8","ms1000356","motor","","76","img/motor_8.png","76","motor","8","91","1","0","0","",""
"null","","226317","HierDyxt06ao5w","1wslur47e8","ms1000356","iti","","null","img/motor_8.png","76","motor","","","","","","",""
"971","","227295","HierDyxt06ao5w","1wslur47e8","ms1000356","motor","","68","img/motor_3.png","68","motor","3","92","1","0","0","",""
"null","","227410","HierDyxt06ao5w","1wslur47e8","ms1000356","iti","","null","img/motor_3.png","68","motor","","","","","","",""
"710","","228129","HierDyxt06ao5w","1wslur47e8","ms1000356","motor","","74","img/motor_7.png","75","motor","7","93","0","1","0","",""
"16","","228152","HierDyxt06ao5w","1wslur47e8","ms1000356","motorRepeat","","75","img/motor_7.png","75","motor","7","93","1","0","0","",""
"null","","228267","HierDyxt06ao5w","1wslur47e8","ms1000356","iti","","null","img/motor_7.png","75","motor","","","","","","",""
"1036","","229312","HierDyxt06ao5w","1wslur47e8","ms1000356","motor","","70","img/motor_4.png","70","motor","4","94","1","0","0","",""
"null","","229420","HierDyxt06ao5w","1wslur47e8","ms1000356","iti","","null","img/motor_4.png","70","motor","","","","","","",""
"572","","230007","HierDyxt06ao5w","1wslur47e8","ms1000356","motor","","83","img/motor_2.png","83","motor","2","95","1","0","0","",""
"null","","230115","HierDyxt06ao5w","1wslur47e8","ms1000356","iti","","null","img/motor_2.png","83","motor","","","","","","",""
"636","","230760","HierDyxt06ao5w","1wslur47e8","ms1000356","motor","","68","img/motor_3.png","68","motor","3","96","1","0","0","",""
"null","","230875","HierDyxt06ao5w","1wslur47e8","ms1000356","iti","","null","img/motor_3.png","68","motor","","","","","","",""
"452","","231335","HierDyxt06ao5w","1wslur47e8","ms1000356","motor","","75","img/motor_7.png","75","motor","7","97","1","0","0","",""
"null","","231450","HierDyxt06ao5w","1wslur47e8","ms1000356","iti","","null","img/motor_7.png","75","motor","","","","","","",""
"397","","231862","HierDyxt06ao5w","1wslur47e8","ms1000356","motor","","76","img/motor_8.png","76","motor","8","98","1","0","0","",""
"null","","231978","HierDyxt06ao5w","1wslur47e8","ms1000356","iti","","null","img/motor_8.png","76","motor","","","","","","",""
"694","","232681","HierDyxt06ao5w","1wslur47e8","ms1000356","motor","","76","img/motor_8.png","76","motor","8","99","1","0","0","",""
"null","","232789","HierDyxt06ao5w","1wslur47e8","ms1000356","iti","","null","img/motor_8.png","76","motor","","","","","","",""
"508","","233311","HierDyxt06ao5w","1wslur47e8","ms1000356","motor","","75","img/motor_7.png","75","motor","7","100","1","0","0","",""
"null","","233419","HierDyxt06ao5w","1wslur47e8","ms1000356","iti","","null","img/motor_7.png","75","motor","","","","","","",""
"573","","234000","HierDyxt06ao5w","1wslur47e8","ms1000356","motor","","70","img/motor_4.png","70","motor","4","101","1","0","0","",""
"null","","234109","HierDyxt06ao5w","1wslur47e8","ms1000356","iti","","null","img/motor_4.png","70","motor","","","","","","",""
"395","","234512","HierDyxt06ao5w","1wslur47e8","ms1000356","motor","","76","img/motor_8.png","76","motor","8","102","1","0","0","",""
"null","","234621","HierDyxt06ao5w","1wslur47e8","ms1000356","iti","","null","img/motor_8.png","76","motor","","","","","","",""
"458","","235089","HierDyxt06ao5w","1wslur47e8","ms1000356","motor","","75","img/motor_5.png","72","motor","5","103","0","1","0","",""
"111","","235208","HierDyxt06ao5w","1wslur47e8","ms1000356","motorRepeat","","72","img/motor_5.png","72","motor","5","103","1","0","0","",""
"null","","235316","HierDyxt06ao5w","1wslur47e8","ms1000356","iti","","null","img/motor_5.png","72","motor","","","","","","",""
"476","","235807","HierDyxt06ao5w","1wslur47e8","ms1000356","motor","","70","img/motor_4.png","70","motor","4","104","1","0","0","",""
"null","","235916","HierDyxt06ao5w","1wslur47e8","ms1000356","iti","","null","img/motor_4.png","70","motor","","","","","","",""
"445","","236374","HierDyxt06ao5w","1wslur47e8","ms1000356","motor","","70","img/motor_4.png","70","motor","4","105","1","0","0","",""
"null","","236490","HierDyxt06ao5w","1wslur47e8","ms1000356","iti","","null","img/motor_4.png","70","motor","","","","","","",""
"846","","237350","HierDyxt06ao5w","1wslur47e8","ms1000356","motor","","74","img/motor_6.png","74","motor","6","106","1","0","0","",""
"null","","237459","HierDyxt06ao5w","1wslur47e8","ms1000356","iti","","null","img/motor_6.png","74","motor","","","","","","",""
"580","","238054","HierDyxt06ao5w","1wslur47e8","ms1000356","motor","","65","img/motor_1.png","65","motor","1","107","1","0","0","",""
"null","","238163","HierDyxt06ao5w","1wslur47e8","ms1000356","iti","","null","img/motor_1.png","65","motor","","","","","","",""
"652","","238830","HierDyxt06ao5w","1wslur47e8","ms1000356","motor","","68","img/motor_3.png","68","motor","3","108","1","0","0","",""
"null","","238939","HierDyxt06ao5w","1wslur47e8","ms1000356","iti","","null","img/motor_3.png","68","motor","","","","","","",""
"333","","239281","HierDyxt06ao5w","1wslur47e8","ms1000356","motor","","65","img/motor_1.png","65","motor","1","109","1","0","0","",""
"null","","239395","HierDyxt06ao5w","1wslur47e8","ms1000356","iti","","null","img/motor_1.png","65","motor","","","","","","",""
"500","","239904","HierDyxt06ao5w","1wslur47e8","ms1000356","motor","","76","img/motor_8.png","76","motor","8","110","1","0","0","",""
"null","","240019","HierDyxt06ao5w","1wslur47e8","ms1000356","iti","","null","img/motor_8.png","76","motor","","","","","","",""
"669","","240703","HierDyxt06ao5w","1wslur47e8","ms1000356","motor","","75","img/motor_7.png","75","motor","7","111","1","0","0","",""
"null","","240812","HierDyxt06ao5w","1wslur47e8","ms1000356","iti","","null","img/motor_7.png","75","motor","","","","","","",""
"620","","241447","HierDyxt06ao5w","1wslur47e8","ms1000356","motor","","68","img/motor_3.png","68","motor","3","112","1","0","0","",""
"null","","241562","HierDyxt06ao5w","1wslur47e8","ms1000356","iti","","null","img/motor_3.png","68","motor","","","","","","",""
"622","","242199","HierDyxt06ao5w","1wslur47e8","ms1000356","motor","","70","img/motor_4.png","70","motor","4","113","1","0","0","",""
"null","","242308","HierDyxt06ao5w","1wslur47e8","ms1000356","iti","","null","img/motor_4.png","70","motor","","","","","","",""
"405","","242720","HierDyxt06ao5w","1wslur47e8","ms1000356","motor","","65","img/motor_2.png","83","motor","2","114","0","1","0","",""
"329","","243057","HierDyxt06ao5w","1wslur47e8","ms1000356","motorRepeat","","83","img/motor_2.png","83","motor","2","114","1","0","0","",""
"null","","243172","HierDyxt06ao5w","1wslur47e8","ms1000356","iti","","null","img/motor_2.png","83","motor","","","","","","",""
"684","","243871","HierDyxt06ao5w","1wslur47e8","ms1000356","motor","","75","img/motor_7.png","75","motor","7","115","1","0","0","",""
"null","","243987","HierDyxt06ao5w","1wslur47e8","ms1000356","iti","","null","img/motor_7.png","75","motor","","","","","","",""
"621","","244616","HierDyxt06ao5w","1wslur47e8","ms1000356","motor","","75","img/motor_7.png","75","motor","7","116","1","0","0","",""
"null","","244731","HierDyxt06ao5w","1wslur47e8","ms1000356","iti","","null","img/motor_7.png","75","motor","","","","","","",""
"533","","245272","HierDyxt06ao5w","1wslur47e8","ms1000356","motor","","83","img/motor_2.png","83","motor","2","117","1","0","0","",""
"null","","245387","HierDyxt06ao5w","1wslur47e8","ms1000356","iti","","null","img/motor_2.png","83","motor","","","","","","",""
"596","","245992","HierDyxt06ao5w","1wslur47e8","ms1000356","motor","","72","img/motor_5.png","72","motor","5","118","1","0","0","",""
"null","","246107","HierDyxt06ao5w","1wslur47e8","ms1000356","iti","","null","img/motor_5.png","72","motor","","","","","","",""
"508","","246623","HierDyxt06ao5w","1wslur47e8","ms1000356","motor","","83","img/motor_2.png","83","motor","2","119","1","0","0","",""
"null","","246732","HierDyxt06ao5w","1wslur47e8","ms1000356","iti","","null","img/motor_2.png","83","motor","","","","","","",""
"716","","247457","HierDyxt06ao5w","1wslur47e8","ms1000356","motor","","70","img/motor_4.png","70","motor","4","120","1","0","0","",""
"null","","247564","HierDyxt06ao5w","1wslur47e8","ms1000356","iti","","null","img/motor_4.png","70","motor","","","","","","",""
"643","","248217","HierDyxt06ao5w","1wslur47e8","ms1000356","motor","","74","img/motor_6.png","74","motor","6","121","1","0","0","",""
"null","","248325","HierDyxt06ao5w","1wslur47e8","ms1000356","iti","","null","img/motor_6.png","74","motor","","","","","","",""
"604","","248936","HierDyxt06ao5w","1wslur47e8","ms1000356","motor","","83","img/motor_2.png","83","motor","2","122","1","0","0","",""
"null","","249045","HierDyxt06ao5w","1wslur47e8","ms1000356","iti","","null","img/motor_2.png","83","motor","","","","","","",""
"660","","249711","HierDyxt06ao5w","1wslur47e8","ms1000356","motor","","75","img/motor_7.png","75","motor","7","123","1","0","0","",""
"null","","249827","HierDyxt06ao5w","1wslur47e8","ms1000356","iti","","null","img/motor_7.png","75","motor","","","","","","",""
"548","","250384","HierDyxt06ao5w","1wslur47e8","ms1000356","motor","","70","img/motor_4.png","70","motor","4","124","1","0","0","",""
"null","","250493","HierDyxt06ao5w","1wslur47e8","ms1000356","iti","","null","img/motor_4.png","70","motor","","","","","","",""
"435","","250937","HierDyxt06ao5w","1wslur47e8","ms1000356","motor","","83","img/motor_2.png","83","motor","2","125","1","0","0","",""
"null","","251045","HierDyxt06ao5w","1wslur47e8","ms1000356","iti","","null","img/motor_2.png","83","motor","","","","","","",""
"533","","251583","HierDyxt06ao5w","1wslur47e8","ms1000356","motor","","72","img/motor_5.png","72","motor","5","126","1","0","0","",""
"null","","251693","HierDyxt06ao5w","1wslur47e8","ms1000356","iti","","null","img/motor_5.png","72","motor","","","","","","",""
"379","","252079","HierDyxt06ao5w","1wslur47e8","ms1000356","motor","","75","img/motor_7.png","75","motor","7","127","1","0","0","",""
"null","","252189","HierDyxt06ao5w","1wslur47e8","ms1000356","iti","","null","img/motor_7.png","75","motor","","","","","","",""
"468","","252663","HierDyxt06ao5w","1wslur47e8","ms1000356","motor","","76","img/motor_8.png","76","motor","8","128","1","0","0","",""
"null","","252779","HierDyxt06ao5w","1wslur47e8","ms1000356","iti","","null","img/motor_8.png","76","motor","","","","","","",""
"508","","253296","HierDyxt06ao5w","1wslur47e8","ms1000356","motor","","75","img/motor_6.png","74","motor","6","129","0","1","0","",""
"312","","253615","HierDyxt06ao5w","1wslur47e8","ms1000356","motorRepeat","","74","img/motor_6.png","74","motor","6","129","1","0","0","",""
"null","","253731","HierDyxt06ao5w","1wslur47e8","ms1000356","iti","","null","img/motor_6.png","74","motor","","","","","","",""
"588","","254328","HierDyxt06ao5w","1wslur47e8","ms1000356","motor","","74","img/motor_6.png","74","motor","6","130","1","0","0","",""
"null","","254437","HierDyxt06ao5w","1wslur47e8","ms1000356","iti","","null","img/motor_6.png","74","motor","","","","","","",""
"491","","254937","HierDyxt06ao5w","1wslur47e8","ms1000356","motor","","75","img/motor_7.png","75","motor","7","131","1","0","0","",""
"null","","255045","HierDyxt06ao5w","1wslur47e8","ms1000356","iti","","null","img/motor_7.png","75","motor","","","","","","",""
"659","","255718","HierDyxt06ao5w","1wslur47e8","ms1000356","motor","","83","img/motor_2.png","83","motor","2","132","1","0","0","",""
"null","","255828","HierDyxt06ao5w","1wslur47e8","ms1000356","iti","","null","img/motor_2.png","83","motor","","","","","","",""
"485","","256327","HierDyxt06ao5w","1wslur47e8","ms1000356","motor","","83","img/motor_2.png","83","motor","2","133","1","0","0","",""
"null","","256443","HierDyxt06ao5w","1wslur47e8","ms1000356","iti","","null","img/motor_2.png","83","motor","","","","","","",""
"477","","256927","HierDyxt06ao5w","1wslur47e8","ms1000356","motor","","70","img/motor_4.png","70","motor","4","134","1","0","0","",""
"null","","257036","HierDyxt06ao5w","1wslur47e8","ms1000356","iti","","null","img/motor_4.png","70","motor","","","","","","",""
"428","","257472","HierDyxt06ao5w","1wslur47e8","ms1000356","motor","","76","img/motor_8.png","76","motor","8","135","1","0","0","",""
"null","","257581","HierDyxt06ao5w","1wslur47e8","ms1000356","iti","","null","img/motor_8.png","76","motor","","","","","","",""
"467","","258055","HierDyxt06ao5w","1wslur47e8","ms1000356","motor","","83","img/motor_2.png","83","motor","2","136","1","0","0","",""
"null","","258164","HierDyxt06ao5w","1wslur47e8","ms1000356","iti","","null","img/motor_2.png","83","motor","","","","","","",""
"460","","258632","HierDyxt06ao5w","1wslur47e8","ms1000356","motor","","70","img/motor_4.png","70","motor","4","137","1","0","0","",""
"null","","258741","HierDyxt06ao5w","1wslur47e8","ms1000356","iti","","null","img/motor_4.png","70","motor","","","","","","",""
"571","","259321","HierDyxt06ao5w","1wslur47e8","ms1000356","motor","","74","img/motor_7.png","75","motor","7","138","0","1","0","",""
"369","","259696","HierDyxt06ao5w","1wslur47e8","ms1000356","motorRepeat","","75","img/motor_7.png","75","motor","7","138","1","0","0","",""
"null","","259804","HierDyxt06ao5w","1wslur47e8","ms1000356","iti","","null","img/motor_7.png","75","motor","","","","","","",""
"444","","260256","HierDyxt06ao5w","1wslur47e8","ms1000356","motor","","72","img/motor_6.png","74","motor","6","139","0","1","0","",""
"543","","260808","HierDyxt06ao5w","1wslur47e8","ms1000356","motorRepeat","","74","img/motor_6.png","74","motor","6","139","1","0","0","",""
"null","","260923","HierDyxt06ao5w","1wslur47e8","ms1000356","iti","","null","img/motor_6.png","74","motor","","","","","","",""
"780","","261714","HierDyxt06ao5w","1wslur47e8","ms1000356","motor","","83","img/motor_2.png","83","motor","2","140","1","0","0","",""
"null","","261823","HierDyxt06ao5w","1wslur47e8","ms1000356","iti","","null","img/motor_2.png","83","motor","","","","","","",""
"617","","262448","HierDyxt06ao5w","1wslur47e8","ms1000356","motor","","65","img/motor_1.png","65","motor","1","141","1","0","0","",""
"null","","262558","HierDyxt06ao5w","1wslur47e8","ms1000356","iti","","null","img/motor_1.png","65","motor","","","","","","",""
"722","","263289","HierDyxt06ao5w","1wslur47e8","ms1000356","motor","","83","img/motor_2.png","83","motor","2","142","1","0","0","",""
"null","","263405","HierDyxt06ao5w","1wslur47e8","ms1000356","iti","","null","img/motor_2.png","83","motor","","","","","","",""
"529","","263944","HierDyxt06ao5w","1wslur47e8","ms1000356","motor","","70","img/motor_4.png","70","motor","4","143","1","0","0","",""
"null","","264052","HierDyxt06ao5w","1wslur47e8","ms1000356","iti","","null","img/motor_4.png","70","motor","","","","","","",""
"563","","264623","HierDyxt06ao5w","1wslur47e8","ms1000356","motor","","65","img/motor_1.png","65","motor","1","144","1","0","0","",""
"null","","264732","HierDyxt06ao5w","1wslur47e8","ms1000356","iti","","null","img/motor_1.png","65","motor","","","","","","",""
"716","","265457","HierDyxt06ao5w","1wslur47e8","ms1000356","motor","","74","img/motor_6.png","74","motor","6","145","1","0","0","",""
"null","","265571","HierDyxt06ao5w","1wslur47e8","ms1000356","iti","","null","img/motor_6.png","74","motor","","","","","","",""
"779","","266360","HierDyxt06ao5w","1wslur47e8","ms1000356","motor","","74","img/motor_6.png","74","motor","6","146","1","0","0","",""
"null","","266475","HierDyxt06ao5w","1wslur47e8","ms1000356","iti","","null","img/motor_6.png","74","motor","","","","","","",""
"476","","266967","HierDyxt06ao5w","1wslur47e8","ms1000356","motor","","65","img/motor_1.png","65","motor","1","147","1","0","0","",""
"null","","267076","HierDyxt06ao5w","1wslur47e8","ms1000356","iti","","null","img/motor_1.png","65","motor","","","","","","",""
"476","","267566","HierDyxt06ao5w","1wslur47e8","ms1000356","motor","","70","img/motor_4.png","70","motor","4","148","1","0","0","",""
"null","","267676","HierDyxt06ao5w","1wslur47e8","ms1000356","iti","","null","img/motor_4.png","70","motor","","","","","","",""
"491","","268183","HierDyxt06ao5w","1wslur47e8","ms1000356","motor","","76","img/motor_8.png","76","motor","8","149","1","0","0","",""
"null","","268292","HierDyxt06ao5w","1wslur47e8","ms1000356","iti","","null","img/motor_8.png","76","motor","","","","","","",""
"556","","268862","HierDyxt06ao5w","1wslur47e8","ms1000356","motor","","70","img/motor_4.png","70","motor","4","150","1","0","0","",""
"null","","268978","HierDyxt06ao5w","1wslur47e8","ms1000356","iti","","null","img/motor_4.png","70","motor","","","","","","",""
"604","","269598","HierDyxt06ao5w","1wslur47e8","ms1000356","motor","","83","img/motor_3.png","68","motor","3","151","0","1","0","",""
"328","","269936","HierDyxt06ao5w","1wslur47e8","ms1000356","motorRepeat","","68","img/motor_3.png","68","motor","3","151","1","0","0","",""
"null","","270051","HierDyxt06ao5w","1wslur47e8","ms1000356","iti","","null","img/motor_3.png","68","motor","","","","","","",""
"612","","270672","HierDyxt06ao5w","1wslur47e8","ms1000356","motor","","65","img/motor_1.png","65","motor","1","152","1","0","0","",""
"null","","270781","HierDyxt06ao5w","1wslur47e8","ms1000356","iti","","null","img/motor_1.png","65","motor","","","","","","",""
"660","","271449","HierDyxt06ao5w","1wslur47e8","ms1000356","motor","","74","img/motor_6.png","74","motor","6","153","1","0","0","",""
"null","","271557","HierDyxt06ao5w","1wslur47e8","ms1000356","iti","","null","img/motor_6.png","74","motor","","","","","","",""
"579","","272151","HierDyxt06ao5w","1wslur47e8","ms1000356","motor","","68","img/motor_3.png","68","motor","3","154","1","0","0","",""
"null","","272260","HierDyxt06ao5w","1wslur47e8","ms1000356","iti","","null","img/motor_3.png","68","motor","","","","","","",""
"627","","272897","HierDyxt06ao5w","1wslur47e8","ms1000356","motor","","65","img/motor_1.png","65","motor","1","155","1","0","0","",""
"null","","273005","HierDyxt06ao5w","1wslur47e8","ms1000356","iti","","null","img/motor_1.png","65","motor","","","","","","",""
"554","","273568","HierDyxt06ao5w","1wslur47e8","ms1000356","motor","","74","img/motor_6.png","74","motor","6","156","1","0","0","",""
"null","","273683","HierDyxt06ao5w","1wslur47e8","ms1000356","iti","","null","img/motor_6.png","74","motor","","","","","","",""
"684","","274376","HierDyxt06ao5w","1wslur47e8","ms1000356","motor","","68","img/motor_3.png","68","motor","3","157","1","0","0","",""
"null","","274491","HierDyxt06ao5w","1wslur47e8","ms1000356","iti","","null","img/motor_3.png","68","motor","","","","","","",""
"484","","274984","HierDyxt06ao5w","1wslur47e8","ms1000356","motor","","76","img/motor_8.png","76","motor","8","158","1","0","0","",""
"null","","275099","HierDyxt06ao5w","1wslur47e8","ms1000356","iti","","null","img/motor_8.png","76","motor","","","","","","",""
"652","","275760","HierDyxt06ao5w","1wslur47e8","ms1000356","motor","","72","img/motor_5.png","72","motor","5","159","1","0","0","",""
"null","","275875","HierDyxt06ao5w","1wslur47e8","ms1000356","iti","","null","img/motor_5.png","72","motor","","","","","","",""
"524","","276408","HierDyxt06ao5w","1wslur47e8","ms1000356","motor","","68","img/motor_3.png","68","motor","3","160","1","0","0","",""
"null","","276517","HierDyxt06ao5w","1wslur47e8","ms1000356","iti","","null","img/motor_3.png","68","motor","","","","","","",""
"571","","277095","HierDyxt06ao5w","1wslur47e8","ms1000356","motor","","72","img/motor_5.png","72","motor","5","161","1","0","0","",""
"null","","277204","HierDyxt06ao5w","1wslur47e8","ms1000356","iti","","null","img/motor_5.png","72","motor","","","","","","",""
"444","","277656","HierDyxt06ao5w","1wslur47e8","ms1000356","motor","","72","img/motor_5.png","72","motor","5","162","1","0","0","",""
"null","","277764","HierDyxt06ao5w","1wslur47e8","ms1000356","iti","","null","img/motor_5.png","72","motor","","","","","","",""
"523","","278296","HierDyxt06ao5w","1wslur47e8","ms1000356","motor","","74","img/motor_6.png","74","motor","6","163","1","0","0","",""
"null","","278404","HierDyxt06ao5w","1wslur47e8","ms1000356","iti","","null","img/motor_6.png","74","motor","","","","","","",""
"555","","278967","HierDyxt06ao5w","1wslur47e8","ms1000356","motor","","65","img/motor_1.png","65","motor","1","164","1","0","0","",""
"null","","279076","HierDyxt06ao5w","1wslur47e8","ms1000356","iti","","null","img/motor_1.png","65","motor","","","","","","",""
"412","","279496","HierDyxt06ao5w","1wslur47e8","ms1000356","motor","","65","img/motor_2.png","83","motor","2","165","0","1","0","",""
"367","","279872","HierDyxt06ao5w","1wslur47e8","ms1000356","motorRepeat","","83","img/motor_2.png","83","motor","2","165","1","0","0","",""
"null","","279980","HierDyxt06ao5w","1wslur47e8","ms1000356","iti","","null","img/motor_2.png","83","motor","","","","","","",""
"756","","280743","HierDyxt06ao5w","1wslur47e8","ms1000356","motor","","74","img/motor_5.png","72","motor","5","166","0","1","0","",""
"296","","281047","HierDyxt06ao5w","1wslur47e8","ms1000356","motorRepeat","","72","img/motor_5.png","72","motor","5","166","1","0","0","",""
"null","","281156","HierDyxt06ao5w","1wslur47e8","ms1000356","iti","","null","img/motor_5.png","72","motor","","","","","","",""
"667","","281833","HierDyxt06ao5w","1wslur47e8","ms1000356","motor","","65","img/motor_1.png","65","motor","1","167","1","0","0","",""
"null","","281947","HierDyxt06ao5w","1wslur47e8","ms1000356","iti","","null","img/motor_1.png","65","motor","","","","","","",""
"468","","282424","HierDyxt06ao5w","1wslur47e8","ms1000356","motor","","65","img/motor_1.png","65","motor","1","168","1","0","0","",""
"null","","282532","HierDyxt06ao5w","1wslur47e8","ms1000356","iti","","null","img/motor_1.png","65","motor","","","","","","",""
"532","","283072","HierDyxt06ao5w","1wslur47e8","ms1000356","motor","","70","img/motor_4.png","70","motor","4","169","1","0","0","",""
"null","","283181","HierDyxt06ao5w","1wslur47e8","ms1000356","iti","","null","img/motor_4.png","70","motor","","","","","","",""
"611","","283800","HierDyxt06ao5w","1wslur47e8","ms1000356","motor","","75","img/motor_7.png","75","motor","7","170","1","0","0","",""
"null","","283914","HierDyxt06ao5w","1wslur47e8","ms1000356","iti","","null","img/motor_7.png","75","motor","","","","","","",""
"821","","284751","HierDyxt06ao5w","1wslur47e8","ms1000356","motor","","74","img/motor_6.png","74","motor","6","171","1","0","0","",""
"null","","284866","HierDyxt06ao5w","1wslur47e8","ms1000356","iti","","null","img/motor_6.png","74","motor","","","","","","",""
"533","","285415","HierDyxt06ao5w","1wslur47e8","ms1000356","motor","","72","img/motor_5.png","72","motor","5","172","1","0","0","",""
"null","","285524","HierDyxt06ao5w","1wslur47e8","ms1000356","iti","","null","img/motor_5.png","72","motor","","","","","","",""
"603","","286136","HierDyxt06ao5w","1wslur47e8","ms1000356","motor","","83","img/motor_2.png","83","motor","2","173","1","0","0","",""
"null","","286245","HierDyxt06ao5w","1wslur47e8","ms1000356","iti","","null","img/motor_2.png","83","motor","","","","","","",""
"715","","286975","HierDyxt06ao5w","1wslur47e8","ms1000356","motor","","74","img/motor_6.png","74","motor","6","174","1","0","0","",""
"null","","287084","HierDyxt06ao5w","1wslur47e8","ms1000356","iti","","null","img/motor_6.png","74","motor","","","","","","",""
"580","","287672","HierDyxt06ao5w","1wslur47e8","ms1000356","motor","","75","img/motor_7.png","75","motor","7","175","1","0","0","",""
"null","","287780","HierDyxt06ao5w","1wslur47e8","ms1000356","iti","","null","img/motor_7.png","75","motor","","","","","","",""
"411","","288199","HierDyxt06ao5w","1wslur47e8","ms1000356","motor","","76","img/motor_8.png","76","motor","8","176","1","0","0","",""
"null","","288313","HierDyxt06ao5w","1wslur47e8","ms1000356","iti","","null","img/motor_8.png","76","motor","","","","","","",""
"646","","288968","HierDyxt06ao5w","1wslur47e8","ms1000356","motor","","75","img/motor_7.png","75","motor","7","177","1","0","0","",""
"null","","289077","HierDyxt06ao5w","1wslur47e8","ms1000356","iti","","null","img/motor_7.png","75","motor","","","","","","",""
"691","","289776","HierDyxt06ao5w","1wslur47e8","ms1000356","motor","","70","img/motor_4.png","70","motor","4","178","1","0","0","",""
"null","","289891","HierDyxt06ao5w","1wslur47e8","ms1000356","iti","","null","img/motor_4.png","70","motor","","","","","","",""
"796","","290696","HierDyxt06ao5w","1wslur47e8","ms1000356","motor","","72","img/motor_5.png","72","motor","5","179","1","0","0","",""
"null","","290811","HierDyxt06ao5w","1wslur47e8","ms1000356","iti","","null","img/motor_5.png","72","motor","","","","","","",""
"539","","291360","HierDyxt06ao5w","1wslur47e8","ms1000356","motor","","65","img/motor_1.png","65","motor","1","180","1","0","0","",""
"null","","291469","HierDyxt06ao5w","1wslur47e8","ms1000356","iti","","null","img/motor_1.png","65","motor","","","","","","",""
"603","","292087","HierDyxt06ao5w","1wslur47e8","ms1000356","motor","","75","img/motor_7.png","75","motor","7","181","1","0","0","",""
"null","","292196","HierDyxt06ao5w","1wslur47e8","ms1000356","iti","","null","img/motor_7.png","75","motor","","","","","","",""
"579","","292791","HierDyxt06ao5w","1wslur47e8","ms1000356","motor","","74","img/motor_6.png","74","motor","6","182","1","0","0","",""
"null","","292900","HierDyxt06ao5w","1wslur47e8","ms1000356","iti","","null","img/motor_6.png","74","motor","","","","","","",""
"372","","293287","HierDyxt06ao5w","1wslur47e8","ms1000356","motor","","75","img/motor_7.png","75","motor","7","183","1","0","0","",""
"null","","293403","HierDyxt06ao5w","1wslur47e8","ms1000356","iti","","null","img/motor_7.png","75","motor","","","","","","",""
"668","","294087","HierDyxt06ao5w","1wslur47e8","ms1000356","motor","","72","img/motor_5.png","72","motor","5","184","1","0","0","",""
"null","","294203","HierDyxt06ao5w","1wslur47e8","ms1000356","iti","","null","img/motor_5.png","72","motor","","","","","","",""
"516","","294728","HierDyxt06ao5w","1wslur47e8","ms1000356","motor","","76","img/motor_8.png","76","motor","8","185","1","0","0","",""
"null","","294836","HierDyxt06ao5w","1wslur47e8","ms1000356","iti","","null","img/motor_8.png","76","motor","","","","","","",""
"499","","295344","HierDyxt06ao5w","1wslur47e8","ms1000356","motor","","76","img/motor_8.png","76","motor","8","186","1","0","0","",""
"null","","295452","HierDyxt06ao5w","1wslur47e8","ms1000356","iti","","null","img/motor_8.png","76","motor","","","","","","",""
"682","","296144","HierDyxt06ao5w","1wslur47e8","ms1000356","motor","","83","img/motor_2.png","83","motor","2","187","1","0","0","",""
"null","","296253","HierDyxt06ao5w","1wslur47e8","ms1000356","iti","","null","img/motor_2.png","83","motor","","","","","","",""
"675","","296943","HierDyxt06ao5w","1wslur47e8","ms1000356","motor","","75","img/motor_7.png","75","motor","7","188","1","0","0","",""
"null","","297053","HierDyxt06ao5w","1wslur47e8","ms1000356","iti","","null","img/motor_7.png","75","motor","","","","","","",""
"451","","297519","HierDyxt06ao5w","1wslur47e8","ms1000356","motor","","83","img/motor_2.png","83","motor","2","189","1","0","0","",""
"null","","297634","HierDyxt06ao5w","1wslur47e8","ms1000356","iti","","null","img/motor_2.png","83","motor","","","","","","",""
"604","","298247","HierDyxt06ao5w","1wslur47e8","ms1000356","motor","","70","img/motor_4.png","70","motor","4","190","1","0","0","",""
"null","","298363","HierDyxt06ao5w","1wslur47e8","ms1000356","iti","","null","img/motor_4.png","70","motor","","","","","","",""
"421","","298792","HierDyxt06ao5w","1wslur47e8","ms1000356","motor","","83","img/motor_1.png","65","motor","1","191","0","1","0","",""
"335","","299136","HierDyxt06ao5w","1wslur47e8","ms1000356","motorRepeat","","65","img/motor_1.png","65","motor","1","191","1","0","0","",""
"null","","299244","HierDyxt06ao5w","1wslur47e8","ms1000356","iti","","null","img/motor_1.png","65","motor","","","","","","",""
"819","","300072","HierDyxt06ao5w","1wslur47e8","ms1000356","motor","","74","img/motor_6.png","74","motor","6","192","1","0","0","",""
"null","","300187","HierDyxt06ao5w","1wslur47e8","ms1000356","iti","","null","img/motor_6.png","74","motor","","","","","","",""
"397","","300592","HierDyxt06ao5w","1wslur47e8","ms1000356","motor","","76","img/motor_8.png","76","motor","8","193","1","0","0","",""
"null","","300698","HierDyxt06ao5w","1wslur47e8","ms1000356","iti","","null","img/motor_8.png","76","motor","","","","","","",""
"934","","301647","HierDyxt06ao5w","1wslur47e8","ms1000356","motor","","68","img/motor_3.png","68","motor","3","194","1","0","0","",""
"null","","301762","HierDyxt06ao5w","1wslur47e8","ms1000356","iti","","null","img/motor_3.png","68","motor","","","","","","",""
"556","","302335","HierDyxt06ao5w","1wslur47e8","ms1000356","motor","","74","img/motor_6.png","74","motor","6","195","1","0","0","",""
"null","","302445","HierDyxt06ao5w","1wslur47e8","ms1000356","iti","","null","img/motor_6.png","74","motor","","","","","","",""
"492","","302951","HierDyxt06ao5w","1wslur47e8","ms1000356","motor","","72","img/motor_5.png","72","motor","5","196","1","0","0","",""
"null","","303059","HierDyxt06ao5w","1wslur47e8","ms1000356","iti","","null","img/motor_5.png","72","motor","","","","","","",""
"379","","303449","HierDyxt06ao5w","1wslur47e8","ms1000356","motor","","74","img/motor_6.png","74","motor","6","197","1","0","0","",""
"null","","303557","HierDyxt06ao5w","1wslur47e8","ms1000356","iti","","null","img/motor_6.png","74","motor","","","","","","",""
"419","","303984","HierDyxt06ao5w","1wslur47e8","ms1000356","motor","","76","img/motor_8.png","76","motor","8","198","1","0","0","",""
"null","","304099","HierDyxt06ao5w","1wslur47e8","ms1000356","iti","","null","img/motor_8.png","76","motor","","","","","","",""
"484","","304598","HierDyxt06ao5w","1wslur47e8","ms1000356","motor","","65","img/motor_1.png","65","motor","1","199","1","0","0","",""
"null","","304714","HierDyxt06ao5w","1wslur47e8","ms1000356","iti","","null","img/motor_1.png","65","motor","","","","","","",""
"694","","305423","HierDyxt06ao5w","1wslur47e8","ms1000356","motor","","75","img/motor_7.png","75","motor","7","200","1","0","0","",""
"null","","305539","HierDyxt06ao5w","1wslur47e8","ms1000356","iti","","null","img/motor_7.png","75","motor","","","","","","",""
"508","","306056","HierDyxt06ao5w","1wslur47e8","ms1000356","motor","","76","img/motor_8.png","76","motor","8","201","1","0","0","",""
"null","","306164","HierDyxt06ao5w","1wslur47e8","ms1000356","iti","","null","img/motor_8.png","76","motor","","","","","","",""
"619","","306798","HierDyxt06ao5w","1wslur47e8","ms1000356","motor","","75","img/motor_7.png","75","motor","7","202","1","0","0","",""
"null","","306907","HierDyxt06ao5w","1wslur47e8","ms1000356","iti","","null","img/motor_7.png","75","motor","","","","","","",""
"436","","307352","HierDyxt06ao5w","1wslur47e8","ms1000356","motor","","75","img/motor_7.png","75","motor","7","203","1","0","0","",""
"null","","307466","HierDyxt06ao5w","1wslur47e8","ms1000356","iti","","null","img/motor_7.png","75","motor","","","","","","",""
"629","","308103","HierDyxt06ao5w","1wslur47e8","ms1000356","motor","","65","img/motor_1.png","65","motor","1","204","1","0","0","",""
"null","","308211","HierDyxt06ao5w","1wslur47e8","ms1000356","iti","","null","img/motor_1.png","65","motor","","","","","","",""
"717","","308943","HierDyxt06ao5w","1wslur47e8","ms1000356","motor","","65","img/motor_1.png","65","motor","1","205","1","0","0","",""
"null","","309059","HierDyxt06ao5w","1wslur47e8","ms1000356","iti","","null","img/motor_1.png","65","motor","","","","","","",""
"701","","309768","HierDyxt06ao5w","1wslur47e8","ms1000356","motor","","74","img/motor_6.png","74","motor","6","206","1","0","0","",""
"null","","309877","HierDyxt06ao5w","1wslur47e8","ms1000356","iti","","null","img/motor_6.png","74","motor","","","","","","",""
"459","","310350","HierDyxt06ao5w","1wslur47e8","ms1000356","motor","","76","img/motor_8.png","76","motor","8","207","1","0","0","",""
"null","","310460","HierDyxt06ao5w","1wslur47e8","ms1000356","iti","","null","img/motor_8.png","76","motor","","","","","","",""
"563","","311032","HierDyxt06ao5w","1wslur47e8","ms1000356","motor","","74","img/motor_6.png","74","motor","6","208","1","0","0","",""
"null","","311147","HierDyxt06ao5w","1wslur47e8","ms1000356","iti","","null","img/motor_6.png","74","motor","","","","","","",""
"524","","311680","HierDyxt06ao5w","1wslur47e8","ms1000356","motor","","75","img/motor_7.png","75","motor","7","209","1","0","0","",""
"null","","311789","HierDyxt06ao5w","1wslur47e8","ms1000356","iti","","null","img/motor_7.png","75","motor","","","","","","",""
"579","","312375","HierDyxt06ao5w","1wslur47e8","ms1000356","motor","","65","img/motor_1.png","65","motor","1","210","1","0","0","",""
"null","","312491","HierDyxt06ao5w","1wslur47e8","ms1000356","iti","","null","img/motor_1.png","65","motor","","","","","","",""
"580","","313080","HierDyxt06ao5w","1wslur47e8","ms1000356","motor","","74","img/motor_6.png","74","motor","6","211","1","0","0","",""
"null","","313189","HierDyxt06ao5w","1wslur47e8","ms1000356","iti","","null","img/motor_6.png","74","motor","","","","","","",""
"516","","313719","HierDyxt06ao5w","1wslur47e8","ms1000356","motor","","70","img/motor_4.png","70","motor","4","212","1","0","0","",""
"null","","313828","HierDyxt06ao5w","1wslur47e8","ms1000356","iti","","null","img/motor_4.png","70","motor","","","","","","",""
"460","","314303","HierDyxt06ao5w","1wslur47e8","ms1000356","motor","","74","img/motor_5.png","72","motor","5","213","0","1","0","",""
"385","","314702","HierDyxt06ao5w","1wslur47e8","ms1000356","motorRepeat","","70","img/motor_5.png","72","motor","5","213","0","1","0","",""
"121","","314838","HierDyxt06ao5w","1wslur47e8","ms1000356","motorRepeat","","72","img/motor_5.png","72","motor","5","213","1","0","0","",""
"null","","314954","HierDyxt06ao5w","1wslur47e8","ms1000356","iti","","null","img/motor_5.png","72","motor","","","","","","",""
"749","","315719","HierDyxt06ao5w","1wslur47e8","ms1000356","motor","","72","img/motor_5.png","72","motor","5","214","1","0","0","",""
"null","","315828","HierDyxt06ao5w","1wslur47e8","ms1000356","iti","","null","img/motor_5.png","72","motor","","","","","","",""
"475","","316319","HierDyxt06ao5w","1wslur47e8","ms1000356","motor","","70","img/motor_4.png","70","motor","4","215","1","0","0","",""
"null","","316429","HierDyxt06ao5w","1wslur47e8","ms1000356","iti","","null","img/motor_4.png","70","motor","","","","","","",""
"468","","316904","HierDyxt06ao5w","1wslur47e8","ms1000356","motor","","70","img/motor_4.png","70","motor","4","216","1","0","0","",""
"null","","317013","HierDyxt06ao5w","1wslur47e8","ms1000356","iti","","null","img/motor_4.png","70","motor","","","","","","",""
"459","","317480","HierDyxt06ao5w","1wslur47e8","ms1000356","motor","","74","img/motor_7.png","75","motor","7","217","0","1","0","",""
"311","","317801","HierDyxt06ao5w","1wslur47e8","ms1000356","motorRepeat","","75","img/motor_7.png","75","motor","7","217","1","0","0","",""
"null","","317908","HierDyxt06ao5w","1wslur47e8","ms1000356","iti","","null","img/motor_7.png","75","motor","","","","","","",""
"748","","318664","HierDyxt06ao5w","1wslur47e8","ms1000356","motor","","70","img/motor_4.png","70","motor","4","218","1","0","0","",""
"null","","318773","HierDyxt06ao5w","1wslur47e8","ms1000356","iti","","null","img/motor_4.png","70","motor","","","","","","",""
"459","","319240","HierDyxt06ao5w","1wslur47e8","ms1000356","motor","","75","img/motor_7.png","75","motor","7","219","1","0","0","",""
"null","","319348","HierDyxt06ao5w","1wslur47e8","ms1000356","iti","","null","img/motor_7.png","75","motor","","","","","","",""
"443","","319798","HierDyxt06ao5w","1wslur47e8","ms1000356","motor","","75","img/motor_7.png","75","motor","7","220","1","0","0","",""
"null","","319907","HierDyxt06ao5w","1wslur47e8","ms1000356","iti","","null","img/motor_7.png","75","motor","","","","","","",""
"653","","320568","HierDyxt06ao5w","1wslur47e8","ms1000356","motor","","83","img/motor_2.png","83","motor","2","221","1","0","0","",""
"null","","320677","HierDyxt06ao5w","1wslur47e8","ms1000356","iti","","null","img/motor_2.png","83","motor","","","","","","",""
"483","","321167","HierDyxt06ao5w","1wslur47e8","ms1000356","motor","","70","img/motor_4.png","70","motor","4","222","1","0","0","",""
"null","","321283","HierDyxt06ao5w","1wslur47e8","ms1000356","iti","","null","img/motor_4.png","70","motor","","","","","","",""
"572","","321871","HierDyxt06ao5w","1wslur47e8","ms1000356","motor","","68","img/motor_3.png","68","motor","3","223","1","0","0","",""
"null","","321987","HierDyxt06ao5w","1wslur47e8","ms1000356","iti","","null","img/motor_3.png","68","motor","","","","","","",""
"1269","","323271","HierDyxt06ao5w","1wslur47e8","ms1000356","motor","","75","img/motor_7.png","75","motor","7","224","1","0","0","",""
"null","","323387","HierDyxt06ao5w","1wslur47e8","ms1000356","iti","","null","img/motor_7.png","75","motor","","","","","","",""
"557","","323951","HierDyxt06ao5w","1wslur47e8","ms1000356","motor","","76","img/motor_8.png","76","motor","8","225","1","0","0","",""
"null","","324060","HierDyxt06ao5w","1wslur47e8","ms1000356","iti","","null","img/motor_8.png","76","motor","","","","","","",""
"540","","324614","HierDyxt06ao5w","1wslur47e8","ms1000356","motor","","75","img/motor_7.png","75","motor","7","226","1","0","0","",""
"null","","324724","HierDyxt06ao5w","1wslur47e8","ms1000356","iti","","null","img/motor_7.png","75","motor","","","","","","",""
"596","","325335","HierDyxt06ao5w","1wslur47e8","ms1000356","motor","","75","img/motor_7.png","75","motor","7","227","1","0","0","",""
"null","","325444","HierDyxt06ao5w","1wslur47e8","ms1000356","iti","","null","img/motor_7.png","75","motor","","","","","","",""
"572","","326027","HierDyxt06ao5w","1wslur47e8","ms1000356","motor","","74","img/motor_6.png","74","motor","6","228","1","0","0","",""
"null","","326136","HierDyxt06ao5w","1wslur47e8","ms1000356","iti","","null","img/motor_6.png","74","motor","","","","","","",""
"521","","326664","HierDyxt06ao5w","1wslur47e8","ms1000356","motor","","74","img/motor_6.png","74","motor","6","229","1","0","0","",""
"null","","326780","HierDyxt06ao5w","1wslur47e8","ms1000356","iti","","null","img/motor_6.png","74","motor","","","","","","",""
"556","","327344","HierDyxt06ao5w","1wslur47e8","ms1000356","motor","","65","img/motor_1.png","65","motor","1","230","1","0","0","",""
"null","","327453","HierDyxt06ao5w","1wslur47e8","ms1000356","iti","","null","img/motor_1.png","65","motor","","","","","","",""
"634","","328096","HierDyxt06ao5w","1wslur47e8","ms1000356","motor","","74","img/motor_6.png","74","motor","6","231","1","0","0","",""
"null","","328204","HierDyxt06ao5w","1wslur47e8","ms1000356","iti","","null","img/motor_6.png","74","motor","","","","","","",""
"692","","328903","HierDyxt06ao5w","1wslur47e8","ms1000356","motor","","68","img/motor_3.png","68","motor","3","232","1","0","0","",""
"null","","329013","HierDyxt06ao5w","1wslur47e8","ms1000356","iti","","null","img/motor_3.png","68","motor","","","","","","",""
"915","","329943","HierDyxt06ao5w","1wslur47e8","ms1000356","motor","","72","img/motor_5.png","72","motor","5","233","1","0","0","",""
"null","","330049","HierDyxt06ao5w","1wslur47e8","ms1000356","iti","","null","img/motor_5.png","72","motor","","","","","","",""
"583","","330639","HierDyxt06ao5w","1wslur47e8","ms1000356","motor","","70","img/motor_4.png","70","motor","4","234","1","0","0","",""
"null","","330755","HierDyxt06ao5w","1wslur47e8","ms1000356","iti","","null","img/motor_4.png","70","motor","","","","","","",""
"500","","331264","HierDyxt06ao5w","1wslur47e8","ms1000356","motor","","76","img/motor_8.png","76","motor","8","235","1","0","0","",""
"null","","331373","HierDyxt06ao5w","1wslur47e8","ms1000356","iti","","null","img/motor_8.png","76","motor","","","","","","",""
"652","","332033","HierDyxt06ao5w","1wslur47e8","ms1000356","motor","","68","img/motor_3.png","68","motor","3","236","1","0","0","",""
"null","","332147","HierDyxt06ao5w","1wslur47e8","ms1000356","iti","","null","img/motor_3.png","68","motor","","","","","","",""
"787","","332951","HierDyxt06ao5w","1wslur47e8","ms1000356","motor","","72","img/motor_5.png","72","motor","5","237","1","0","0","",""
"null","","333060","HierDyxt06ao5w","1wslur47e8","ms1000356","iti","","null","img/motor_5.png","72","motor","","","","","","",""
"627","","333697","HierDyxt06ao5w","1wslur47e8","ms1000356","motor","","74","img/motor_6.png","74","motor","6","238","1","0","0","",""
"null","","333811","HierDyxt06ao5w","1wslur47e8","ms1000356","iti","","null","img/motor_6.png","74","motor","","","","","","",""
"492","","334312","HierDyxt06ao5w","1wslur47e8","ms1000356","motor","","68","img/motor_3.png","68","motor","3","239","1","0","0","",""
"null","","334426","HierDyxt06ao5w","1wslur47e8","ms1000356","iti","","null","img/motor_3.png","68","motor","","","","","","",""
"499","","334936","HierDyxt06ao5w","1wslur47e8","ms1000356","motor","","74","img/motor_6.png","74","motor","6","240","1","0","0","",""
"null","","335051","HierDyxt06ao5w","1wslur47e8","ms1000356","iti","","null","img/motor_6.png","74","motor","","","","","","",""
"364","","335424","HierDyxt06ao5w","1wslur47e8","ms1000356","motor","","68","img/motor_2.png","83","motor","2","241","0","1","0","",""
"399","","335832","HierDyxt06ao5w","1wslur47e8","ms1000356","motorRepeat","","83","img/motor_2.png","83","motor","2","241","1","0","0","",""
"null","","335947","HierDyxt06ao5w","1wslur47e8","ms1000356","iti","","null","img/motor_2.png","83","motor","","","","","","",""
"636","","336599","HierDyxt06ao5w","1wslur47e8","ms1000356","motor","","70","img/motor_4.png","70","motor","4","242","1","0","0","",""
"null","","336715","HierDyxt06ao5w","1wslur47e8","ms1000356","iti","","null","img/motor_4.png","70","motor","","","","","","",""
"540","","337270","HierDyxt06ao5w","1wslur47e8","ms1000356","motor","","70","img/motor_4.png","70","motor","4","243","1","0","0","",""
"null","","337387","HierDyxt06ao5w","1wslur47e8","ms1000356","iti","","null","img/motor_4.png","70","motor","","","","","","",""
"773","","338168","HierDyxt06ao5w","1wslur47e8","ms1000356","motor","","68","img/motor_3.png","68","motor","3","244","1","0","0","",""
"null","","338283","HierDyxt06ao5w","1wslur47e8","ms1000356","iti","","null","img/motor_3.png","68","motor","","","","","","",""
"588","","338887","HierDyxt06ao5w","1wslur47e8","ms1000356","motor","","70","img/motor_4.png","70","motor","4","245","1","0","0","",""
"null","","339002","HierDyxt06ao5w","1wslur47e8","ms1000356","iti","","null","img/motor_4.png","70","motor","","","","","","",""
"596","","339608","HierDyxt06ao5w","1wslur47e8","ms1000356","motor","","74","img/motor_6.png","74","motor","6","246","1","0","0","",""
"null","","339723","HierDyxt06ao5w","1wslur47e8","ms1000356","iti","","null","img/motor_6.png","74","motor","","","","","","",""
"572","","340302","HierDyxt06ao5w","1wslur47e8","ms1000356","motor","","65","img/motor_1.png","65","motor","1","247","1","0","0","",""
"null","","340411","HierDyxt06ao5w","1wslur47e8","ms1000356","iti","","null","img/motor_1.png","65","motor","","","","","","",""
"621","","341047","HierDyxt06ao5w","1wslur47e8","ms1000356","motor","","76","img/motor_8.png","76","motor","8","248","1","0","0","",""
"null","","341162","HierDyxt06ao5w","1wslur47e8","ms1000356","iti","","null","img/motor_8.png","76","motor","","","","","","",""
"741","","341911","HierDyxt06ao5w","1wslur47e8","ms1000356","motor","","68","img/motor_3.png","68","motor","3","249","1","0","0","",""
"null","","342026","HierDyxt06ao5w","1wslur47e8","ms1000356","iti","","null","img/motor_3.png","68","motor","","","","","","",""
"422","","342456","HierDyxt06ao5w","1wslur47e8","ms1000356","motor","","76","img/motor_7.png","75","motor","7","250","0","1","0","",""
"384","","342848","HierDyxt06ao5w","1wslur47e8","ms1000356","motorRepeat","","75","img/motor_7.png","75","motor","7","250","1","0","0","",""
"null","","342956","HierDyxt06ao5w","1wslur47e8","ms1000356","iti","","null","img/motor_7.png","75","motor","","","","","","",""
"556","","343520","HierDyxt06ao5w","1wslur47e8","ms1000356","motor","","68","img/motor_3.png","68","motor","3","251","1","0","0","",""
"null","","343636","HierDyxt06ao5w","1wslur47e8","ms1000356","iti","","null","img/motor_3.png","68","motor","","","","","","",""
"659","","344310","HierDyxt06ao5w","1wslur47e8","ms1000356","motor","","83","img/motor_2.png","83","motor","2","252","1","0","0","",""
"null","","344419","HierDyxt06ao5w","1wslur47e8","ms1000356","iti","","null","img/motor_2.png","83","motor","","","","","","",""
"757","","345191","HierDyxt06ao5w","1wslur47e8","ms1000356","motor","","75","img/motor_7.png","75","motor","7","253","1","0","0","",""
"null","","345300","HierDyxt06ao5w","1wslur47e8","ms1000356","iti","","null","img/motor_7.png","75","motor","","","","","","",""
"532","","345846","HierDyxt06ao5w","1wslur47e8","ms1000356","motor","","83","img/motor_2.png","83","motor","2","254","1","0","0","",""
"null","","345956","HierDyxt06ao5w","1wslur47e8","ms1000356","iti","","null","img/motor_2.png","83","motor","","","","","","",""
"435","","346406","HierDyxt06ao5w","1wslur47e8","ms1000356","motor","","75","img/motor_7.png","75","motor","7","255","1","0","0","",""
"null","","346517","HierDyxt06ao5w","1wslur47e8","ms1000356","iti","","null","img/motor_7.png","75","motor","","","","","","",""
"532","","347056","HierDyxt06ao5w","1wslur47e8","ms1000356","motor","","76","img/motor_8.png","76","motor","8","256","1","0","0","",""
"null","","347165","HierDyxt06ao5w","1wslur47e8","ms1000356","iti","","null","img/motor_8.png","76","motor","","","","","","",""
"522","","347695","HierDyxt06ao5w","1wslur47e8","ms1000356","motor","","65","img/motor_1.png","65","motor","1","257","1","0","0","",""
"null","","347810","HierDyxt06ao5w","1wslur47e8","ms1000356","iti","","null","img/motor_1.png","65","motor","","","","","","",""
"484","","348303","HierDyxt06ao5w","1wslur47e8","ms1000356","motor","","76","img/motor_8.png","76","motor","8","258","1","0","0","",""
"null","","348412","HierDyxt06ao5w","1wslur47e8","ms1000356","iti","","null","img/motor_8.png","76","motor","","","","","","",""
"637","","349056","HierDyxt06ao5w","1wslur47e8","ms1000356","motor","","70","img/motor_4.png","70","motor","4","259","1","0","0","",""
"null","","349172","HierDyxt06ao5w","1wslur47e8","ms1000356","iti","","null","img/motor_4.png","70","motor","","","","","","",""
"587","","349768","HierDyxt06ao5w","1wslur47e8","ms1000356","motor","","83","img/motor_2.png","83","motor","2","260","1","0","0","",""
"null","","349883","HierDyxt06ao5w","1wslur47e8","ms1000356","iti","","null","img/motor_2.png","83","motor","","","","","","",""
"628","","350519","HierDyxt06ao5w","1wslur47e8","ms1000356","motor","","74","img/motor_6.png","74","motor","6","261","1","0","0","",""
"null","","350628","HierDyxt06ao5w","1wslur47e8","ms1000356","iti","","null","img/motor_6.png","74","motor","","","","","","",""
"507","","351150","HierDyxt06ao5w","1wslur47e8","ms1000356","motor","","65","img/motor_1.png","65","motor","1","262","1","0","0","",""
"null","","351260","HierDyxt06ao5w","1wslur47e8","ms1000356","iti","","null","img/motor_1.png","65","motor","","","","","","",""
"653","","351920","HierDyxt06ao5w","1wslur47e8","ms1000356","motor","","75","img/motor_7.png","75","motor","7","263","1","0","0","",""
"null","","352028","HierDyxt06ao5w","1wslur47e8","ms1000356","iti","","null","img/motor_7.png","75","motor","","","","","","",""
"364","","352407","HierDyxt06ao5w","1wslur47e8","ms1000356","motor","","76","img/motor_8.png","76","motor","8","264","1","0","0","",""
"null","","352516","HierDyxt06ao5w","1wslur47e8","ms1000356","iti","","null","img/motor_8.png","76","motor","","","","","","",""
"420","","352950","HierDyxt06ao5w","1wslur47e8","ms1000356","motor","","76","img/motor_8.png","76","motor","8","265","1","0","0","",""
"null","","353060","HierDyxt06ao5w","1wslur47e8","ms1000356","iti","","null","img/motor_8.png","76","motor","","","","","","",""
"596","","353663","HierDyxt06ao5w","1wslur47e8","ms1000356","motor","","70","img/motor_4.png","70","motor","4","266","1","0","0","",""
"null","","353771","HierDyxt06ao5w","1wslur47e8","ms1000356","iti","","null","img/motor_4.png","70","motor","","","","","","",""
"525","","354311","HierDyxt06ao5w","1wslur47e8","ms1000356","motor","","75","img/motor_7.png","75","motor","7","267","1","0","0","",""
"null","","354427","HierDyxt06ao5w","1wslur47e8","ms1000356","iti","","null","img/motor_7.png","75","motor","","","","","","",""
"524","","354967","HierDyxt06ao5w","1wslur47e8","ms1000356","motor","","65","img/motor_1.png","65","motor","1","268","1","0","0","",""
"null","","355076","HierDyxt06ao5w","1wslur47e8","ms1000356","iti","","null","img/motor_1.png","65","motor","","","","","","",""
"700","","355791","HierDyxt06ao5w","1wslur47e8","ms1000356","motor","","72","img/motor_5.png","72","motor","5","269","1","0","0","",""
"null","","355900","HierDyxt06ao5w","1wslur47e8","ms1000356","iti","","null","img/motor_5.png","72","motor","","","","","","",""
"524","","356439","HierDyxt06ao5w","1wslur47e8","ms1000356","motor","","75","img/motor_7.png","75","motor","7","270","1","0","0","",""
"null","","356555","HierDyxt06ao5w","1wslur47e8","ms1000356","iti","","null","img/motor_7.png","75","motor","","","","","","",""
"597","","357160","HierDyxt06ao5w","1wslur47e8","ms1000356","motor","","72","img/motor_5.png","72","motor","5","271","1","0","0","",""
"null","","357269","HierDyxt06ao5w","1wslur47e8","ms1000356","iti","","null","img/motor_5.png","72","motor","","","","","","",""
"1188","","358463","HierDyxt06ao5w","1wslur47e8","ms1000356","motor","","68","img/motor_3.png","68","motor","3","272","1","0","0","",""
"null","","358572","HierDyxt06ao5w","1wslur47e8","ms1000356","iti","","null","img/motor_3.png","68","motor","","","","","","",""
"420","","359007","HierDyxt06ao5w","1wslur47e8","ms1000356","motor","","68","img/motor_3.png","68","motor","3","273","1","0","0","",""
"null","","359117","HierDyxt06ao5w","1wslur47e8","ms1000356","iti","","null","img/motor_3.png","68","motor","","","","","","",""
"427","","359552","HierDyxt06ao5w","1wslur47e8","ms1000356","motor","","76","img/motor_8.png","76","motor","8","274","1","0","0","",""
"null","","359660","HierDyxt06ao5w","1wslur47e8","ms1000356","iti","","null","img/motor_8.png","76","motor","","","","","","",""
"522","","360192","HierDyxt06ao5w","1wslur47e8","ms1000356","motor","","74","img/motor_6.png","74","motor","6","275","1","0","0","",""
"null","","360307","HierDyxt06ao5w","1wslur47e8","ms1000356","iti","","null","img/motor_6.png","74","motor","","","","","","",""
"635","","360951","HierDyxt06ao5w","1wslur47e8","ms1000356","motor","","75","img/motor_7.png","75","motor","7","276","1","0","0","",""
"null","","361060","HierDyxt06ao5w","1wslur47e8","ms1000356","iti","","null","img/motor_7.png","75","motor","","","","","","",""
"587","","361656","HierDyxt06ao5w","1wslur47e8","ms1000356","motor","","65","img/motor_1.png","65","motor","1","277","1","0","0","",""
"null","","361765","HierDyxt06ao5w","1wslur47e8","ms1000356","iti","","null","img/motor_1.png","65","motor","","","","","","",""
"419","","362198","HierDyxt06ao5w","1wslur47e8","ms1000356","motor","","70","img/motor_4.png","70","motor","4","278","1","0","0","",""
"null","","362308","HierDyxt06ao5w","1wslur47e8","ms1000356","iti","","null","img/motor_4.png","70","motor","","","","","","",""
"379","","362702","HierDyxt06ao5w","1wslur47e8","ms1000356","motor","","68","img/motor_3.png","68","motor","3","279","1","0","0","",""
"null","","362811","HierDyxt06ao5w","1wslur47e8","ms1000356","iti","","null","img/motor_3.png","68","motor","","","","","","",""
"396","","363216","HierDyxt06ao5w","1wslur47e8","ms1000356","motor","","70","img/motor_4.png","70","motor","4","280","1","0","0","",""
"null","","363325","HierDyxt06ao5w","1wslur47e8","ms1000356","iti","","null","img/motor_4.png","70","motor","","","","","","",""
"546","","363880","HierDyxt06ao5w","1wslur47e8","ms1000356","motor","","65","img/motor_1.png","65","motor","1","281","1","0","0","",""
"null","","363989","HierDyxt06ao5w","1wslur47e8","ms1000356","iti","","null","img/motor_1.png","65","motor","","","","","","",""
"707","","364704","HierDyxt06ao5w","1wslur47e8","ms1000356","motor","","68","img/motor_3.png","68","motor","3","282","1","0","0","",""
"null","","364813","HierDyxt06ao5w","1wslur47e8","ms1000356","iti","","null","img/motor_3.png","68","motor","","","","","","",""
"842","","365671","HierDyxt06ao5w","1wslur47e8","ms1000356","motor","","74","img/motor_6.png","74","motor","6","283","1","0","0","",""
"null","","365781","HierDyxt06ao5w","1wslur47e8","ms1000356","iti","","null","img/motor_6.png","74","motor","","","","","","",""
"322","","366119","HierDyxt06ao5w","1wslur47e8","ms1000356","motor","","75","img/motor_7.png","75","motor","7","284","1","0","0","",""
"null","","366235","HierDyxt06ao5w","1wslur47e8","ms1000356","iti","","null","img/motor_7.png","75","motor","","","","","","",""
"517","","366760","HierDyxt06ao5w","1wslur47e8","ms1000356","motor","","70","img/motor_4.png","70","motor","4","285","1","0","0","",""
"null","","366869","HierDyxt06ao5w","1wslur47e8","ms1000356","iti","","null","img/motor_4.png","70","motor","","","","","","",""
"475","","367352","HierDyxt06ao5w","1wslur47e8","ms1000356","motor","","75","img/motor_7.png","75","motor","7","286","1","0","0","",""
"null","","367461","HierDyxt06ao5w","1wslur47e8","ms1000356","iti","","null","img/motor_7.png","75","motor","","","","","","",""
"530","","368000","HierDyxt06ao5w","1wslur47e8","ms1000356","motor","","65","img/motor_1.png","65","motor","1","287","1","0","0","",""
"null","","368116","HierDyxt06ao5w","1wslur47e8","ms1000356","iti","","null","img/motor_1.png","65","motor","","","","","","",""
"675","","368800","HierDyxt06ao5w","1wslur47e8","ms1000356","motor","","83","img/motor_2.png","83","motor","2","288","1","0","0","",""
"null","","368908","HierDyxt06ao5w","1wslur47e8","ms1000356","iti","","null","img/motor_2.png","83","motor","","","","","","",""
"506","","369424","HierDyxt06ao5w","1wslur47e8","ms1000356","motor","","83","img/motor_2.png","83","motor","2","289","1","0","0","",""
"null","","369533","HierDyxt06ao5w","1wslur47e8","ms1000356","iti","","null","img/motor_2.png","83","motor","","","","","","",""
"435","","369976","HierDyxt06ao5w","1wslur47e8","ms1000356","motor","","72","img/motor_5.png","72","motor","5","290","1","0","0","",""
"null","","370085","HierDyxt06ao5w","1wslur47e8","ms1000356","iti","","null","img/motor_5.png","72","motor","","","","","","",""
"604","","370696","HierDyxt06ao5w","1wslur47e8","ms1000356","motor","","83","img/motor_2.png","83","motor","2","291","1","0","0","",""
"null","","370805","HierDyxt06ao5w","1wslur47e8","ms1000356","iti","","null","img/motor_2.png","83","motor","","","","","","",""
"490","","371304","HierDyxt06ao5w","1wslur47e8","ms1000356","motor","","65","img/motor_1.png","65","motor","1","292","1","0","0","",""
"null","","371413","HierDyxt06ao5w","1wslur47e8","ms1000356","iti","","null","img/motor_1.png","65","motor","","","","","","",""
"546","","371968","HierDyxt06ao5w","1wslur47e8","ms1000356","motor","","70","img/motor_3.png","68","motor","3","293","0","1","0","",""
"368","","372344","HierDyxt06ao5w","1wslur47e8","ms1000356","motorRepeat","","68","img/motor_3.png","68","motor","3","293","1","0","0","",""
"null","","372453","HierDyxt06ao5w","1wslur47e8","ms1000356","iti","","null","img/motor_3.png","68","motor","","","","","","",""
"435","","372896","HierDyxt06ao5w","1wslur47e8","ms1000356","motor","","76","img/motor_8.png","76","motor","8","294","1","0","0","",""
"null","","373004","HierDyxt06ao5w","1wslur47e8","ms1000356","iti","","null","img/motor_8.png","76","motor","","","","","","",""
"459","","373472","HierDyxt06ao5w","1wslur47e8","ms1000356","motor","","65","img/motor_1.png","65","motor","1","295","1","0","0","",""
"null","","373581","HierDyxt06ao5w","1wslur47e8","ms1000356","iti","","null","img/motor_1.png","65","motor","","","","","","",""
"1266","","374856","HierDyxt06ao5w","1wslur47e8","ms1000356","motor","","68","img/motor_2.png","83","motor","2","296","0","1","0","",""
"1152","","376016","HierDyxt06ao5w","1wslur47e8","ms1000356","motorRepeat","","83","img/motor_2.png","83","motor","2","296","1","0","0","",""
"null","","376124","HierDyxt06ao5w","1wslur47e8","ms1000356","iti","","null","img/motor_2.png","83","motor","","","","","","",""
"923","","377062","HierDyxt06ao5w","1wslur47e8","ms1000356","motor","","65","img/motor_1.png","65","motor","1","297","1","0","0","",""
"null","","377172","HierDyxt06ao5w","1wslur47e8","ms1000356","iti","","null","img/motor_1.png","65","motor","","","","","","",""
"1301","","378480","HierDyxt06ao5w","1wslur47e8","ms1000356","motor","","72","img/motor_5.png","72","motor","5","298","1","0","0","",""
"null","","378595","HierDyxt06ao5w","1wslur47e8","ms1000356","iti","","null","img/motor_5.png","72","motor","","","","","","",""
"476","","379087","HierDyxt06ao5w","1wslur47e8","ms1000356","motor","","65","img/motor_1.png","65","motor","1","299","1","0","0","",""
"null","","379196","HierDyxt06ao5w","1wslur47e8","ms1000356","iti","","null","img/motor_1.png","65","motor","","","","","","",""
"459","","379662","HierDyxt06ao5w","1wslur47e8","ms1000356","motor","","76","img/motor_8.png","76","motor","8","300","1","0","0","",""
"null","","379778","HierDyxt06ao5w","1wslur47e8","ms1000356","iti","","null","img/motor_8.png","76","motor","","","","","","",""
"516","","380304","HierDyxt06ao5w","1wslur47e8","ms1000356","motor","","65","img/motor_1.png","65","motor","1","301","1","0","0","",""
"null","","380412","HierDyxt06ao5w","1wslur47e8","ms1000356","iti","","null","img/motor_1.png","65","motor","","","","","","",""
"723","","381150","HierDyxt06ao5w","1wslur47e8","ms1000356","motor","","75","img/motor_2.png","83","motor","2","302","0","1","0","",""
"369","","381528","HierDyxt06ao5w","1wslur47e8","ms1000356","motorRepeat","","83","img/motor_2.png","83","motor","2","302","1","0","0","",""
"null","","381637","HierDyxt06ao5w","1wslur47e8","ms1000356","iti","","null","img/motor_2.png","83","motor","","","","","","",""
"1075","","382720","HierDyxt06ao5w","1wslur47e8","ms1000356","motor","","70","img/motor_4.png","70","motor","4","303","1","0","0","",""
"null","","382836","HierDyxt06ao5w","1wslur47e8","ms1000356","iti","","null","img/motor_4.png","70","motor","","","","","","",""
"588","","383432","HierDyxt06ao5w","1wslur47e8","ms1000356","motor","","68","img/motor_3.png","68","motor","3","304","1","0","0","",""
"null","","383541","HierDyxt06ao5w","1wslur47e8","ms1000356","iti","","null","img/motor_3.png","68","motor","","","","","","",""
"443","","383999","HierDyxt06ao5w","1wslur47e8","ms1000356","motor","","68","img/motor_3.png","68","motor","3","305","1","0","0","",""
"null","","384115","HierDyxt06ao5w","1wslur47e8","ms1000356","iti","","null","img/motor_3.png","68","motor","","","","","","",""
"492","","384617","HierDyxt06ao5w","1wslur47e8","ms1000356","motor","","83","img/motor_2.png","83","motor","2","306","1","0","0","",""
"null","","384726","HierDyxt06ao5w","1wslur47e8","ms1000356","iti","","null","img/motor_2.png","83","motor","","","","","","",""
"482","","385216","HierDyxt06ao5w","1wslur47e8","ms1000356","motor","","75","img/motor_7.png","75","motor","7","307","1","0","0","",""
"null","","385325","HierDyxt06ao5w","1wslur47e8","ms1000356","iti","","null","img/motor_7.png","75","motor","","","","","","",""
"548","","385880","HierDyxt06ao5w","1wslur47e8","ms1000356","motor","","76","img/motor_8.png","76","motor","8","308","1","0","0","",""
"null","","385989","HierDyxt06ao5w","1wslur47e8","ms1000356","iti","","null","img/motor_8.png","76","motor","","","","","","",""
"811","","386809","HierDyxt06ao5w","1wslur47e8","ms1000356","motor","","70","img/motor_4.png","70","motor","4","309","1","0","0","",""
"null","","386918","HierDyxt06ao5w","1wslur47e8","ms1000356","iti","","null","img/motor_4.png","70","motor","","","","","","",""
"642","","387568","HierDyxt06ao5w","1wslur47e8","ms1000356","motor","","68","img/motor_3.png","68","motor","3","310","1","0","0","",""
"null","","387683","HierDyxt06ao5w","1wslur47e8","ms1000356","iti","","null","img/motor_3.png","68","motor","","","","","","",""
"443","","388136","HierDyxt06ao5w","1wslur47e8","ms1000356","motor","","75","img/motor_6.png","74","motor","6","311","0","1","0","",""
"424","","388568","HierDyxt06ao5w","1wslur47e8","ms1000356","motorRepeat","","74","img/motor_6.png","74","motor","6","311","1","0","0","",""
"null","","388677","HierDyxt06ao5w","1wslur47e8","ms1000356","iti","","null","img/motor_6.png","74","motor","","","","","","",""
"643","","389328","HierDyxt06ao5w","1wslur47e8","ms1000356","motor","","76","img/motor_8.png","76","motor","8","312","1","0","0","",""
"null","","389437","HierDyxt06ao5w","1wslur47e8","ms1000356","iti","","null","img/motor_8.png","76","motor","","","","","","",""
"612","","390056","HierDyxt06ao5w","1wslur47e8","ms1000356","motor","","83","img/motor_2.png","83","motor","2","313","1","0","0","",""
"null","","390165","HierDyxt06ao5w","1wslur47e8","ms1000356","iti","","null","img/motor_2.png","83","motor","","","","","","",""
"603","","390779","HierDyxt06ao5w","1wslur47e8","ms1000356","motor","","65","img/motor_1.png","65","motor","1","314","1","0","0","",""
"null","","390888","HierDyxt06ao5w","1wslur47e8","ms1000356","iti","","null","img/motor_1.png","65","motor","","","","","","",""
"831","","391728","HierDyxt06ao5w","1wslur47e8","ms1000356","motor","","70","img/motor_3.png","68","motor","3","315","0","1","0","",""
"320","","392055","HierDyxt06ao5w","1wslur47e8","ms1000356","motorRepeat","","68","img/motor_3.png","68","motor","3","315","1","0","0","",""
"null","","392164","HierDyxt06ao5w","1wslur47e8","ms1000356","iti","","null","img/motor_3.png","68","motor","","","","","","",""
"507","","392681","HierDyxt06ao5w","1wslur47e8","ms1000356","motor","","76","img/motor_8.png","76","motor","8","316","1","0","0","",""
"null","","392790","HierDyxt06ao5w","1wslur47e8","ms1000356","iti","","null","img/motor_8.png","76","motor","","","","","","",""
"633","","393432","HierDyxt06ao5w","1wslur47e8","ms1000356","motor","","70","img/motor_4.png","70","motor","4","317","1","0","0","",""
"null","","393541","HierDyxt06ao5w","1wslur47e8","ms1000356","iti","","null","img/motor_4.png","70","motor","","","","","","",""
"787","","394343","HierDyxt06ao5w","1wslur47e8","ms1000356","motor","","74","img/motor_6.png","74","motor","6","318","1","0","0","",""
"null","","394452","HierDyxt06ao5w","1wslur47e8","ms1000356","iti","","null","img/motor_6.png","74","motor","","","","","","",""
"900","","395360","HierDyxt06ao5w","1wslur47e8","ms1000356","motor","","76","img/motor_8.png","76","motor","8","319","1","0","0","",""
"null","","395469","HierDyxt06ao5w","1wslur47e8","ms1000356","iti","","null","img/motor_8.png","76","motor","","","","","","",""
"699","","396175","HierDyxt06ao5w","1wslur47e8","ms1000356","motor","","74","img/motor_7.png","75","motor","7","320","0","1","0","",""
"288","","396471","HierDyxt06ao5w","1wslur47e8","ms1000356","motorRepeat","","75","img/motor_7.png","75","motor","7","320","1","0","0","",""
"null","","396580","HierDyxt06ao5w","1wslur47e8","ms1000356","iti","","null","img/motor_7.png","75","motor","","","","","","",""
"531","","397120","HierDyxt06ao5w","1wslur47e8","ms1000356","motor","","72","img/motor_5.png","72","motor","5","321","1","0","0","",""
"null","","397228","HierDyxt06ao5w","1wslur47e8","ms1000356","iti","","null","img/motor_5.png","72","motor","","","","","","",""
"594","","397832","HierDyxt06ao5w","1wslur47e8","ms1000356","motor","","75","img/motor_7.png","75","motor","7","322","1","0","0","",""
"null","","397947","HierDyxt06ao5w","1wslur47e8","ms1000356","iti","","null","img/motor_7.png","75","motor","","","","","","",""
"603","","398568","HierDyxt06ao5w","1wslur47e8","ms1000356","motor","","65","img/motor_1.png","65","motor","1","323","1","0","0","",""
"null","","398676","HierDyxt06ao5w","1wslur47e8","ms1000356","iti","","null","img/motor_1.png","65","motor","","","","","","",""
"508","","399200","HierDyxt06ao5w","1wslur47e8","ms1000356","motor","","70","img/motor_4.png","70","motor","4","324","1","0","0","",""
"null","","399309","HierDyxt06ao5w","1wslur47e8","ms1000356","iti","","null","img/motor_4.png","70","motor","","","","","","",""
"395","","399713","HierDyxt06ao5w","1wslur47e8","ms1000356","motor","","65","img/motor_1.png","65","motor","1","325","1","0","0","",""
"null","","399821","HierDyxt06ao5w","1wslur47e8","ms1000356","iti","","null","img/motor_1.png","65","motor","","","","","","",""
"347","","400176","HierDyxt06ao5w","1wslur47e8","ms1000356","motor","","70","img/motor_4.png","70","motor","4","326","1","0","0","",""
"null","","400285","HierDyxt06ao5w","1wslur47e8","ms1000356","iti","","null","img/motor_4.png","70","motor","","","","","","",""
"522","","400816","HierDyxt06ao5w","1wslur47e8","ms1000356","motor","","76","img/motor_8.png","76","motor","8","327","1","0","0","",""
"null","","400925","HierDyxt06ao5w","1wslur47e8","ms1000356","iti","","null","img/motor_8.png","76","motor","","","","","","",""
"474","","401407","HierDyxt06ao5w","1wslur47e8","ms1000356","motor","","65","img/motor_1.png","65","motor","1","328","1","0","0","",""
"null","","401516","HierDyxt06ao5w","1wslur47e8","ms1000356","iti","","null","img/motor_1.png","65","motor","","","","","","",""
"755","","402279","HierDyxt06ao5w","1wslur47e8","ms1000356","motor","","83","img/motor_2.png","83","motor","2","329","1","0","0","",""
"null","","402395","HierDyxt06ao5w","1wslur47e8","ms1000356","iti","","null","img/motor_2.png","83","motor","","","","","","",""
"516","","402919","HierDyxt06ao5w","1wslur47e8","ms1000356","motor","","76","img/motor_8.png","76","motor","8","330","1","0","0","",""
"null","","403028","HierDyxt06ao5w","1wslur47e8","ms1000356","iti","","null","img/motor_8.png","76","motor","","","","","","",""
"483","","403528","HierDyxt06ao5w","1wslur47e8","ms1000356","motor","","76","img/motor_8.png","76","motor","8","331","1","0","0","",""
"null","","403637","HierDyxt06ao5w","1wslur47e8","ms1000356","iti","","null","img/motor_8.png","76","motor","","","","","","",""
"667","","404319","HierDyxt06ao5w","1wslur47e8","ms1000356","motor","","72","img/motor_6.png","74","motor","6","332","0","1","0","",""
"343","","404679","HierDyxt06ao5w","1wslur47e8","ms1000356","motorRepeat","","74","img/motor_6.png","74","motor","6","332","1","0","0","",""
"null","","404788","HierDyxt06ao5w","1wslur47e8","ms1000356","iti","","null","img/motor_6.png","74","motor","","","","","","",""
"587","","405384","HierDyxt06ao5w","1wslur47e8","ms1000356","motor","","75","img/motor_7.png","75","motor","7","333","1","0","0","",""
"null","","405493","HierDyxt06ao5w","1wslur47e8","ms1000356","iti","","null","img/motor_7.png","75","motor","","","","","","",""
"1196","","406696","HierDyxt06ao5w","1wslur47e8","ms1000356","motor","","72","img/motor_5.png","72","motor","5","334","1","0","0","",""
"null","","406812","HierDyxt06ao5w","1wslur47e8","ms1000356","iti","","null","img/motor_5.png","72","motor","","","","","","",""
"469","","407288","HierDyxt06ao5w","1wslur47e8","ms1000356","motor","","74","img/motor_6.png","74","motor","6","335","1","0","0","",""
"null","","407403","HierDyxt06ao5w","1wslur47e8","ms1000356","iti","","null","img/motor_6.png","74","motor","","","","","","",""
"588","","408006","HierDyxt06ao5w","1wslur47e8","ms1000356","motor","","70","img/motor_4.png","70","motor","4","336","1","0","0","",""
"null","","408122","HierDyxt06ao5w","1wslur47e8","ms1000356","iti","","null","img/motor_4.png","70","motor","","","","","","",""
"507","","408646","HierDyxt06ao5w","1wslur47e8","ms1000356","motor","","76","img/motor_8.png","76","motor","8","337","1","0","0","",""
"null","","408757","HierDyxt06ao5w","1wslur47e8","ms1000356","iti","","null","img/motor_8.png","76","motor","","","","","","",""
"789","","409552","HierDyxt06ao5w","1wslur47e8","ms1000356","motor","","68","img/motor_3.png","68","motor","3","338","1","0","0","",""
"null","","409667","HierDyxt06ao5w","1wslur47e8","ms1000356","iti","","null","img/motor_3.png","68","motor","","","","","","",""
"507","","410184","HierDyxt06ao5w","1wslur47e8","ms1000356","motor","","83","img/motor_2.png","83","motor","2","339","1","0","0","",""
"null","","410292","HierDyxt06ao5w","1wslur47e8","ms1000356","iti","","null","img/motor_2.png","83","motor","","","","","","",""
"515","","410816","HierDyxt06ao5w","1wslur47e8","ms1000356","motor","","74","img/motor_6.png","74","motor","6","340","1","0","0","",""
"null","","410925","HierDyxt06ao5w","1wslur47e8","ms1000356","iti","","null","img/motor_6.png","74","motor","","","","","","",""
"435","","411367","HierDyxt06ao5w","1wslur47e8","ms1000356","motor","","75","img/motor_7.png","75","motor","7","341","1","0","0","",""
"null","","411476","HierDyxt06ao5w","1wslur47e8","ms1000356","iti","","null","img/motor_7.png","75","motor","","","","","","",""
"580","","412065","HierDyxt06ao5w","1wslur47e8","ms1000356","motor","","83","img/motor_2.png","83","motor","2","342","1","0","0","",""
"null","","412180","HierDyxt06ao5w","1wslur47e8","ms1000356","iti","","null","img/motor_2.png","83","motor","","","","","","",""
"626","","412816","HierDyxt06ao5w","1wslur47e8","ms1000356","motor","","75","img/motor_7.png","75","motor","7","343","1","0","0","",""
"null","","412925","HierDyxt06ao5w","1wslur47e8","ms1000356","iti","","null","img/motor_7.png","75","motor","","","","","","",""
"436","","413376","HierDyxt06ao5w","1wslur47e8","ms1000356","motor","","75","img/motor_7.png","75","motor","7","344","1","0","0","",""
"null","","413485","HierDyxt06ao5w","1wslur47e8","ms1000356","iti","","null","img/motor_7.png","75","motor","","","","","","",""
"643","","414136","HierDyxt06ao5w","1wslur47e8","ms1000356","motor","","72","img/motor_5.png","72","motor","5","345","1","0","0","",""
"null","","414245","HierDyxt06ao5w","1wslur47e8","ms1000356","iti","","null","img/motor_5.png","72","motor","","","","","","",""
"402","","414657","HierDyxt06ao5w","1wslur47e8","ms1000356","motor","","75","img/motor_7.png","75","motor","7","346","1","0","0","",""
"null","","414765","HierDyxt06ao5w","1wslur47e8","ms1000356","iti","","null","img/motor_7.png","75","motor","","","","","","",""
"355","","415127","HierDyxt06ao5w","1wslur47e8","ms1000356","motor","","72","img/motor_5.png","72","motor","5","347","1","0","0","",""
"null","","415237","HierDyxt06ao5w","1wslur47e8","ms1000356","iti","","null","img/motor_5.png","72","motor","","","","","","",""
"451","","415696","HierDyxt06ao5w","1wslur47e8","ms1000356","motor","","72","img/motor_5.png","72","motor","5","348","1","0","0","",""
"null","","415805","HierDyxt06ao5w","1wslur47e8","ms1000356","iti","","null","img/motor_5.png","72","motor","","","","","","",""
"410","","416224","HierDyxt06ao5w","1wslur47e8","ms1000356","motor","","76","img/motor_8.png","76","motor","8","349","1","0","0","",""
"null","","416340","HierDyxt06ao5w","1wslur47e8","ms1000356","iti","","null","img/motor_8.png","76","motor","","","","","","",""
"787","","417143","HierDyxt06ao5w","1wslur47e8","ms1000356","motor","","74","img/motor_6.png","74","motor","6","350","1","0","0","",""
"null","","417252","HierDyxt06ao5w","1wslur47e8","ms1000356","iti","","null","img/motor_6.png","74","motor","","","","","","",""
"683","","417944","HierDyxt06ao5w","1wslur47e8","ms1000356","motor","","83","img/motor_2.png","83","motor","2","351","1","0","0","",""
"null","","418060","HierDyxt06ao5w","1wslur47e8","ms1000356","iti","","null","img/motor_2.png","83","motor","","","","","","",""
"507","","418576","HierDyxt06ao5w","1wslur47e8","ms1000356","motor","","72","img/motor_5.png","72","motor","5","352","1","0","0","",""
"null","","418685","HierDyxt06ao5w","1wslur47e8","ms1000356","iti","","null","img/motor_5.png","72","motor","","","","","","",""
"666","","419368","HierDyxt06ao5w","1wslur47e8","ms1000356","motor","","70","img/motor_4.png","70","motor","4","353","1","0","0","",""
"null","","419476","HierDyxt06ao5w","1wslur47e8","ms1000356","iti","","null","img/motor_4.png","70","motor","","","","","","",""
"402","","419888","HierDyxt06ao5w","1wslur47e8","ms1000356","motor","","72","img/motor_5.png","72","motor","5","354","1","0","0","",""
"null","","420003","HierDyxt06ao5w","1wslur47e8","ms1000356","iti","","null","img/motor_5.png","72","motor","","","","","","",""
"501","","420512","HierDyxt06ao5w","1wslur47e8","ms1000356","motor","","75","img/motor_6.png","74","motor","6","355","0","1","0","",""
"361","","420887","HierDyxt06ao5w","1wslur47e8","ms1000356","motorRepeat","","74","img/motor_6.png","74","motor","6","355","1","0","0","",""
"null","","421003","HierDyxt06ao5w","1wslur47e8","ms1000356","iti","","null","img/motor_6.png","74","motor","","","","","","",""
"531","","421544","HierDyxt06ao5w","1wslur47e8","ms1000356","motor","","76","img/motor_8.png","76","motor","8","356","1","0","0","",""
"null","","421653","HierDyxt06ao5w","1wslur47e8","ms1000356","iti","","null","img/motor_8.png","76","motor","","","","","","",""
"554","","422215","HierDyxt06ao5w","1wslur47e8","ms1000356","motor","","75","img/motor_7.png","75","motor","7","357","1","0","0","",""
