"rt","responses","time_elapsed","subject","prolificID","demoID","trialType","question_order","key_press","stim","corrresp","phase","stimNum","trialNum","corr","repeatTrial","motorSwitch","pracCounter","hierarchy"
"20220","{""Q0"":""ms1000280""}","20250","HierDy6zsh1vs8","oa211xjl8z","ms1000280","","","","","","","","","","","","",""
"4647","","24905","HierDy6zsh1vs8","oa211xjl8z","ms1000280","","","","","","","","","","","","",""
"","","27037","HierDy6zsh1vs8","oa211xjl8z","ms1000280","fullscreen","","","","","","","","","","","",""
"37823","{""Vision"":""Yes"",""Handedness"":""Right"",""Gender"":""male""}","64874","HierDy6zsh1vs8","oa211xjl8z","ms1000280","","[0,1,2]","","","","","","","","","","",""
"4645","{""Q0"":""18""}","69531","HierDy6zsh1vs8","oa211xjl8z","ms1000280","","","","","","","","","","","","",""
"106381","","175922","HierDy6zsh1vs8","oa211xjl8z","ms1000280","","","","","","","","","","","","",""
"5859","","181796","HierDy6zsh1vs8","oa211xjl8z","ms1000280","motor","","76","img/motor_8.png","76","motor","8","1","1","0","0","",""
"null","","181906","HierDy6zsh1vs8","oa211xjl8z","ms1000280","iti","","null","img/motor_8.png","76","motor","","","","","","",""
"1340","","183254","HierDy6zsh1vs8","oa211xjl8z","ms1000280","motor","","72","img/motor_5.png","72","motor","5","2","1","0","0","",""
"null","","183362","HierDy6zsh1vs8","oa211xjl8z","ms1000280","iti","","null","img/motor_5.png","72","motor","","","","","","",""
"660","","184030","HierDy6zsh1vs8","oa211xjl8z","ms1000280","motor","","70","img/motor_4.png","70","motor","4","3","1","0","0","",""
"null","","184138","HierDy6zsh1vs8","oa211xjl8z","ms1000280","iti","","null","img/motor_4.png","70","motor","","","","","","",""
"564","","184716","HierDy6zsh1vs8","oa211xjl8z","ms1000280","motor","","65","img/motor_1.png","65","motor","1","4","1","0","0","",""
"null","","184830","HierDy6zsh1vs8","oa211xjl8z","ms1000280","iti","","null","img/motor_1.png","65","motor","","","","","","",""
"526","","185366","HierDy6zsh1vs8","oa211xjl8z","ms1000280","motor","","65","img/motor_1.png","65","motor","1","5","1","0","0","",""
"null","","185480","HierDy6zsh1vs8","oa211xjl8z","ms1000280","iti","","null","img/motor_1.png","65","motor","","","","","","",""
"580","","186070","HierDy6zsh1vs8","oa211xjl8z","ms1000280","motor","","76","img/motor_8.png","76","motor","8","6","1","0","0","",""
"null","","186177","HierDy6zsh1vs8","oa211xjl8z","ms1000280","iti","","null","img/motor_8.png","76","motor","","","","","","",""
"884","","187070","HierDy6zsh1vs8","oa211xjl8z","ms1000280","motor","","68","img/motor_3.png","68","motor","3","7","1","0","0","",""
"null","","187178","HierDy6zsh1vs8","oa211xjl8z","ms1000280","iti","","null","img/motor_3.png","68","motor","","","","","","",""
"643","","187829","HierDy6zsh1vs8","oa211xjl8z","ms1000280","motor","","72","img/motor_5.png","72","motor","5","8","1","0","0","",""
"null","","187938","HierDy6zsh1vs8","oa211xjl8z","ms1000280","iti","","null","img/motor_5.png","72","motor","","","","","","",""
"612","","188558","HierDy6zsh1vs8","oa211xjl8z","ms1000280","motor","","74","img/motor_6.png","74","motor","6","9","1","0","0","",""
"null","","188666","HierDy6zsh1vs8","oa211xjl8z","ms1000280","iti","","null","img/motor_6.png","74","motor","","","","","","",""
"707","","189388","HierDy6zsh1vs8","oa211xjl8z","ms1000280","motor","","83","img/motor_2.png","83","motor","2","10","1","0","0","",""
"null","","189497","HierDy6zsh1vs8","oa211xjl8z","ms1000280","iti","","null","img/motor_2.png","83","motor","","","","","","",""
"589","","190094","HierDy6zsh1vs8","oa211xjl8z","ms1000280","motor","","76","img/motor_8.png","76","motor","8","11","1","0","0","",""
"null","","190202","HierDy6zsh1vs8","oa211xjl8z","ms1000280","iti","","null","img/motor_8.png","76","motor","","","","","","",""
"524","","190733","HierDy6zsh1vs8","oa211xjl8z","ms1000280","motor","","65","img/motor_1.png","65","motor","1","12","1","0","0","",""
"null","","190847","HierDy6zsh1vs8","oa211xjl8z","ms1000280","iti","","null","img/motor_1.png","65","motor","","","","","","",""
"494","","191349","HierDy6zsh1vs8","oa211xjl8z","ms1000280","motor","","83","img/motor_2.png","83","motor","2","13","1","0","0","",""
"null","","191463","HierDy6zsh1vs8","oa211xjl8z","ms1000280","iti","","null","img/motor_2.png","83","motor","","","","","","",""
"453","","191926","HierDy6zsh1vs8","oa211xjl8z","ms1000280","motor","","83","img/motor_2.png","83","motor","2","14","1","0","0","",""
"null","","192034","HierDy6zsh1vs8","oa211xjl8z","ms1000280","iti","","null","img/motor_2.png","83","motor","","","","","","",""
"468","","192509","HierDy6zsh1vs8","oa211xjl8z","ms1000280","motor","","68","img/motor_3.png","68","motor","3","15","1","0","0","",""
"null","","192624","HierDy6zsh1vs8","oa211xjl8z","ms1000280","iti","","null","img/motor_3.png","68","motor","","","","","","",""
"517","","193150","HierDy6zsh1vs8","oa211xjl8z","ms1000280","motor","","76","img/motor_8.png","76","motor","8","16","1","0","0","",""
"null","","193258","HierDy6zsh1vs8","oa211xjl8z","ms1000280","iti","","null","img/motor_8.png","76","motor","","","","","","",""
"635","","193902","HierDy6zsh1vs8","oa211xjl8z","ms1000280","motor","","72","img/motor_5.png","72","motor","5","17","1","0","0","",""
"null","","194016","HierDy6zsh1vs8","oa211xjl8z","ms1000280","iti","","null","img/motor_5.png","72","motor","","","","","","",""
"718","","194741","HierDy6zsh1vs8","oa211xjl8z","ms1000280","motor","","70","img/motor_4.png","70","motor","4","18","1","0","0","",""
"null","","194850","HierDy6zsh1vs8","oa211xjl8z","ms1000280","iti","","null","img/motor_4.png","70","motor","","","","","","",""
"548","","195406","HierDy6zsh1vs8","oa211xjl8z","ms1000280","motor","","72","img/motor_5.png","72","motor","5","19","1","0","0","",""
"null","","195514","HierDy6zsh1vs8","oa211xjl8z","ms1000280","iti","","null","img/motor_5.png","72","motor","","","","","","",""
"699","","196222","HierDy6zsh1vs8","oa211xjl8z","ms1000280","motor","","75","img/motor_7.png","75","motor","7","20","1","0","0","",""
"null","","196330","HierDy6zsh1vs8","oa211xjl8z","ms1000280","iti","","null","img/motor_7.png","75","motor","","","","","","",""
"1236","","197573","HierDy6zsh1vs8","oa211xjl8z","ms1000280","motor","","68","img/motor_3.png","68","motor","3","21","1","0","0","",""
"null","","197681","HierDy6zsh1vs8","oa211xjl8z","ms1000280","iti","","null","img/motor_3.png","68","motor","","","","","","",""
"509","","198200","HierDy6zsh1vs8","oa211xjl8z","ms1000280","motor","","65","img/motor_1.png","65","motor","1","22","1","0","0","",""
"null","","198309","HierDy6zsh1vs8","oa211xjl8z","ms1000280","iti","","null","img/motor_1.png","65","motor","","","","","","",""
"448","","198766","HierDy6zsh1vs8","oa211xjl8z","ms1000280","motor","","68","img/motor_3.png","68","motor","3","23","1","0","0","",""
"null","","198873","HierDy6zsh1vs8","oa211xjl8z","ms1000280","iti","","null","img/motor_3.png","68","motor","","","","","","",""
"508","","199390","HierDy6zsh1vs8","oa211xjl8z","ms1000280","motor","","76","img/motor_8.png","76","motor","8","24","1","0","0","",""
"null","","199498","HierDy6zsh1vs8","oa211xjl8z","ms1000280","iti","","null","img/motor_8.png","76","motor","","","","","","",""
"707","","200214","HierDy6zsh1vs8","oa211xjl8z","ms1000280","motor","","75","img/motor_7.png","75","motor","7","25","1","0","0","",""
"null","","200329","HierDy6zsh1vs8","oa211xjl8z","ms1000280","iti","","null","img/motor_7.png","75","motor","","","","","","",""
"731","","201069","HierDy6zsh1vs8","oa211xjl8z","ms1000280","motor","","70","img/motor_4.png","70","motor","4","26","1","0","0","",""
"null","","201178","HierDy6zsh1vs8","oa211xjl8z","ms1000280","iti","","null","img/motor_4.png","70","motor","","","","","","",""
"1196","","202389","HierDy6zsh1vs8","oa211xjl8z","ms1000280","motor","","83","img/motor_2.png","83","motor","2","27","1","0","0","",""
"null","","202499","HierDy6zsh1vs8","oa211xjl8z","ms1000280","iti","","null","img/motor_2.png","83","motor","","","","","","",""
"795","","203308","HierDy6zsh1vs8","oa211xjl8z","ms1000280","motor","","74","img/motor_6.png","74","motor","6","28","1","0","0","",""
"null","","203423","HierDy6zsh1vs8","oa211xjl8z","ms1000280","iti","","null","img/motor_6.png","74","motor","","","","","","",""
"574","","204005","HierDy6zsh1vs8","oa211xjl8z","ms1000280","motor","","65","img/motor_1.png","65","motor","1","29","1","0","0","",""
"null","","204113","HierDy6zsh1vs8","oa211xjl8z","ms1000280","iti","","null","img/motor_1.png","65","motor","","","","","","",""
"645","","204766","HierDy6zsh1vs8","oa211xjl8z","ms1000280","motor","","83","img/motor_2.png","83","motor","2","30","1","0","0","",""
"null","","204875","HierDy6zsh1vs8","oa211xjl8z","ms1000280","iti","","null","img/motor_2.png","83","motor","","","","","","",""
"539","","205429","HierDy6zsh1vs8","oa211xjl8z","ms1000280","motor","","65","img/motor_1.png","65","motor","1","31","1","0","0","",""
"null","","205543","HierDy6zsh1vs8","oa211xjl8z","ms1000280","iti","","null","img/motor_1.png","65","motor","","","","","","",""
"758","","206309","HierDy6zsh1vs8","oa211xjl8z","ms1000280","motor","","74","img/motor_6.png","74","motor","6","32","1","0","0","",""
"null","","206423","HierDy6zsh1vs8","oa211xjl8z","ms1000280","iti","","null","img/motor_6.png","74","motor","","","","","","",""
"501","","206933","HierDy6zsh1vs8","oa211xjl8z","ms1000280","motor","","74","img/motor_6.png","74","motor","6","33","1","0","0","",""
"null","","207047","HierDy6zsh1vs8","oa211xjl8z","ms1000280","iti","","null","img/motor_6.png","74","motor","","","","","","",""
"687","","207748","HierDy6zsh1vs8","oa211xjl8z","ms1000280","motor","","75","img/motor_7.png","75","motor","7","34","1","0","0","",""
"null","","207863","HierDy6zsh1vs8","oa211xjl8z","ms1000280","iti","","null","img/motor_7.png","75","motor","","","","","","",""
"894","","208765","HierDy6zsh1vs8","oa211xjl8z","ms1000280","motor","","68","img/motor_3.png","68","motor","3","35","1","0","0","",""
"null","","208874","HierDy6zsh1vs8","oa211xjl8z","ms1000280","iti","","null","img/motor_3.png","68","motor","","","","","","",""
"541","","209428","HierDy6zsh1vs8","oa211xjl8z","ms1000280","motor","","70","img/motor_4.png","70","motor","4","36","1","0","0","",""
"null","","209537","HierDy6zsh1vs8","oa211xjl8z","ms1000280","iti","","null","img/motor_4.png","70","motor","","","","","","",""
"541","","210086","HierDy6zsh1vs8","oa211xjl8z","ms1000280","motor","","76","img/motor_8.png","76","motor","8","37","1","0","0","",""
"null","","210194","HierDy6zsh1vs8","oa211xjl8z","ms1000280","iti","","null","img/motor_8.png","76","motor","","","","","","",""
"483","","210686","HierDy6zsh1vs8","oa211xjl8z","ms1000280","motor","","70","img/motor_4.png","70","motor","4","38","1","0","0","",""
"null","","210794","HierDy6zsh1vs8","oa211xjl8z","ms1000280","iti","","null","img/motor_4.png","70","motor","","","","","","",""
"556","","211358","HierDy6zsh1vs8","oa211xjl8z","ms1000280","motor","","72","img/motor_5.png","72","motor","5","39","1","0","0","",""
"null","","211473","HierDy6zsh1vs8","oa211xjl8z","ms1000280","iti","","null","img/motor_5.png","72","motor","","","","","","",""
"525","","212013","HierDy6zsh1vs8","oa211xjl8z","ms1000280","motor","","74","img/motor_7.png","75","motor","7","40","0","1","0","",""
"968","","212997","HierDy6zsh1vs8","oa211xjl8z","ms1000280","motorRepeat","","75","img/motor_7.png","75","motor","7","40","1","0","0","",""
"null","","213105","HierDy6zsh1vs8","oa211xjl8z","ms1000280","iti","","null","img/motor_7.png","75","motor","","","","","","",""
"517","","213629","HierDy6zsh1vs8","oa211xjl8z","ms1000280","motor","","72","img/motor_5.png","72","motor","5","41","1","0","0","",""
"null","","213744","HierDy6zsh1vs8","oa211xjl8z","ms1000280","iti","","null","img/motor_5.png","72","motor","","","","","","",""
"486","","214239","HierDy6zsh1vs8","oa211xjl8z","ms1000280","motor","","75","img/motor_7.png","75","motor","7","42","1","0","0","",""
"null","","214347","HierDy6zsh1vs8","oa211xjl8z","ms1000280","iti","","null","img/motor_7.png","75","motor","","","","","","",""
"1075","","215431","HierDy6zsh1vs8","oa211xjl8z","ms1000280","motor","","83","img/motor_2.png","83","motor","2","43","1","0","0","",""
"null","","215539","HierDy6zsh1vs8","oa211xjl8z","ms1000280","iti","","null","img/motor_2.png","83","motor","","","","","","",""
"523","","216069","HierDy6zsh1vs8","oa211xjl8z","ms1000280","motor","","76","img/motor_8.png","76","motor","8","44","1","0","0","",""
"null","","216184","HierDy6zsh1vs8","oa211xjl8z","ms1000280","iti","","null","img/motor_8.png","76","motor","","","","","","",""
"621","","216814","HierDy6zsh1vs8","oa211xjl8z","ms1000280","motor","","70","img/motor_4.png","70","motor","4","45","1","0","0","",""
"null","","216923","HierDy6zsh1vs8","oa211xjl8z","ms1000280","iti","","null","img/motor_4.png","70","motor","","","","","","",""
"525","","217454","HierDy6zsh1vs8","oa211xjl8z","ms1000280","motor","","68","img/motor_3.png","68","motor","3","46","1","0","0","",""
"null","","217562","HierDy6zsh1vs8","oa211xjl8z","ms1000280","iti","","null","img/motor_3.png","68","motor","","","","","","",""
"643","","218214","HierDy6zsh1vs8","oa211xjl8z","ms1000280","motor","","74","img/motor_6.png","74","motor","6","47","1","0","0","",""
"null","","218322","HierDy6zsh1vs8","oa211xjl8z","ms1000280","iti","","null","img/motor_6.png","74","motor","","","","","","",""
"508","","218844","HierDy6zsh1vs8","oa211xjl8z","ms1000280","motor","","72","img/motor_5.png","72","motor","5","48","1","0","0","",""
"null","","218959","HierDy6zsh1vs8","oa211xjl8z","ms1000280","iti","","null","img/motor_5.png","72","motor","","","","","","",""
"598","","219566","HierDy6zsh1vs8","oa211xjl8z","ms1000280","motor","","68","img/motor_3.png","68","motor","3","49","1","0","0","",""
"null","","219675","HierDy6zsh1vs8","oa211xjl8z","ms1000280","iti","","null","img/motor_3.png","68","motor","","","","","","",""
"515","","220198","HierDy6zsh1vs8","oa211xjl8z","ms1000280","motor","","76","img/motor_8.png","76","motor","8","50","1","0","0","",""
"null","","220306","HierDy6zsh1vs8","oa211xjl8z","ms1000280","iti","","null","img/motor_8.png","76","motor","","","","","","",""
"756","","221070","HierDy6zsh1vs8","oa211xjl8z","ms1000280","motor","","83","img/motor_2.png","83","motor","2","51","1","0","0","",""
"null","","221178","HierDy6zsh1vs8","oa211xjl8z","ms1000280","iti","","null","img/motor_2.png","83","motor","","","","","","",""
"612","","221804","HierDy6zsh1vs8","oa211xjl8z","ms1000280","motor","","75","img/motor_7.png","75","motor","7","52","1","0","0","",""
"null","","221919","HierDy6zsh1vs8","oa211xjl8z","ms1000280","iti","","null","img/motor_7.png","75","motor","","","","","","",""
"750","","222678","HierDy6zsh1vs8","oa211xjl8z","ms1000280","motor","","68","img/motor_3.png","68","motor","3","53","1","0","0","",""
"null","","222786","HierDy6zsh1vs8","oa211xjl8z","ms1000280","iti","","null","img/motor_3.png","68","motor","","","","","","",""
"419","","223214","HierDy6zsh1vs8","oa211xjl8z","ms1000280","motor","","68","img/motor_3.png","68","motor","3","54","1","0","0","",""
"null","","223322","HierDy6zsh1vs8","oa211xjl8z","ms1000280","iti","","null","img/motor_3.png","68","motor","","","","","","",""
"573","","223901","HierDy6zsh1vs8","oa211xjl8z","ms1000280","motor","","83","img/motor_2.png","83","motor","2","55","1","0","0","",""
"null","","224009","HierDy6zsh1vs8","oa211xjl8z","ms1000280","iti","","null","img/motor_2.png","83","motor","","","","","","",""
"485","","224501","HierDy6zsh1vs8","oa211xjl8z","ms1000280","motor","","76","img/motor_8.png","76","motor","8","56","1","0","0","",""
"null","","224609","HierDy6zsh1vs8","oa211xjl8z","ms1000280","iti","","null","img/motor_8.png","76","motor","","","","","","",""
"677","","225300","HierDy6zsh1vs8","oa211xjl8z","ms1000280","motor","","83","img/motor_2.png","83","motor","2","57","1","0","0","",""
"null","","225409","HierDy6zsh1vs8","oa211xjl8z","ms1000280","iti","","null","img/motor_2.png","83","motor","","","","","","",""
"517","","225934","HierDy6zsh1vs8","oa211xjl8z","ms1000280","motor","","68","img/motor_3.png","68","motor","3","58","1","0","0","",""
"null","","226049","HierDy6zsh1vs8","oa211xjl8z","ms1000280","iti","","null","img/motor_3.png","68","motor","","","","","","",""
"508","","226565","HierDy6zsh1vs8","oa211xjl8z","ms1000280","motor","","65","img/motor_1.png","65","motor","1","59","1","0","0","",""
"null","","226675","HierDy6zsh1vs8","oa211xjl8z","ms1000280","iti","","null","img/motor_1.png","65","motor","","","","","","",""
"483","","227167","HierDy6zsh1vs8","oa211xjl8z","ms1000280","motor","","70","img/motor_4.png","70","motor","4","60","1","0","0","",""
"null","","227281","HierDy6zsh1vs8","oa211xjl8z","ms1000280","iti","","null","img/motor_4.png","70","motor","","","","","","",""
"637","","227926","HierDy6zsh1vs8","oa211xjl8z","ms1000280","motor","","83","img/motor_2.png","83","motor","2","61","1","0","0","",""
"null","","228034","HierDy6zsh1vs8","oa211xjl8z","ms1000280","iti","","null","img/motor_2.png","83","motor","","","","","","",""
"659","","228702","HierDy6zsh1vs8","oa211xjl8z","ms1000280","motor","","75","img/motor_7.png","75","motor","7","62","1","0","0","",""
"null","","228817","HierDy6zsh1vs8","oa211xjl8z","ms1000280","iti","","null","img/motor_7.png","75","motor","","","","","","",""
"517","","229349","HierDy6zsh1vs8","oa211xjl8z","ms1000280","motor","","70","img/motor_4.png","70","motor","4","63","1","0","0","",""
"null","","229464","HierDy6zsh1vs8","oa211xjl8z","ms1000280","iti","","null","img/motor_4.png","70","motor","","","","","","",""
"454","","229926","HierDy6zsh1vs8","oa211xjl8z","ms1000280","motor","","68","img/motor_3.png","68","motor","3","64","1","0","0","",""
"null","","230040","HierDy6zsh1vs8","oa211xjl8z","ms1000280","iti","","null","img/motor_3.png","68","motor","","","","","","",""
"677","","230733","HierDy6zsh1vs8","oa211xjl8z","ms1000280","motor","","75","img/motor_7.png","75","motor","7","65","1","0","0","",""
"null","","230842","HierDy6zsh1vs8","oa211xjl8z","ms1000280","iti","","null","img/motor_7.png","75","motor","","","","","","",""
"628","","231478","HierDy6zsh1vs8","oa211xjl8z","ms1000280","motor","","68","img/motor_3.png","68","motor","3","66","1","0","0","",""
"null","","231592","HierDy6zsh1vs8","oa211xjl8z","ms1000280","iti","","null","img/motor_3.png","68","motor","","","","","","",""
"550","","232157","HierDy6zsh1vs8","oa211xjl8z","ms1000280","motor","","72","img/motor_5.png","72","motor","5","67","1","0","0","",""
"null","","232272","HierDy6zsh1vs8","oa211xjl8z","ms1000280","iti","","null","img/motor_5.png","72","motor","","","","","","",""
"550","","232830","HierDy6zsh1vs8","oa211xjl8z","ms1000280","motor","","68","img/motor_3.png","68","motor","3","68","1","0","0","",""
"null","","232937","HierDy6zsh1vs8","oa211xjl8z","ms1000280","iti","","null","img/motor_3.png","68","motor","","","","","","",""
"356","","233302","HierDy6zsh1vs8","oa211xjl8z","ms1000280","motor","","68","img/motor_3.png","68","motor","3","69","1","0","0","",""
"null","","233411","HierDy6zsh1vs8","oa211xjl8z","ms1000280","iti","","null","img/motor_3.png","68","motor","","","","","","",""
"419","","233838","HierDy6zsh1vs8","oa211xjl8z","ms1000280","motor","","83","img/motor_2.png","83","motor","2","70","1","0","0","",""
"null","","233947","HierDy6zsh1vs8","oa211xjl8z","ms1000280","iti","","null","img/motor_2.png","83","motor","","","","","","",""
"524","","234478","HierDy6zsh1vs8","oa211xjl8z","ms1000280","motor","","72","img/motor_5.png","72","motor","5","71","1","0","0","",""
"null","","234586","HierDy6zsh1vs8","oa211xjl8z","ms1000280","iti","","null","img/motor_5.png","72","motor","","","","","","",""
"435","","235037","HierDy6zsh1vs8","oa211xjl8z","ms1000280","motor","","65","img/motor_1.png","65","motor","1","72","1","0","0","",""
"null","","235152","HierDy6zsh1vs8","oa211xjl8z","ms1000280","iti","","null","img/motor_1.png","65","motor","","","","","","",""
"423","","235589","HierDy6zsh1vs8","oa211xjl8z","ms1000280","motor","","76","img/motor_8.png","76","motor","8","73","1","0","0","",""
"null","","235697","HierDy6zsh1vs8","oa211xjl8z","ms1000280","iti","","null","img/motor_8.png","76","motor","","","","","","",""
"572","","236277","HierDy6zsh1vs8","oa211xjl8z","ms1000280","motor","","65","img/motor_1.png","65","motor","1","74","1","0","0","",""
"null","","236385","HierDy6zsh1vs8","oa211xjl8z","ms1000280","iti","","null","img/motor_1.png","65","motor","","","","","","",""
"421","","236815","HierDy6zsh1vs8","oa211xjl8z","ms1000280","motor","","76","img/motor_8.png","76","motor","8","75","1","0","0","",""
"null","","236922","HierDy6zsh1vs8","oa211xjl8z","ms1000280","iti","","null","img/motor_8.png","76","motor","","","","","","",""
"643","","237574","HierDy6zsh1vs8","oa211xjl8z","ms1000280","motor","","83","img/motor_2.png","83","motor","2","76","1","0","0","",""
"null","","237683","HierDy6zsh1vs8","oa211xjl8z","ms1000280","iti","","null","img/motor_2.png","83","motor","","","","","","",""
"509","","238198","HierDy6zsh1vs8","oa211xjl8z","ms1000280","motor","","65","img/motor_1.png","65","motor","1","77","1","0","0","",""
"null","","238312","HierDy6zsh1vs8","oa211xjl8z","ms1000280","iti","","null","img/motor_1.png","65","motor","","","","","","",""
"462","","238788","HierDy6zsh1vs8","oa211xjl8z","ms1000280","motor","","83","img/motor_2.png","83","motor","2","78","1","0","0","",""
"null","","238897","HierDy6zsh1vs8","oa211xjl8z","ms1000280","iti","","null","img/motor_2.png","83","motor","","","","","","",""
"333","","239237","HierDy6zsh1vs8","oa211xjl8z","ms1000280","motor","","68","img/motor_1.png","65","motor","1","79","0","1","0","",""
"328","","239573","HierDy6zsh1vs8","oa211xjl8z","ms1000280","motorRepeat","","65","img/motor_1.png","65","motor","1","79","1","0","0","",""
"null","","239682","HierDy6zsh1vs8","oa211xjl8z","ms1000280","iti","","null","img/motor_1.png","65","motor","","","","","","",""
"589","","240277","HierDy6zsh1vs8","oa211xjl8z","ms1000280","motor","","75","img/motor_7.png","75","motor","7","80","1","0","0","",""
"null","","240392","HierDy6zsh1vs8","oa211xjl8z","ms1000280","iti","","null","img/motor_7.png","75","motor","","","","","","",""
"687","","241093","HierDy6zsh1vs8","oa211xjl8z","ms1000280","motor","","74","img/motor_6.png","74","motor","6","81","1","0","0","",""
"null","","241207","HierDy6zsh1vs8","oa211xjl8z","ms1000280","iti","","null","img/motor_6.png","74","motor","","","","","","",""
"767","","241983","HierDy6zsh1vs8","oa211xjl8z","ms1000280","motor","","83","img/motor_2.png","83","motor","2","82","1","0","0","",""
"null","","242091","HierDy6zsh1vs8","oa211xjl8z","ms1000280","iti","","null","img/motor_2.png","83","motor","","","","","","",""
"523","","242629","HierDy6zsh1vs8","oa211xjl8z","ms1000280","motor","","70","img/motor_4.png","70","motor","4","83","1","0","0","",""
"null","","242743","HierDy6zsh1vs8","oa211xjl8z","ms1000280","iti","","null","img/motor_4.png","70","motor","","","","","","",""
"446","","243199","HierDy6zsh1vs8","oa211xjl8z","ms1000280","motor","","76","img/motor_8.png","76","motor","8","84","1","0","0","",""
"null","","243313","HierDy6zsh1vs8","oa211xjl8z","ms1000280","iti","","null","img/motor_8.png","76","motor","","","","","","",""
"692","","244020","HierDy6zsh1vs8","oa211xjl8z","ms1000280","motor","","83","img/motor_2.png","83","motor","2","85","1","0","0","",""
"null","","244129","HierDy6zsh1vs8","oa211xjl8z","ms1000280","iti","","null","img/motor_2.png","83","motor","","","","","","",""
"485","","244622","HierDy6zsh1vs8","oa211xjl8z","ms1000280","motor","","70","img/motor_4.png","70","motor","4","86","1","0","0","",""
"null","","244730","HierDy6zsh1vs8","oa211xjl8z","ms1000280","iti","","null","img/motor_4.png","70","motor","","","","","","",""
"548","","245287","HierDy6zsh1vs8","oa211xjl8z","ms1000280","motor","","75","img/motor_7.png","75","motor","7","87","1","0","0","",""
"null","","245401","HierDy6zsh1vs8","oa211xjl8z","ms1000280","iti","","null","img/motor_7.png","75","motor","","","","","","",""
"444","","245860","HierDy6zsh1vs8","oa211xjl8z","ms1000280","motor","","76","img/motor_8.png","76","motor","8","88","1","0","0","",""
"null","","245969","HierDy6zsh1vs8","oa211xjl8z","ms1000280","iti","","null","img/motor_8.png","76","motor","","","","","","",""
"469","","246446","HierDy6zsh1vs8","oa211xjl8z","ms1000280","motor","","72","img/motor_5.png","72","motor","5","89","1","0","0","",""
"null","","246560","HierDy6zsh1vs8","oa211xjl8z","ms1000280","iti","","null","img/motor_5.png","72","motor","","","","","","",""
"533","","247102","HierDy6zsh1vs8","oa211xjl8z","ms1000280","motor","","68","img/motor_2.png","83","motor","2","90","0","1","0","",""
"288","","247398","HierDy6zsh1vs8","oa211xjl8z","ms1000280","motorRepeat","","83","img/motor_2.png","83","motor","2","90","1","0","0","",""
"null","","247507","HierDy6zsh1vs8","oa211xjl8z","ms1000280","iti","","null","img/motor_2.png","83","motor","","","","","","",""
"508","","248022","HierDy6zsh1vs8","oa211xjl8z","ms1000280","motor","","72","img/motor_5.png","72","motor","5","91","1","0","0","",""
"null","","248136","HierDy6zsh1vs8","oa211xjl8z","ms1000280","iti","","null","img/motor_5.png","72","motor","","","","","","",""
"534","","248685","HierDy6zsh1vs8","oa211xjl8z","ms1000280","motor","","65","img/motor_1.png","65","motor","1","92","1","0","0","",""
"null","","248799","HierDy6zsh1vs8","oa211xjl8z","ms1000280","iti","","null","img/motor_1.png","65","motor","","","","","","",""
"534","","249342","HierDy6zsh1vs8","oa211xjl8z","ms1000280","motor","","83","img/motor_2.png","83","motor","2","93","1","0","0","",""
"null","","249450","HierDy6zsh1vs8","oa211xjl8z","ms1000280","iti","","null","img/motor_2.png","83","motor","","","","","","",""
"564","","250022","HierDy6zsh1vs8","oa211xjl8z","ms1000280","motor","","74","img/motor_6.png","74","motor","6","94","1","0","0","",""
"null","","250130","HierDy6zsh1vs8","oa211xjl8z","ms1000280","iti","","null","img/motor_6.png","74","motor","","","","","","",""
"421","","250564","HierDy6zsh1vs8","oa211xjl8z","ms1000280","motor","","75","img/motor_7.png","75","motor","7","95","1","0","0","",""
"null","","250673","HierDy6zsh1vs8","oa211xjl8z","ms1000280","iti","","null","img/motor_7.png","75","motor","","","","","","",""
"532","","251214","HierDy6zsh1vs8","oa211xjl8z","ms1000280","motor","","74","img/motor_6.png","74","motor","6","96","1","0","0","",""
"null","","251323","HierDy6zsh1vs8","oa211xjl8z","ms1000280","iti","","null","img/motor_6.png","74","motor","","","","","","",""
"492","","251821","HierDy6zsh1vs8","oa211xjl8z","ms1000280","motor","","76","img/motor_8.png","76","motor","8","97","1","0","0","",""
"null","","251930","HierDy6zsh1vs8","oa211xjl8z","ms1000280","iti","","null","img/motor_8.png","76","motor","","","","","","",""
"652","","252590","HierDy6zsh1vs8","oa211xjl8z","ms1000280","motor","","75","img/motor_7.png","75","motor","7","98","1","0","0","",""
"null","","252698","HierDy6zsh1vs8","oa211xjl8z","ms1000280","iti","","null","img/motor_7.png","75","motor","","","","","","",""
"605","","253316","HierDy6zsh1vs8","oa211xjl8z","ms1000280","motor","","83","img/motor_2.png","83","motor","2","99","1","0","0","",""
"null","","253425","HierDy6zsh1vs8","oa211xjl8z","ms1000280","iti","","null","img/motor_2.png","83","motor","","","","","","",""
"541","","253974","HierDy6zsh1vs8","oa211xjl8z","ms1000280","motor","","70","img/motor_4.png","70","motor","4","100","1","0","0","",""
"null","","254089","HierDy6zsh1vs8","oa211xjl8z","ms1000280","iti","","null","img/motor_4.png","70","motor","","","","","","",""
"493","","254591","HierDy6zsh1vs8","oa211xjl8z","ms1000280","motor","","75","img/motor_7.png","75","motor","7","101","1","0","0","",""
"null","","254699","HierDy6zsh1vs8","oa211xjl8z","ms1000280","iti","","null","img/motor_7.png","75","motor","","","","","","",""
"555","","255269","HierDy6zsh1vs8","oa211xjl8z","ms1000280","motor","","83","img/motor_2.png","83","motor","2","102","1","0","0","",""
"null","","255378","HierDy6zsh1vs8","oa211xjl8z","ms1000280","iti","","null","img/motor_2.png","83","motor","","","","","","",""
"516","","255909","HierDy6zsh1vs8","oa211xjl8z","ms1000280","motor","","72","img/motor_5.png","72","motor","5","103","1","0","0","",""
"null","","256017","HierDy6zsh1vs8","oa211xjl8z","ms1000280","iti","","null","img/motor_5.png","72","motor","","","","","","",""
"389","","256412","HierDy6zsh1vs8","oa211xjl8z","ms1000280","motor","","72","img/motor_5.png","72","motor","5","104","1","0","0","",""
"null","","256521","HierDy6zsh1vs8","oa211xjl8z","ms1000280","iti","","null","img/motor_5.png","72","motor","","","","","","",""
"462","","256990","HierDy6zsh1vs8","oa211xjl8z","ms1000280","motor","","74","img/motor_6.png","74","motor","6","105","1","0","0","",""
"null","","257104","HierDy6zsh1vs8","oa211xjl8z","ms1000280","iti","","null","img/motor_6.png","74","motor","","","","","","",""
"533","","257646","HierDy6zsh1vs8","oa211xjl8z","ms1000280","motor","","70","img/motor_4.png","70","motor","4","106","1","0","0","",""
"null","","257754","HierDy6zsh1vs8","oa211xjl8z","ms1000280","iti","","null","img/motor_4.png","70","motor","","","","","","",""
"460","","258222","HierDy6zsh1vs8","oa211xjl8z","ms1000280","motor","","72","img/motor_5.png","72","motor","5","107","1","0","0","",""
"null","","258330","HierDy6zsh1vs8","oa211xjl8z","ms1000280","iti","","null","img/motor_5.png","72","motor","","","","","","",""
"963","","259303","HierDy6zsh1vs8","oa211xjl8z","ms1000280","motor","","83","img/motor_2.png","83","motor","2","108","1","0","0","",""
"null","","259411","HierDy6zsh1vs8","oa211xjl8z","ms1000280","iti","","null","img/motor_2.png","83","motor","","","","","","",""
"347","","259766","HierDy6zsh1vs8","oa211xjl8z","ms1000280","motor","","83","img/motor_1.png","65","motor","1","109","0","1","0","",""
"296","","260068","HierDy6zsh1vs8","oa211xjl8z","ms1000280","motorRepeat","","65","img/motor_1.png","65","motor","1","109","1","0","0","",""
"null","","260178","HierDy6zsh1vs8","oa211xjl8z","ms1000280","iti","","null","img/motor_1.png","65","motor","","","","","","",""
"605","","260797","HierDy6zsh1vs8","oa211xjl8z","ms1000280","motor","","74","img/motor_6.png","74","motor","6","110","1","0","0","",""
"null","","260907","HierDy6zsh1vs8","oa211xjl8z","ms1000280","iti","","null","img/motor_6.png","74","motor","","","","","","",""
"405","","261325","HierDy6zsh1vs8","oa211xjl8z","ms1000280","motor","","75","img/motor_7.png","75","motor","7","111","1","0","0","",""
"null","","261434","HierDy6zsh1vs8","oa211xjl8z","ms1000280","iti","","null","img/motor_7.png","75","motor","","","","","","",""
"493","","261935","HierDy6zsh1vs8","oa211xjl8z","ms1000280","motor","","65","img/motor_1.png","65","motor","1","112","1","0","0","",""
"null","","262043","HierDy6zsh1vs8","oa211xjl8z","ms1000280","iti","","null","img/motor_1.png","65","motor","","","","","","",""
"499","","262553","HierDy6zsh1vs8","oa211xjl8z","ms1000280","motor","","76","img/motor_8.png","76","motor","8","113","1","0","0","",""
"null","","262662","HierDy6zsh1vs8","oa211xjl8z","ms1000280","iti","","null","img/motor_8.png","76","motor","","","","","","",""
"721","","263390","HierDy6zsh1vs8","oa211xjl8z","ms1000280","motor","","68","img/motor_3.png","68","motor","3","114","1","0","0","",""
"null","","263500","HierDy6zsh1vs8","oa211xjl8z","ms1000280","iti","","null","img/motor_3.png","68","motor","","","","","","",""
"555","","264063","HierDy6zsh1vs8","oa211xjl8z","ms1000280","motor","","75","img/motor_7.png","75","motor","7","115","1","0","0","",""
"null","","264179","HierDy6zsh1vs8","oa211xjl8z","ms1000280","iti","","null","img/motor_7.png","75","motor","","","","","","",""
"530","","264718","HierDy6zsh1vs8","oa211xjl8z","ms1000280","motor","","74","img/motor_6.png","74","motor","6","116","1","0","0","",""
"null","","264833","HierDy6zsh1vs8","oa211xjl8z","ms1000280","iti","","null","img/motor_6.png","74","motor","","","","","","",""
"404","","265254","HierDy6zsh1vs8","oa211xjl8z","ms1000280","motor","","72","img/motor_5.png","72","motor","5","117","1","0","0","",""
"null","","265368","HierDy6zsh1vs8","oa211xjl8z","ms1000280","iti","","null","img/motor_5.png","72","motor","","","","","","",""
"429","","265806","HierDy6zsh1vs8","oa211xjl8z","ms1000280","motor","","76","img/motor_8.png","76","motor","8","118","1","0","0","",""
"null","","265914","HierDy6zsh1vs8","oa211xjl8z","ms1000280","iti","","null","img/motor_8.png","76","motor","","","","","","",""
"557","","266485","HierDy6zsh1vs8","oa211xjl8z","ms1000280","motor","","70","img/motor_4.png","70","motor","4","119","1","0","0","",""
"null","","266601","HierDy6zsh1vs8","oa211xjl8z","ms1000280","iti","","null","img/motor_4.png","70","motor","","","","","","",""
"573","","267182","HierDy6zsh1vs8","oa211xjl8z","ms1000280","motor","","74","img/motor_6.png","74","motor","6","120","1","0","0","",""
"null","","267290","HierDy6zsh1vs8","oa211xjl8z","ms1000280","iti","","null","img/motor_6.png","74","motor","","","","","","",""
"477","","267775","HierDy6zsh1vs8","oa211xjl8z","ms1000280","motor","","72","img/motor_5.png","72","motor","5","121","1","0","0","",""
"null","","267882","HierDy6zsh1vs8","oa211xjl8z","ms1000280","iti","","null","img/motor_5.png","72","motor","","","","","","",""
"539","","268436","HierDy6zsh1vs8","oa211xjl8z","ms1000280","motor","","68","img/motor_3.png","68","motor","3","122","1","0","0","",""
"null","","268546","HierDy6zsh1vs8","oa211xjl8z","ms1000280","iti","","null","img/motor_3.png","68","motor","","","","","","",""
"620","","269181","HierDy6zsh1vs8","oa211xjl8z","ms1000280","motor","","74","img/motor_6.png","74","motor","6","123","1","0","0","",""
"null","","269296","HierDy6zsh1vs8","oa211xjl8z","ms1000280","iti","","null","img/motor_6.png","74","motor","","","","","","",""
"588","","269893","HierDy6zsh1vs8","oa211xjl8z","ms1000280","motor","","65","img/motor_1.png","65","motor","1","124","1","0","0","",""
"null","","270007","HierDy6zsh1vs8","oa211xjl8z","ms1000280","iti","","null","img/motor_1.png","65","motor","","","","","","",""
"503","","270525","HierDy6zsh1vs8","oa211xjl8z","ms1000280","motor","","72","img/motor_5.png","72","motor","5","125","1","0","0","",""
"null","","270640","HierDy6zsh1vs8","oa211xjl8z","ms1000280","iti","","null","img/motor_5.png","72","motor","","","","","","",""
"461","","271111","HierDy6zsh1vs8","oa211xjl8z","ms1000280","motor","","74","img/motor_6.png","74","motor","6","126","1","0","0","",""
"null","","271224","HierDy6zsh1vs8","oa211xjl8z","ms1000280","iti","","null","img/motor_6.png","74","motor","","","","","","",""
"517","","271756","HierDy6zsh1vs8","oa211xjl8z","ms1000280","motor","","83","img/motor_2.png","83","motor","2","127","1","0","0","",""
"null","","271872","HierDy6zsh1vs8","oa211xjl8z","ms1000280","iti","","null","img/motor_2.png","83","motor","","","","","","",""
"502","","272389","HierDy6zsh1vs8","oa211xjl8z","ms1000280","motor","","70","img/motor_4.png","70","motor","4","128","1","0","0","",""
"null","","272505","HierDy6zsh1vs8","oa211xjl8z","ms1000280","iti","","null","img/motor_4.png","70","motor","","","","","","",""
"470","","272982","HierDy6zsh1vs8","oa211xjl8z","ms1000280","motor","","83","img/motor_2.png","83","motor","2","129","1","0","0","",""
"null","","273096","HierDy6zsh1vs8","oa211xjl8z","ms1000280","iti","","null","img/motor_2.png","83","motor","","","","","","",""
"502","","273606","HierDy6zsh1vs8","oa211xjl8z","ms1000280","motor","","65","img/motor_1.png","65","motor","1","130","1","0","0","",""
"null","","273715","HierDy6zsh1vs8","oa211xjl8z","ms1000280","iti","","null","img/motor_1.png","65","motor","","","","","","",""
"580","","274302","HierDy6zsh1vs8","oa211xjl8z","ms1000280","motor","","74","img/motor_6.png","74","motor","6","131","1","0","0","",""
"null","","274411","HierDy6zsh1vs8","oa211xjl8z","ms1000280","iti","","null","img/motor_6.png","74","motor","","","","","","",""
"491","","274911","HierDy6zsh1vs8","oa211xjl8z","ms1000280","motor","","75","img/motor_7.png","75","motor","7","132","1","0","0","",""
"null","","275019","HierDy6zsh1vs8","oa211xjl8z","ms1000280","iti","","null","img/motor_7.png","75","motor","","","","","","",""
"410","","275439","HierDy6zsh1vs8","oa211xjl8z","ms1000280","motor","","75","img/motor_7.png","75","motor","7","133","1","0","0","",""
"null","","275548","HierDy6zsh1vs8","oa211xjl8z","ms1000280","iti","","null","img/motor_7.png","75","motor","","","","","","",""
"563","","276125","HierDy6zsh1vs8","oa211xjl8z","ms1000280","motor","","70","img/motor_4.png","70","motor","4","134","1","0","0","",""
"null","","276240","HierDy6zsh1vs8","oa211xjl8z","ms1000280","iti","","null","img/motor_4.png","70","motor","","","","","","",""
"350","","276598","HierDy6zsh1vs8","oa211xjl8z","ms1000280","motor","","83","img/motor_3.png","68","motor","3","135","0","1","0","",""
"519","","277133","HierDy6zsh1vs8","oa211xjl8z","ms1000280","motorRepeat","","68","img/motor_3.png","68","motor","3","135","1","0","0","",""
"null","","277242","HierDy6zsh1vs8","oa211xjl8z","ms1000280","iti","","null","img/motor_3.png","68","motor","","","","","","",""
"477","","277725","HierDy6zsh1vs8","oa211xjl8z","ms1000280","motor","","72","img/motor_5.png","72","motor","5","136","1","0","0","",""
"null","","277840","HierDy6zsh1vs8","oa211xjl8z","ms1000280","iti","","null","img/motor_5.png","72","motor","","","","","","",""
"478","","278326","HierDy6zsh1vs8","oa211xjl8z","ms1000280","motor","","76","img/motor_8.png","76","motor","8","137","1","0","0","",""
"null","","278434","HierDy6zsh1vs8","oa211xjl8z","ms1000280","iti","","null","img/motor_8.png","76","motor","","","","","","",""
"484","","278927","HierDy6zsh1vs8","oa211xjl8z","ms1000280","motor","","65","img/motor_1.png","65","motor","1","138","1","0","0","",""
"null","","279035","HierDy6zsh1vs8","oa211xjl8z","ms1000280","iti","","null","img/motor_1.png","65","motor","","","","","","",""
"548","","279597","HierDy6zsh1vs8","oa211xjl8z","ms1000280","motor","","68","img/motor_3.png","68","motor","3","139","1","0","0","",""
"null","","279706","HierDy6zsh1vs8","oa211xjl8z","ms1000280","iti","","null","img/motor_3.png","68","motor","","","","","","",""
"404","","280117","HierDy6zsh1vs8","oa211xjl8z","ms1000280","motor","","68","img/motor_3.png","68","motor","3","140","1","0","0","",""
"null","","280232","HierDy6zsh1vs8","oa211xjl8z","ms1000280","iti","","null","img/motor_3.png","68","motor","","","","","","",""
"572","","280815","HierDy6zsh1vs8","oa211xjl8z","ms1000280","motor","","75","img/motor_7.png","75","motor","7","141","1","0","0","",""
"null","","280929","HierDy6zsh1vs8","oa211xjl8z","ms1000280","iti","","null","img/motor_7.png","75","motor","","","","","","",""
"380","","281318","HierDy6zsh1vs8","oa211xjl8z","ms1000280","motor","","75","img/motor_7.png","75","motor","7","142","1","0","0","",""
"null","","281427","HierDy6zsh1vs8","oa211xjl8z","ms1000280","iti","","null","img/motor_7.png","75","motor","","","","","","",""
"571","","282013","HierDy6zsh1vs8","oa211xjl8z","ms1000280","motor","","83","img/motor_2.png","83","motor","2","143","1","0","0","",""
"null","","282122","HierDy6zsh1vs8","oa211xjl8z","ms1000280","iti","","null","img/motor_2.png","83","motor","","","","","","",""
"533","","282662","HierDy6zsh1vs8","oa211xjl8z","ms1000280","motor","","76","img/motor_8.png","76","motor","8","144","1","0","0","",""
"null","","282776","HierDy6zsh1vs8","oa211xjl8z","ms1000280","iti","","null","img/motor_8.png","76","motor","","","","","","",""
"476","","283263","HierDy6zsh1vs8","oa211xjl8z","ms1000280","motor","","65","img/motor_1.png","65","motor","1","145","1","0","0","",""
"null","","283372","HierDy6zsh1vs8","oa211xjl8z","ms1000280","iti","","null","img/motor_1.png","65","motor","","","","","","",""
"532","","283917","HierDy6zsh1vs8","oa211xjl8z","ms1000280","motor","","68","img/motor_3.png","68","motor","3","146","1","0","0","",""
"null","","284026","HierDy6zsh1vs8","oa211xjl8z","ms1000280","iti","","null","img/motor_3.png","68","motor","","","","","","",""
"476","","284517","HierDy6zsh1vs8","oa211xjl8z","ms1000280","motor","","76","img/motor_8.png","76","motor","8","147","1","0","0","",""
"null","","284627","HierDy6zsh1vs8","oa211xjl8z","ms1000280","iti","","null","img/motor_8.png","76","motor","","","","","","",""
"693","","285327","HierDy6zsh1vs8","oa211xjl8z","ms1000280","motor","","68","img/motor_3.png","68","motor","3","148","1","0","0","",""
"null","","285435","HierDy6zsh1vs8","oa211xjl8z","ms1000280","iti","","null","img/motor_3.png","68","motor","","","","","","",""
"459","","285902","HierDy6zsh1vs8","oa211xjl8z","ms1000280","motor","","76","img/motor_8.png","76","motor","8","149","1","0","0","",""
"null","","286017","HierDy6zsh1vs8","oa211xjl8z","ms1000280","iti","","null","img/motor_8.png","76","motor","","","","","","",""
"477","","286502","HierDy6zsh1vs8","oa211xjl8z","ms1000280","motor","","65","img/motor_1.png","65","motor","1","150","1","0","0","",""
"null","","286617","HierDy6zsh1vs8","oa211xjl8z","ms1000280","iti","","null","img/motor_1.png","65","motor","","","","","","",""
"565","","287191","HierDy6zsh1vs8","oa211xjl8z","ms1000280","motor","","75","img/motor_7.png","75","motor","7","151","1","0","0","",""
"null","","287305","HierDy6zsh1vs8","oa211xjl8z","ms1000280","iti","","null","img/motor_7.png","75","motor","","","","","","",""
"661","","287974","HierDy6zsh1vs8","oa211xjl8z","ms1000280","motor","","83","img/motor_2.png","83","motor","2","152","1","0","0","",""
"null","","288088","HierDy6zsh1vs8","oa211xjl8z","ms1000280","iti","","null","img/motor_2.png","83","motor","","","","","","",""
"558","","288661","HierDy6zsh1vs8","oa211xjl8z","ms1000280","motor","","76","img/motor_8.png","76","motor","8","153","1","0","0","",""
"null","","288769","HierDy6zsh1vs8","oa211xjl8z","ms1000280","iti","","null","img/motor_8.png","76","motor","","","","","","",""
"509","","289286","HierDy6zsh1vs8","oa211xjl8z","ms1000280","motor","","75","img/motor_7.png","75","motor","7","154","1","0","0","",""
"null","","289402","HierDy6zsh1vs8","oa211xjl8z","ms1000280","iti","","null","img/motor_7.png","75","motor","","","","","","",""
"541","","289957","HierDy6zsh1vs8","oa211xjl8z","ms1000280","motor","","76","img/motor_8.png","76","motor","8","155","1","0","0","",""
"null","","290072","HierDy6zsh1vs8","oa211xjl8z","ms1000280","iti","","null","img/motor_8.png","76","motor","","","","","","",""
"558","","290639","HierDy6zsh1vs8","oa211xjl8z","ms1000280","motor","","74","img/motor_6.png","74","motor","6","156","1","0","0","",""
"null","","290747","HierDy6zsh1vs8","oa211xjl8z","ms1000280","iti","","null","img/motor_6.png","74","motor","","","","","","",""
"428","","291189","HierDy6zsh1vs8","oa211xjl8z","ms1000280","motor","","72","img/motor_5.png","72","motor","5","157","1","0","0","",""
"null","","291305","HierDy6zsh1vs8","oa211xjl8z","ms1000280","iti","","null","img/motor_5.png","72","motor","","","","","","",""
"382","","291695","HierDy6zsh1vs8","oa211xjl8z","ms1000280","motor","","76","img/motor_8.png","76","motor","8","158","1","0","0","",""
"null","","291810","HierDy6zsh1vs8","oa211xjl8z","ms1000280","iti","","null","img/motor_8.png","76","motor","","","","","","",""
"589","","292414","HierDy6zsh1vs8","oa211xjl8z","ms1000280","motor","","74","img/motor_6.png","74","motor","6","159","1","0","0","",""
"null","","292522","HierDy6zsh1vs8","oa211xjl8z","ms1000280","iti","","null","img/motor_6.png","74","motor","","","","","","",""
"508","","293039","HierDy6zsh1vs8","oa211xjl8z","ms1000280","motor","","76","img/motor_8.png","76","motor","8","160","1","0","0","",""
"null","","293155","HierDy6zsh1vs8","oa211xjl8z","ms1000280","iti","","null","img/motor_8.png","76","motor","","","","","","",""
"724","","293886","HierDy6zsh1vs8","oa211xjl8z","ms1000280","motor","","68","img/motor_3.png","68","motor","3","161","1","0","0","",""
"null","","293995","HierDy6zsh1vs8","oa211xjl8z","ms1000280","iti","","null","img/motor_3.png","68","motor","","","","","","",""
"563","","294567","HierDy6zsh1vs8","oa211xjl8z","ms1000280","motor","","83","img/motor_2.png","83","motor","2","162","1","0","0","",""
"null","","294681","HierDy6zsh1vs8","oa211xjl8z","ms1000280","iti","","null","img/motor_2.png","83","motor","","","","","","",""
"581","","295271","HierDy6zsh1vs8","oa211xjl8z","ms1000280","motor","","74","img/motor_6.png","74","motor","6","163","1","0","0","",""
"null","","295379","HierDy6zsh1vs8","oa211xjl8z","ms1000280","iti","","null","img/motor_6.png","74","motor","","","","","","",""
"412","","295798","HierDy6zsh1vs8","oa211xjl8z","ms1000280","motor","","74","img/motor_6.png","74","motor","6","164","1","0","0","",""
"null","","295913","HierDy6zsh1vs8","oa211xjl8z","ms1000280","iti","","null","img/motor_6.png","74","motor","","","","","","",""
"453","","296375","HierDy6zsh1vs8","oa211xjl8z","ms1000280","motor","","75","img/motor_7.png","75","motor","7","165","1","0","0","",""
"null","","296483","HierDy6zsh1vs8","oa211xjl8z","ms1000280","iti","","null","img/motor_7.png","75","motor","","","","","","",""
"588","","297085","HierDy6zsh1vs8","oa211xjl8z","ms1000280","motor","","68","img/motor_3.png","68","motor","3","166","1","0","0","",""
"null","","297194","HierDy6zsh1vs8","oa211xjl8z","ms1000280","iti","","null","img/motor_3.png","68","motor","","","","","","",""
"540","","297742","HierDy6zsh1vs8","oa211xjl8z","ms1000280","motor","","74","img/motor_6.png","74","motor","6","167","1","0","0","",""
"null","","297857","HierDy6zsh1vs8","oa211xjl8z","ms1000280","iti","","null","img/motor_6.png","74","motor","","","","","","",""
"429","","298300","HierDy6zsh1vs8","oa211xjl8z","ms1000280","motor","","68","img/motor_3.png","68","motor","3","168","1","0","0","",""
"null","","298409","HierDy6zsh1vs8","oa211xjl8z","ms1000280","iti","","null","img/motor_3.png","68","motor","","","","","","",""
"405","","298822","HierDy6zsh1vs8","oa211xjl8z","ms1000280","motor","","68","img/motor_2.png","83","motor","2","169","0","1","0","",""
"249","","299085","HierDy6zsh1vs8","oa211xjl8z","ms1000280","motorRepeat","","83","img/motor_2.png","83","motor","2","169","1","0","0","",""
"null","","299200","HierDy6zsh1vs8","oa211xjl8z","ms1000280","iti","","null","img/motor_2.png","83","motor","","","","","","",""
"118","","299333","HierDy6zsh1vs8","oa211xjl8z","ms1000280","motor","","65","img/motor_6.png","74","motor","6","170","0","1","0","",""
"465","","299806","HierDy6zsh1vs8","oa211xjl8z","ms1000280","motorRepeat","","74","img/motor_6.png","74","motor","6","170","1","0","0","",""
"null","","299921","HierDy6zsh1vs8","oa211xjl8z","ms1000280","iti","","null","img/motor_6.png","74","motor","","","","","","",""
"532","","300463","HierDy6zsh1vs8","oa211xjl8z","ms1000280","motor","","68","img/motor_3.png","68","motor","3","171","1","0","0","",""
"null","","300571","HierDy6zsh1vs8","oa211xjl8z","ms1000280","iti","","null","img/motor_3.png","68","motor","","","","","","",""
"675","","301261","HierDy6zsh1vs8","oa211xjl8z","ms1000280","motor","","70","img/motor_4.png","70","motor","4","172","1","0","0","",""
"null","","301376","HierDy6zsh1vs8","oa211xjl8z","ms1000280","iti","","null","img/motor_4.png","70","motor","","","","","","",""
"660","","302047","HierDy6zsh1vs8","oa211xjl8z","ms1000280","motor","","72","img/motor_5.png","72","motor","5","173","1","0","0","",""
"null","","302155","HierDy6zsh1vs8","oa211xjl8z","ms1000280","iti","","null","img/motor_5.png","72","motor","","","","","","",""
"588","","302751","HierDy6zsh1vs8","oa211xjl8z","ms1000280","motor","","70","img/motor_4.png","70","motor","4","174","1","0","0","",""
"null","","302859","HierDy6zsh1vs8","oa211xjl8z","ms1000280","iti","","null","img/motor_4.png","70","motor","","","","","","",""
"653","","303525","HierDy6zsh1vs8","oa211xjl8z","ms1000280","motor","","65","img/motor_1.png","65","motor","1","175","1","0","0","",""
"null","","303634","HierDy6zsh1vs8","oa211xjl8z","ms1000280","iti","","null","img/motor_1.png","65","motor","","","","","","",""
"548","","304191","HierDy6zsh1vs8","oa211xjl8z","ms1000280","motor","","72","img/motor_5.png","72","motor","5","176","1","0","0","",""
"null","","304300","HierDy6zsh1vs8","oa211xjl8z","ms1000280","iti","","null","img/motor_5.png","72","motor","","","","","","",""
"426","","304735","HierDy6zsh1vs8","oa211xjl8z","ms1000280","motor","","72","img/motor_5.png","72","motor","5","177","1","0","0","",""
"null","","304850","HierDy6zsh1vs8","oa211xjl8z","ms1000280","iti","","null","img/motor_5.png","72","motor","","","","","","",""
"588","","305446","HierDy6zsh1vs8","oa211xjl8z","ms1000280","motor","","68","img/motor_3.png","68","motor","3","178","1","0","0","",""
"null","","305555","HierDy6zsh1vs8","oa211xjl8z","ms1000280","iti","","null","img/motor_3.png","68","motor","","","","","","",""
"484","","306053","HierDy6zsh1vs8","oa211xjl8z","ms1000280","motor","","72","img/motor_5.png","72","motor","5","179","1","0","0","",""
"null","","306162","HierDy6zsh1vs8","oa211xjl8z","ms1000280","iti","","null","img/motor_5.png","72","motor","","","","","","",""
"557","","306726","HierDy6zsh1vs8","oa211xjl8z","ms1000280","motor","","70","img/motor_4.png","70","motor","4","180","1","0","0","",""
"null","","306835","HierDy6zsh1vs8","oa211xjl8z","ms1000280","iti","","null","img/motor_4.png","70","motor","","","","","","",""
"484","","307327","HierDy6zsh1vs8","oa211xjl8z","ms1000280","motor","","72","img/motor_5.png","72","motor","5","181","1","0","0","",""
"null","","307441","HierDy6zsh1vs8","oa211xjl8z","ms1000280","iti","","null","img/motor_5.png","72","motor","","","","","","",""
"758","","308207","HierDy6zsh1vs8","oa211xjl8z","ms1000280","motor","","68","img/motor_3.png","68","motor","3","182","1","0","0","",""
"null","","308315","HierDy6zsh1vs8","oa211xjl8z","ms1000280","iti","","null","img/motor_3.png","68","motor","","","","","","",""
"564","","308887","HierDy6zsh1vs8","oa211xjl8z","ms1000280","motor","","65","img/motor_1.png","65","motor","1","183","1","0","0","",""
"null","","308995","HierDy6zsh1vs8","oa211xjl8z","ms1000280","iti","","null","img/motor_1.png","65","motor","","","","","","",""
"618","","309623","HierDy6zsh1vs8","oa211xjl8z","ms1000280","motor","","75","img/motor_7.png","75","motor","7","184","1","0","0","",""
"null","","309738","HierDy6zsh1vs8","oa211xjl8z","ms1000280","iti","","null","img/motor_7.png","75","motor","","","","","","",""
"741","","310493","HierDy6zsh1vs8","oa211xjl8z","ms1000280","motor","","72","img/motor_5.png","72","motor","5","185","1","0","0","",""
"null","","310602","HierDy6zsh1vs8","oa211xjl8z","ms1000280","iti","","null","img/motor_5.png","72","motor","","","","","","",""
"365","","310975","HierDy6zsh1vs8","oa211xjl8z","ms1000280","motor","","72","img/motor_5.png","72","motor","5","186","1","0","0","",""
"null","","311090","HierDy6zsh1vs8","oa211xjl8z","ms1000280","iti","","null","img/motor_5.png","72","motor","","","","","","",""
"572","","311669","HierDy6zsh1vs8","oa211xjl8z","ms1000280","motor","","68","img/motor_2.png","83","motor","2","187","0","1","0","",""
"201","","311885","HierDy6zsh1vs8","oa211xjl8z","ms1000280","motorRepeat","","83","img/motor_2.png","83","motor","2","187","1","0","0","",""
"null","","311994","HierDy6zsh1vs8","oa211xjl8z","ms1000280","iti","","null","img/motor_2.png","83","motor","","","","","","",""
"461","","312462","HierDy6zsh1vs8","oa211xjl8z","ms1000280","motor","","72","img/motor_5.png","72","motor","5","188","1","0","0","",""
"null","","312577","HierDy6zsh1vs8","oa211xjl8z","ms1000280","iti","","null","img/motor_5.png","72","motor","","","","","","",""
"493","","313086","HierDy6zsh1vs8","oa211xjl8z","ms1000280","motor","","75","img/motor_7.png","75","motor","7","189","1","0","0","",""
"null","","313201","HierDy6zsh1vs8","oa211xjl8z","ms1000280","iti","","null","img/motor_7.png","75","motor","","","","","","",""
"438","","313647","HierDy6zsh1vs8","oa211xjl8z","ms1000280","motor","","72","img/motor_5.png","72","motor","5","190","1","0","0","",""
"null","","313755","HierDy6zsh1vs8","oa211xjl8z","ms1000280","iti","","null","img/motor_5.png","72","motor","","","","","","",""
"581","","314343","HierDy6zsh1vs8","oa211xjl8z","ms1000280","motor","","70","img/motor_4.png","70","motor","4","191","1","0","0","",""
"null","","314451","HierDy6zsh1vs8","oa211xjl8z","ms1000280","iti","","null","img/motor_4.png","70","motor","","","","","","",""
"388","","314846","HierDy6zsh1vs8","oa211xjl8z","ms1000280","motor","","70","img/motor_4.png","70","motor","4","192","1","0","0","",""
"null","","314955","HierDy6zsh1vs8","oa211xjl8z","ms1000280","iti","","null","img/motor_4.png","70","motor","","","","","","",""
"524","","315487","HierDy6zsh1vs8","oa211xjl8z","ms1000280","motor","","74","img/motor_6.png","74","motor","6","193","1","0","0","",""
"null","","315596","HierDy6zsh1vs8","oa211xjl8z","ms1000280","iti","","null","img/motor_6.png","74","motor","","","","","","",""
"580","","316184","HierDy6zsh1vs8","oa211xjl8z","ms1000280","motor","","65","img/motor_1.png","65","motor","1","194","1","0","0","",""
"null","","316298","HierDy6zsh1vs8","oa211xjl8z","ms1000280","iti","","null","img/motor_1.png","65","motor","","","","","","",""
"524","","316837","HierDy6zsh1vs8","oa211xjl8z","ms1000280","motor","","70","img/motor_4.png","70","motor","4","195","1","0","0","",""
"null","","316947","HierDy6zsh1vs8","oa211xjl8z","ms1000280","iti","","null","img/motor_4.png","70","motor","","","","","","",""
"588","","317542","HierDy6zsh1vs8","oa211xjl8z","ms1000280","motor","","83","img/motor_2.png","83","motor","2","196","1","0","0","",""
"null","","317656","HierDy6zsh1vs8","oa211xjl8z","ms1000280","iti","","null","img/motor_2.png","83","motor","","","","","","",""
"493","","318159","HierDy6zsh1vs8","oa211xjl8z","ms1000280","motor","","68","img/motor_3.png","68","motor","3","197","1","0","0","",""
"null","","318273","HierDy6zsh1vs8","oa211xjl8z","ms1000280","iti","","null","img/motor_3.png","68","motor","","","","","","",""
"613","","318901","HierDy6zsh1vs8","oa211xjl8z","ms1000280","motor","","75","img/motor_7.png","75","motor","7","198","1","0","0","",""
"null","","319011","HierDy6zsh1vs8","oa211xjl8z","ms1000280","iti","","null","img/motor_7.png","75","motor","","","","","","",""
"380","","319399","HierDy6zsh1vs8","oa211xjl8z","ms1000280","motor","","76","img/motor_8.png","76","motor","8","199","1","0","0","",""
"null","","319513","HierDy6zsh1vs8","oa211xjl8z","ms1000280","iti","","null","img/motor_8.png","76","motor","","","","","","",""
"821","","320343","HierDy6zsh1vs8","oa211xjl8z","ms1000280","motor","","75","img/motor_7.png","75","motor","7","200","1","0","0","",""
"null","","320458","HierDy6zsh1vs8","oa211xjl8z","ms1000280","iti","","null","img/motor_7.png","75","motor","","","","","","",""
"603","","321077","HierDy6zsh1vs8","oa211xjl8z","ms1000280","motor","","65","img/motor_1.png","65","motor","1","201","1","0","0","",""
"null","","321187","HierDy6zsh1vs8","oa211xjl8z","ms1000280","iti","","null","img/motor_1.png","65","motor","","","","","","",""
"613","","321807","HierDy6zsh1vs8","oa211xjl8z","ms1000280","motor","","72","img/motor_5.png","72","motor","5","202","1","0","0","",""
"null","","321915","HierDy6zsh1vs8","oa211xjl8z","ms1000280","iti","","null","img/motor_5.png","72","motor","","","","","","",""
"620","","322549","HierDy6zsh1vs8","oa211xjl8z","ms1000280","motor","","65","img/motor_1.png","65","motor","1","203","1","0","0","",""
"null","","322659","HierDy6zsh1vs8","oa211xjl8z","ms1000280","iti","","null","img/motor_1.png","65","motor","","","","","","",""
"525","","323190","HierDy6zsh1vs8","oa211xjl8z","ms1000280","motor","","76","img/motor_8.png","76","motor","8","204","1","0","0","",""
"null","","323299","HierDy6zsh1vs8","oa211xjl8z","ms1000280","iti","","null","img/motor_8.png","76","motor","","","","","","",""
"732","","324046","HierDy6zsh1vs8","oa211xjl8z","ms1000280","motor","","75","img/motor_7.png","75","motor","7","205","1","0","0","",""
"null","","324161","HierDy6zsh1vs8","oa211xjl8z","ms1000280","iti","","null","img/motor_7.png","75","motor","","","","","","",""
"461","","324630","HierDy6zsh1vs8","oa211xjl8z","ms1000280","motor","","74","img/motor_6.png","74","motor","6","206","1","0","0","",""
"null","","324738","HierDy6zsh1vs8","oa211xjl8z","ms1000280","iti","","null","img/motor_6.png","74","motor","","","","","","",""
"477","","325222","HierDy6zsh1vs8","oa211xjl8z","ms1000280","motor","","65","img/motor_1.png","65","motor","1","207","1","0","0","",""
"null","","325337","HierDy6zsh1vs8","oa211xjl8z","ms1000280","iti","","null","img/motor_1.png","65","motor","","","","","","",""
"436","","325790","HierDy6zsh1vs8","oa211xjl8z","ms1000280","motor","","83","img/motor_2.png","83","motor","2","208","1","0","0","",""
"null","","325905","HierDy6zsh1vs8","oa211xjl8z","ms1000280","iti","","null","img/motor_2.png","83","motor","","","","","","",""
"540","","326462","HierDy6zsh1vs8","oa211xjl8z","ms1000280","motor","","76","img/motor_8.png","76","motor","8","209","1","0","0","",""
"null","","326584","HierDy6zsh1vs8","oa211xjl8z","ms1000280","iti","","null","img/motor_8.png","76","motor","","","","","","",""
"493","","327099","HierDy6zsh1vs8","oa211xjl8z","ms1000280","motor","","76","img/motor_8.png","76","motor","8","210","1","0","0","",""
"null","","327214","HierDy6zsh1vs8","oa211xjl8z","ms1000280","iti","","null","img/motor_8.png","76","motor","","","","","","",""
"431","","327662","HierDy6zsh1vs8","oa211xjl8z","ms1000280","motor","","65","img/motor_1.png","65","motor","1","211","1","0","0","",""
"null","","327771","HierDy6zsh1vs8","oa211xjl8z","ms1000280","iti","","null","img/motor_1.png","65","motor","","","","","","",""
"651","","328431","HierDy6zsh1vs8","oa211xjl8z","ms1000280","motor","","68","img/motor_3.png","68","motor","3","212","1","0","0","",""
"null","","328547","HierDy6zsh1vs8","oa211xjl8z","ms1000280","iti","","null","img/motor_3.png","68","motor","","","","","","",""
"507","","329064","HierDy6zsh1vs8","oa211xjl8z","ms1000280","motor","","70","img/motor_4.png","70","motor","4","213","1","0","0","",""
"null","","329172","HierDy6zsh1vs8","oa211xjl8z","ms1000280","iti","","null","img/motor_4.png","70","motor","","","","","","",""
"498","","329680","HierDy6zsh1vs8","oa211xjl8z","ms1000280","motor","","72","img/motor_5.png","72","motor","5","214","1","0","0","",""
"null","","329788","HierDy6zsh1vs8","oa211xjl8z","ms1000280","iti","","null","img/motor_5.png","72","motor","","","","","","",""
"635","","330432","HierDy6zsh1vs8","oa211xjl8z","ms1000280","motor","","68","img/motor_3.png","68","motor","3","215","1","0","0","",""
"null","","330540","HierDy6zsh1vs8","oa211xjl8z","ms1000280","iti","","null","img/motor_3.png","68","motor","","","","","","",""
"451","","330999","HierDy6zsh1vs8","oa211xjl8z","ms1000280","motor","","72","img/motor_5.png","72","motor","5","216","1","0","0","",""
"null","","331114","HierDy6zsh1vs8","oa211xjl8z","ms1000280","iti","","null","img/motor_5.png","72","motor","","","","","","",""
"466","","331597","HierDy6zsh1vs8","oa211xjl8z","ms1000280","motor","","74","img/motor_6.png","74","motor","6","217","1","0","0","",""
"null","","331713","HierDy6zsh1vs8","oa211xjl8z","ms1000280","iti","","null","img/motor_6.png","74","motor","","","","","","",""
"525","","332247","HierDy6zsh1vs8","oa211xjl8z","ms1000280","motor","","70","img/motor_4.png","70","motor","4","218","1","0","0","",""
"null","","332362","HierDy6zsh1vs8","oa211xjl8z","ms1000280","iti","","null","img/motor_4.png","70","motor","","","","","","",""
"605","","332975","HierDy6zsh1vs8","oa211xjl8z","ms1000280","motor","","83","img/motor_2.png","83","motor","2","219","1","0","0","",""
"null","","333090","HierDy6zsh1vs8","oa211xjl8z","ms1000280","iti","","null","img/motor_2.png","83","motor","","","","","","",""
"747","","333847","HierDy6zsh1vs8","oa211xjl8z","ms1000280","motor","","75","img/motor_7.png","75","motor","7","220","1","0","0","",""
"null","","333956","HierDy6zsh1vs8","oa211xjl8z","ms1000280","iti","","null","img/motor_7.png","75","motor","","","","","","",""
"587","","334552","HierDy6zsh1vs8","oa211xjl8z","ms1000280","motor","","74","img/motor_6.png","74","motor","6","221","1","0","0","",""
"null","","334667","HierDy6zsh1vs8","oa211xjl8z","ms1000280","iti","","null","img/motor_6.png","74","motor","","","","","","",""
"492","","335167","HierDy6zsh1vs8","oa211xjl8z","ms1000280","motor","","75","img/motor_7.png","75","motor","7","222","1","0","0","",""
"null","","335276","HierDy6zsh1vs8","oa211xjl8z","ms1000280","iti","","null","img/motor_7.png","75","motor","","","","","","",""
"675","","335959","HierDy6zsh1vs8","oa211xjl8z","ms1000280","motor","","68","img/motor_3.png","68","motor","3","223","1","0","0","",""
"null","","336066","HierDy6zsh1vs8","oa211xjl8z","ms1000280","iti","","null","img/motor_3.png","68","motor","","","","","","",""
"524","","336599","HierDy6zsh1vs8","oa211xjl8z","ms1000280","motor","","70","img/motor_4.png","70","motor","4","224","1","0","0","",""
"null","","336708","HierDy6zsh1vs8","oa211xjl8z","ms1000280","iti","","null","img/motor_4.png","70","motor","","","","","","",""
"491","","337207","HierDy6zsh1vs8","oa211xjl8z","ms1000280","motor","","75","img/motor_7.png","75","motor","7","225","1","0","0","",""
"null","","337322","HierDy6zsh1vs8","oa211xjl8z","ms1000280","iti","","null","img/motor_7.png","75","motor","","","","","","",""
"596","","337933","HierDy6zsh1vs8","oa211xjl8z","ms1000280","motor","","68","img/motor_3.png","68","motor","3","226","1","0","0","",""
"null","","338043","HierDy6zsh1vs8","oa211xjl8z","ms1000280","iti","","null","img/motor_3.png","68","motor","","","","","","",""
"516","","338567","HierDy6zsh1vs8","oa211xjl8z","ms1000280","motor","","83","img/motor_2.png","83","motor","2","227","1","0","0","",""
"null","","338675","HierDy6zsh1vs8","oa211xjl8z","ms1000280","iti","","null","img/motor_2.png","83","motor","","","","","","",""
"627","","339318","HierDy6zsh1vs8","oa211xjl8z","ms1000280","motor","","68","img/motor_3.png","68","motor","3","228","1","0","0","",""
"null","","339426","HierDy6zsh1vs8","oa211xjl8z","ms1000280","iti","","null","img/motor_3.png","68","motor","","","","","","",""
"532","","339974","HierDy6zsh1vs8","oa211xjl8z","ms1000280","motor","","76","img/motor_8.png","76","motor","8","229","1","0","0","",""
"null","","340083","HierDy6zsh1vs8","oa211xjl8z","ms1000280","iti","","null","img/motor_8.png","76","motor","","","","","","",""
"580","","340677","HierDy6zsh1vs8","oa211xjl8z","ms1000280","motor","","68","img/motor_3.png","68","motor","3","230","1","0","0","",""
"null","","340792","HierDy6zsh1vs8","oa211xjl8z","ms1000280","iti","","null","img/motor_3.png","68","motor","","","","","","",""
"517","","341325","HierDy6zsh1vs8","oa211xjl8z","ms1000280","motor","","72","img/motor_5.png","72","motor","5","231","1","0","0","",""
"null","","341441","HierDy6zsh1vs8","oa211xjl8z","ms1000280","iti","","null","img/motor_5.png","72","motor","","","","","","",""
"429","","341879","HierDy6zsh1vs8","oa211xjl8z","ms1000280","motor","","74","img/motor_6.png","74","motor","6","232","1","0","0","",""
"null","","341987","HierDy6zsh1vs8","oa211xjl8z","ms1000280","iti","","null","img/motor_6.png","74","motor","","","","","","",""
"580","","342582","HierDy6zsh1vs8","oa211xjl8z","ms1000280","motor","","76","img/motor_8.png","76","motor","8","233","1","0","0","",""
"null","","342691","HierDy6zsh1vs8","oa211xjl8z","ms1000280","iti","","null","img/motor_8.png","76","motor","","","","","","",""
"460","","343166","HierDy6zsh1vs8","oa211xjl8z","ms1000280","motor","","72","img/motor_6.png","74","motor","6","234","0","1","0","",""
"177","","343351","HierDy6zsh1vs8","oa211xjl8z","ms1000280","motorRepeat","","74","img/motor_6.png","74","motor","6","234","1","0","0","",""
"null","","343460","HierDy6zsh1vs8","oa211xjl8z","ms1000280","iti","","null","img/motor_6.png","74","motor","","","","","","",""
"612","","344086","HierDy6zsh1vs8","oa211xjl8z","ms1000280","motor","","68","img/motor_2.png","83","motor","2","235","0","1","0","",""
"113","","344207","HierDy6zsh1vs8","oa211xjl8z","ms1000280","motorRepeat","","83","img/motor_2.png","83","motor","2","235","1","0","0","",""
"null","","344322","HierDy6zsh1vs8","oa211xjl8z","ms1000280","iti","","null","img/motor_2.png","83","motor","","","","","","",""
"524","","344855","HierDy6zsh1vs8","oa211xjl8z","ms1000280","motor","","65","img/motor_1.png","65","motor","1","236","1","0","0","",""
"null","","344970","HierDy6zsh1vs8","oa211xjl8z","ms1000280","iti","","null","img/motor_1.png","65","motor","","","","","","",""
"420","","345399","HierDy6zsh1vs8","oa211xjl8z","ms1000280","motor","","65","img/motor_1.png","65","motor","1","237","1","0","0","",""
"null","","345514","HierDy6zsh1vs8","oa211xjl8z","ms1000280","iti","","null","img/motor_1.png","65","motor","","","","","","",""
"643","","346167","HierDy6zsh1vs8","oa211xjl8z","ms1000280","motor","","72","img/motor_5.png","72","motor","5","238","1","0","0","",""
"null","","346282","HierDy6zsh1vs8","oa211xjl8z","ms1000280","iti","","null","img/motor_5.png","72","motor","","","","","","",""
"453","","346743","HierDy6zsh1vs8","oa211xjl8z","ms1000280","motor","","76","img/motor_8.png","76","motor","8","239","1","0","0","",""
"null","","346851","HierDy6zsh1vs8","oa211xjl8z","ms1000280","iti","","null","img/motor_8.png","76","motor","","","","","","",""
"804","","347664","HierDy6zsh1vs8","oa211xjl8z","ms1000280","motor","","70","img/motor_4.png","70","motor","4","240","1","0","0","",""
"null","","347772","HierDy6zsh1vs8","oa211xjl8z","ms1000280","iti","","null","img/motor_4.png","70","motor","","","","","","",""
"779","","348559","HierDy6zsh1vs8","oa211xjl8z","ms1000280","motor","","83","img/motor_2.png","83","motor","2","241","1","0","0","",""
"null","","348668","HierDy6zsh1vs8","oa211xjl8z","ms1000280","iti","","null","img/motor_2.png","83","motor","","","","","","",""
"611","","349287","HierDy6zsh1vs8","oa211xjl8z","ms1000280","motor","","74","img/motor_6.png","74","motor","6","242","1","0","0","",""
"null","","349402","HierDy6zsh1vs8","oa211xjl8z","ms1000280","iti","","null","img/motor_6.png","74","motor","","","","","","",""
"549","","349959","HierDy6zsh1vs8","oa211xjl8z","ms1000280","motor","","70","img/motor_4.png","70","motor","4","243","1","0","0","",""
"null","","350068","HierDy6zsh1vs8","oa211xjl8z","ms1000280","iti","","null","img/motor_4.png","70","motor","","","","","","",""
"395","","350471","HierDy6zsh1vs8","oa211xjl8z","ms1000280","motor","","76","img/motor_8.png","76","motor","8","244","1","0","0","",""
"null","","350579","HierDy6zsh1vs8","oa211xjl8z","ms1000280","iti","","null","img/motor_8.png","76","motor","","","","","","",""
"467","","351056","HierDy6zsh1vs8","oa211xjl8z","ms1000280","motor","","72","img/motor_5.png","72","motor","5","245","1","0","0","",""
"null","","351171","HierDy6zsh1vs8","oa211xjl8z","ms1000280","iti","","null","img/motor_5.png","72","motor","","","","","","",""
"493","","351671","HierDy6zsh1vs8","oa211xjl8z","ms1000280","motor","","65","img/motor_1.png","65","motor","1","246","1","0","0","",""
"null","","351780","HierDy6zsh1vs8","oa211xjl8z","ms1000280","iti","","null","img/motor_1.png","65","motor","","","","","","",""
"579","","352374","HierDy6zsh1vs8","oa211xjl8z","ms1000280","motor","","68","img/motor_3.png","68","motor","3","247","1","0","0","",""
"null","","352484","HierDy6zsh1vs8","oa211xjl8z","ms1000280","iti","","null","img/motor_3.png","68","motor","","","","","","",""
"411","","352903","HierDy6zsh1vs8","oa211xjl8z","ms1000280","motor","","65","img/motor_1.png","65","motor","1","248","1","0","0","",""
"null","","353011","HierDy6zsh1vs8","oa211xjl8z","ms1000280","iti","","null","img/motor_1.png","65","motor","","","","","","",""
"460","","353478","HierDy6zsh1vs8","oa211xjl8z","ms1000280","motor","","70","img/motor_4.png","70","motor","4","249","1","0","0","",""
"null","","353587","HierDy6zsh1vs8","oa211xjl8z","ms1000280","iti","","null","img/motor_4.png","70","motor","","","","","","",""
"403","","354006","HierDy6zsh1vs8","oa211xjl8z","ms1000280","motor","","70","img/motor_4.png","70","motor","4","250","1","0","0","",""
"null","","354115","HierDy6zsh1vs8","oa211xjl8z","ms1000280","iti","","null","img/motor_4.png","70","motor","","","","","","",""
"572","","354695","HierDy6zsh1vs8","oa211xjl8z","ms1000280","motor","","68","img/motor_3.png","68","motor","3","251","1","0","0","",""
"null","","354804","HierDy6zsh1vs8","oa211xjl8z","ms1000280","iti","","null","img/motor_3.png","68","motor","","","","","","",""
"819","","355631","HierDy6zsh1vs8","oa211xjl8z","ms1000280","motor","","75","img/motor_7.png","75","motor","7","252","1","0","0","",""
"null","","355739","HierDy6zsh1vs8","oa211xjl8z","ms1000280","iti","","null","img/motor_7.png","75","motor","","","","","","",""
"652","","356406","HierDy6zsh1vs8","oa211xjl8z","ms1000280","motor","","83","img/motor_2.png","83","motor","2","253","1","0","0","",""
"null","","356515","HierDy6zsh1vs8","oa211xjl8z","ms1000280","iti","","null","img/motor_2.png","83","motor","","","","","","",""
"636","","357166","HierDy6zsh1vs8","oa211xjl8z","ms1000280","motor","","72","img/motor_5.png","72","motor","5","254","1","0","0","",""
"null","","357276","HierDy6zsh1vs8","oa211xjl8z","ms1000280","iti","","null","img/motor_5.png","72","motor","","","","","","",""
"588","","357871","HierDy6zsh1vs8","oa211xjl8z","ms1000280","motor","","70","img/motor_4.png","70","motor","4","255","1","0","0","",""
"null","","357986","HierDy6zsh1vs8","oa211xjl8z","ms1000280","iti","","null","img/motor_4.png","70","motor","","","","","","",""
"644","","358639","HierDy6zsh1vs8","oa211xjl8z","ms1000280","motor","","76","img/motor_8.png","76","motor","8","256","1","0","0","",""
"null","","358754","HierDy6zsh1vs8","oa211xjl8z","ms1000280","iti","","null","img/motor_8.png","76","motor","","","","","","",""
"628","","359391","HierDy6zsh1vs8","oa211xjl8z","ms1000280","motor","","83","img/motor_2.png","83","motor","2","257","1","0","0","",""
"null","","359507","HierDy6zsh1vs8","oa211xjl8z","ms1000280","iti","","null","img/motor_2.png","83","motor","","","","","","",""
"628","","360143","HierDy6zsh1vs8","oa211xjl8z","ms1000280","motor","","75","img/motor_7.png","75","motor","7","258","1","0","0","",""
"null","","360258","HierDy6zsh1vs8","oa211xjl8z","ms1000280","iti","","null","img/motor_7.png","75","motor","","","","","","",""
"884","","361150","HierDy6zsh1vs8","oa211xjl8z","ms1000280","motor","","83","img/motor_4.png","70","motor","4","259","0","1","0","",""
"112","","361277","HierDy6zsh1vs8","oa211xjl8z","ms1000280","motorRepeat","","70","img/motor_4.png","70","motor","4","259","1","0","0","",""
"null","","361394","HierDy6zsh1vs8","oa211xjl8z","ms1000280","iti","","null","img/motor_4.png","70","motor","","","","","","",""
"525","","361928","HierDy6zsh1vs8","oa211xjl8z","ms1000280","motor","","76","img/motor_8.png","76","motor","8","260","1","0","0","",""
"null","","362036","HierDy6zsh1vs8","oa211xjl8z","ms1000280","iti","","null","img/motor_8.png","76","motor","","","","","","",""
"555","","362599","HierDy6zsh1vs8","oa211xjl8z","ms1000280","motor","","68","img/motor_3.png","68","motor","3","261","1","0","0","",""
"null","","362715","HierDy6zsh1vs8","oa211xjl8z","ms1000280","iti","","null","img/motor_3.png","68","motor","","","","","","",""
"691","","363415","HierDy6zsh1vs8","oa211xjl8z","ms1000280","motor","","72","img/motor_5.png","72","motor","5","262","1","0","0","",""
"null","","363530","HierDy6zsh1vs8","oa211xjl8z","ms1000280","iti","","null","img/motor_5.png","72","motor","","","","","","",""
"492","","364031","HierDy6zsh1vs8","oa211xjl8z","ms1000280","motor","","76","img/motor_8.png","76","motor","8","263","1","0","0","",""
"null","","364147","HierDy6zsh1vs8","oa211xjl8z","ms1000280","iti","","null","img/motor_8.png","76","motor","","","","","","",""
"451","","364608","HierDy6zsh1vs8","oa211xjl8z","ms1000280","motor","","76","img/motor_8.png","76","motor","8","264","1","0","0","",""
"null","","364716","HierDy6zsh1vs8","oa211xjl8z","ms1000280","iti","","null","img/motor_8.png","76","motor","","","","","","",""
"404","","365128","HierDy6zsh1vs8","oa211xjl8z","ms1000280","motor","","76","img/motor_7.png","75","motor","7","265","0","1","0","",""
"256","","365391","HierDy6zsh1vs8","oa211xjl8z","ms1000280","motorRepeat","","75","img/motor_7.png","75","motor","7","265","1","0","0","",""
"null","","365500","HierDy6zsh1vs8","oa211xjl8z","ms1000280","iti","","null","img/motor_7.png","75","motor","","","","","","",""
"596","","366103","HierDy6zsh1vs8","oa211xjl8z","ms1000280","motor","","65","img/motor_1.png","65","motor","1","266","1","0","0","",""
"null","","366218","HierDy6zsh1vs8","oa211xjl8z","ms1000280","iti","","null","img/motor_1.png","65","motor","","","","","","",""
"517","","366743","HierDy6zsh1vs8","oa211xjl8z","ms1000280","motor","","75","img/motor_7.png","75","motor","7","267","1","0","0","",""
"null","","366859","HierDy6zsh1vs8","oa211xjl8z","ms1000280","iti","","null","img/motor_7.png","75","motor","","","","","","",""
"484","","367352","HierDy6zsh1vs8","oa211xjl8z","ms1000280","motor","","76","img/motor_8.png","76","motor","8","268","1","0","0","",""
"null","","367467","HierDy6zsh1vs8","oa211xjl8z","ms1000280","iti","","null","img/motor_8.png","76","motor","","","","","","",""
"573","","368048","HierDy6zsh1vs8","oa211xjl8z","ms1000280","motor","","83","img/motor_2.png","83","motor","2","269","1","0","0","",""
"null","","368162","HierDy6zsh1vs8","oa211xjl8z","ms1000280","iti","","null","img/motor_2.png","83","motor","","","","","","",""
"365","","368536","HierDy6zsh1vs8","oa211xjl8z","ms1000280","motor","","83","img/motor_2.png","83","motor","2","270","1","0","0","",""
"null","","368651","HierDy6zsh1vs8","oa211xjl8z","ms1000280","iti","","null","img/motor_2.png","83","motor","","","","","","",""
"643","","369303","HierDy6zsh1vs8","oa211xjl8z","ms1000280","motor","","72","img/motor_5.png","72","motor","5","271","1","0","0","",""
"null","","369412","HierDy6zsh1vs8","oa211xjl8z","ms1000280","iti","","null","img/motor_5.png","72","motor","","","","","","",""
"563","","369983","HierDy6zsh1vs8","oa211xjl8z","ms1000280","motor","","68","img/motor_3.png","68","motor","3","272","1","0","0","",""
"null","","370099","HierDy6zsh1vs8","oa211xjl8z","ms1000280","iti","","null","img/motor_3.png","68","motor","","","","","","",""
"508","","370614","HierDy6zsh1vs8","oa211xjl8z","ms1000280","motor","","72","img/motor_5.png","72","motor","5","273","1","0","0","",""
"null","","370723","HierDy6zsh1vs8","oa211xjl8z","ms1000280","iti","","null","img/motor_5.png","72","motor","","","","","","",""
"884","","371622","HierDy6zsh1vs8","oa211xjl8z","ms1000280","motor","","72","img/motor_2.png","83","motor","2","274","0","1","0","",""
"4473","","376110","HierDy6zsh1vs8","oa211xjl8z","ms1000280","motorRepeat","","83","img/motor_2.png","83","motor","2","274","1","0","0","",""
"null","","376227","HierDy6zsh1vs8","oa211xjl8z","ms1000280","iti","","null","img/motor_2.png","83","motor","","","","","","",""
"1275","","377517","HierDy6zsh1vs8","oa211xjl8z","ms1000280","motor","","75","img/motor_7.png","75","motor","7","275","1","0","0","",""
"null","","377627","HierDy6zsh1vs8","oa211xjl8z","ms1000280","iti","","null","img/motor_7.png","75","motor","","","","","","",""
"397","","378032","HierDy6zsh1vs8","oa211xjl8z","ms1000280","motor","","75","img/motor_7.png","75","motor","7","276","1","0","0","",""
"null","","378147","HierDy6zsh1vs8","oa211xjl8z","ms1000280","iti","","null","img/motor_7.png","75","motor","","","","","","",""
"659","","378816","HierDy6zsh1vs8","oa211xjl8z","ms1000280","motor","","72","img/motor_5.png","72","motor","5","277","1","0","0","",""
"null","","378924","HierDy6zsh1vs8","oa211xjl8z","ms1000280","iti","","null","img/motor_5.png","72","motor","","","","","","",""
"560","","379493","HierDy6zsh1vs8","oa211xjl8z","ms1000280","motor","","70","img/motor_3.png","68","motor","3","278","0","1","0","",""
"106","","379608","HierDy6zsh1vs8","oa211xjl8z","ms1000280","motorRepeat","","68","img/motor_3.png","68","motor","3","278","1","0","0","",""
"null","","379722","HierDy6zsh1vs8","oa211xjl8z","ms1000280","iti","","null","img/motor_3.png","68","motor","","","","","","",""
"443","","380175","HierDy6zsh1vs8","oa211xjl8z","ms1000280","motor","","76","img/motor_8.png","76","motor","8","279","1","0","0","",""
"null","","380284","HierDy6zsh1vs8","oa211xjl8z","ms1000280","iti","","null","img/motor_8.png","76","motor","","","","","","",""
"483","","380776","HierDy6zsh1vs8","oa211xjl8z","ms1000280","motor","","75","img/motor_7.png","75","motor","7","280","1","0","0","",""
"null","","380885","HierDy6zsh1vs8","oa211xjl8z","ms1000280","iti","","null","img/motor_7.png","75","motor","","","","","","",""
"402","","381301","HierDy6zsh1vs8","oa211xjl8z","ms1000280","motor","","74","img/motor_6.png","74","motor","6","281","1","0","0","",""
"null","","381418","HierDy6zsh1vs8","oa211xjl8z","ms1000280","iti","","null","img/motor_6.png","74","motor","","","","","","",""
"436","","381871","HierDy6zsh1vs8","oa211xjl8z","ms1000280","motor","","76","img/motor_8.png","76","motor","8","282","1","0","0","",""
"null","","381980","HierDy6zsh1vs8","oa211xjl8z","ms1000280","iti","","null","img/motor_8.png","76","motor","","","","","","",""
"636","","382623","HierDy6zsh1vs8","oa211xjl8z","ms1000280","motor","","70","img/motor_4.png","70","motor","4","283","1","0","0","",""
"null","","382738","HierDy6zsh1vs8","oa211xjl8z","ms1000280","iti","","null","img/motor_4.png","70","motor","","","","","","",""
"365","","383118","HierDy6zsh1vs8","oa211xjl8z","ms1000280","motor","","70","img/motor_4.png","70","motor","4","284","1","0","0","",""
"null","","383227","HierDy6zsh1vs8","oa211xjl8z","ms1000280","iti","","null","img/motor_4.png","70","motor","","","","","","",""
"387","","383630","HierDy6zsh1vs8","oa211xjl8z","ms1000280","motor","","75","img/motor_6.png","74","motor","6","285","0","1","0","",""
"343","","383983","HierDy6zsh1vs8","oa211xjl8z","ms1000280","motorRepeat","","74","img/motor_6.png","74","motor","6","285","1","0","0","",""
"null","","384092","HierDy6zsh1vs8","oa211xjl8z","ms1000280","iti","","null","img/motor_6.png","74","motor","","","","","","",""
"634","","384743","HierDy6zsh1vs8","oa211xjl8z","ms1000280","motor","","68","img/motor_3.png","68","motor","3","286","1","0","0","",""
"null","","384859","HierDy6zsh1vs8","oa211xjl8z","ms1000280","iti","","null","img/motor_3.png","68","motor","","","","","","",""
"683","","385552","HierDy6zsh1vs8","oa211xjl8z","ms1000280","motor","","65","img/motor_1.png","65","motor","1","287","1","0","0","",""
"null","","385661","HierDy6zsh1vs8","oa211xjl8z","ms1000280","iti","","null","img/motor_1.png","65","motor","","","","","","",""
"532","","386200","HierDy6zsh1vs8","oa211xjl8z","ms1000280","motor","","83","img/motor_2.png","83","motor","2","288","1","0","0","",""
"null","","386310","HierDy6zsh1vs8","oa211xjl8z","ms1000280","iti","","null","img/motor_2.png","83","motor","","","","","","",""
"459","","386782","HierDy6zsh1vs8","oa211xjl8z","ms1000280","motor","","68","img/motor_4.png","70","motor","4","289","0","1","0","",""
"256","","387046","HierDy6zsh1vs8","oa211xjl8z","ms1000280","motorRepeat","","70","img/motor_4.png","70","motor","4","289","1","0","0","",""
"null","","387155","HierDy6zsh1vs8","oa211xjl8z","ms1000280","iti","","null","img/motor_4.png","70","motor","","","","","","",""
"661","","387823","HierDy6zsh1vs8","oa211xjl8z","ms1000280","motor","","83","img/motor_2.png","83","motor","2","290","1","0","0","",""
"null","","387938","HierDy6zsh1vs8","oa211xjl8z","ms1000280","iti","","null","img/motor_2.png","83","motor","","","","","","",""
"501","","388448","HierDy6zsh1vs8","oa211xjl8z","ms1000280","motor","","68","img/motor_3.png","68","motor","3","291","1","0","0","",""
"null","","388557","HierDy6zsh1vs8","oa211xjl8z","ms1000280","iti","","null","img/motor_3.png","68","motor","","","","","","",""
"459","","389030","HierDy6zsh1vs8","oa211xjl8z","ms1000280","motor","","83","img/motor_2.png","83","motor","2","292","1","0","0","",""
"null","","389146","HierDy6zsh1vs8","oa211xjl8z","ms1000280","iti","","null","img/motor_2.png","83","motor","","","","","","",""
"573","","389734","HierDy6zsh1vs8","oa211xjl8z","ms1000280","motor","","76","img/motor_8.png","76","motor","8","293","1","0","0","",""
"null","","389844","HierDy6zsh1vs8","oa211xjl8z","ms1000280","iti","","null","img/motor_8.png","76","motor","","","","","","",""
"491","","390351","HierDy6zsh1vs8","oa211xjl8z","ms1000280","motor","","75","img/motor_6.png","74","motor","6","294","0","1","0","",""
"289","","390654","HierDy6zsh1vs8","oa211xjl8z","ms1000280","motorRepeat","","74","img/motor_6.png","74","motor","6","294","1","0","0","",""
"null","","390770","HierDy6zsh1vs8","oa211xjl8z","ms1000280","iti","","null","img/motor_6.png","74","motor","","","","","","",""
"597","","391378","HierDy6zsh1vs8","oa211xjl8z","ms1000280","motor","","72","img/motor_5.png","72","motor","5","295","1","0","0","",""
"null","","391494","HierDy6zsh1vs8","oa211xjl8z","ms1000280","iti","","null","img/motor_5.png","72","motor","","","","","","",""
"525","","392039","HierDy6zsh1vs8","oa211xjl8z","ms1000280","motor","","65","img/motor_1.png","65","motor","1","296","1","0","0","",""
"null","","392148","HierDy6zsh1vs8","oa211xjl8z","ms1000280","iti","","null","img/motor_1.png","65","motor","","","","","","",""
"555","","392719","HierDy6zsh1vs8","oa211xjl8z","ms1000280","motor","","68","img/motor_3.png","68","motor","3","297","1","0","0","",""
"null","","392829","HierDy6zsh1vs8","oa211xjl8z","ms1000280","iti","","null","img/motor_3.png","68","motor","","","","","","",""
"642","","393480","HierDy6zsh1vs8","oa211xjl8z","ms1000280","motor","","74","img/motor_6.png","74","motor","6","298","1","0","0","",""
"null","","393588","HierDy6zsh1vs8","oa211xjl8z","ms1000280","iti","","null","img/motor_6.png","74","motor","","","","","","",""
"659","","394255","HierDy6zsh1vs8","oa211xjl8z","ms1000280","motor","","68","img/motor_3.png","68","motor","3","299","1","0","0","",""
"null","","394370","HierDy6zsh1vs8","oa211xjl8z","ms1000280","iti","","null","img/motor_3.png","68","motor","","","","","","",""
"525","","394902","HierDy6zsh1vs8","oa211xjl8z","ms1000280","motor","","83","img/motor_2.png","83","motor","2","300","1","0","0","",""
"null","","395011","HierDy6zsh1vs8","oa211xjl8z","ms1000280","iti","","null","img/motor_2.png","83","motor","","","","","","",""
"556","","395576","HierDy6zsh1vs8","oa211xjl8z","ms1000280","motor","","70","img/motor_4.png","70","motor","4","301","1","0","0","",""
"null","","395685","HierDy6zsh1vs8","oa211xjl8z","ms1000280","iti","","null","img/motor_4.png","70","motor","","","","","","",""
"523","","396216","HierDy6zsh1vs8","oa211xjl8z","ms1000280","motor","","83","img/motor_2.png","83","motor","2","302","1","0","0","",""
"null","","396331","HierDy6zsh1vs8","oa211xjl8z","ms1000280","iti","","null","img/motor_2.png","83","motor","","","","","","",""
"501","","396840","HierDy6zsh1vs8","oa211xjl8z","ms1000280","motor","","83","img/motor_2.png","83","motor","2","303","1","0","0","",""
"null","","396949","HierDy6zsh1vs8","oa211xjl8z","ms1000280","iti","","null","img/motor_2.png","83","motor","","","","","","",""
"579","","397543","HierDy6zsh1vs8","oa211xjl8z","ms1000280","motor","","75","img/motor_7.png","75","motor","7","304","1","0","0","",""
"null","","397651","HierDy6zsh1vs8","oa211xjl8z","ms1000280","iti","","null","img/motor_7.png","75","motor","","","","","","",""
"564","","398223","HierDy6zsh1vs8","oa211xjl8z","ms1000280","motor","","72","img/motor_5.png","72","motor","5","305","1","0","0","",""
"null","","398338","HierDy6zsh1vs8","oa211xjl8z","ms1000280","iti","","null","img/motor_5.png","72","motor","","","","","","",""
"587","","398935","HierDy6zsh1vs8","oa211xjl8z","ms1000280","motor","","65","img/motor_1.png","65","motor","1","306","1","0","0","",""
"null","","399051","HierDy6zsh1vs8","oa211xjl8z","ms1000280","iti","","null","img/motor_1.png","65","motor","","","","","","",""
"539","","399606","HierDy6zsh1vs8","oa211xjl8z","ms1000280","motor","","72","img/motor_5.png","72","motor","5","307","1","0","0","",""
"null","","399722","HierDy6zsh1vs8","oa211xjl8z","ms1000280","iti","","null","img/motor_5.png","72","motor","","","","","","",""
"965","","400702","HierDy6zsh1vs8","oa211xjl8z","ms1000280","motor","","83","img/motor_2.png","83","motor","2","308","1","0","0","",""
"null","","400818","HierDy6zsh1vs8","oa211xjl8z","ms1000280","iti","","null","img/motor_2.png","83","motor","","","","","","",""
"477","","401310","HierDy6zsh1vs8","oa211xjl8z","ms1000280","motor","","83","img/motor_2.png","83","motor","2","309","1","0","0","",""
"null","","401426","HierDy6zsh1vs8","oa211xjl8z","ms1000280","iti","","null","img/motor_2.png","83","motor","","","","","","",""
"1156","","402591","HierDy6zsh1vs8","oa211xjl8z","ms1000280","motor","","70","img/motor_4.png","70","motor","4","310","1","0","0","",""
"null","","402700","HierDy6zsh1vs8","oa211xjl8z","ms1000280","iti","","null","img/motor_4.png","70","motor","","","","","","",""
"563","","403271","HierDy6zsh1vs8","oa211xjl8z","ms1000280","motor","","68","img/motor_3.png","68","motor","3","311","1","0","0","",""
"null","","403380","HierDy6zsh1vs8","oa211xjl8z","ms1000280","iti","","null","img/motor_3.png","68","motor","","","","","","",""
"555","","403951","HierDy6zsh1vs8","oa211xjl8z","ms1000280","motor","","65","img/motor_1.png","65","motor","1","312","1","0","0","",""
"null","","404066","HierDy6zsh1vs8","oa211xjl8z","ms1000280","iti","","null","img/motor_1.png","65","motor","","","","","","",""
"541","","404622","HierDy6zsh1vs8","oa211xjl8z","ms1000280","motor","","75","img/motor_7.png","75","motor","7","313","1","0","0","",""
"null","","404731","HierDy6zsh1vs8","oa211xjl8z","ms1000280","iti","","null","img/motor_7.png","75","motor","","","","","","",""
"524","","405263","HierDy6zsh1vs8","oa211xjl8z","ms1000280","motor","","72","img/motor_5.png","72","motor","5","314","1","0","0","",""
"null","","405378","HierDy6zsh1vs8","oa211xjl8z","ms1000280","iti","","null","img/motor_5.png","72","motor","","","","","","",""
"381","","405767","HierDy6zsh1vs8","oa211xjl8z","ms1000280","motor","","72","img/motor_5.png","72","motor","5","315","1","0","0","",""
"null","","405876","HierDy6zsh1vs8","oa211xjl8z","ms1000280","iti","","null","img/motor_5.png","72","motor","","","","","","",""
"429","","406319","HierDy6zsh1vs8","oa211xjl8z","ms1000280","motor","","75","img/motor_7.png","75","motor","7","316","1","0","0","",""
"null","","406428","HierDy6zsh1vs8","oa211xjl8z","ms1000280","iti","","null","img/motor_7.png","75","motor","","","","","","",""
"572","","407014","HierDy6zsh1vs8","oa211xjl8z","ms1000280","motor","","65","img/motor_1.png","65","motor","1","317","1","0","0","",""
"null","","407130","HierDy6zsh1vs8","oa211xjl8z","ms1000280","iti","","null","img/motor_1.png","65","motor","","","","","","",""
"381","","407520","HierDy6zsh1vs8","oa211xjl8z","ms1000280","motor","","72","img/motor_4.png","70","motor","4","318","0","1","0","",""
"296","","407823","HierDy6zsh1vs8","oa211xjl8z","ms1000280","motorRepeat","","70","img/motor_4.png","70","motor","4","318","1","0","0","",""
"null","","407939","HierDy6zsh1vs8","oa211xjl8z","ms1000280","iti","","null","img/motor_4.png","70","motor","","","","","","",""
"387","","408343","HierDy6zsh1vs8","oa211xjl8z","ms1000280","motor","","65","img/motor_1.png","65","motor","1","319","1","0","0","",""
"null","","408452","HierDy6zsh1vs8","oa211xjl8z","ms1000280","iti","","null","img/motor_1.png","65","motor","","","","","","",""
"491","","408952","HierDy6zsh1vs8","oa211xjl8z","ms1000280","motor","","76","img/motor_8.png","76","motor","8","320","1","0","0","",""
"null","","409060","HierDy6zsh1vs8","oa211xjl8z","ms1000280","iti","","null","img/motor_8.png","76","motor","","","","","","",""
"579","","409648","HierDy6zsh1vs8","oa211xjl8z","ms1000280","motor","","70","img/motor_4.png","70","motor","4","321","1","0","0","",""
"null","","409756","HierDy6zsh1vs8","oa211xjl8z","ms1000280","iti","","null","img/motor_4.png","70","motor","","","","","","",""
"691","","410456","HierDy6zsh1vs8","oa211xjl8z","ms1000280","motor","","74","img/motor_6.png","74","motor","6","322","1","0","0","",""
"null","","410565","HierDy6zsh1vs8","oa211xjl8z","ms1000280","iti","","null","img/motor_6.png","74","motor","","","","","","",""
"427","","411000","HierDy6zsh1vs8","oa211xjl8z","ms1000280","motor","","70","img/motor_4.png","70","motor","4","323","1","0","0","",""
"null","","411115","HierDy6zsh1vs8","oa211xjl8z","ms1000280","iti","","null","img/motor_4.png","70","motor","","","","","","",""
"556","","411679","HierDy6zsh1vs8","oa211xjl8z","ms1000280","motor","","75","img/motor_7.png","75","motor","7","324","1","0","0","",""
"null","","411787","HierDy6zsh1vs8","oa211xjl8z","ms1000280","iti","","null","img/motor_7.png","75","motor","","","","","","",""
"748","","412544","HierDy6zsh1vs8","oa211xjl8z","ms1000280","motor","","83","img/motor_2.png","83","motor","2","325","1","0","0","",""
"null","","412659","HierDy6zsh1vs8","oa211xjl8z","ms1000280","iti","","null","img/motor_2.png","83","motor","","","","","","",""
"506","","413183","HierDy6zsh1vs8","oa211xjl8z","ms1000280","motor","","76","img/motor_8.png","76","motor","8","326","1","0","0","",""
"null","","413293","HierDy6zsh1vs8","oa211xjl8z","ms1000280","iti","","null","img/motor_8.png","76","motor","","","","","","",""
"563","","413864","HierDy6zsh1vs8","oa211xjl8z","ms1000280","motor","","65","img/motor_1.png","65","motor","1","327","1","0","0","",""
"null","","413973","HierDy6zsh1vs8","oa211xjl8z","ms1000280","iti","","null","img/motor_1.png","65","motor","","","","","","",""
"514","","414495","HierDy6zsh1vs8","oa211xjl8z","ms1000280","motor","","76","img/motor_5.png","72","motor","5","328","0","1","0","",""
"256","","414759","HierDy6zsh1vs8","oa211xjl8z","ms1000280","motorRepeat","","72","img/motor_5.png","72","motor","5","328","1","0","0","",""
"null","","414874","HierDy6zsh1vs8","oa211xjl8z","ms1000280","iti","","null","img/motor_5.png","72","motor","","","","","","",""
"486","","415368","HierDy6zsh1vs8","oa211xjl8z","ms1000280","motor","","76","img/motor_8.png","76","motor","8","329","1","0","0","",""
"null","","415476","HierDy6zsh1vs8","oa211xjl8z","ms1000280","iti","","null","img/motor_8.png","76","motor","","","","","","",""
"403","","415889","HierDy6zsh1vs8","oa211xjl8z","ms1000280","motor","","76","img/motor_8.png","76","motor","8","330","1","0","0","",""
"null","","416005","HierDy6zsh1vs8","oa211xjl8z","ms1000280","iti","","null","img/motor_8.png","76","motor","","","","","","",""
"506","","416519","HierDy6zsh1vs8","oa211xjl8z","ms1000280","motor","","65","img/motor_1.png","65","motor","1","331","1","0","0","",""
"null","","416628","HierDy6zsh1vs8","oa211xjl8z","ms1000280","iti","","null","img/motor_1.png","65","motor","","","","","","",""
"410","","417049","HierDy6zsh1vs8","oa211xjl8z","ms1000280","motor","","70","img/motor_4.png","70","motor","4","332","1","0","0","",""
"null","","417163","HierDy6zsh1vs8","oa211xjl8z","ms1000280","iti","","null","img/motor_4.png","70","motor","","","","","","",""
"612","","417784","HierDy6zsh1vs8","oa211xjl8z","ms1000280","motor","","72","img/motor_5.png","72","motor","5","333","1","0","0","",""
"null","","417892","HierDy6zsh1vs8","oa211xjl8z","ms1000280","iti","","null","img/motor_5.png","72","motor","","","","","","",""
"395","","418296","HierDy6zsh1vs8","oa211xjl8z","ms1000280","motor","","72","img/motor_5.png","72","motor","5","334","1","0","0","",""
"null","","418410","HierDy6zsh1vs8","oa211xjl8z","ms1000280","iti","","null","img/motor_5.png","72","motor","","","","","","",""
"524","","418945","HierDy6zsh1vs8","oa211xjl8z","ms1000280","motor","","65","img/motor_1.png","65","motor","1","335","1","0","0","",""
"null","","419053","HierDy6zsh1vs8","oa211xjl8z","ms1000280","iti","","null","img/motor_1.png","65","motor","","","","","","",""
"586","","419647","HierDy6zsh1vs8","oa211xjl8z","ms1000280","motor","","68","img/motor_3.png","68","motor","3","336","1","0","0","",""
"null","","419756","HierDy6zsh1vs8","oa211xjl8z","ms1000280","iti","","null","img/motor_3.png","68","motor","","","","","","",""
"484","","420248","HierDy6zsh1vs8","oa211xjl8z","ms1000280","motor","","65","img/motor_1.png","65","motor","1","337","1","0","0","",""
"null","","420356","HierDy6zsh1vs8","oa211xjl8z","ms1000280","iti","","null","img/motor_1.png","65","motor","","","","","","",""
"588","","420951","HierDy6zsh1vs8","oa211xjl8z","ms1000280","motor","","76","img/motor_8.png","76","motor","8","338","1","0","0","",""
"null","","421067","HierDy6zsh1vs8","oa211xjl8z","ms1000280","iti","","null","img/motor_8.png","76","motor","","","","","","",""
"500","","421576","HierDy6zsh1vs8","oa211xjl8z","ms1000280","motor","","68","img/motor_3.png","68","motor","3","339","1","0","0","",""
"null","","421691","HierDy6zsh1vs8","oa211xjl8z","ms1000280","iti","","null","img/motor_3.png","68","motor","","","","","","",""
"541","","422240","HierDy6zsh1vs8","oa211xjl8z","ms1000280","motor","","75","img/motor_7.png","75","motor","7","340","1","0","0","",""
"null","","422355","HierDy6zsh1vs8","oa211xjl8z","ms1000280","iti","","null","img/motor_7.png","75","motor","","","","","","",""
"492","","422855","HierDy6zsh1vs8","oa211xjl8z","ms1000280","motor","","76","img/motor_8.png","76","motor","8","341","1","0","0","",""
"null","","422964","HierDy6zsh1vs8","oa211xjl8z","ms1000280","iti","","null","img/motor_8.png","76","motor","","","","","","",""
"579","","423552","HierDy6zsh1vs8","oa211xjl8z","ms1000280","motor","","72","img/motor_5.png","72","motor","5","342","1","0","0","",""
"null","","423666","HierDy6zsh1vs8","oa211xjl8z","ms1000280","iti","","null","img/motor_5.png","72","motor","","","","","","",""
"492","","424167","HierDy6zsh1vs8","oa211xjl8z","ms1000280","motor","","74","img/motor_6.png","74","motor","6","343","1","0","0","",""
"null","","424283","HierDy6zsh1vs8","oa211xjl8z","ms1000280","iti","","null","img/motor_6.png","74","motor","","","","","","",""
"507","","424800","HierDy6zsh1vs8","oa211xjl8z","ms1000280","motor","","65","img/motor_1.png","65","motor","1","344","1","0","0","",""
"null","","424908","HierDy6zsh1vs8","oa211xjl8z","ms1000280","iti","","null","img/motor_1.png","65","motor","","","","","","",""
"427","","425350","HierDy6zsh1vs8","oa211xjl8z","ms1000280","motor","","70","img/motor_4.png","70","motor","4","345","1","0","0","",""
"null","","425459","HierDy6zsh1vs8","oa211xjl8z","ms1000280","iti","","null","img/motor_4.png","70","motor","","","","","","",""
"524","","425991","HierDy6zsh1vs8","oa211xjl8z","ms1000280","motor","","68","img/motor_3.png","68","motor","3","346","1","0","0","",""
"null","","426107","HierDy6zsh1vs8","oa211xjl8z","ms1000280","iti","","null","img/motor_3.png","68","motor","","","","","","",""
"421","","426536","HierDy6zsh1vs8","oa211xjl8z","ms1000280","motor","","70","img/motor_4.png","70","motor","4","347","1","0","0","",""
"null","","426644","HierDy6zsh1vs8","oa211xjl8z","ms1000280","iti","","null","img/motor_4.png","70","motor","","","","","","",""
"562","","427222","HierDy6zsh1vs8","oa211xjl8z","ms1000280","motor","","74","img/motor_7.png","75","motor","7","348","0","1","0","",""
"401","","427639","HierDy6zsh1vs8","oa211xjl8z","ms1000280","motorRepeat","","75","img/motor_7.png","75","motor","7","348","1","0","0","",""
"null","","427748","HierDy6zsh1vs8","oa211xjl8z","ms1000280","iti","","null","img/motor_7.png","75","motor","","","","","","",""
"483","","428241","HierDy6zsh1vs8","oa211xjl8z","ms1000280","motor","","70","img/motor_4.png","70","motor","4","349","1","0","0","",""
"null","","428349","HierDy6zsh1vs8","oa211xjl8z","ms1000280","iti","","null","img/motor_4.png","70","motor","","","","","","",""
"459","","428816","HierDy6zsh1vs8","oa211xjl8z","ms1000280","motor","","76","img/motor_8.png","76","motor","8","350","1","0","0","",""
"null","","428931","HierDy6zsh1vs8","oa211xjl8z","ms1000280","iti","","null","img/motor_8.png","76","motor","","","","","","",""
"508","","429448","HierDy6zsh1vs8","oa211xjl8z","ms1000280","motor","","72","img/motor_5.png","72","motor","5","351","1","0","0","",""
"null","","429557","HierDy6zsh1vs8","oa211xjl8z","ms1000280","iti","","null","img/motor_5.png","72","motor","","","","","","",""
"619","","430191","HierDy6zsh1vs8","oa211xjl8z","ms1000280","motor","","75","img/motor_7.png","75","motor","7","352","1","0","0","",""
"null","","430301","HierDy6zsh1vs8","oa211xjl8z","ms1000280","iti","","null","img/motor_7.png","75","motor","","","","","","",""
"500","","430815","HierDy6zsh1vs8","oa211xjl8z","ms1000280","motor","","75","img/motor_7.png","75","motor","7","353","1","0","0","",""
"null","","430931","HierDy6zsh1vs8","oa211xjl8z","ms1000280","iti","","null","img/motor_7.png","75","motor","","","","","","",""
"588","","431528","HierDy6zsh1vs8","oa211xjl8z","ms1000280","motor","","68","img/motor_3.png","68","motor","3","354","1","0","0","",""
"null","","431643","HierDy6zsh1vs8","oa211xjl8z","ms1000280","iti","","null","img/motor_3.png","68","motor","","","","","","",""
"508","","432167","HierDy6zsh1vs8","oa211xjl8z","ms1000280","motor","","70","img/motor_4.png","70","motor","4","355","1","0","0","",""
"null","","432282","HierDy6zsh1vs8","oa211xjl8z","ms1000280","iti","","null","img/motor_4.png","70","motor","","","","","","",""
"661","","432951","HierDy6zsh1vs8","oa211xjl8z","ms1000280","motor","","72","img/motor_5.png","72","motor","5","356","1","0","0","",""
"null","","433066","HierDy6zsh1vs8","oa211xjl8z","ms1000280","iti","","null","img/motor_5.png","72","motor","","","","","","",""
"533","","433608","HierDy6zsh1vs8","oa211xjl8z","ms1000280","motor","","65","img/motor_1.png","65","motor","1","357","1","0","0","",""
"null","","433723","HierDy6zsh1vs8","oa211xjl8z","ms1000280","iti","","null","img/motor_1.png","65","motor","","","","","","",""
"676","","434407","HierDy6zsh1vs8","oa211xjl8z","ms1000280","motor","","74","img/motor_6.png","74","motor","6","358","1","0","0","",""
"null","","434522","HierDy6zsh1vs8","oa211xjl8z","ms1000280","iti","","null","img/motor_6.png","74","motor","","","","","","",""
"589","","435126","HierDy6zsh1vs8","oa211xjl8z","ms1000280","motor","","68","img/motor_3.png","68","motor","3","359","1","0","0","",""
"null","","435236","HierDy6zsh1vs8","oa211xjl8z","ms1000280","iti","","null","img/motor_3.png","68","motor","","","","","","",""
"555","","435807","HierDy6zsh1vs8","oa211xjl8z","ms1000280","motor","","65","img/motor_1.png","65","motor","1","360","1","0","0","",""
"null","","435923","HierDy6zsh1vs8","oa211xjl8z","ms1000280","iti","","null","img/motor_1.png","65","motor","","","","","","",""
"572","","436511","HierDy6zsh1vs8","oa211xjl8z","ms1000280","motor","","83","img/motor_2.png","83","motor","2","361","1","0","0","",""
"null","","436620","HierDy6zsh1vs8","oa211xjl8z","ms1000280","iti","","null","img/motor_2.png","83","motor","","","","","","",""
"460","","437089","HierDy6zsh1vs8","oa211xjl8z","ms1000280","motor","","65","img/motor_1.png","65","motor","1","362","1","0","0","",""
"null","","437204","HierDy6zsh1vs8","oa211xjl8z","ms1000280","iti","","null","img/motor_1.png","65","motor","","","","","","",""
