"rt","responses","time_elapsed","subject","prolificID","demoID","trialType","question_order","key_press","stim","corrresp","phase","stimNum","trialNum","corr","repeatTrial","motorSwitch","pracCounter","hierarchy"
"10328","{""Q0"":""ms1000377""}","10366","HierDyck333u61","2050mf6t3h","ms1000377","","","","","","","","","","","","",""
"800","","11173","HierDyck333u61","2050mf6t3h","ms1000377","","","","","","","","","","","","",""
"","","12975","HierDyck333u61","2050mf6t3h","ms1000377","fullscreen","","","","","","","","","","","",""
"12792","{""Vision"":""Yes"",""Handedness"":""Right"",""Gender"":""female""}","25781","HierDyck333u61","2050mf6t3h","ms1000377","","[0,1,2]","","","","","","","","","","",""
"3445","{""Q0"":""20""}","29242","HierDyck333u61","2050mf6t3h","ms1000377","","","","","","","","","","","","",""
"143172","","172427","HierDyck333u61","2050mf6t3h","ms1000377","","","","","","","","","","","","",""
"1323","","173759","HierDyck333u61","2050mf6t3h","ms1000377","motor","","83","img/motor_2.png","83","motor","2","1","1","0","0","",""
"null","","173875","HierDyck333u61","2050mf6t3h","ms1000377","iti","","null","img/motor_2.png","83","motor","","","","","","",""
"1771","","175661","HierDyck333u61","2050mf6t3h","ms1000377","motor","","74","img/motor_6.png","74","motor","6","2","1","0","0","",""
"null","","175770","HierDyck333u61","2050mf6t3h","ms1000377","iti","","null","img/motor_6.png","74","motor","","","","","","",""
"876","","176661","HierDyck333u61","2050mf6t3h","ms1000377","motor","","70","img/motor_4.png","70","motor","4","3","1","0","0","",""
"null","","176771","HierDyck333u61","2050mf6t3h","ms1000377","iti","","null","img/motor_4.png","70","motor","","","","","","",""
"605","","177389","HierDyck333u61","2050mf6t3h","ms1000377","motor","","70","img/motor_4.png","70","motor","4","4","1","0","0","",""
"null","","177498","HierDyck333u61","2050mf6t3h","ms1000377","iti","","null","img/motor_4.png","70","motor","","","","","","",""
"613","","178118","HierDyck333u61","2050mf6t3h","ms1000377","motor","","72","img/motor_5.png","72","motor","5","5","1","0","0","",""
"null","","178226","HierDyck333u61","2050mf6t3h","ms1000377","iti","","null","img/motor_5.png","72","motor","","","","","","",""
"956","","179190","HierDyck333u61","2050mf6t3h","ms1000377","motor","","83","img/motor_2.png","83","motor","2","6","1","0","0","",""
"null","","179298","HierDyck333u61","2050mf6t3h","ms1000377","iti","","null","img/motor_2.png","83","motor","","","","","","",""
"653","","179959","HierDyck333u61","2050mf6t3h","ms1000377","motor","","65","img/motor_1.png","65","motor","1","7","1","0","0","",""
"null","","180067","HierDyck333u61","2050mf6t3h","ms1000377","iti","","null","img/motor_1.png","65","motor","","","","","","",""
"1012","","181087","HierDyck333u61","2050mf6t3h","ms1000377","motor","","70","img/motor_3.png","68","motor","3","8","0","1","0","",""
"424","","181519","HierDyck333u61","2050mf6t3h","ms1000377","motorRepeat","","68","img/motor_3.png","68","motor","3","8","1","0","0","",""
"null","","181633","HierDyck333u61","2050mf6t3h","ms1000377","iti","","null","img/motor_3.png","68","motor","","","","","","",""
"517","","182165","HierDyck333u61","2050mf6t3h","ms1000377","motor","","70","img/motor_4.png","70","motor","4","9","1","0","0","",""
"null","","182280","HierDyck333u61","2050mf6t3h","ms1000377","iti","","null","img/motor_4.png","70","motor","","","","","","",""
"517","","182806","HierDyck333u61","2050mf6t3h","ms1000377","motor","","65","img/motor_1.png","65","motor","1","10","1","0","0","",""
"null","","182920","HierDyck333u61","2050mf6t3h","ms1000377","iti","","null","img/motor_1.png","65","motor","","","","","","",""
"1981","","184911","HierDyck333u61","2050mf6t3h","ms1000377","motor","","68","img/motor_3.png","68","motor","3","11","1","0","0","",""
"null","","185019","HierDyck333u61","2050mf6t3h","ms1000377","iti","","null","img/motor_3.png","68","motor","","","","","","",""
"756","","185782","HierDyck333u61","2050mf6t3h","ms1000377","motor","","74","img/motor_6.png","74","motor","6","12","1","0","0","",""
"null","","185896","HierDyck333u61","2050mf6t3h","ms1000377","iti","","null","img/motor_6.png","74","motor","","","","","","",""
"2262","","188167","HierDyck333u61","2050mf6t3h","ms1000377","motor","","68","img/motor_3.png","68","motor","3","13","1","0","0","",""
"null","","188275","HierDyck333u61","2050mf6t3h","ms1000377","iti","","null","img/motor_3.png","68","motor","","","","","","",""
"908","","189197","HierDyck333u61","2050mf6t3h","ms1000377","motor","","76","img/motor_8.png","76","motor","8","14","1","0","0","",""
"null","","189306","HierDyck333u61","2050mf6t3h","ms1000377","iti","","null","img/motor_8.png","76","motor","","","","","","",""
"844","","190165","HierDyck333u61","2050mf6t3h","ms1000377","motor","","83","img/motor_2.png","83","motor","2","15","1","0","0","",""
"null","","190279","HierDyck333u61","2050mf6t3h","ms1000377","iti","","null","img/motor_2.png","83","motor","","","","","","",""
"534","","190828","HierDyck333u61","2050mf6t3h","ms1000377","motor","","76","img/motor_8.png","76","motor","8","16","1","0","0","",""
"null","","190937","HierDyck333u61","2050mf6t3h","ms1000377","iti","","null","img/motor_8.png","76","motor","","","","","","",""
"613","","191559","HierDyck333u61","2050mf6t3h","ms1000377","motor","","72","img/motor_5.png","72","motor","5","17","1","0","0","",""
"null","","191667","HierDyck333u61","2050mf6t3h","ms1000377","iti","","null","img/motor_5.png","72","motor","","","","","","",""
"380","","192054","HierDyck333u61","2050mf6t3h","ms1000377","motor","","76","img/motor_8.png","76","motor","8","18","1","0","0","",""
"null","","192163","HierDyck333u61","2050mf6t3h","ms1000377","iti","","null","img/motor_8.png","76","motor","","","","","","",""
"732","","192909","HierDyck333u61","2050mf6t3h","ms1000377","motor","","83","img/motor_2.png","83","motor","2","19","1","0","0","",""
"null","","193017","HierDyck333u61","2050mf6t3h","ms1000377","iti","","null","img/motor_2.png","83","motor","","","","","","",""
"615","","193638","HierDyck333u61","2050mf6t3h","ms1000377","motor","","72","img/motor_5.png","72","motor","5","20","1","0","0","",""
"null","","193746","HierDyck333u61","2050mf6t3h","ms1000377","iti","","null","img/motor_5.png","72","motor","","","","","","",""
"469","","194223","HierDyck333u61","2050mf6t3h","ms1000377","motor","","76","img/motor_8.png","76","motor","8","21","1","0","0","",""
"null","","194337","HierDyck333u61","2050mf6t3h","ms1000377","iti","","null","img/motor_8.png","76","motor","","","","","","",""
"453","","194804","HierDyck333u61","2050mf6t3h","ms1000377","motor","","72","img/motor_5.png","72","motor","5","22","1","0","0","",""
"null","","194914","HierDyck333u61","2050mf6t3h","ms1000377","iti","","null","img/motor_5.png","72","motor","","","","","","",""
"597","","195524","HierDyck333u61","2050mf6t3h","ms1000377","motor","","83","img/motor_2.png","83","motor","2","23","1","0","0","",""
"null","","195634","HierDyck333u61","2050mf6t3h","ms1000377","iti","","null","img/motor_2.png","83","motor","","","","","","",""
"437","","196078","HierDyck333u61","2050mf6t3h","ms1000377","motor","","76","img/motor_8.png","76","motor","8","24","1","0","0","",""
"null","","196193","HierDyck333u61","2050mf6t3h","ms1000377","iti","","null","img/motor_8.png","76","motor","","","","","","",""
"630","","196830","HierDyck333u61","2050mf6t3h","ms1000377","motor","","70","img/motor_4.png","70","motor","4","25","1","0","0","",""
"null","","196939","HierDyck333u61","2050mf6t3h","ms1000377","iti","","null","img/motor_4.png","70","motor","","","","","","",""
"741","","197693","HierDyck333u61","2050mf6t3h","ms1000377","motor","","75","img/motor_7.png","75","motor","7","26","1","0","0","",""
"null","","197809","HierDyck333u61","2050mf6t3h","ms1000377","iti","","null","img/motor_7.png","75","motor","","","","","","",""
"782","","198607","HierDyck333u61","2050mf6t3h","ms1000377","motor","","83","img/motor_2.png","83","motor","2","27","1","0","0","",""
"null","","198721","HierDyck333u61","2050mf6t3h","ms1000377","iti","","null","img/motor_2.png","83","motor","","","","","","",""
"1012","","199755","HierDyck333u61","2050mf6t3h","ms1000377","motor","","74","img/motor_6.png","74","motor","6","28","1","0","0","",""
"null","","199870","HierDyck333u61","2050mf6t3h","ms1000377","iti","","null","img/motor_6.png","74","motor","","","","","","",""
"480","","200359","HierDyck333u61","2050mf6t3h","ms1000377","motor","","83","img/motor_2.png","83","motor","2","29","1","0","0","",""
"null","","200474","HierDyck333u61","2050mf6t3h","ms1000377","iti","","null","img/motor_2.png","83","motor","","","","","","",""
"444","","200927","HierDyck333u61","2050mf6t3h","ms1000377","motor","","76","img/motor_8.png","76","motor","8","30","1","0","0","",""
"null","","201041","HierDyck333u61","2050mf6t3h","ms1000377","iti","","null","img/motor_8.png","76","motor","","","","","","",""
"429","","201485","HierDyck333u61","2050mf6t3h","ms1000377","motor","","76","img/motor_8.png","76","motor","8","31","1","0","0","",""
"null","","201601","HierDyck333u61","2050mf6t3h","ms1000377","iti","","null","img/motor_8.png","76","motor","","","","","","",""
"398","","202015","HierDyck333u61","2050mf6t3h","ms1000377","motor","","65","img/motor_1.png","65","motor","1","32","1","0","0","",""
"null","","202124","HierDyck333u61","2050mf6t3h","ms1000377","iti","","null","img/motor_1.png","65","motor","","","","","","",""
"564","","202695","HierDyck333u61","2050mf6t3h","ms1000377","motor","","72","img/motor_5.png","72","motor","5","33","1","0","0","",""
"null","","202810","HierDyck333u61","2050mf6t3h","ms1000377","iti","","null","img/motor_5.png","72","motor","","","","","","",""
"428","","203247","HierDyck333u61","2050mf6t3h","ms1000377","motor","","72","img/motor_4.png","70","motor","4","34","0","1","0","",""
"336","","203591","HierDyck333u61","2050mf6t3h","ms1000377","motorRepeat","","70","img/motor_4.png","70","motor","4","34","1","0","0","",""
"null","","203699","HierDyck333u61","2050mf6t3h","ms1000377","iti","","null","img/motor_4.png","70","motor","","","","","","",""
"612","","204318","HierDyck333u61","2050mf6t3h","ms1000377","motor","","74","img/motor_6.png","74","motor","6","35","1","0","0","",""
"null","","204432","HierDyck333u61","2050mf6t3h","ms1000377","iti","","null","img/motor_6.png","74","motor","","","","","","",""
"830","","205270","HierDyck333u61","2050mf6t3h","ms1000377","motor","","68","img/motor_3.png","68","motor","3","36","1","0","0","",""
"null","","205378","HierDyck333u61","2050mf6t3h","ms1000377","iti","","null","img/motor_3.png","68","motor","","","","","","",""
"484","","205870","HierDyck333u61","2050mf6t3h","ms1000377","motor","","65","img/motor_1.png","65","motor","1","37","1","0","0","",""
"null","","205979","HierDyck333u61","2050mf6t3h","ms1000377","iti","","null","img/motor_1.png","65","motor","","","","","","",""
"540","","206533","HierDyck333u61","2050mf6t3h","ms1000377","motor","","72","img/motor_5.png","72","motor","5","38","1","0","0","",""
"null","","206648","HierDyck333u61","2050mf6t3h","ms1000377","iti","","null","img/motor_5.png","72","motor","","","","","","",""
"806","","207469","HierDyck333u61","2050mf6t3h","ms1000377","motor","","70","img/motor_4.png","70","motor","4","39","1","0","0","",""
"null","","207577","HierDyck333u61","2050mf6t3h","ms1000377","iti","","null","img/motor_4.png","70","motor","","","","","","",""
"734","","208319","HierDyck333u61","2050mf6t3h","ms1000377","motor","","75","img/motor_7.png","75","motor","7","40","1","0","0","",""
"null","","208433","HierDyck333u61","2050mf6t3h","ms1000377","iti","","null","img/motor_7.png","75","motor","","","","","","",""
"517","","208959","HierDyck333u61","2050mf6t3h","ms1000377","motor","","72","img/motor_5.png","72","motor","5","41","1","0","0","",""
"null","","209067","HierDyck333u61","2050mf6t3h","ms1000377","iti","","null","img/motor_5.png","72","motor","","","","","","",""
"485","","209559","HierDyck333u61","2050mf6t3h","ms1000377","motor","","65","img/motor_1.png","65","motor","1","42","1","0","0","",""
"null","","209668","HierDyck333u61","2050mf6t3h","ms1000377","iti","","null","img/motor_1.png","65","motor","","","","","","",""
"636","","210311","HierDyck333u61","2050mf6t3h","ms1000377","motor","","68","img/motor_3.png","68","motor","3","43","1","0","0","",""
"null","","210420","HierDyck333u61","2050mf6t3h","ms1000377","iti","","null","img/motor_3.png","68","motor","","","","","","",""
"459","","210893","HierDyck333u61","2050mf6t3h","ms1000377","motor","","83","img/motor_2.png","83","motor","2","44","1","0","0","",""
"null","","211002","HierDyck333u61","2050mf6t3h","ms1000377","iti","","null","img/motor_2.png","83","motor","","","","","","",""
"389","","211399","HierDyck333u61","2050mf6t3h","ms1000377","motor","","68","img/motor_3.png","68","motor","3","45","1","0","0","",""
"null","","211508","HierDyck333u61","2050mf6t3h","ms1000377","iti","","null","img/motor_3.png","68","motor","","","","","","",""
"477","","211990","HierDyck333u61","2050mf6t3h","ms1000377","motor","","75","img/motor_6.png","74","motor","6","46","0","1","0","",""
"441","","212439","HierDyck333u61","2050mf6t3h","ms1000377","motorRepeat","","74","img/motor_6.png","74","motor","6","46","1","0","0","",""
"0","","212553","HierDyck333u61","2050mf6t3h","ms1000377","iti","","72","img/motor_6.png","74","motor","","","","","","",""
"686","","213253","HierDyck333u61","2050mf6t3h","ms1000377","motor","","72","img/motor_5.png","72","motor","5","47","1","0","0","",""
"null","","213368","HierDyck333u61","2050mf6t3h","ms1000377","iti","","null","img/motor_5.png","72","motor","","","","","","",""
"446","","213830","HierDyck333u61","2050mf6t3h","ms1000377","motor","","76","img/motor_8.png","76","motor","8","48","1","0","0","",""
"null","","213944","HierDyck333u61","2050mf6t3h","ms1000377","iti","","null","img/motor_8.png","76","motor","","","","","","",""
"566","","214525","HierDyck333u61","2050mf6t3h","ms1000377","motor","","72","img/motor_5.png","72","motor","5","49","1","0","0","",""
"null","","214641","HierDyck333u61","2050mf6t3h","ms1000377","iti","","null","img/motor_5.png","72","motor","","","","","","",""
"366","","215021","HierDyck333u61","2050mf6t3h","ms1000377","motor","","76","img/motor_8.png","76","motor","8","50","1","0","0","",""
"null","","215136","HierDyck333u61","2050mf6t3h","ms1000377","iti","","null","img/motor_8.png","76","motor","","","","","","",""
"390","","215542","HierDyck333u61","2050mf6t3h","ms1000377","motor","","65","img/motor_1.png","65","motor","1","51","1","0","0","",""
"null","","215651","HierDyck333u61","2050mf6t3h","ms1000377","iti","","null","img/motor_1.png","65","motor","","","","","","",""
"453","","216111","HierDyck333u61","2050mf6t3h","ms1000377","motor","","76","img/motor_8.png","76","motor","8","52","1","0","0","",""
"null","","216225","HierDyck333u61","2050mf6t3h","ms1000377","iti","","null","img/motor_8.png","76","motor","","","","","","",""
"356","","216597","HierDyck333u61","2050mf6t3h","ms1000377","motor","","76","img/motor_6.png","74","motor","6","53","0","1","0","",""
"289","","216895","HierDyck333u61","2050mf6t3h","ms1000377","motorRepeat","","75","img/motor_6.png","74","motor","6","53","0","1","0","",""
"136","","217039","HierDyck333u61","2050mf6t3h","ms1000377","motorRepeat","","74","img/motor_6.png","74","motor","6","53","1","0","0","",""
"null","","217153","HierDyck333u61","2050mf6t3h","ms1000377","iti","","null","img/motor_6.png","74","motor","","","","","","",""
"710","","217877","HierDyck333u61","2050mf6t3h","ms1000377","motor","","72","img/motor_4.png","70","motor","4","54","0","1","0","",""
"272","","218165","HierDyck333u61","2050mf6t3h","ms1000377","motorRepeat","","70","img/motor_4.png","70","motor","4","54","1","0","0","",""
"null","","218280","HierDyck333u61","2050mf6t3h","ms1000377","iti","","null","img/motor_4.png","70","motor","","","","","","",""
"557","","218847","HierDyck333u61","2050mf6t3h","ms1000377","motor","","72","img/motor_5.png","72","motor","5","55","1","0","0","",""
"null","","218961","HierDyck333u61","2050mf6t3h","ms1000377","iti","","null","img/motor_5.png","72","motor","","","","","","",""
"501","","219477","HierDyck333u61","2050mf6t3h","ms1000377","motor","","76","img/motor_8.png","76","motor","8","56","1","0","0","",""
"null","","219586","HierDyck333u61","2050mf6t3h","ms1000377","iti","","null","img/motor_8.png","76","motor","","","","","","",""
"605","","220205","HierDyck333u61","2050mf6t3h","ms1000377","motor","","72","img/motor_5.png","72","motor","5","57","1","0","0","",""
"null","","220320","HierDyck333u61","2050mf6t3h","ms1000377","iti","","null","img/motor_5.png","72","motor","","","","","","",""
"662","","220991","HierDyck333u61","2050mf6t3h","ms1000377","motor","","68","img/motor_3.png","68","motor","3","58","1","0","0","",""
"null","","221106","HierDyck333u61","2050mf6t3h","ms1000377","iti","","null","img/motor_3.png","68","motor","","","","","","",""
"477","","221597","HierDyck333u61","2050mf6t3h","ms1000377","motor","","70","img/motor_4.png","70","motor","4","59","1","0","0","",""
"null","","221706","HierDyck333u61","2050mf6t3h","ms1000377","iti","","null","img/motor_4.png","70","motor","","","","","","",""
"557","","222278","HierDyck333u61","2050mf6t3h","ms1000377","motor","","83","img/motor_2.png","83","motor","2","60","1","0","0","",""
"null","","222385","HierDyck333u61","2050mf6t3h","ms1000377","iti","","null","img/motor_2.png","83","motor","","","","","","",""
"429","","222824","HierDyck333u61","2050mf6t3h","ms1000377","motor","","76","img/motor_8.png","76","motor","8","61","1","0","0","",""
"null","","222938","HierDyck333u61","2050mf6t3h","ms1000377","iti","","null","img/motor_8.png","76","motor","","","","","","",""
"806","","223751","HierDyck333u61","2050mf6t3h","ms1000377","motor","","83","img/motor_2.png","83","motor","2","62","1","0","0","",""
"null","","223866","HierDyck333u61","2050mf6t3h","ms1000377","iti","","null","img/motor_2.png","83","motor","","","","","","",""
"574","","224453","HierDyck333u61","2050mf6t3h","ms1000377","motor","","74","img/motor_6.png","74","motor","6","63","1","0","0","",""
"null","","224562","HierDyck333u61","2050mf6t3h","ms1000377","iti","","null","img/motor_6.png","74","motor","","","","","","",""
"677","","225253","HierDyck333u61","2050mf6t3h","ms1000377","motor","","65","img/motor_1.png","65","motor","1","64","1","0","0","",""
"null","","225363","HierDyck333u61","2050mf6t3h","ms1000377","iti","","null","img/motor_1.png","65","motor","","","","","","",""
"773","","226150","HierDyck333u61","2050mf6t3h","ms1000377","motor","","72","img/motor_5.png","72","motor","5","65","1","0","0","",""
"null","","226258","HierDyck333u61","2050mf6t3h","ms1000377","iti","","null","img/motor_5.png","72","motor","","","","","","",""
"686","","226957","HierDyck333u61","2050mf6t3h","ms1000377","motor","","83","img/motor_2.png","83","motor","2","66","1","0","0","",""
"null","","227073","HierDyck333u61","2050mf6t3h","ms1000377","iti","","null","img/motor_2.png","83","motor","","","","","","",""
"509","","227590","HierDyck333u61","2050mf6t3h","ms1000377","motor","","68","img/motor_3.png","68","motor","3","67","1","0","0","",""
"null","","227699","HierDyck333u61","2050mf6t3h","ms1000377","iti","","null","img/motor_3.png","68","motor","","","","","","",""
"462","","228174","HierDyck333u61","2050mf6t3h","ms1000377","motor","","72","img/motor_5.png","72","motor","5","68","1","0","0","",""
"null","","228283","HierDyck333u61","2050mf6t3h","ms1000377","iti","","null","img/motor_5.png","72","motor","","","","","","",""
"837","","229127","HierDyck333u61","2050mf6t3h","ms1000377","motor","","75","img/motor_7.png","75","motor","7","69","1","0","0","",""
"null","","229235","HierDyck333u61","2050mf6t3h","ms1000377","iti","","null","img/motor_7.png","75","motor","","","","","","",""
"924","","230166","HierDyck333u61","2050mf6t3h","ms1000377","motor","","68","img/motor_3.png","68","motor","3","70","1","0","0","",""
"null","","230281","HierDyck333u61","2050mf6t3h","ms1000377","iti","","null","img/motor_3.png","68","motor","","","","","","",""
"429","","230719","HierDyck333u61","2050mf6t3h","ms1000377","motor","","76","img/motor_8.png","76","motor","8","71","1","0","0","",""
"null","","230828","HierDyck333u61","2050mf6t3h","ms1000377","iti","","null","img/motor_8.png","76","motor","","","","","","",""
"979","","231814","HierDyck333u61","2050mf6t3h","ms1000377","motor","","75","img/motor_7.png","75","motor","7","72","1","0","0","",""
"null","","231922","HierDyck333u61","2050mf6t3h","ms1000377","iti","","null","img/motor_7.png","75","motor","","","","","","",""
"837","","232773","HierDyck333u61","2050mf6t3h","ms1000377","motor","","68","img/motor_3.png","68","motor","3","73","1","0","0","",""
"null","","232891","HierDyck333u61","2050mf6t3h","ms1000377","iti","","null","img/motor_3.png","68","motor","","","","","","",""
"564","","233470","HierDyck333u61","2050mf6t3h","ms1000377","motor","","72","img/motor_5.png","72","motor","5","74","1","0","0","",""
"null","","233579","HierDyck333u61","2050mf6t3h","ms1000377","iti","","null","img/motor_5.png","72","motor","","","","","","",""
"557","","234149","HierDyck333u61","2050mf6t3h","ms1000377","motor","","68","img/motor_3.png","68","motor","3","75","1","0","0","",""
"null","","234265","HierDyck333u61","2050mf6t3h","ms1000377","iti","","null","img/motor_3.png","68","motor","","","","","","",""
"406","","234685","HierDyck333u61","2050mf6t3h","ms1000377","motor","","72","img/motor_5.png","72","motor","5","76","1","0","0","",""
"null","","234795","HierDyck333u61","2050mf6t3h","ms1000377","iti","","null","img/motor_5.png","72","motor","","","","","","",""
"580","","235382","HierDyck333u61","2050mf6t3h","ms1000377","motor","","68","img/motor_3.png","68","motor","3","77","1","0","0","",""
"null","","235497","HierDyck333u61","2050mf6t3h","ms1000377","iti","","null","img/motor_3.png","68","motor","","","","","","",""
"454","","235966","HierDyck333u61","2050mf6t3h","ms1000377","motor","","68","img/motor_3.png","68","motor","3","78","1","0","0","",""
"null","","236081","HierDyck333u61","2050mf6t3h","ms1000377","iti","","null","img/motor_3.png","68","motor","","","","","","",""
"517","","236614","HierDyck333u61","2050mf6t3h","ms1000377","motor","","70","img/motor_4.png","70","motor","4","79","1","0","0","",""
"null","","236729","HierDyck333u61","2050mf6t3h","ms1000377","iti","","null","img/motor_4.png","70","motor","","","","","","",""
"654","","237398","HierDyck333u61","2050mf6t3h","ms1000377","motor","","74","img/motor_6.png","74","motor","6","80","1","0","0","",""
"null","","237513","HierDyck333u61","2050mf6t3h","ms1000377","iti","","null","img/motor_6.png","74","motor","","","","","","",""
"718","","238246","HierDyck333u61","2050mf6t3h","ms1000377","motor","","70","img/motor_4.png","70","motor","4","81","1","0","0","",""
"null","","238355","HierDyck333u61","2050mf6t3h","ms1000377","iti","","null","img/motor_4.png","70","motor","","","","","","",""
"468","","238838","HierDyck333u61","2050mf6t3h","ms1000377","motor","","65","img/motor_1.png","65","motor","1","82","1","0","0","",""
"null","","238947","HierDyck333u61","2050mf6t3h","ms1000377","iti","","null","img/motor_1.png","65","motor","","","","","","",""
"780","","239742","HierDyck333u61","2050mf6t3h","ms1000377","motor","","75","img/motor_7.png","75","motor","7","83","1","0","0","",""
"null","","239856","HierDyck333u61","2050mf6t3h","ms1000377","iti","","null","img/motor_7.png","75","motor","","","","","","",""
"462","","240328","HierDyck333u61","2050mf6t3h","ms1000377","motor","","65","img/motor_1.png","65","motor","1","84","1","0","0","",""
"null","","240436","HierDyck333u61","2050mf6t3h","ms1000377","iti","","null","img/motor_1.png","65","motor","","","","","","",""
"508","","240950","HierDyck333u61","2050mf6t3h","ms1000377","motor","","65","img/motor_1.png","65","motor","1","85","1","0","0","",""
"null","","241066","HierDyck333u61","2050mf6t3h","ms1000377","iti","","null","img/motor_1.png","65","motor","","","","","","",""
"725","","241799","HierDyck333u61","2050mf6t3h","ms1000377","motor","","68","img/motor_3.png","68","motor","3","86","1","0","0","",""
"null","","241913","HierDyck333u61","2050mf6t3h","ms1000377","iti","","null","img/motor_3.png","68","motor","","","","","","",""
"781","","242703","HierDyck333u61","2050mf6t3h","ms1000377","motor","","75","img/motor_7.png","75","motor","7","87","1","0","0","",""
"null","","242812","HierDyck333u61","2050mf6t3h","ms1000377","iti","","null","img/motor_7.png","75","motor","","","","","","",""
"589","","243406","HierDyck333u61","2050mf6t3h","ms1000377","motor","","70","img/motor_4.png","70","motor","4","88","1","0","0","",""
"null","","243521","HierDyck333u61","2050mf6t3h","ms1000377","iti","","null","img/motor_4.png","70","motor","","","","","","",""
"485","","244015","HierDyck333u61","2050mf6t3h","ms1000377","motor","","72","img/motor_5.png","72","motor","5","89","1","0","0","",""
"null","","244129","HierDyck333u61","2050mf6t3h","ms1000377","iti","","null","img/motor_5.png","72","motor","","","","","","",""
"1077","","245215","HierDyck333u61","2050mf6t3h","ms1000377","motor","","65","img/motor_1.png","65","motor","1","90","1","0","0","",""
"null","","245329","HierDyck333u61","2050mf6t3h","ms1000377","iti","","null","img/motor_1.png","65","motor","","","","","","",""
"645","","245983","HierDyck333u61","2050mf6t3h","ms1000377","motor","","76","img/motor_8.png","76","motor","8","91","1","0","0","",""
"null","","246098","HierDyck333u61","2050mf6t3h","ms1000377","iti","","null","img/motor_8.png","76","motor","","","","","","",""
"686","","246791","HierDyck333u61","2050mf6t3h","ms1000377","motor","","68","img/motor_3.png","68","motor","3","92","1","0","0","",""
"null","","246906","HierDyck333u61","2050mf6t3h","ms1000377","iti","","null","img/motor_3.png","68","motor","","","","","","",""
"678","","247591","HierDyck333u61","2050mf6t3h","ms1000377","motor","","75","img/motor_7.png","75","motor","7","93","1","0","0","",""
"null","","247700","HierDyck333u61","2050mf6t3h","ms1000377","iti","","null","img/motor_7.png","75","motor","","","","","","",""
"507","","248221","HierDyck333u61","2050mf6t3h","ms1000377","motor","","72","img/motor_4.png","70","motor","4","94","0","1","0","",""
"265","","248494","HierDyck333u61","2050mf6t3h","ms1000377","motorRepeat","","70","img/motor_4.png","70","motor","4","94","1","0","0","",""
"null","","248602","HierDyck333u61","2050mf6t3h","ms1000377","iti","","null","img/motor_4.png","70","motor","","","","","","",""
"781","","249397","HierDyck333u61","2050mf6t3h","ms1000377","motor","","83","img/motor_2.png","83","motor","2","95","1","0","0","",""
"null","","249512","HierDyck333u61","2050mf6t3h","ms1000377","iti","","null","img/motor_2.png","83","motor","","","","","","",""
"486","","250013","HierDyck333u61","2050mf6t3h","ms1000377","motor","","68","img/motor_3.png","68","motor","3","96","1","0","0","",""
"null","","250122","HierDyck333u61","2050mf6t3h","ms1000377","iti","","null","img/motor_3.png","68","motor","","","","","","",""
"806","","250935","HierDyck333u61","2050mf6t3h","ms1000377","motor","","75","img/motor_7.png","75","motor","7","97","1","0","0","",""
"null","","251049","HierDyck333u61","2050mf6t3h","ms1000377","iti","","null","img/motor_7.png","75","motor","","","","","","",""
"486","","251544","HierDyck333u61","2050mf6t3h","ms1000377","motor","","76","img/motor_8.png","76","motor","8","98","1","0","0","",""
"null","","251652","HierDyck333u61","2050mf6t3h","ms1000377","iti","","null","img/motor_8.png","76","motor","","","","","","",""
"427","","252087","HierDyck333u61","2050mf6t3h","ms1000377","motor","","76","img/motor_8.png","76","motor","8","99","1","0","0","",""
"null","","252195","HierDyck333u61","2050mf6t3h","ms1000377","iti","","null","img/motor_8.png","76","motor","","","","","","",""
"500","","252709","HierDyck333u61","2050mf6t3h","ms1000377","motor","","72","img/motor_7.png","75","motor","7","100","0","1","0","",""
"330","","253047","HierDyck333u61","2050mf6t3h","ms1000377","motorRepeat","","74","img/motor_7.png","75","motor","7","100","0","1","0","",""
"553","","253607","HierDyck333u61","2050mf6t3h","ms1000377","motorRepeat","","74","img/motor_7.png","75","motor","7","100","0","1","0","",""
"256","","253871","HierDyck333u61","2050mf6t3h","ms1000377","motorRepeat","","75","img/motor_7.png","75","motor","7","100","1","0","0","",""
"null","","253986","HierDyck333u61","2050mf6t3h","ms1000377","iti","","null","img/motor_7.png","75","motor","","","","","","",""
"725","","254726","HierDyck333u61","2050mf6t3h","ms1000377","motor","","70","img/motor_4.png","70","motor","4","101","1","0","0","",""
"null","","254840","HierDyck333u61","2050mf6t3h","ms1000377","iti","","null","img/motor_4.png","70","motor","","","","","","",""
"477","","255334","HierDyck333u61","2050mf6t3h","ms1000377","motor","","76","img/motor_8.png","76","motor","8","102","1","0","0","",""
"null","","255449","HierDyck333u61","2050mf6t3h","ms1000377","iti","","null","img/motor_8.png","76","motor","","","","","","",""
"591","","256047","HierDyck333u61","2050mf6t3h","ms1000377","motor","","72","img/motor_5.png","72","motor","5","103","1","0","0","",""
"null","","256162","HierDyck333u61","2050mf6t3h","ms1000377","iti","","null","img/motor_5.png","72","motor","","","","","","",""
"500","","256678","HierDyck333u61","2050mf6t3h","ms1000377","motor","","70","img/motor_4.png","70","motor","4","104","1","0","0","",""
"null","","256786","HierDyck333u61","2050mf6t3h","ms1000377","iti","","null","img/motor_4.png","70","motor","","","","","","",""
"365","","257159","HierDyck333u61","2050mf6t3h","ms1000377","motor","","70","img/motor_4.png","70","motor","4","105","1","0","0","",""
"null","","257266","HierDyck333u61","2050mf6t3h","ms1000377","iti","","null","img/motor_4.png","70","motor","","","","","","",""
"549","","257823","HierDyck333u61","2050mf6t3h","ms1000377","motor","","75","img/motor_6.png","74","motor","6","106","0","1","0","",""
"328","","258159","HierDyck333u61","2050mf6t3h","ms1000377","motorRepeat","","74","img/motor_6.png","74","motor","6","106","1","0","0","",""
"null","","258274","HierDyck333u61","2050mf6t3h","ms1000377","iti","","null","img/motor_6.png","74","motor","","","","","","",""
"974","","259255","HierDyck333u61","2050mf6t3h","ms1000377","motor","","65","img/motor_1.png","65","motor","1","107","1","0","0","",""
"null","","259370","HierDyck333u61","2050mf6t3h","ms1000377","iti","","null","img/motor_1.png","65","motor","","","","","","",""
"1869","","261246","HierDyck333u61","2050mf6t3h","ms1000377","motor","","70","img/motor_3.png","68","motor","3","108","0","1","0","",""
"296","","261551","HierDyck333u61","2050mf6t3h","ms1000377","motorRepeat","","68","img/motor_3.png","68","motor","3","108","1","0","0","",""
"null","","261665","HierDyck333u61","2050mf6t3h","ms1000377","iti","","null","img/motor_3.png","68","motor","","","","","","",""
"492","","262173","HierDyck333u61","2050mf6t3h","ms1000377","motor","","65","img/motor_1.png","65","motor","1","109","1","0","0","",""
"null","","262283","HierDyck333u61","2050mf6t3h","ms1000377","iti","","null","img/motor_1.png","65","motor","","","","","","",""
"494","","262790","HierDyck333u61","2050mf6t3h","ms1000377","motor","","76","img/motor_8.png","76","motor","8","110","1","0","0","",""
"null","","262898","HierDyck333u61","2050mf6t3h","ms1000377","iti","","null","img/motor_8.png","76","motor","","","","","","",""
"717","","263626","HierDyck333u61","2050mf6t3h","ms1000377","motor","","75","img/motor_7.png","75","motor","7","111","1","0","0","",""
"null","","263734","HierDyck333u61","2050mf6t3h","ms1000377","iti","","null","img/motor_7.png","75","motor","","","","","","",""
"577","","264319","HierDyck333u61","2050mf6t3h","ms1000377","motor","","70","img/motor_3.png","68","motor","3","112","0","1","0","",""
"240","","264574","HierDyck333u61","2050mf6t3h","ms1000377","motorRepeat","","68","img/motor_3.png","68","motor","3","112","1","0","0","",""
"null","","264690","HierDyck333u61","2050mf6t3h","ms1000377","iti","","null","img/motor_3.png","68","motor","","","","","","",""
"556","","265255","HierDyck333u61","2050mf6t3h","ms1000377","motor","","70","img/motor_4.png","70","motor","4","113","1","0","0","",""
"null","","265363","HierDyck333u61","2050mf6t3h","ms1000377","iti","","null","img/motor_4.png","70","motor","","","","","","",""
"652","","266030","HierDyck333u61","2050mf6t3h","ms1000377","motor","","83","img/motor_2.png","83","motor","2","114","1","0","0","",""
"null","","266146","HierDyck333u61","2050mf6t3h","ms1000377","iti","","null","img/motor_2.png","83","motor","","","","","","",""
"956","","267118","HierDyck333u61","2050mf6t3h","ms1000377","motor","","75","img/motor_7.png","75","motor","7","115","1","0","0","",""
"null","","267227","HierDyck333u61","2050mf6t3h","ms1000377","iti","","null","img/motor_7.png","75","motor","","","","","","",""
"429","","267664","HierDyck333u61","2050mf6t3h","ms1000377","motor","","75","img/motor_7.png","75","motor","7","116","1","0","0","",""
"null","","267778","HierDyck333u61","2050mf6t3h","ms1000377","iti","","null","img/motor_7.png","75","motor","","","","","","",""
"876","","268663","HierDyck333u61","2050mf6t3h","ms1000377","motor","","83","img/motor_2.png","83","motor","2","117","1","0","0","",""
"null","","268778","HierDyck333u61","2050mf6t3h","ms1000377","iti","","null","img/motor_2.png","83","motor","","","","","","",""
"758","","269550","HierDyck333u61","2050mf6t3h","ms1000377","motor","","72","img/motor_5.png","72","motor","5","118","1","0","0","",""
"null","","269659","HierDyck333u61","2050mf6t3h","ms1000377","iti","","null","img/motor_5.png","72","motor","","","","","","",""
"797","","270462","HierDyck333u61","2050mf6t3h","ms1000377","motor","","83","img/motor_2.png","83","motor","2","119","1","0","0","",""
"null","","270571","HierDyck333u61","2050mf6t3h","ms1000377","iti","","null","img/motor_2.png","83","motor","","","","","","",""
"605","","271190","HierDyck333u61","2050mf6t3h","ms1000377","motor","","70","img/motor_4.png","70","motor","4","120","1","0","0","",""
"null","","271299","HierDyck333u61","2050mf6t3h","ms1000377","iti","","null","img/motor_4.png","70","motor","","","","","","",""
"653","","271959","HierDyck333u61","2050mf6t3h","ms1000377","motor","","74","img/motor_6.png","74","motor","6","121","1","0","0","",""
"null","","272068","HierDyck333u61","2050mf6t3h","ms1000377","iti","","null","img/motor_6.png","74","motor","","","","","","",""
"724","","272800","HierDyck333u61","2050mf6t3h","ms1000377","motor","","83","img/motor_2.png","83","motor","2","122","1","0","0","",""
"null","","272908","HierDyck333u61","2050mf6t3h","ms1000377","iti","","null","img/motor_2.png","83","motor","","","","","","",""
"868","","273783","HierDyck333u61","2050mf6t3h","ms1000377","motor","","75","img/motor_7.png","75","motor","7","123","1","0","0","",""
"null","","273891","HierDyck333u61","2050mf6t3h","ms1000377","iti","","null","img/motor_7.png","75","motor","","","","","","",""
"589","","274486","HierDyck333u61","2050mf6t3h","ms1000377","motor","","70","img/motor_4.png","70","motor","4","124","1","0","0","",""
"null","","274594","HierDyck333u61","2050mf6t3h","ms1000377","iti","","null","img/motor_4.png","70","motor","","","","","","",""
"662","","275263","HierDyck333u61","2050mf6t3h","ms1000377","motor","","83","img/motor_2.png","83","motor","2","125","1","0","0","",""
"null","","275377","HierDyck333u61","2050mf6t3h","ms1000377","iti","","null","img/motor_2.png","83","motor","","","","","","",""
"477","","275870","HierDyck333u61","2050mf6t3h","ms1000377","motor","","72","img/motor_5.png","72","motor","5","126","1","0","0","",""
"null","","275979","HierDyck333u61","2050mf6t3h","ms1000377","iti","","null","img/motor_5.png","72","motor","","","","","","",""
"485","","276472","HierDyck333u61","2050mf6t3h","ms1000377","motor","","75","img/motor_7.png","75","motor","7","127","1","0","0","",""
"null","","276580","HierDyck333u61","2050mf6t3h","ms1000377","iti","","null","img/motor_7.png","75","motor","","","","","","",""
"357","","276950","HierDyck333u61","2050mf6t3h","ms1000377","motor","","76","img/motor_8.png","76","motor","8","128","1","0","0","",""
"null","","277065","HierDyck333u61","2050mf6t3h","ms1000377","iti","","null","img/motor_8.png","76","motor","","","","","","",""
"590","","277670","HierDyck333u61","2050mf6t3h","ms1000377","motor","","72","img/motor_6.png","74","motor","6","129","0","1","0","",""
"409","","278094","HierDyck333u61","2050mf6t3h","ms1000377","motorRepeat","","74","img/motor_6.png","74","motor","6","129","1","0","0","",""
"null","","278203","HierDyck333u61","2050mf6t3h","ms1000377","iti","","null","img/motor_6.png","74","motor","","","","","","",""
"653","","278863","HierDyck333u61","2050mf6t3h","ms1000377","motor","","74","img/motor_6.png","74","motor","6","130","1","0","0","",""
"null","","278978","HierDyck333u61","2050mf6t3h","ms1000377","iti","","null","img/motor_6.png","74","motor","","","","","","",""
"445","","279430","HierDyck333u61","2050mf6t3h","ms1000377","motor","","75","img/motor_7.png","75","motor","7","131","1","0","0","",""
"null","","279545","HierDyck333u61","2050mf6t3h","ms1000377","iti","","null","img/motor_7.png","75","motor","","","","","","",""
"510","","280063","HierDyck333u61","2050mf6t3h","ms1000377","motor","","65","img/motor_2.png","83","motor","2","132","0","1","0","",""
"233","","280310","HierDyck333u61","2050mf6t3h","ms1000377","motorRepeat","","83","img/motor_2.png","83","motor","2","132","1","0","0","",""
"null","","280419","HierDyck333u61","2050mf6t3h","ms1000377","iti","","null","img/motor_2.png","83","motor","","","","","","",""
"492","","280926","HierDyck333u61","2050mf6t3h","ms1000377","motor","","83","img/motor_2.png","83","motor","2","133","1","0","0","",""
"null","","281042","HierDyck333u61","2050mf6t3h","ms1000377","iti","","null","img/motor_2.png","83","motor","","","","","","",""
"501","","281559","HierDyck333u61","2050mf6t3h","ms1000377","motor","","70","img/motor_4.png","70","motor","4","134","1","0","0","",""
"null","","281673","HierDyck333u61","2050mf6t3h","ms1000377","iti","","null","img/motor_4.png","70","motor","","","","","","",""
"470","","282158","HierDyck333u61","2050mf6t3h","ms1000377","motor","","76","img/motor_8.png","76","motor","8","135","1","0","0","",""
"null","","282274","HierDyck333u61","2050mf6t3h","ms1000377","iti","","null","img/motor_8.png","76","motor","","","","","","",""
"654","","282935","HierDyck333u61","2050mf6t3h","ms1000377","motor","","83","img/motor_2.png","83","motor","2","136","1","0","0","",""
"null","","283043","HierDyck333u61","2050mf6t3h","ms1000377","iti","","null","img/motor_2.png","83","motor","","","","","","",""
"693","","283744","HierDyck333u61","2050mf6t3h","ms1000377","motor","","70","img/motor_4.png","70","motor","4","137","1","0","0","",""
"null","","283853","HierDyck333u61","2050mf6t3h","ms1000377","iti","","null","img/motor_4.png","70","motor","","","","","","",""
"1035","","284903","HierDyck333u61","2050mf6t3h","ms1000377","motor","","75","img/motor_7.png","75","motor","7","138","1","0","0","",""
"null","","285011","HierDyck333u61","2050mf6t3h","ms1000377","iti","","null","img/motor_7.png","75","motor","","","","","","",""
"1117","","286136","HierDyck333u61","2050mf6t3h","ms1000377","motor","","74","img/motor_6.png","74","motor","6","139","1","0","0","",""
"null","","286244","HierDyck333u61","2050mf6t3h","ms1000377","iti","","null","img/motor_6.png","74","motor","","","","","","",""
"956","","287214","HierDyck333u61","2050mf6t3h","ms1000377","motor","","83","img/motor_2.png","83","motor","2","140","1","0","0","",""
"null","","287329","HierDyck333u61","2050mf6t3h","ms1000377","iti","","null","img/motor_2.png","83","motor","","","","","","",""
"438","","287775","HierDyck333u61","2050mf6t3h","ms1000377","motor","","65","img/motor_1.png","65","motor","1","141","1","0","0","",""
"null","","287884","HierDyck333u61","2050mf6t3h","ms1000377","iti","","null","img/motor_1.png","65","motor","","","","","","",""
"500","","288392","HierDyck333u61","2050mf6t3h","ms1000377","motor","","83","img/motor_2.png","83","motor","2","142","1","0","0","",""
"null","","288500","HierDyck333u61","2050mf6t3h","ms1000377","iti","","null","img/motor_2.png","83","motor","","","","","","",""
"811","","289319","HierDyck333u61","2050mf6t3h","ms1000377","motor","","70","img/motor_4.png","70","motor","4","143","1","0","0","",""
"null","","289434","HierDyck333u61","2050mf6t3h","ms1000377","iti","","null","img/motor_4.png","70","motor","","","","","","",""
"381","","289830","HierDyck333u61","2050mf6t3h","ms1000377","motor","","65","img/motor_1.png","65","motor","1","144","1","0","0","",""
"null","","289939","HierDyck333u61","2050mf6t3h","ms1000377","iti","","null","img/motor_1.png","65","motor","","","","","","",""
"885","","290839","HierDyck333u61","2050mf6t3h","ms1000377","motor","","75","img/motor_6.png","74","motor","6","145","0","1","0","",""
"33","","290877","HierDyck333u61","2050mf6t3h","ms1000377","motorRepeat","","74","img/motor_6.png","74","motor","6","145","1","0","0","",""
"null","","290984","HierDyck333u61","2050mf6t3h","ms1000377","iti","","null","img/motor_6.png","74","motor","","","","","","",""
"552","","291544","HierDyck333u61","2050mf6t3h","ms1000377","motor","","74","img/motor_6.png","74","motor","6","146","1","0","0","",""
"null","","291658","HierDyck333u61","2050mf6t3h","ms1000377","iti","","null","img/motor_6.png","74","motor","","","","","","",""
"837","","292504","HierDyck333u61","2050mf6t3h","ms1000377","motor","","65","img/motor_1.png","65","motor","1","147","1","0","0","",""
"null","","292613","HierDyck333u61","2050mf6t3h","ms1000377","iti","","null","img/motor_1.png","65","motor","","","","","","",""
"627","","293248","HierDyck333u61","2050mf6t3h","ms1000377","motor","","70","img/motor_4.png","70","motor","4","148","1","0","0","",""
"null","","293357","HierDyck333u61","2050mf6t3h","ms1000377","iti","","null","img/motor_4.png","70","motor","","","","","","",""
"484","","293854","HierDyck333u61","2050mf6t3h","ms1000377","motor","","76","img/motor_8.png","76","motor","8","149","1","0","0","",""
"null","","293969","HierDyck333u61","2050mf6t3h","ms1000377","iti","","null","img/motor_8.png","76","motor","","","","","","",""
"542","","294520","HierDyck333u61","2050mf6t3h","ms1000377","motor","","70","img/motor_4.png","70","motor","4","150","1","0","0","",""
"null","","294628","HierDyck333u61","2050mf6t3h","ms1000377","iti","","null","img/motor_4.png","70","motor","","","","","","",""
"588","","295231","HierDyck333u61","2050mf6t3h","ms1000377","motor","","68","img/motor_3.png","68","motor","3","151","1","0","0","",""
"null","","295339","HierDyck333u61","2050mf6t3h","ms1000377","iti","","null","img/motor_3.png","68","motor","","","","","","",""
"540","","295887","HierDyck333u61","2050mf6t3h","ms1000377","motor","","65","img/motor_1.png","65","motor","1","152","1","0","0","",""
"null","","295996","HierDyck333u61","2050mf6t3h","ms1000377","iti","","null","img/motor_1.png","65","motor","","","","","","",""
"1004","","297008","HierDyck333u61","2050mf6t3h","ms1000377","motor","","74","img/motor_6.png","74","motor","6","153","1","0","0","",""
"null","","297115","HierDyck333u61","2050mf6t3h","ms1000377","iti","","null","img/motor_6.png","74","motor","","","","","","",""
"2388","","299512","HierDyck333u61","2050mf6t3h","ms1000377","motor","","83","img/motor_3.png","68","motor","3","154","0","1","0","",""
"481","","300000","HierDyck333u61","2050mf6t3h","ms1000377","motorRepeat","","68","img/motor_3.png","68","motor","3","154","1","0","0","",""
"null","","300108","HierDyck333u61","2050mf6t3h","ms1000377","iti","","null","img/motor_3.png","68","motor","","","","","","",""
"620","","300742","HierDyck333u61","2050mf6t3h","ms1000377","motor","","65","img/motor_1.png","65","motor","1","155","1","0","0","",""
"null","","300852","HierDyck333u61","2050mf6t3h","ms1000377","iti","","null","img/motor_1.png","65","motor","","","","","","",""
"1132","","301992","HierDyck333u61","2050mf6t3h","ms1000377","motor","","72","img/motor_6.png","74","motor","6","156","0","1","0","",""
"263","","302264","HierDyck333u61","2050mf6t3h","ms1000377","motorRepeat","","74","img/motor_6.png","74","motor","6","156","1","0","0","",""
"null","","302379","HierDyck333u61","2050mf6t3h","ms1000377","iti","","null","img/motor_6.png","74","motor","","","","","","",""
"1302","","303694","HierDyck333u61","2050mf6t3h","ms1000377","motor","","68","img/motor_3.png","68","motor","3","157","1","0","0","",""
"null","","303810","HierDyck333u61","2050mf6t3h","ms1000377","iti","","null","img/motor_3.png","68","motor","","","","","","",""
"636","","304456","HierDyck333u61","2050mf6t3h","ms1000377","motor","","76","img/motor_8.png","76","motor","8","158","1","0","0","",""
"null","","304570","HierDyck333u61","2050mf6t3h","ms1000377","iti","","null","img/motor_8.png","76","motor","","","","","","",""
"629","","305206","HierDyck333u61","2050mf6t3h","ms1000377","motor","","72","img/motor_5.png","72","motor","5","159","1","0","0","",""
"null","","305314","HierDyck333u61","2050mf6t3h","ms1000377","iti","","null","img/motor_5.png","72","motor","","","","","","",""
"941","","306264","HierDyck333u61","2050mf6t3h","ms1000377","motor","","68","img/motor_3.png","68","motor","3","160","1","0","0","",""
"null","","306373","HierDyck333u61","2050mf6t3h","ms1000377","iti","","null","img/motor_3.png","68","motor","","","","","","",""
"1763","","308150","HierDyck333u61","2050mf6t3h","ms1000377","motor","","72","img/motor_5.png","72","motor","5","161","1","0","0","",""
"null","","308259","HierDyck333u61","2050mf6t3h","ms1000377","iti","","null","img/motor_5.png","72","motor","","","","","","",""
"469","","308736","HierDyck333u61","2050mf6t3h","ms1000377","motor","","72","img/motor_5.png","72","motor","5","162","1","0","0","",""
"null","","308845","HierDyck333u61","2050mf6t3h","ms1000377","iti","","null","img/motor_5.png","72","motor","","","","","","",""
"443","","309296","HierDyck333u61","2050mf6t3h","ms1000377","motor","","74","img/motor_6.png","74","motor","6","163","1","0","0","",""
"null","","309404","HierDyck333u61","2050mf6t3h","ms1000377","iti","","null","img/motor_6.png","74","motor","","","","","","",""
"805","","310222","HierDyck333u61","2050mf6t3h","ms1000377","motor","","65","img/motor_1.png","65","motor","1","164","1","0","0","",""
"null","","310338","HierDyck333u61","2050mf6t3h","ms1000377","iti","","null","img/motor_1.png","65","motor","","","","","","",""
"2709","","313062","HierDyck333u61","2050mf6t3h","ms1000377","motor","","83","img/motor_2.png","83","motor","2","165","1","0","0","",""
"null","","313171","HierDyck333u61","2050mf6t3h","ms1000377","iti","","null","img/motor_2.png","83","motor","","","","","","",""
"941","","314120","HierDyck333u61","2050mf6t3h","ms1000377","motor","","72","img/motor_5.png","72","motor","5","166","1","0","0","",""
"null","","314228","HierDyck333u61","2050mf6t3h","ms1000377","iti","","null","img/motor_5.png","72","motor","","","","","","",""
"523","","314760","HierDyck333u61","2050mf6t3h","ms1000377","motor","","65","img/motor_1.png","65","motor","1","167","1","0","0","",""
"null","","314875","HierDyck333u61","2050mf6t3h","ms1000377","iti","","null","img/motor_1.png","65","motor","","","","","","",""
"501","","315390","HierDyck333u61","2050mf6t3h","ms1000377","motor","","65","img/motor_1.png","65","motor","1","168","1","0","0","",""
"null","","315505","HierDyck333u61","2050mf6t3h","ms1000377","iti","","null","img/motor_1.png","65","motor","","","","","","",""
"606","","316127","HierDyck333u61","2050mf6t3h","ms1000377","motor","","70","img/motor_4.png","70","motor","4","169","1","0","0","",""
"null","","316242","HierDyck333u61","2050mf6t3h","ms1000377","iti","","null","img/motor_4.png","70","motor","","","","","","",""
"805","","317055","HierDyck333u61","2050mf6t3h","ms1000377","motor","","75","img/motor_7.png","75","motor","7","170","1","0","0","",""
"null","","317170","HierDyck333u61","2050mf6t3h","ms1000377","iti","","null","img/motor_7.png","75","motor","","","","","","",""
"500","","317679","HierDyck333u61","2050mf6t3h","ms1000377","motor","","74","img/motor_6.png","74","motor","6","171","1","0","0","",""
"null","","317794","HierDyck333u61","2050mf6t3h","ms1000377","iti","","null","img/motor_6.png","74","motor","","","","","","",""
"469","","318278","HierDyck333u61","2050mf6t3h","ms1000377","motor","","72","img/motor_5.png","72","motor","5","172","1","0","0","",""
"null","","318387","HierDyck333u61","2050mf6t3h","ms1000377","iti","","null","img/motor_5.png","72","motor","","","","","","",""
"629","","319030","HierDyck333u61","2050mf6t3h","ms1000377","motor","","83","img/motor_2.png","83","motor","2","173","1","0","0","",""
"null","","319145","HierDyck333u61","2050mf6t3h","ms1000377","iti","","null","img/motor_2.png","83","motor","","","","","","",""
"869","","320024","HierDyck333u61","2050mf6t3h","ms1000377","motor","","74","img/motor_6.png","74","motor","6","174","1","0","0","",""
"null","","320138","HierDyck333u61","2050mf6t3h","ms1000377","iti","","null","img/motor_6.png","74","motor","","","","","","",""
"364","","320512","HierDyck333u61","2050mf6t3h","ms1000377","motor","","75","img/motor_7.png","75","motor","7","175","1","0","0","",""
"null","","320620","HierDyck333u61","2050mf6t3h","ms1000377","iti","","null","img/motor_7.png","75","motor","","","","","","",""
"268","","320896","HierDyck333u61","2050mf6t3h","ms1000377","motor","","76","img/motor_8.png","76","motor","8","176","1","0","0","",""
"null","","321004","HierDyck333u61","2050mf6t3h","ms1000377","iti","","null","img/motor_8.png","76","motor","","","","","","",""
"685","","321695","HierDyck333u61","2050mf6t3h","ms1000377","motor","","75","img/motor_7.png","75","motor","7","177","1","0","0","",""
"null","","321803","HierDyck333u61","2050mf6t3h","ms1000377","iti","","null","img/motor_7.png","75","motor","","","","","","",""
"581","","322391","HierDyck333u61","2050mf6t3h","ms1000377","motor","","70","img/motor_4.png","70","motor","4","178","1","0","0","",""
"null","","322506","HierDyck333u61","2050mf6t3h","ms1000377","iti","","null","img/motor_4.png","70","motor","","","","","","",""
"502","","323023","HierDyck333u61","2050mf6t3h","ms1000377","motor","","74","img/motor_5.png","72","motor","5","179","0","1","0","",""
"297","","323334","HierDyck333u61","2050mf6t3h","ms1000377","motorRepeat","","74","img/motor_5.png","72","motor","5","179","0","1","0","",""
"97","","323446","HierDyck333u61","2050mf6t3h","ms1000377","motorRepeat","","72","img/motor_5.png","72","motor","5","179","1","0","0","",""
"null","","323561","HierDyck333u61","2050mf6t3h","ms1000377","iti","","null","img/motor_5.png","72","motor","","","","","","",""
"118","","323688","HierDyck333u61","2050mf6t3h","ms1000377","motor","","72","img/motor_1.png","65","motor","1","180","0","1","0","",""
"576","","324272","HierDyck333u61","2050mf6t3h","ms1000377","motorRepeat","","65","img/motor_1.png","65","motor","1","180","1","0","0","",""
"null","","324380","HierDyck333u61","2050mf6t3h","ms1000377","iti","","null","img/motor_1.png","65","motor","","","","","","",""
"676","","325070","HierDyck333u61","2050mf6t3h","ms1000377","motor","","75","img/motor_7.png","75","motor","7","181","1","0","0","",""
"null","","325186","HierDyck333u61","2050mf6t3h","ms1000377","iti","","null","img/motor_7.png","75","motor","","","","","","",""
"1422","","326615","HierDyck333u61","2050mf6t3h","ms1000377","motor","","74","img/motor_6.png","74","motor","6","182","1","0","0","",""
"null","","326730","HierDyck333u61","2050mf6t3h","ms1000377","iti","","null","img/motor_6.png","74","motor","","","","","","",""
"485","","327223","HierDyck333u61","2050mf6t3h","ms1000377","motor","","74","img/motor_7.png","75","motor","7","183","0","1","0","",""
"232","","327470","HierDyck333u61","2050mf6t3h","ms1000377","motorRepeat","","75","img/motor_7.png","75","motor","7","183","1","0","0","",""
"null","","327586","HierDyck333u61","2050mf6t3h","ms1000377","iti","","null","img/motor_7.png","75","motor","","","","","","",""
"430","","328026","HierDyck333u61","2050mf6t3h","ms1000377","motor","","72","img/motor_5.png","72","motor","5","184","1","0","0","",""
"null","","328142","HierDyck333u61","2050mf6t3h","ms1000377","iti","","null","img/motor_5.png","72","motor","","","","","","",""
"503","","328655","HierDyck333u61","2050mf6t3h","ms1000377","motor","","76","img/motor_8.png","76","motor","8","185","1","0","0","",""
"null","","328763","HierDyck333u61","2050mf6t3h","ms1000377","iti","","null","img/motor_8.png","76","motor","","","","","","",""
"372","","329151","HierDyck333u61","2050mf6t3h","ms1000377","motor","","76","img/motor_8.png","76","motor","8","186","1","0","0","",""
"null","","329269","HierDyck333u61","2050mf6t3h","ms1000377","iti","","null","img/motor_8.png","76","motor","","","","","","",""
"801","","330080","HierDyck333u61","2050mf6t3h","ms1000377","motor","","83","img/motor_2.png","83","motor","2","187","1","0","0","",""
"null","","330195","HierDyck333u61","2050mf6t3h","ms1000377","iti","","null","img/motor_2.png","83","motor","","","","","","",""
"581","","330782","HierDyck333u61","2050mf6t3h","ms1000377","motor","","76","img/motor_7.png","75","motor","7","188","0","1","0","",""
"290","","331081","HierDyck333u61","2050mf6t3h","ms1000377","motorRepeat","","75","img/motor_7.png","75","motor","7","188","1","0","0","",""
"null","","331189","HierDyck333u61","2050mf6t3h","ms1000377","iti","","null","img/motor_7.png","75","motor","","","","","","",""
"819","","332023","HierDyck333u61","2050mf6t3h","ms1000377","motor","","83","img/motor_2.png","83","motor","2","189","1","0","0","",""
"null","","332138","HierDyck333u61","2050mf6t3h","ms1000377","iti","","null","img/motor_2.png","83","motor","","","","","","",""
"748","","332903","HierDyck333u61","2050mf6t3h","ms1000377","motor","","70","img/motor_4.png","70","motor","4","190","1","0","0","",""
"null","","333018","HierDyck333u61","2050mf6t3h","ms1000377","iti","","null","img/motor_4.png","70","motor","","","","","","",""
"437","","333471","HierDyck333u61","2050mf6t3h","ms1000377","motor","","65","img/motor_1.png","65","motor","1","191","1","0","0","",""
"null","","333587","HierDyck333u61","2050mf6t3h","ms1000377","iti","","null","img/motor_1.png","65","motor","","","","","","",""
"708","","334312","HierDyck333u61","2050mf6t3h","ms1000377","motor","","74","img/motor_6.png","74","motor","6","192","1","0","0","",""
"null","","334427","HierDyck333u61","2050mf6t3h","ms1000377","iti","","null","img/motor_6.png","74","motor","","","","","","",""
"477","","334919","HierDyck333u61","2050mf6t3h","ms1000377","motor","","76","img/motor_8.png","76","motor","8","193","1","0","0","",""
"null","","335028","HierDyck333u61","2050mf6t3h","ms1000377","iti","","null","img/motor_8.png","76","motor","","","","","","",""
"515","","335552","HierDyck333u61","2050mf6t3h","ms1000377","motor","","70","img/motor_3.png","68","motor","3","194","0","1","0","",""
"280","","335839","HierDyck333u61","2050mf6t3h","ms1000377","motorRepeat","","68","img/motor_3.png","68","motor","3","194","1","0","0","",""
"null","","335954","HierDyck333u61","2050mf6t3h","ms1000377","iti","","null","img/motor_3.png","68","motor","","","","","","",""
"989","","336952","HierDyck333u61","2050mf6t3h","ms1000377","motor","","72","img/motor_6.png","74","motor","6","195","0","1","0","",""
"240","","337201","HierDyck333u61","2050mf6t3h","ms1000377","motorRepeat","","74","img/motor_6.png","74","motor","6","195","1","0","0","",""
"null","","337315","HierDyck333u61","2050mf6t3h","ms1000377","iti","","null","img/motor_6.png","74","motor","","","","","","",""
"556","","337880","HierDyck333u61","2050mf6t3h","ms1000377","motor","","72","img/motor_5.png","72","motor","5","196","1","0","0","",""
"null","","337995","HierDyck333u61","2050mf6t3h","ms1000377","iti","","null","img/motor_5.png","72","motor","","","","","","",""
"652","","338662","HierDyck333u61","2050mf6t3h","ms1000377","motor","","75","img/motor_6.png","74","motor","6","197","0","1","0","",""
"361","","339032","HierDyck333u61","2050mf6t3h","ms1000377","motorRepeat","","74","img/motor_6.png","74","motor","6","197","1","0","0","",""
"null","","339141","HierDyck333u61","2050mf6t3h","ms1000377","iti","","null","img/motor_6.png","74","motor","","","","","","",""
"507","","339662","HierDyck333u61","2050mf6t3h","ms1000377","motor","","76","img/motor_8.png","76","motor","8","198","1","0","0","",""
"null","","339778","HierDyck333u61","2050mf6t3h","ms1000377","iti","","null","img/motor_8.png","76","motor","","","","","","",""
"582","","340367","HierDyck333u61","2050mf6t3h","ms1000377","motor","","65","img/motor_1.png","65","motor","1","199","1","0","0","",""
"null","","340482","HierDyck333u61","2050mf6t3h","ms1000377","iti","","null","img/motor_1.png","65","motor","","","","","","",""
"886","","341377","HierDyck333u61","2050mf6t3h","ms1000377","motor","","75","img/motor_7.png","75","motor","7","200","1","0","0","",""
"null","","341492","HierDyck333u61","2050mf6t3h","ms1000377","iti","","null","img/motor_7.png","75","motor","","","","","","",""
"540","","342046","HierDyck333u61","2050mf6t3h","ms1000377","motor","","76","img/motor_8.png","76","motor","8","201","1","0","0","",""
"null","","342155","HierDyck333u61","2050mf6t3h","ms1000377","iti","","null","img/motor_8.png","76","motor","","","","","","",""
"396","","342567","HierDyck333u61","2050mf6t3h","ms1000377","motor","","75","img/motor_7.png","75","motor","7","202","1","0","0","",""
"null","","342676","HierDyck333u61","2050mf6t3h","ms1000377","iti","","null","img/motor_7.png","75","motor","","","","","","",""
"557","","343247","HierDyck333u61","2050mf6t3h","ms1000377","motor","","75","img/motor_7.png","75","motor","7","203","1","0","0","",""
"null","","343356","HierDyck333u61","2050mf6t3h","ms1000377","iti","","null","img/motor_7.png","75","motor","","","","","","",""
"491","","343856","HierDyck333u61","2050mf6t3h","ms1000377","motor","","65","img/motor_1.png","65","motor","1","204","1","0","0","",""
"null","","343970","HierDyck333u61","2050mf6t3h","ms1000377","iti","","null","img/motor_1.png","65","motor","","","","","","",""
"436","","344416","HierDyck333u61","2050mf6t3h","ms1000377","motor","","65","img/motor_1.png","65","motor","1","205","1","0","0","",""
"null","","344525","HierDyck333u61","2050mf6t3h","ms1000377","iti","","null","img/motor_1.png","65","motor","","","","","","",""
"1187","","345727","HierDyck333u61","2050mf6t3h","ms1000377","motor","","74","img/motor_6.png","74","motor","6","206","1","0","0","",""
"null","","345842","HierDyck333u61","2050mf6t3h","ms1000377","iti","","null","img/motor_6.png","74","motor","","","","","","",""
"461","","346313","HierDyck333u61","2050mf6t3h","ms1000377","motor","","76","img/motor_8.png","76","motor","8","207","1","0","0","",""
"null","","346422","HierDyck333u61","2050mf6t3h","ms1000377","iti","","null","img/motor_8.png","76","motor","","","","","","",""
"563","","346992","HierDyck333u61","2050mf6t3h","ms1000377","motor","","74","img/motor_6.png","74","motor","6","208","1","0","0","",""
"1","","347100","HierDyck333u61","2050mf6t3h","ms1000377","iti","","72","img/motor_6.png","74","motor","","","","","","",""
"693","","347801","HierDyck333u61","2050mf6t3h","ms1000377","motor","","75","img/motor_7.png","75","motor","7","209","1","0","0","",""
"null","","347916","HierDyck333u61","2050mf6t3h","ms1000377","iti","","null","img/motor_7.png","75","motor","","","","","","",""
"475","","348400","HierDyck333u61","2050mf6t3h","ms1000377","motor","","65","img/motor_1.png","65","motor","1","210","1","0","0","",""
"null","","348515","HierDyck333u61","2050mf6t3h","ms1000377","iti","","null","img/motor_1.png","65","motor","","","","","","",""
"637","","349160","HierDyck333u61","2050mf6t3h","ms1000377","motor","","74","img/motor_6.png","74","motor","6","211","1","0","0","",""
"null","","349275","HierDyck333u61","2050mf6t3h","ms1000377","iti","","null","img/motor_6.png","74","motor","","","","","","",""
"638","","349927","HierDyck333u61","2050mf6t3h","ms1000377","motor","","70","img/motor_4.png","70","motor","4","212","1","0","0","",""
"null","","350043","HierDyck333u61","2050mf6t3h","ms1000377","iti","","null","img/motor_4.png","70","motor","","","","","","",""
"461","","350512","HierDyck333u61","2050mf6t3h","ms1000377","motor","","74","img/motor_5.png","72","motor","5","213","0","1","0","",""
"263","","350791","HierDyck333u61","2050mf6t3h","ms1000377","motorRepeat","","70","img/motor_5.png","72","motor","5","213","0","1","0","",""
"248","","351048","HierDyck333u61","2050mf6t3h","ms1000377","motorRepeat","","72","img/motor_5.png","72","motor","5","213","1","0","0","",""
"null","","351164","HierDyck333u61","2050mf6t3h","ms1000377","iti","","null","img/motor_5.png","72","motor","","","","","","",""
"636","","351808","HierDyck333u61","2050mf6t3h","ms1000377","motor","","72","img/motor_5.png","72","motor","5","214","1","0","0","",""
"null","","351916","HierDyck333u61","2050mf6t3h","ms1000377","iti","","null","img/motor_5.png","72","motor","","","","","","",""
"500","","352424","HierDyck333u61","2050mf6t3h","ms1000377","motor","","68","img/motor_4.png","70","motor","4","215","0","1","0","",""
"312","","352750","HierDyck333u61","2050mf6t3h","ms1000377","motorRepeat","","70","img/motor_4.png","70","motor","4","215","1","0","0","",""
"null","","352866","HierDyck333u61","2050mf6t3h","ms1000377","iti","","null","img/motor_4.png","70","motor","","","","","","",""
"702","","353582","HierDyck333u61","2050mf6t3h","ms1000377","motor","","70","img/motor_4.png","70","motor","4","216","1","0","0","",""
"null","","353692","HierDyck333u61","2050mf6t3h","ms1000377","iti","","null","img/motor_4.png","70","motor","","","","","","",""
"483","","354184","HierDyck333u61","2050mf6t3h","ms1000377","motor","","74","img/motor_7.png","75","motor","7","217","0","1","0","",""
"279","","354472","HierDyck333u61","2050mf6t3h","ms1000377","motorRepeat","","75","img/motor_7.png","75","motor","7","217","1","0","0","",""
"null","","354587","HierDyck333u61","2050mf6t3h","ms1000377","iti","","null","img/motor_7.png","75","motor","","","","","","",""
"909","","355511","HierDyck333u61","2050mf6t3h","ms1000377","motor","","70","img/motor_4.png","70","motor","4","218","1","0","0","",""
"null","","355627","HierDyck333u61","2050mf6t3h","ms1000377","iti","","null","img/motor_4.png","70","motor","","","","","","",""
"861","","356503","HierDyck333u61","2050mf6t3h","ms1000377","motor","","75","img/motor_7.png","75","motor","7","219","1","0","0","",""
"null","","356618","HierDyck333u61","2050mf6t3h","ms1000377","iti","","null","img/motor_7.png","75","motor","","","","","","",""
"389","","357016","HierDyck333u61","2050mf6t3h","ms1000377","motor","","75","img/motor_7.png","75","motor","7","220","1","0","0","",""
"null","","357124","HierDyck333u61","2050mf6t3h","ms1000377","iti","","null","img/motor_7.png","75","motor","","","","","","",""
"651","","357783","HierDyck333u61","2050mf6t3h","ms1000377","motor","","83","img/motor_2.png","83","motor","2","221","1","0","0","",""
"null","","357892","HierDyck333u61","2050mf6t3h","ms1000377","iti","","null","img/motor_2.png","83","motor","","","","","","",""
"764","","358664","HierDyck333u61","2050mf6t3h","ms1000377","motor","","70","img/motor_4.png","70","motor","4","222","1","0","0","",""
"null","","358779","HierDyck333u61","2050mf6t3h","ms1000377","iti","","null","img/motor_4.png","70","motor","","","","","","",""
"645","","359439","HierDyck333u61","2050mf6t3h","ms1000377","motor","","68","img/motor_3.png","68","motor","3","223","1","0","0","",""
"null","","359554","HierDyck333u61","2050mf6t3h","ms1000377","iti","","null","img/motor_3.png","68","motor","","","","","","",""
"605","","360169","HierDyck333u61","2050mf6t3h","ms1000377","motor","","75","img/motor_7.png","75","motor","7","224","1","0","0","",""
"null","","360277","HierDyck333u61","2050mf6t3h","ms1000377","iti","","null","img/motor_7.png","75","motor","","","","","","",""
"428","","360712","HierDyck333u61","2050mf6t3h","ms1000377","motor","","76","img/motor_8.png","76","motor","8","225","1","0","0","",""
"null","","360827","HierDyck333u61","2050mf6t3h","ms1000377","iti","","null","img/motor_8.png","76","motor","","","","","","",""
"708","","361544","HierDyck333u61","2050mf6t3h","ms1000377","motor","","75","img/motor_7.png","75","motor","7","226","1","0","0","",""
"null","","361659","HierDyck333u61","2050mf6t3h","ms1000377","iti","","null","img/motor_7.png","75","motor","","","","","","",""
"500","","362168","HierDyck333u61","2050mf6t3h","ms1000377","motor","","76","img/motor_7.png","75","motor","7","227","0","1","0","",""
"89","","362271","HierDyck333u61","2050mf6t3h","ms1000377","motorRepeat","","75","img/motor_7.png","75","motor","7","227","1","0","0","",""
"null","","362387","HierDyck333u61","2050mf6t3h","ms1000377","iti","","null","img/motor_7.png","75","motor","","","","","","",""
"525","","362920","HierDyck333u61","2050mf6t3h","ms1000377","motor","","74","img/motor_6.png","74","motor","6","228","1","0","0","",""
"null","","363028","HierDyck333u61","2050mf6t3h","ms1000377","iti","","null","img/motor_6.png","74","motor","","","","","","",""
"500","","363543","HierDyck333u61","2050mf6t3h","ms1000377","motor","","74","img/motor_6.png","74","motor","6","229","1","0","0","",""
"null","","363659","HierDyck333u61","2050mf6t3h","ms1000377","iti","","null","img/motor_6.png","74","motor","","","","","","",""
"556","","364224","HierDyck333u61","2050mf6t3h","ms1000377","motor","","65","img/motor_1.png","65","motor","1","230","1","0","0","",""
"null","","364339","HierDyck333u61","2050mf6t3h","ms1000377","iti","","null","img/motor_1.png","65","motor","","","","","","",""
"677","","365031","HierDyck333u61","2050mf6t3h","ms1000377","motor","","74","img/motor_6.png","74","motor","6","231","1","0","0","",""
"null","","365140","HierDyck333u61","2050mf6t3h","ms1000377","iti","","null","img/motor_6.png","74","motor","","","","","","",""
"684","","365838","HierDyck333u61","2050mf6t3h","ms1000377","motor","","70","img/motor_3.png","68","motor","3","232","0","1","0","",""
"272","","366127","HierDyck333u61","2050mf6t3h","ms1000377","motorRepeat","","68","img/motor_3.png","68","motor","3","232","1","0","0","",""
"null","","366236","HierDyck333u61","2050mf6t3h","ms1000377","iti","","null","img/motor_3.png","68","motor","","","","","","",""
"716","","366967","HierDyck333u61","2050mf6t3h","ms1000377","motor","","70","img/motor_5.png","72","motor","5","233","0","1","0","",""
"264","","367240","HierDyck333u61","2050mf6t3h","ms1000377","motorRepeat","","72","img/motor_5.png","72","motor","5","233","1","0","0","",""
"null","","367348","HierDyck333u61","2050mf6t3h","ms1000377","iti","","null","img/motor_5.png","72","motor","","","","","","",""
"1220","","368576","HierDyck333u61","2050mf6t3h","ms1000377","motor","","70","img/motor_4.png","70","motor","4","234","1","0","0","",""
"null","","368691","HierDyck333u61","2050mf6t3h","ms1000377","iti","","null","img/motor_4.png","70","motor","","","","","","",""
"548","","369255","HierDyck333u61","2050mf6t3h","ms1000377","motor","","76","img/motor_8.png","76","motor","8","235","1","0","0","",""
"null","","369370","HierDyck333u61","2050mf6t3h","ms1000377","iti","","null","img/motor_8.png","76","motor","","","","","","",""
"1046","","370424","HierDyck333u61","2050mf6t3h","ms1000377","motor","","68","img/motor_3.png","68","motor","3","236","1","0","0","",""
"null","","370539","HierDyck333u61","2050mf6t3h","ms1000377","iti","","null","img/motor_3.png","68","motor","","","","","","",""
"1181","","371728","HierDyck333u61","2050mf6t3h","ms1000377","motor","","72","img/motor_5.png","72","motor","5","237","1","0","0","",""
"null","","371844","HierDyck333u61","2050mf6t3h","ms1000377","iti","","null","img/motor_5.png","72","motor","","","","","","",""
"620","","372471","HierDyck333u61","2050mf6t3h","ms1000377","motor","","74","img/motor_6.png","74","motor","6","238","1","0","0","",""
"null","","372579","HierDyck333u61","2050mf6t3h","ms1000377","iti","","null","img/motor_6.png","74","motor","","","","","","",""
"685","","373272","HierDyck333u61","2050mf6t3h","ms1000377","motor","","68","img/motor_3.png","68","motor","3","239","1","0","0","",""
"null","","373380","HierDyck333u61","2050mf6t3h","ms1000377","iti","","null","img/motor_3.png","68","motor","","","","","","",""
"644","","374032","HierDyck333u61","2050mf6t3h","ms1000377","motor","","74","img/motor_6.png","74","motor","6","240","1","0","0","",""
"null","","374147","HierDyck333u61","2050mf6t3h","ms1000377","iti","","null","img/motor_6.png","74","motor","","","","","","",""
"707","","374864","HierDyck333u61","2050mf6t3h","ms1000377","motor","","68","img/motor_2.png","83","motor","2","241","0","1","0","",""
"359","","375232","HierDyck333u61","2050mf6t3h","ms1000377","motorRepeat","","83","img/motor_2.png","83","motor","2","241","1","0","0","",""
"null","","375341","HierDyck333u61","2050mf6t3h","ms1000377","iti","","null","img/motor_2.png","83","motor","","","","","","",""
"493","","375841","HierDyck333u61","2050mf6t3h","ms1000377","motor","","70","img/motor_4.png","70","motor","4","242","1","0","0","",""
"null","","375956","HierDyck333u61","2050mf6t3h","ms1000377","iti","","null","img/motor_4.png","70","motor","","","","","","",""
"484","","376454","HierDyck333u61","2050mf6t3h","ms1000377","motor","","70","img/motor_4.png","70","motor","4","243","1","0","0","",""
"null","","376564","HierDyck333u61","2050mf6t3h","ms1000377","iti","","null","img/motor_4.png","70","motor","","","","","","",""
"589","","377161","HierDyck333u61","2050mf6t3h","ms1000377","motor","","68","img/motor_3.png","68","motor","3","244","1","0","0","",""
"null","","377276","HierDyck333u61","2050mf6t3h","ms1000377","iti","","null","img/motor_3.png","68","motor","","","","","","",""
"476","","377767","HierDyck333u61","2050mf6t3h","ms1000377","motor","","70","img/motor_4.png","70","motor","4","245","1","0","0","",""
"null","","377876","HierDyck333u61","2050mf6t3h","ms1000377","iti","","null","img/motor_4.png","70","motor","","","","","","",""
"979","","378871","HierDyck333u61","2050mf6t3h","ms1000377","motor","","74","img/motor_6.png","74","motor","6","246","1","0","0","",""
"null","","378987","HierDyck333u61","2050mf6t3h","ms1000377","iti","","null","img/motor_6.png","74","motor","","","","","","",""
"558","","379552","HierDyck333u61","2050mf6t3h","ms1000377","motor","","65","img/motor_1.png","65","motor","1","247","1","0","0","",""
"null","","379661","HierDyck333u61","2050mf6t3h","ms1000377","iti","","null","img/motor_1.png","65","motor","","","","","","",""
"596","","380265","HierDyck333u61","2050mf6t3h","ms1000377","motor","","76","img/motor_8.png","76","motor","8","248","1","0","0","",""
"null","","380373","HierDyck333u61","2050mf6t3h","ms1000377","iti","","null","img/motor_8.png","76","motor","","","","","","",""
"716","","381097","HierDyck333u61","2050mf6t3h","ms1000377","motor","","68","img/motor_3.png","68","motor","3","249","1","0","0","",""
"null","","381205","HierDyck333u61","2050mf6t3h","ms1000377","iti","","null","img/motor_3.png","68","motor","","","","","","",""
"747","","381960","HierDyck333u61","2050mf6t3h","ms1000377","motor","","75","img/motor_7.png","75","motor","7","250","1","0","0","",""
"null","","382069","HierDyck333u61","2050mf6t3h","ms1000377","iti","","null","img/motor_7.png","75","motor","","","","","","",""
"562","","382641","HierDyck333u61","2050mf6t3h","ms1000377","motor","","68","img/motor_3.png","68","motor","3","251","1","0","0","",""
"null","","382756","HierDyck333u61","2050mf6t3h","ms1000377","iti","","null","img/motor_3.png","68","motor","","","","","","",""
"668","","383440","HierDyck333u61","2050mf6t3h","ms1000377","motor","","83","img/motor_2.png","83","motor","2","252","1","0","0","",""
"null","","383548","HierDyck333u61","2050mf6t3h","ms1000377","iti","","null","img/motor_2.png","83","motor","","","","","","",""
"548","","384104","HierDyck333u61","2050mf6t3h","ms1000377","motor","","74","img/motor_7.png","75","motor","7","253","0","1","0","",""
"328","","384441","HierDyck333u61","2050mf6t3h","ms1000377","motorRepeat","","75","img/motor_7.png","75","motor","7","253","1","0","0","",""
"null","","384556","HierDyck333u61","2050mf6t3h","ms1000377","iti","","null","img/motor_7.png","75","motor","","","","","","",""
"595","","385160","HierDyck333u61","2050mf6t3h","ms1000377","motor","","68","img/motor_2.png","83","motor","2","254","0","1","0","",""
"464","","385632","HierDyck333u61","2050mf6t3h","ms1000377","motorRepeat","","83","img/motor_2.png","83","motor","2","254","1","0","0","",""
"null","","385740","HierDyck333u61","2050mf6t3h","ms1000377","iti","","null","img/motor_2.png","83","motor","","","","","","",""
"796","","386544","HierDyck333u61","2050mf6t3h","ms1000377","motor","","75","img/motor_7.png","75","motor","7","255","1","0","0","",""
"null","","386659","HierDyck333u61","2050mf6t3h","ms1000377","iti","","null","img/motor_7.png","75","motor","","","","","","",""
"397","","387071","HierDyck333u61","2050mf6t3h","ms1000377","motor","","76","img/motor_8.png","76","motor","8","256","1","0","0","",""
"null","","387180","HierDyck333u61","2050mf6t3h","ms1000377","iti","","null","img/motor_8.png","76","motor","","","","","","",""
"508","","387704","HierDyck333u61","2050mf6t3h","ms1000377","motor","","65","img/motor_1.png","65","motor","1","257","1","0","0","",""
"null","","387819","HierDyck333u61","2050mf6t3h","ms1000377","iti","","null","img/motor_1.png","65","motor","","","","","","",""
"508","","388343","HierDyck333u61","2050mf6t3h","ms1000377","motor","","76","img/motor_8.png","76","motor","8","258","1","0","0","",""
"null","","388459","HierDyck333u61","2050mf6t3h","ms1000377","iti","","null","img/motor_8.png","76","motor","","","","","","",""
"861","","389335","HierDyck333u61","2050mf6t3h","ms1000377","motor","","70","img/motor_4.png","70","motor","4","259","1","0","0","",""
"null","","389444","HierDyck333u61","2050mf6t3h","ms1000377","iti","","null","img/motor_4.png","70","motor","","","","","","",""
"660","","390111","HierDyck333u61","2050mf6t3h","ms1000377","motor","","83","img/motor_2.png","83","motor","2","260","1","0","0","",""
"null","","390220","HierDyck333u61","2050mf6t3h","ms1000377","iti","","null","img/motor_2.png","83","motor","","","","","","",""
"693","","390927","HierDyck333u61","2050mf6t3h","ms1000377","motor","","75","img/motor_6.png","74","motor","6","261","0","1","0","",""
"233","","391175","HierDyck333u61","2050mf6t3h","ms1000377","motorRepeat","","68","img/motor_6.png","74","motor","6","261","0","1","0","",""
"297","","391481","HierDyck333u61","2050mf6t3h","ms1000377","motorRepeat","","74","img/motor_6.png","74","motor","6","261","1","0","0","",""
"null","","391590","HierDyck333u61","2050mf6t3h","ms1000377","iti","","null","img/motor_6.png","74","motor","","","","","","",""
"433","","392029","HierDyck333u61","2050mf6t3h","ms1000377","motor","","65","img/motor_1.png","65","motor","1","262","1","0","0","",""
"null","","392138","HierDyck333u61","2050mf6t3h","ms1000377","iti","","null","img/motor_1.png","65","motor","","","","","","",""
"709","","392864","HierDyck333u61","2050mf6t3h","ms1000377","motor","","75","img/motor_7.png","75","motor","7","263","1","0","0","",""
"null","","392980","HierDyck333u61","2050mf6t3h","ms1000377","iti","","null","img/motor_7.png","75","motor","","","","","","",""
"363","","393359","HierDyck333u61","2050mf6t3h","ms1000377","motor","","76","img/motor_8.png","76","motor","8","264","1","0","0","",""
"null","","393470","HierDyck333u61","2050mf6t3h","ms1000377","iti","","null","img/motor_8.png","76","motor","","","","","","",""
"346","","393824","HierDyck333u61","2050mf6t3h","ms1000377","motor","","76","img/motor_8.png","76","motor","8","265","1","0","0","",""
"null","","393939","HierDyck333u61","2050mf6t3h","ms1000377","iti","","null","img/motor_8.png","76","motor","","","","","","",""
"637","","394592","HierDyck333u61","2050mf6t3h","ms1000377","motor","","70","img/motor_4.png","70","motor","4","266","1","0","0","",""
"null","","394707","HierDyck333u61","2050mf6t3h","ms1000377","iti","","null","img/motor_4.png","70","motor","","","","","","",""
"660","","395375","HierDyck333u61","2050mf6t3h","ms1000377","motor","","75","img/motor_7.png","75","motor","7","267","1","0","0","",""
"null","","395491","HierDyck333u61","2050mf6t3h","ms1000377","iti","","null","img/motor_7.png","75","motor","","","","","","",""
"157","","395664","HierDyck333u61","2050mf6t3h","ms1000377","motor","","75","img/motor_1.png","65","motor","1","268","0","1","0","",""
"367","","396047","HierDyck333u61","2050mf6t3h","ms1000377","motorRepeat","","65","img/motor_1.png","65","motor","1","268","1","0","0","",""
"null","","396163","HierDyck333u61","2050mf6t3h","ms1000377","iti","","null","img/motor_1.png","65","motor","","","","","","",""
"813","","396991","HierDyck333u61","2050mf6t3h","ms1000377","motor","","74","img/motor_5.png","72","motor","5","269","0","1","0","",""
"303","","397304","HierDyck333u61","2050mf6t3h","ms1000377","motorRepeat","","70","img/motor_5.png","72","motor","5","269","0","1","0","",""
"121","","397433","HierDyck333u61","2050mf6t3h","ms1000377","motorRepeat","","72","img/motor_5.png","72","motor","5","269","1","0","0","",""
"null","","397542","HierDyck333u61","2050mf6t3h","ms1000377","iti","","null","img/motor_5.png","72","motor","","","","","","",""
"587","","398137","HierDyck333u61","2050mf6t3h","ms1000377","motor","","75","img/motor_7.png","75","motor","7","270","1","0","0","",""
"null","","398251","HierDyck333u61","2050mf6t3h","ms1000377","iti","","null","img/motor_7.png","75","motor","","","","","","",""
"549","","398808","HierDyck333u61","2050mf6t3h","ms1000377","motor","","72","img/motor_5.png","72","motor","5","271","1","0","0","",""
"null","","398924","HierDyck333u61","2050mf6t3h","ms1000377","iti","","null","img/motor_5.png","72","motor","","","","","","",""
"780","","399713","HierDyck333u61","2050mf6t3h","ms1000377","motor","","68","img/motor_3.png","68","motor","3","272","1","0","0","",""
"null","","399822","HierDyck333u61","2050mf6t3h","ms1000377","iti","","null","img/motor_3.png","68","motor","","","","","","",""
"443","","400272","HierDyck333u61","2050mf6t3h","ms1000377","motor","","68","img/motor_3.png","68","motor","3","273","1","0","0","",""
"null","","400381","HierDyck333u61","2050mf6t3h","ms1000377","iti","","null","img/motor_3.png","68","motor","","","","","","",""
"459","","400855","HierDyck333u61","2050mf6t3h","ms1000377","motor","","76","img/motor_8.png","76","motor","8","274","1","0","0","",""
"null","","400964","HierDyck333u61","2050mf6t3h","ms1000377","iti","","null","img/motor_8.png","76","motor","","","","","","",""
"756","","401728","HierDyck333u61","2050mf6t3h","ms1000377","motor","","74","img/motor_6.png","74","motor","6","275","1","0","0","",""
"null","","401837","HierDyck333u61","2050mf6t3h","ms1000377","iti","","null","img/motor_6.png","74","motor","","","","","","",""
"516","","402361","HierDyck333u61","2050mf6t3h","ms1000377","motor","","75","img/motor_7.png","75","motor","7","276","1","0","0","",""
"null","","402476","HierDyck333u61","2050mf6t3h","ms1000377","iti","","null","img/motor_7.png","75","motor","","","","","","",""
"587","","403080","HierDyck333u61","2050mf6t3h","ms1000377","motor","","65","img/motor_1.png","65","motor","1","277","1","0","0","",""
"null","","403189","HierDyck333u61","2050mf6t3h","ms1000377","iti","","null","img/motor_1.png","65","motor","","","","","","",""
"605","","403801","HierDyck333u61","2050mf6t3h","ms1000377","motor","","70","img/motor_4.png","70","motor","4","278","1","0","0","",""
"null","","403916","HierDyck333u61","2050mf6t3h","ms1000377","iti","","null","img/motor_4.png","70","motor","","","","","","",""
"500","","404425","HierDyck333u61","2050mf6t3h","ms1000377","motor","","68","img/motor_3.png","68","motor","3","279","1","0","0","",""
"null","","404540","HierDyck333u61","2050mf6t3h","ms1000377","iti","","null","img/motor_3.png","68","motor","","","","","","",""
"548","","405096","HierDyck333u61","2050mf6t3h","ms1000377","motor","","70","img/motor_4.png","70","motor","4","280","1","0","0","",""
"null","","405205","HierDyck333u61","2050mf6t3h","ms1000377","iti","","null","img/motor_4.png","70","motor","","","","","","",""
"476","","405695","HierDyck333u61","2050mf6t3h","ms1000377","motor","","65","img/motor_1.png","65","motor","1","281","1","0","0","",""
"null","","405804","HierDyck333u61","2050mf6t3h","ms1000377","iti","","null","img/motor_1.png","65","motor","","","","","","",""
"556","","406369","HierDyck333u61","2050mf6t3h","ms1000377","motor","","68","img/motor_3.png","68","motor","3","282","1","0","0","",""
"null","","406478","HierDyck333u61","2050mf6t3h","ms1000377","iti","","null","img/motor_3.png","68","motor","","","","","","",""
"907","","407393","HierDyck333u61","2050mf6t3h","ms1000377","motor","","74","img/motor_6.png","74","motor","6","283","1","0","0","",""
"null","","407507","HierDyck333u61","2050mf6t3h","ms1000377","iti","","null","img/motor_6.png","74","motor","","","","","","",""
"485","","408001","HierDyck333u61","2050mf6t3h","ms1000377","motor","","75","img/motor_7.png","75","motor","7","284","1","0","0","",""
"null","","408109","HierDyck333u61","2050mf6t3h","ms1000377","iti","","null","img/motor_7.png","75","motor","","","","","","",""
"571","","408688","HierDyck333u61","2050mf6t3h","ms1000377","motor","","70","img/motor_4.png","70","motor","4","285","1","0","0","",""
"null","","408796","HierDyck333u61","2050mf6t3h","ms1000377","iti","","null","img/motor_4.png","70","motor","","","","","","",""
"557","","409361","HierDyck333u61","2050mf6t3h","ms1000377","motor","","74","img/motor_7.png","75","motor","7","286","0","1","0","",""
"318","","409696","HierDyck333u61","2050mf6t3h","ms1000377","motorRepeat","","75","img/motor_7.png","75","motor","7","286","1","0","0","",""
"null","","409811","HierDyck333u61","2050mf6t3h","ms1000377","iti","","null","img/motor_7.png","75","motor","","","","","","",""
"533","","410353","HierDyck333u61","2050mf6t3h","ms1000377","motor","","65","img/motor_1.png","65","motor","1","287","1","0","0","",""
"null","","410460","HierDyck333u61","2050mf6t3h","ms1000377","iti","","null","img/motor_1.png","65","motor","","","","","","",""
"716","","411191","HierDyck333u61","2050mf6t3h","ms1000377","motor","","83","img/motor_2.png","83","motor","2","288","1","0","0","",""
"null","","411301","HierDyck333u61","2050mf6t3h","ms1000377","iti","","null","img/motor_2.png","83","motor","","","","","","",""
"652","","411961","HierDyck333u61","2050mf6t3h","ms1000377","motor","","83","img/motor_2.png","83","motor","2","289","1","0","0","",""
"null","","412076","HierDyck333u61","2050mf6t3h","ms1000377","iti","","null","img/motor_2.png","83","motor","","","","","","",""
"603","","412695","HierDyck333u61","2050mf6t3h","ms1000377","motor","","72","img/motor_5.png","72","motor","5","290","1","0","0","",""
"null","","412810","HierDyck333u61","2050mf6t3h","ms1000377","iti","","null","img/motor_5.png","72","motor","","","","","","",""
"590","","413409","HierDyck333u61","2050mf6t3h","ms1000377","motor","","83","img/motor_2.png","83","motor","2","291","1","0","0","",""
"null","","413523","HierDyck333u61","2050mf6t3h","ms1000377","iti","","null","img/motor_2.png","83","motor","","","","","","",""
"516","","414049","HierDyck333u61","2050mf6t3h","ms1000377","motor","","65","img/motor_1.png","65","motor","1","292","1","0","0","",""
"null","","414163","HierDyck333u61","2050mf6t3h","ms1000377","iti","","null","img/motor_1.png","65","motor","","","","","","",""
"621","","414799","HierDyck333u61","2050mf6t3h","ms1000377","motor","","68","img/motor_3.png","68","motor","3","293","1","0","0","",""
"null","","414908","HierDyck333u61","2050mf6t3h","ms1000377","iti","","null","img/motor_3.png","68","motor","","","","","","",""
"68","","414983","HierDyck333u61","2050mf6t3h","ms1000377","motor","","70","img/motor_8.png","76","motor","8","294","0","1","0","",""
"1241","","416239","HierDyck333u61","2050mf6t3h","ms1000377","motorRepeat","","76","img/motor_8.png","76","motor","8","294","1","0","0","",""
"null","","416356","HierDyck333u61","2050mf6t3h","ms1000377","iti","","null","img/motor_8.png","76","motor","","","","","","",""
"493","","416864","HierDyck333u61","2050mf6t3h","ms1000377","motor","","65","img/motor_1.png","65","motor","1","295","1","0","0","",""
"null","","416973","HierDyck333u61","2050mf6t3h","ms1000377","iti","","null","img/motor_1.png","65","motor","","","","","","",""
"540","","417521","HierDyck333u61","2050mf6t3h","ms1000377","motor","","68","img/motor_2.png","83","motor","2","296","0","1","0","",""
"495","","418031","HierDyck333u61","2050mf6t3h","ms1000377","motorRepeat","","68","img/motor_2.png","83","motor","2","296","0","1","0","",""
"113","","418152","HierDyck333u61","2050mf6t3h","ms1000377","motorRepeat","","83","img/motor_2.png","83","motor","2","296","1","0","0","",""
"null","","418260","HierDyck333u61","2050mf6t3h","ms1000377","iti","","null","img/motor_2.png","83","motor","","","","","","",""
"716","","418985","HierDyck333u61","2050mf6t3h","ms1000377","motor","","65","img/motor_1.png","65","motor","1","297","1","0","0","",""
"null","","419099","HierDyck333u61","2050mf6t3h","ms1000377","iti","","null","img/motor_1.png","65","motor","","","","","","",""
"564","","419673","HierDyck333u61","2050mf6t3h","ms1000377","motor","","70","img/motor_5.png","72","motor","5","298","0","1","0","",""
"312","","419993","HierDyck333u61","2050mf6t3h","ms1000377","motorRepeat","","72","img/motor_5.png","72","motor","5","298","1","0","0","",""
"null","","420101","HierDyck333u61","2050mf6t3h","ms1000377","iti","","null","img/motor_5.png","72","motor","","","","","","",""
"516","","420632","HierDyck333u61","2050mf6t3h","ms1000377","motor","","65","img/motor_1.png","65","motor","1","299","1","0","0","",""
"null","","420748","HierDyck333u61","2050mf6t3h","ms1000377","iti","","null","img/motor_1.png","65","motor","","","","","","",""
"596","","421353","HierDyck333u61","2050mf6t3h","ms1000377","motor","","76","img/motor_8.png","76","motor","8","300","1","0","0","",""
"null","","421469","HierDyck333u61","2050mf6t3h","ms1000377","iti","","null","img/motor_8.png","76","motor","","","","","","",""
"404","","421887","HierDyck333u61","2050mf6t3h","ms1000377","motor","","65","img/motor_1.png","65","motor","1","301","1","0","0","",""
"null","","422003","HierDyck333u61","2050mf6t3h","ms1000377","iti","","null","img/motor_1.png","65","motor","","","","","","",""
"629","","422641","HierDyck333u61","2050mf6t3h","ms1000377","motor","","83","img/motor_2.png","83","motor","2","302","1","0","0","",""
"null","","422749","HierDyck333u61","2050mf6t3h","ms1000377","iti","","null","img/motor_2.png","83","motor","","","","","","",""
"612","","423368","HierDyck333u61","2050mf6t3h","ms1000377","motor","","70","img/motor_4.png","70","motor","4","303","1","0","0","",""
"null","","423484","HierDyck333u61","2050mf6t3h","ms1000377","iti","","null","img/motor_4.png","70","motor","","","","","","",""
"580","","424080","HierDyck333u61","2050mf6t3h","ms1000377","motor","","68","img/motor_3.png","68","motor","3","304","1","0","0","",""
"null","","424189","HierDyck333u61","2050mf6t3h","ms1000377","iti","","null","img/motor_3.png","68","motor","","","","","","",""
"605","","424800","HierDyck333u61","2050mf6t3h","ms1000377","motor","","68","img/motor_3.png","68","motor","3","305","1","0","0","",""
"null","","424908","HierDyck333u61","2050mf6t3h","ms1000377","iti","","null","img/motor_3.png","68","motor","","","","","","",""
"500","","425417","HierDyck333u61","2050mf6t3h","ms1000377","motor","","83","img/motor_2.png","83","motor","2","306","1","0","0","",""
"null","","425532","HierDyck333u61","2050mf6t3h","ms1000377","iti","","null","img/motor_2.png","83","motor","","","","","","",""
"570","","426112","HierDyck333u61","2050mf6t3h","ms1000377","motor","","72","img/motor_7.png","75","motor","7","307","0","1","0","",""
"256","","426384","HierDyck333u61","2050mf6t3h","ms1000377","motorRepeat","","75","img/motor_7.png","75","motor","7","307","1","0","0","",""
"null","","426493","HierDyck333u61","2050mf6t3h","ms1000377","iti","","null","img/motor_7.png","75","motor","","","","","","",""
"524","","427031","HierDyck333u61","2050mf6t3h","ms1000377","motor","","76","img/motor_8.png","76","motor","8","308","1","0","0","",""
"null","","427147","HierDyck333u61","2050mf6t3h","ms1000377","iti","","null","img/motor_8.png","76","motor","","","","","","",""
"764","","427921","HierDyck333u61","2050mf6t3h","ms1000377","motor","","70","img/motor_4.png","70","motor","4","309","1","0","0","",""
"null","","428035","HierDyck333u61","2050mf6t3h","ms1000377","iti","","null","img/motor_4.png","70","motor","","","","","","",""
"564","","428608","HierDyck333u61","2050mf6t3h","ms1000377","motor","","68","img/motor_3.png","68","motor","3","310","1","0","0","",""
"null","","428717","HierDyck333u61","2050mf6t3h","ms1000377","iti","","null","img/motor_3.png","68","motor","","","","","","",""
"907","","429633","HierDyck333u61","2050mf6t3h","ms1000377","motor","","74","img/motor_6.png","74","motor","6","311","1","0","0","",""
"null","","429748","HierDyck333u61","2050mf6t3h","ms1000377","iti","","null","img/motor_6.png","74","motor","","","","","","",""
"517","","430273","HierDyck333u61","2050mf6t3h","ms1000377","motor","","76","img/motor_8.png","76","motor","8","312","1","0","0","",""
"null","","430387","HierDyck333u61","2050mf6t3h","ms1000377","iti","","null","img/motor_8.png","76","motor","","","","","","",""
"597","","430993","HierDyck333u61","2050mf6t3h","ms1000377","motor","","65","img/motor_2.png","83","motor","2","313","0","1","0","",""
"288","","431289","HierDyck333u61","2050mf6t3h","ms1000377","motorRepeat","","83","img/motor_2.png","83","motor","2","313","1","0","0","",""
"null","","431404","HierDyck333u61","2050mf6t3h","ms1000377","iti","","null","img/motor_2.png","83","motor","","","","","","",""
"580","","432000","HierDyck333u61","2050mf6t3h","ms1000377","motor","","65","img/motor_1.png","65","motor","1","314","1","0","0","",""
"null","","432116","HierDyck333u61","2050mf6t3h","ms1000377","iti","","null","img/motor_1.png","65","motor","","","","","","",""
"892","","433024","HierDyck333u61","2050mf6t3h","ms1000377","motor","","68","img/motor_3.png","68","motor","3","315","1","0","0","",""
"null","","433140","HierDyck333u61","2050mf6t3h","ms1000377","iti","","null","img/motor_3.png","68","motor","","","","","","",""
"181","","433336","HierDyck333u61","2050mf6t3h","ms1000377","motor","","70","img/motor_8.png","76","motor","8","316","0","1","0","",""
"561","","433905","HierDyck333u61","2050mf6t3h","ms1000377","motorRepeat","","76","img/motor_8.png","76","motor","8","316","1","0","0","",""
"null","","434020","HierDyck333u61","2050mf6t3h","ms1000377","iti","","null","img/motor_8.png","76","motor","","","","","","",""
"748","","434776","HierDyck333u61","2050mf6t3h","ms1000377","motor","","70","img/motor_4.png","70","motor","4","317","1","0","0","",""
"null","","434885","HierDyck333u61","2050mf6t3h","ms1000377","iti","","null","img/motor_4.png","70","motor","","","","","","",""
"653","","435552","HierDyck333u61","2050mf6t3h","ms1000377","motor","","75","img/motor_6.png","74","motor","6","318","0","1","0","",""
"330","","435896","HierDyck333u61","2050mf6t3h","ms1000377","motorRepeat","","74","img/motor_6.png","74","motor","6","318","1","0","0","",""
"null","","436011","HierDyck333u61","2050mf6t3h","ms1000377","iti","","null","img/motor_6.png","74","motor","","","","","","",""
"573","","436593","HierDyck333u61","2050mf6t3h","ms1000377","motor","","76","img/motor_8.png","76","motor","8","319","1","0","0","",""
"null","","436701","HierDyck333u61","2050mf6t3h","ms1000377","iti","","null","img/motor_8.png","76","motor","","","","","","",""
"620","","437329","HierDyck333u61","2050mf6t3h","ms1000377","motor","","75","img/motor_7.png","75","motor","7","320","1","0","0","",""
"null","","437444","HierDyck333u61","2050mf6t3h","ms1000377","iti","","null","img/motor_7.png","75","motor","","","","","","",""
"524","","437977","HierDyck333u61","2050mf6t3h","ms1000377","motor","","72","img/motor_5.png","72","motor","5","321","1","0","0","",""
"null","","438086","HierDyck333u61","2050mf6t3h","ms1000377","iti","","null","img/motor_5.png","72","motor","","","","","","",""
"539","","438631","HierDyck333u61","2050mf6t3h","ms1000377","motor","","75","img/motor_7.png","75","motor","7","322","1","0","0","",""
"null","","438747","HierDyck333u61","2050mf6t3h","ms1000377","iti","","null","img/motor_7.png","75","motor","","","","","","",""
"437","","439199","HierDyck333u61","2050mf6t3h","ms1000377","motor","","65","img/motor_1.png","65","motor","1","323","1","0","0","",""
"null","","439309","HierDyck333u61","2050mf6t3h","ms1000377","iti","","null","img/motor_1.png","65","motor","","","","","","",""
"796","","440120","HierDyck333u61","2050mf6t3h","ms1000377","motor","","68","img/motor_4.png","70","motor","4","324","0","1","0","",""
"393","","440521","HierDyck333u61","2050mf6t3h","ms1000377","motorRepeat","","70","img/motor_4.png","70","motor","4","324","1","0","0","",""
"null","","440636","HierDyck333u61","2050mf6t3h","ms1000377","iti","","null","img/motor_4.png","70","motor","","","","","","",""
"491","","441144","HierDyck333u61","2050mf6t3h","ms1000377","motor","","83","img/motor_1.png","65","motor","1","325","0","1","0","",""
"304","","441464","HierDyck333u61","2050mf6t3h","ms1000377","motorRepeat","","65","img/motor_1.png","65","motor","1","325","1","0","0","",""
"null","","441573","HierDyck333u61","2050mf6t3h","ms1000377","iti","","null","img/motor_1.png","65","motor","","","","","","",""
"539","","442122","HierDyck333u61","2050mf6t3h","ms1000377","motor","","70","img/motor_4.png","70","motor","4","326","1","0","0","",""
"null","","442230","HierDyck333u61","2050mf6t3h","ms1000377","iti","","null","img/motor_4.png","70","motor","","","","","","",""
"531","","442769","HierDyck333u61","2050mf6t3h","ms1000377","motor","","76","img/motor_8.png","76","motor","8","327","1","0","0","",""
"null","","442877","HierDyck333u61","2050mf6t3h","ms1000377","iti","","null","img/motor_8.png","76","motor","","","","","","",""
"460","","443345","HierDyck333u61","2050mf6t3h","ms1000377","motor","","65","img/motor_1.png","65","motor","1","328","1","0","0","",""
"null","","443453","HierDyck333u61","2050mf6t3h","ms1000377","iti","","null","img/motor_1.png","65","motor","","","","","","",""
"396","","443857","HierDyck333u61","2050mf6t3h","ms1000377","motor","","65","img/motor_2.png","83","motor","2","329","0","1","0","",""
"232","","444103","HierDyck333u61","2050mf6t3h","ms1000377","motorRepeat","","83","img/motor_2.png","83","motor","2","329","1","0","0","",""
"null","","444220","HierDyck333u61","2050mf6t3h","ms1000377","iti","","null","img/motor_2.png","83","motor","","","","","","",""
"573","","444801","HierDyck333u61","2050mf6t3h","ms1000377","motor","","76","img/motor_8.png","76","motor","8","330","1","0","0","",""
"null","","444909","HierDyck333u61","2050mf6t3h","ms1000377","iti","","null","img/motor_8.png","76","motor","","","","","","",""
"388","","445305","HierDyck333u61","2050mf6t3h","ms1000377","motor","","76","img/motor_8.png","76","motor","8","331","1","0","0","",""
"null","","445414","HierDyck333u61","2050mf6t3h","ms1000377","iti","","null","img/motor_8.png","76","motor","","","","","","",""
"467","","445889","HierDyck333u61","2050mf6t3h","ms1000377","motor","","74","img/motor_6.png","74","motor","6","332","1","0","0","",""
"null","","445997","HierDyck333u61","2050mf6t3h","ms1000377","iti","","null","img/motor_6.png","74","motor","","","","","","",""
"404","","446409","HierDyck333u61","2050mf6t3h","ms1000377","motor","","75","img/motor_7.png","75","motor","7","333","1","0","0","",""
"null","","446517","HierDyck333u61","2050mf6t3h","ms1000377","iti","","null","img/motor_7.png","75","motor","","","","","","",""
"436","","446961","HierDyck333u61","2050mf6t3h","ms1000377","motor","","72","img/motor_5.png","72","motor","5","334","1","0","0","",""
"null","","447076","HierDyck333u61","2050mf6t3h","ms1000377","iti","","null","img/motor_5.png","72","motor","","","","","","",""
"348","","447433","HierDyck333u61","2050mf6t3h","ms1000377","motor","","75","img/motor_6.png","74","motor","6","335","0","1","0","",""
"375","","447817","HierDyck333u61","2050mf6t3h","ms1000377","motorRepeat","","74","img/motor_6.png","74","motor","6","335","1","0","0","",""
"null","","447932","HierDyck333u61","2050mf6t3h","ms1000377","iti","","null","img/motor_6.png","74","motor","","","","","","",""
"469","","448410","HierDyck333u61","2050mf6t3h","ms1000377","motor","","72","img/motor_4.png","70","motor","4","336","0","1","0","",""
"215","","448633","HierDyck333u61","2050mf6t3h","ms1000377","motorRepeat","","70","img/motor_4.png","70","motor","4","336","1","0","0","",""
"null","","448749","HierDyck333u61","2050mf6t3h","ms1000377","iti","","null","img/motor_4.png","70","motor","","","","","","",""
"548","","449305","HierDyck333u61","2050mf6t3h","ms1000377","motor","","76","img/motor_8.png","76","motor","8","337","1","0","0","",""
"null","","449420","HierDyck333u61","2050mf6t3h","ms1000377","iti","","null","img/motor_8.png","76","motor","","","","","","",""
"436","","449864","HierDyck333u61","2050mf6t3h","ms1000377","motor","","65","img/motor_3.png","68","motor","3","338","0","1","0","",""
"537","","450415","HierDyck333u61","2050mf6t3h","ms1000377","motorRepeat","","68","img/motor_3.png","68","motor","3","338","1","0","0","",""
"null","","450525","HierDyck333u61","2050mf6t3h","ms1000377","iti","","null","img/motor_3.png","68","motor","","","","","","",""
"172","","450704","HierDyck333u61","2050mf6t3h","ms1000377","motor","","70","img/motor_2.png","83","motor","2","339","0","1","0","",""
"504","","451223","HierDyck333u61","2050mf6t3h","ms1000377","motorRepeat","","68","img/motor_2.png","83","motor","2","339","0","1","0","",""
"296","","451529","HierDyck333u61","2050mf6t3h","ms1000377","motorRepeat","","83","img/motor_2.png","83","motor","2","339","1","0","0","",""
"null","","451638","HierDyck333u61","2050mf6t3h","ms1000377","iti","","null","img/motor_2.png","83","motor","","","","","","",""
"1331","","452983","HierDyck333u61","2050mf6t3h","ms1000377","motor","","75","img/motor_6.png","74","motor","6","340","0","1","0","",""
"304","","453297","HierDyck333u61","2050mf6t3h","ms1000377","motorRepeat","","74","img/motor_6.png","74","motor","6","340","1","0","0","",""
"null","","453406","HierDyck333u61","2050mf6t3h","ms1000377","iti","","null","img/motor_6.png","74","motor","","","","","","",""
"490","","453905","HierDyck333u61","2050mf6t3h","ms1000377","motor","","75","img/motor_7.png","75","motor","7","341","1","0","0","",""
"null","","454020","HierDyck333u61","2050mf6t3h","ms1000377","iti","","null","img/motor_7.png","75","motor","","","","","","",""
