"rt","responses","time_elapsed","subject","prolificID","demoID","trialType","question_order","key_press","stim","corrresp","phase","stimNum","trialNum","corr","repeatTrial","motorSwitch","pracCounter","hierarchy"
"7780","{""Q0"":""ms1000418""}","7818","HierDyk34wjxqr","z1buorudu6","ms1000418","","","","","","","","","","","","",""
"2160","","9993","HierDyk34wjxqr","z1buorudu6","ms1000418","","","","","","","","","","","","",""
"","","12225","HierDyk34wjxqr","z1buorudu6","ms1000418","fullscreen","","","","","","","","","","","",""
"12523","{""Vision"":""Yes"",""Handedness"":""Right"",""Gender"":""female""}","24763","HierDyk34wjxqr","z1buorudu6","ms1000418","","[0,1,2]","","","","","","","","","","",""
"5467","{""Q0"":""20""}","30247","HierDyk34wjxqr","z1buorudu6","ms1000418","","","","","","","","","","","","",""
"179590","","209858","HierDyk34wjxqr","z1buorudu6","ms1000418","","","","","","","","","","","","",""
"1066","","210940","HierDyk34wjxqr","z1buorudu6","ms1000418","motor","","75","img/motor_7.png","75","motor","7","1","1","0","0","",""
"null","","211050","HierDyk34wjxqr","z1buorudu6","ms1000418","iti","","null","img/motor_7.png","75","motor","","","","","","",""
"627","","211686","HierDyk34wjxqr","z1buorudu6","ms1000418","motor","","76","img/motor_8.png","76","motor","8","2","1","0","0","",""
"null","","211801","HierDyk34wjxqr","z1buorudu6","ms1000418","iti","","null","img/motor_8.png","76","motor","","","","","","",""
"604","","212413","HierDyk34wjxqr","z1buorudu6","ms1000418","motor","","72","img/motor_5.png","72","motor","5","3","1","0","0","",""
"null","","212521","HierDyk34wjxqr","z1buorudu6","ms1000418","iti","","null","img/motor_5.png","72","motor","","","","","","",""
"468","","213003","HierDyk34wjxqr","z1buorudu6","ms1000418","motor","","74","img/motor_6.png","74","motor","6","4","1","0","0","",""
"null","","213112","HierDyk34wjxqr","z1buorudu6","ms1000418","iti","","null","img/motor_6.png","74","motor","","","","","","",""
"501","","213628","HierDyk34wjxqr","z1buorudu6","ms1000418","motor","","76","img/motor_8.png","76","motor","8","5","1","0","0","",""
"null","","213743","HierDyk34wjxqr","z1buorudu6","ms1000418","iti","","null","img/motor_8.png","76","motor","","","","","","",""
"524","","214276","HierDyk34wjxqr","z1buorudu6","ms1000418","motor","","75","img/motor_7.png","75","motor","7","6","1","0","0","",""
"null","","214391","HierDyk34wjxqr","z1buorudu6","ms1000418","iti","","null","img/motor_7.png","75","motor","","","","","","",""
"396","","214797","HierDyk34wjxqr","z1buorudu6","ms1000418","motor","","72","img/motor_5.png","72","motor","5","7","1","0","0","",""
"null","","214912","HierDyk34wjxqr","z1buorudu6","ms1000418","iti","","null","img/motor_5.png","72","motor","","","","","","",""
"340","","215261","HierDyk34wjxqr","z1buorudu6","ms1000418","motor","","74","img/motor_6.png","74","motor","6","8","1","0","0","",""
"null","","215369","HierDyk34wjxqr","z1buorudu6","ms1000418","iti","","null","img/motor_6.png","74","motor","","","","","","",""
"517","","215899","HierDyk34wjxqr","z1buorudu6","ms1000418","motor","","65","img/motor_1.png","65","motor","1","9","1","0","0","",""
"null","","216008","HierDyk34wjxqr","z1buorudu6","ms1000418","iti","","null","img/motor_1.png","65","motor","","","","","","",""
"517","","216533","HierDyk34wjxqr","z1buorudu6","ms1000418","motor","","83","img/motor_2.png","83","motor","2","10","1","0","0","",""
"null","","216648","HierDyk34wjxqr","z1buorudu6","ms1000418","iti","","null","img/motor_2.png","83","motor","","","","","","",""
"508","","217165","HierDyk34wjxqr","z1buorudu6","ms1000418","motor","","72","img/motor_5.png","72","motor","5","11","1","0","0","",""
"null","","217280","HierDyk34wjxqr","z1buorudu6","ms1000418","iti","","null","img/motor_5.png","72","motor","","","","","","",""
"437","","217725","HierDyk34wjxqr","z1buorudu6","ms1000418","motor","","83","img/motor_2.png","83","motor","2","12","1","0","0","",""
"null","","217833","HierDyk34wjxqr","z1buorudu6","ms1000418","iti","","null","img/motor_2.png","83","motor","","","","","","",""
"509","","218355","HierDyk34wjxqr","z1buorudu6","ms1000418","motor","","75","img/motor_7.png","75","motor","7","13","1","0","0","",""
"null","","218464","HierDyk34wjxqr","z1buorudu6","ms1000418","iti","","null","img/motor_7.png","75","motor","","","","","","",""
"589","","219068","HierDyk34wjxqr","z1buorudu6","ms1000418","motor","","70","img/motor_4.png","70","motor","4","14","1","0","0","",""
"null","","219176","HierDyk34wjxqr","z1buorudu6","ms1000418","iti","","null","img/motor_4.png","70","motor","","","","","","",""
"454","","219643","HierDyk34wjxqr","z1buorudu6","ms1000418","motor","","70","img/motor_4.png","70","motor","4","15","1","0","0","",""
"null","","219758","HierDyk34wjxqr","z1buorudu6","ms1000418","iti","","null","img/motor_4.png","70","motor","","","","","","",""
"446","","220213","HierDyk34wjxqr","z1buorudu6","ms1000418","motor","","65","img/motor_1.png","65","motor","1","16","1","0","0","",""
"null","","220328","HierDyk34wjxqr","z1buorudu6","ms1000418","iti","","null","img/motor_1.png","65","motor","","","","","","",""
"438","","220779","HierDyk34wjxqr","z1buorudu6","ms1000418","motor","","65","img/motor_1.png","65","motor","1","17","1","0","0","",""
"null","","220888","HierDyk34wjxqr","z1buorudu6","ms1000418","iti","","null","img/motor_1.png","65","motor","","","","","","",""
"612","","221516","HierDyk34wjxqr","z1buorudu6","ms1000418","motor","","74","img/motor_6.png","74","motor","6","18","1","0","0","",""
"null","","221624","HierDyk34wjxqr","z1buorudu6","ms1000418","iti","","null","img/motor_6.png","74","motor","","","","","","",""
"445","","222077","HierDyk34wjxqr","z1buorudu6","ms1000418","motor","","76","img/motor_8.png","76","motor","8","19","1","0","0","",""
"null","","222190","HierDyk34wjxqr","z1buorudu6","ms1000418","iti","","null","img/motor_8.png","76","motor","","","","","","",""
"566","","222765","HierDyk34wjxqr","z1buorudu6","ms1000418","motor","","83","img/motor_2.png","83","motor","2","20","1","0","0","",""
"null","","222880","HierDyk34wjxqr","z1buorudu6","ms1000418","iti","","null","img/motor_2.png","83","motor","","","","","","",""
"468","","223364","HierDyk34wjxqr","z1buorudu6","ms1000418","motor","","76","img/motor_8.png","76","motor","8","21","1","0","0","",""
"null","","223478","HierDyk34wjxqr","z1buorudu6","ms1000418","iti","","null","img/motor_8.png","76","motor","","","","","","",""
"471","","223956","HierDyk34wjxqr","z1buorudu6","ms1000418","motor","","76","img/motor_8.png","76","motor","8","22","1","0","0","",""
"null","","224064","HierDyk34wjxqr","z1buorudu6","ms1000418","iti","","null","img/motor_8.png","76","motor","","","","","","",""
"421","","224499","HierDyk34wjxqr","z1buorudu6","ms1000418","motor","","72","img/motor_5.png","72","motor","5","23","1","0","0","",""
"null","","224609","HierDyk34wjxqr","z1buorudu6","ms1000418","iti","","null","img/motor_5.png","72","motor","","","","","","",""
"557","","225173","HierDyk34wjxqr","z1buorudu6","ms1000418","motor","","83","img/motor_2.png","83","motor","2","24","1","0","0","",""
"null","","225281","HierDyk34wjxqr","z1buorudu6","ms1000418","iti","","null","img/motor_2.png","83","motor","","","","","","",""
"452","","225741","HierDyk34wjxqr","z1buorudu6","ms1000418","motor","","76","img/motor_7.png","75","motor","7","25","0","1","0","",""
"472","","226227","HierDyk34wjxqr","z1buorudu6","ms1000418","motorRepeat","","75","img/motor_7.png","75","motor","7","25","1","0","0","",""
"null","","226336","HierDyk34wjxqr","z1buorudu6","ms1000418","iti","","null","img/motor_7.png","75","motor","","","","","","",""
"437","","226787","HierDyk34wjxqr","z1buorudu6","ms1000418","motor","","74","img/motor_6.png","74","motor","6","26","1","0","0","",""
"null","","226902","HierDyk34wjxqr","z1buorudu6","ms1000418","iti","","null","img/motor_6.png","74","motor","","","","","","",""
"502","","227413","HierDyk34wjxqr","z1buorudu6","ms1000418","motor","","74","img/motor_6.png","74","motor","6","27","1","0","0","",""
"null","","227521","HierDyk34wjxqr","z1buorudu6","ms1000418","iti","","null","img/motor_6.png","74","motor","","","","","","",""
"413","","227947","HierDyk34wjxqr","z1buorudu6","ms1000418","motor","","72","img/motor_5.png","72","motor","5","28","1","0","0","",""
"null","","228057","HierDyk34wjxqr","z1buorudu6","ms1000418","iti","","null","img/motor_5.png","72","motor","","","","","","",""
"564","","228629","HierDyk34wjxqr","z1buorudu6","ms1000418","motor","","75","img/motor_7.png","75","motor","7","29","1","0","0","",""
"null","","228743","HierDyk34wjxqr","z1buorudu6","ms1000418","iti","","null","img/motor_7.png","75","motor","","","","","","",""
"550","","229301","HierDyk34wjxqr","z1buorudu6","ms1000418","motor","","83","img/motor_2.png","83","motor","2","30","1","0","0","",""
"null","","229415","HierDyk34wjxqr","z1buorudu6","ms1000418","iti","","null","img/motor_2.png","83","motor","","","","","","",""
"437","","229860","HierDyk34wjxqr","z1buorudu6","ms1000418","motor","","70","img/motor_4.png","70","motor","4","31","1","0","0","",""
"null","","229969","HierDyk34wjxqr","z1buorudu6","ms1000418","iti","","null","img/motor_4.png","70","motor","","","","","","",""
"526","","230508","HierDyk34wjxqr","z1buorudu6","ms1000418","motor","","68","img/motor_3.png","68","motor","3","32","1","0","0","",""
"null","","230617","HierDyk34wjxqr","z1buorudu6","ms1000418","iti","","null","img/motor_3.png","68","motor","","","","","","",""
"517","","231140","HierDyk34wjxqr","z1buorudu6","ms1000418","motor","","74","img/motor_5.png","72","motor","5","33","0","1","0","",""
"449","","231603","HierDyk34wjxqr","z1buorudu6","ms1000418","motorRepeat","","72","img/motor_5.png","72","motor","5","33","1","0","0","",""
"null","","231712","HierDyk34wjxqr","z1buorudu6","ms1000418","iti","","null","img/motor_5.png","72","motor","","","","","","",""
"557","","232277","HierDyk34wjxqr","z1buorudu6","ms1000418","motor","","68","img/motor_3.png","68","motor","3","34","1","0","0","",""
"null","","232392","HierDyk34wjxqr","z1buorudu6","ms1000418","iti","","null","img/motor_3.png","68","motor","","","","","","",""
"445","","232844","HierDyk34wjxqr","z1buorudu6","ms1000418","motor","","70","img/motor_4.png","70","motor","4","35","1","0","0","",""
"null","","232959","HierDyk34wjxqr","z1buorudu6","ms1000418","iti","","null","img/motor_4.png","70","motor","","","","","","",""
"454","","233421","HierDyk34wjxqr","z1buorudu6","ms1000418","motor","","68","img/motor_3.png","68","motor","3","36","1","0","0","",""
"null","","233529","HierDyk34wjxqr","z1buorudu6","ms1000418","iti","","null","img/motor_3.png","68","motor","","","","","","",""
"684","","234221","HierDyk34wjxqr","z1buorudu6","ms1000418","motor","","74","img/motor_6.png","74","motor","6","37","1","0","0","",""
"null","","234336","HierDyk34wjxqr","z1buorudu6","ms1000418","iti","","null","img/motor_6.png","74","motor","","","","","","",""
"454","","234804","HierDyk34wjxqr","z1buorudu6","ms1000418","motor","","76","img/motor_8.png","76","motor","8","38","1","0","0","",""
"null","","234918","HierDyk34wjxqr","z1buorudu6","ms1000418","iti","","null","img/motor_8.png","76","motor","","","","","","",""
"591","","235518","HierDyk34wjxqr","z1buorudu6","ms1000418","motor","","70","img/motor_4.png","70","motor","4","39","1","0","0","",""
"null","","235631","HierDyk34wjxqr","z1buorudu6","ms1000418","iti","","null","img/motor_4.png","70","motor","","","","","","",""
"413","","236052","HierDyk34wjxqr","z1buorudu6","ms1000418","motor","","76","img/motor_8.png","76","motor","8","40","1","0","0","",""
"null","","236160","HierDyk34wjxqr","z1buorudu6","ms1000418","iti","","null","img/motor_8.png","76","motor","","","","","","",""
"509","","236676","HierDyk34wjxqr","z1buorudu6","ms1000418","motor","","68","img/motor_3.png","68","motor","3","41","1","0","0","",""
"null","","236790","HierDyk34wjxqr","z1buorudu6","ms1000418","iti","","null","img/motor_3.png","68","motor","","","","","","",""
"406","","237211","HierDyk34wjxqr","z1buorudu6","ms1000418","motor","","83","img/motor_2.png","83","motor","2","42","1","0","0","",""
"null","","237326","HierDyk34wjxqr","z1buorudu6","ms1000418","iti","","null","img/motor_2.png","83","motor","","","","","","",""
"471","","237805","HierDyk34wjxqr","z1buorudu6","ms1000418","motor","","68","img/motor_3.png","68","motor","3","43","1","0","0","",""
"null","","237920","HierDyk34wjxqr","z1buorudu6","ms1000418","iti","","null","img/motor_3.png","68","motor","","","","","","",""
"492","","238427","HierDyk34wjxqr","z1buorudu6","ms1000418","motor","","65","img/motor_1.png","65","motor","1","44","1","0","0","",""
"null","","238542","HierDyk34wjxqr","z1buorudu6","ms1000418","iti","","null","img/motor_1.png","65","motor","","","","","","",""
"447","","239004","HierDyk34wjxqr","z1buorudu6","ms1000418","motor","","72","img/motor_5.png","72","motor","5","45","1","0","0","",""
"null","","239112","HierDyk34wjxqr","z1buorudu6","ms1000418","iti","","null","img/motor_5.png","72","motor","","","","","","",""
"549","","239676","HierDyk34wjxqr","z1buorudu6","ms1000418","motor","","68","img/motor_3.png","68","motor","3","46","1","0","0","",""
"null","","239791","HierDyk34wjxqr","z1buorudu6","ms1000418","iti","","null","img/motor_3.png","68","motor","","","","","","",""
"508","","240310","HierDyk34wjxqr","z1buorudu6","ms1000418","motor","","72","img/motor_5.png","72","motor","5","47","1","0","0","",""
"null","","240424","HierDyk34wjxqr","z1buorudu6","ms1000418","iti","","null","img/motor_5.png","72","motor","","","","","","",""
"499","","240935","HierDyk34wjxqr","z1buorudu6","ms1000418","motor","","75","img/motor_7.png","75","motor","7","48","1","0","0","",""
"null","","241048","HierDyk34wjxqr","z1buorudu6","ms1000418","iti","","null","img/motor_7.png","75","motor","","","","","","",""
"444","","241501","HierDyk34wjxqr","z1buorudu6","ms1000418","motor","","70","img/motor_4.png","70","motor","4","49","1","0","0","",""
"null","","241610","HierDyk34wjxqr","z1buorudu6","ms1000418","iti","","null","img/motor_4.png","70","motor","","","","","","",""
"388","","242012","HierDyk34wjxqr","z1buorudu6","ms1000418","motor","","72","img/motor_5.png","72","motor","5","50","1","0","0","",""
"null","","242126","HierDyk34wjxqr","z1buorudu6","ms1000418","iti","","null","img/motor_5.png","72","motor","","","","","","",""
"454","","242596","HierDyk34wjxqr","z1buorudu6","ms1000418","motor","","68","img/motor_3.png","68","motor","3","51","1","0","0","",""
"null","","242711","HierDyk34wjxqr","z1buorudu6","ms1000418","iti","","null","img/motor_3.png","68","motor","","","","","","",""
"445","","243165","HierDyk34wjxqr","z1buorudu6","ms1000418","motor","","70","img/motor_4.png","70","motor","4","52","1","0","0","",""
"null","","243280","HierDyk34wjxqr","z1buorudu6","ms1000418","iti","","null","img/motor_4.png","70","motor","","","","","","",""
"494","","243781","HierDyk34wjxqr","z1buorudu6","ms1000418","motor","","75","img/motor_7.png","75","motor","7","53","1","0","0","",""
"null","","243895","HierDyk34wjxqr","z1buorudu6","ms1000418","iti","","null","img/motor_7.png","75","motor","","","","","","",""
"389","","244293","HierDyk34wjxqr","z1buorudu6","ms1000418","motor","","75","img/motor_7.png","75","motor","7","54","1","0","0","",""
"null","","244407","HierDyk34wjxqr","z1buorudu6","ms1000418","iti","","null","img/motor_7.png","75","motor","","","","","","",""
"388","","244811","HierDyk34wjxqr","z1buorudu6","ms1000418","motor","","72","img/motor_6.png","74","motor","6","55","0","1","0","",""
"298","","245117","HierDyk34wjxqr","z1buorudu6","ms1000418","motorRepeat","","74","img/motor_6.png","74","motor","6","55","1","0","0","",""
"null","","245231","HierDyk34wjxqr","z1buorudu6","ms1000418","iti","","null","img/motor_6.png","74","motor","","","","","","",""
"446","","245691","HierDyk34wjxqr","z1buorudu6","ms1000418","motor","","74","img/motor_6.png","74","motor","6","56","1","0","0","",""
"null","","245806","HierDyk34wjxqr","z1buorudu6","ms1000418","iti","","null","img/motor_6.png","74","motor","","","","","","",""
"391","","246205","HierDyk34wjxqr","z1buorudu6","ms1000418","motor","","70","img/motor_3.png","68","motor","3","57","0","1","0","",""
"248","","246461","HierDyk34wjxqr","z1buorudu6","ms1000418","motorRepeat","","68","img/motor_3.png","68","motor","3","57","1","0","0","",""
"null","","246570","HierDyk34wjxqr","z1buorudu6","ms1000418","iti","","null","img/motor_3.png","68","motor","","","","","","",""
"460","","247044","HierDyk34wjxqr","z1buorudu6","ms1000418","motor","","65","img/motor_1.png","65","motor","1","58","1","0","0","",""
"null","","247158","HierDyk34wjxqr","z1buorudu6","ms1000418","iti","","null","img/motor_1.png","65","motor","","","","","","",""
"406","","247580","HierDyk34wjxqr","z1buorudu6","ms1000418","motor","","76","img/motor_8.png","76","motor","8","59","1","0","0","",""
"null","","247694","HierDyk34wjxqr","z1buorudu6","ms1000418","iti","","null","img/motor_8.png","76","motor","","","","","","",""
"518","","248227","HierDyk34wjxqr","z1buorudu6","ms1000418","motor","","68","img/motor_2.png","83","motor","2","60","0","1","0","",""
"297","","248539","HierDyk34wjxqr","z1buorudu6","ms1000418","motorRepeat","","83","img/motor_2.png","83","motor","2","60","1","0","0","",""
"null","","248654","HierDyk34wjxqr","z1buorudu6","ms1000418","iti","","null","img/motor_2.png","83","motor","","","","","","",""
"549","","249213","HierDyk34wjxqr","z1buorudu6","ms1000418","motor","","72","img/motor_5.png","72","motor","5","61","1","0","0","",""
"null","","249321","HierDyk34wjxqr","z1buorudu6","ms1000418","iti","","null","img/motor_5.png","72","motor","","","","","","",""
"564","","249900","HierDyk34wjxqr","z1buorudu6","ms1000418","motor","","83","img/motor_2.png","83","motor","2","62","1","0","0","",""
"null","","250015","HierDyk34wjxqr","z1buorudu6","ms1000418","iti","","null","img/motor_2.png","83","motor","","","","","","",""
"622","","250652","HierDyk34wjxqr","z1buorudu6","ms1000418","motor","","74","img/motor_6.png","74","motor","6","63","1","0","0","",""
"null","","250767","HierDyk34wjxqr","z1buorudu6","ms1000418","iti","","null","img/motor_6.png","74","motor","","","","","","",""
"405","","251180","HierDyk34wjxqr","z1buorudu6","ms1000418","motor","","72","img/motor_5.png","72","motor","5","64","1","0","0","",""
"null","","251288","HierDyk34wjxqr","z1buorudu6","ms1000418","iti","","null","img/motor_5.png","72","motor","","","","","","",""
"462","","251763","HierDyk34wjxqr","z1buorudu6","ms1000418","motor","","76","img/motor_8.png","76","motor","8","65","1","0","0","",""
"null","","251879","HierDyk34wjxqr","z1buorudu6","ms1000418","iti","","null","img/motor_8.png","76","motor","","","","","","",""
"382","","252269","HierDyk34wjxqr","z1buorudu6","ms1000418","motor","","76","img/motor_8.png","76","motor","8","66","1","0","0","",""
"null","","252384","HierDyk34wjxqr","z1buorudu6","ms1000418","iti","","null","img/motor_8.png","76","motor","","","","","","",""
"437","","252835","HierDyk34wjxqr","z1buorudu6","ms1000418","motor","","72","img/motor_5.png","72","motor","5","67","1","0","0","",""
"null","","252951","HierDyk34wjxqr","z1buorudu6","ms1000418","iti","","null","img/motor_5.png","72","motor","","","","","","",""
"437","","253404","HierDyk34wjxqr","z1buorudu6","ms1000418","motor","","68","img/motor_4.png","70","motor","4","68","0","1","0","",""
"329","","253741","HierDyk34wjxqr","z1buorudu6","ms1000418","motorRepeat","","70","img/motor_4.png","70","motor","4","68","1","0","0","",""
"null","","253849","HierDyk34wjxqr","z1buorudu6","ms1000418","iti","","null","img/motor_4.png","70","motor","","","","","","",""
"700","","254557","HierDyk34wjxqr","z1buorudu6","ms1000418","motor","","76","img/motor_8.png","76","motor","8","69","1","0","0","",""
"null","","254665","HierDyk34wjxqr","z1buorudu6","ms1000418","iti","","null","img/motor_8.png","76","motor","","","","","","",""
"516","","255195","HierDyk34wjxqr","z1buorudu6","ms1000418","motor","","65","img/motor_1.png","65","motor","1","70","1","0","0","",""
"null","","255305","HierDyk34wjxqr","z1buorudu6","ms1000418","iti","","null","img/motor_1.png","65","motor","","","","","","",""
"533","","255851","HierDyk34wjxqr","z1buorudu6","ms1000418","motor","","72","img/motor_5.png","72","motor","5","71","1","0","0","",""
"null","","255966","HierDyk34wjxqr","z1buorudu6","ms1000418","iti","","null","img/motor_5.png","72","motor","","","","","","",""
"495","","256469","HierDyk34wjxqr","z1buorudu6","ms1000418","motor","","76","img/motor_8.png","76","motor","8","72","1","0","0","",""
"null","","256577","HierDyk34wjxqr","z1buorudu6","ms1000418","iti","","null","img/motor_8.png","76","motor","","","","","","",""
"483","","257069","HierDyk34wjxqr","z1buorudu6","ms1000418","motor","","65","img/motor_1.png","65","motor","1","73","1","0","0","",""
"null","","257184","HierDyk34wjxqr","z1buorudu6","ms1000418","iti","","null","img/motor_1.png","65","motor","","","","","","",""
"541","","257740","HierDyk34wjxqr","z1buorudu6","ms1000418","motor","","74","img/motor_6.png","74","motor","6","74","1","0","0","",""
"null","","257855","HierDyk34wjxqr","z1buorudu6","ms1000418","iti","","null","img/motor_6.png","74","motor","","","","","","",""
"575","","258444","HierDyk34wjxqr","z1buorudu6","ms1000418","motor","","83","img/motor_2.png","83","motor","2","75","1","0","0","",""
"null","","258552","HierDyk34wjxqr","z1buorudu6","ms1000418","iti","","null","img/motor_2.png","83","motor","","","","","","",""
"557","","259124","HierDyk34wjxqr","z1buorudu6","ms1000418","motor","","65","img/motor_1.png","65","motor","1","76","1","0","0","",""
"null","","259232","HierDyk34wjxqr","z1buorudu6","ms1000418","iti","","null","img/motor_1.png","65","motor","","","","","","",""
"485","","259731","HierDyk34wjxqr","z1buorudu6","ms1000418","motor","","76","img/motor_8.png","76","motor","8","77","1","0","0","",""
"null","","259847","HierDyk34wjxqr","z1buorudu6","ms1000418","iti","","null","img/motor_8.png","76","motor","","","","","","",""
"542","","260404","HierDyk34wjxqr","z1buorudu6","ms1000418","motor","","68","img/motor_3.png","68","motor","3","78","1","0","0","",""
"null","","260518","HierDyk34wjxqr","z1buorudu6","ms1000418","iti","","null","img/motor_3.png","68","motor","","","","","","",""
"534","","261067","HierDyk34wjxqr","z1buorudu6","ms1000418","motor","","83","img/motor_2.png","83","motor","2","79","1","0","0","",""
"null","","261185","HierDyk34wjxqr","z1buorudu6","ms1000418","iti","","null","img/motor_2.png","83","motor","","","","","","",""
"643","","261840","HierDyk34wjxqr","z1buorudu6","ms1000418","motor","","75","img/motor_7.png","75","motor","7","80","1","0","0","",""
"null","","261955","HierDyk34wjxqr","z1buorudu6","ms1000418","iti","","null","img/motor_7.png","75","motor","","","","","","",""
"665","","262636","HierDyk34wjxqr","z1buorudu6","ms1000418","motor","","83","img/motor_2.png","83","motor","2","81","1","0","0","",""
"null","","262753","HierDyk34wjxqr","z1buorudu6","ms1000418","iti","","null","img/motor_2.png","83","motor","","","","","","",""
"557","","263317","HierDyk34wjxqr","z1buorudu6","ms1000418","motor","","68","img/motor_3.png","68","motor","3","82","1","0","0","",""
"null","","263433","HierDyk34wjxqr","z1buorudu6","ms1000418","iti","","null","img/motor_3.png","68","motor","","","","","","",""
"644","","264084","HierDyk34wjxqr","z1buorudu6","ms1000418","motor","","74","img/motor_6.png","74","motor","6","83","1","0","0","",""
"null","","264199","HierDyk34wjxqr","z1buorudu6","ms1000418","iti","","null","img/motor_6.png","74","motor","","","","","","",""
"661","","264870","HierDyk34wjxqr","z1buorudu6","ms1000418","motor","","83","img/motor_2.png","83","motor","2","84","1","0","0","",""
"null","","264977","HierDyk34wjxqr","z1buorudu6","ms1000418","iti","","null","img/motor_2.png","83","motor","","","","","","",""
"420","","265412","HierDyk34wjxqr","z1buorudu6","ms1000418","motor","","72","img/motor_4.png","70","motor","4","85","0","1","0","",""
"400","","265828","HierDyk34wjxqr","z1buorudu6","ms1000418","motorRepeat","","70","img/motor_4.png","70","motor","4","85","1","0","0","",""
"null","","265944","HierDyk34wjxqr","z1buorudu6","ms1000418","iti","","null","img/motor_4.png","70","motor","","","","","","",""
"420","","266380","HierDyk34wjxqr","z1buorudu6","ms1000418","motor","","65","img/motor_1.png","65","motor","1","86","1","0","0","",""
"null","","266488","HierDyk34wjxqr","z1buorudu6","ms1000418","iti","","null","img/motor_1.png","65","motor","","","","","","",""
"453","","266955","HierDyk34wjxqr","z1buorudu6","ms1000418","motor","","65","img/motor_1.png","65","motor","1","87","1","0","0","",""
"null","","267064","HierDyk34wjxqr","z1buorudu6","ms1000418","iti","","null","img/motor_1.png","65","motor","","","","","","",""
"525","","267604","HierDyk34wjxqr","z1buorudu6","ms1000418","motor","","76","img/motor_8.png","76","motor","8","88","1","0","0","",""
"null","","267713","HierDyk34wjxqr","z1buorudu6","ms1000418","iti","","null","img/motor_8.png","76","motor","","","","","","",""
"475","","268204","HierDyk34wjxqr","z1buorudu6","ms1000418","motor","","65","img/motor_1.png","65","motor","1","89","1","0","0","",""
"null","","268313","HierDyk34wjxqr","z1buorudu6","ms1000418","iti","","null","img/motor_1.png","65","motor","","","","","","",""
"981","","269301","HierDyk34wjxqr","z1buorudu6","ms1000418","motor","","68","img/motor_3.png","68","motor","3","90","1","0","0","",""
"null","","269417","HierDyk34wjxqr","z1buorudu6","ms1000418","iti","","null","img/motor_3.png","68","motor","","","","","","",""
"693","","270124","HierDyk34wjxqr","z1buorudu6","ms1000418","motor","","75","img/motor_7.png","75","motor","7","91","1","0","0","",""
"null","","270233","HierDyk34wjxqr","z1buorudu6","ms1000418","iti","","null","img/motor_7.png","75","motor","","","","","","",""
"635","","270877","HierDyk34wjxqr","z1buorudu6","ms1000418","motor","","83","img/motor_3.png","68","motor","3","92","0","1","0","",""
"223","","271116","HierDyk34wjxqr","z1buorudu6","ms1000418","motorRepeat","","68","img/motor_3.png","68","motor","3","92","1","0","0","",""
"null","","271231","HierDyk34wjxqr","z1buorudu6","ms1000418","iti","","null","img/motor_3.png","68","motor","","","","","","",""
"470","","271709","HierDyk34wjxqr","z1buorudu6","ms1000418","motor","","72","img/motor_5.png","72","motor","5","93","1","0","0","",""
"null","","271824","HierDyk34wjxqr","z1buorudu6","ms1000418","iti","","null","img/motor_5.png","72","motor","","","","","","",""
"460","","272300","HierDyk34wjxqr","z1buorudu6","ms1000418","motor","","76","img/motor_8.png","76","motor","8","94","1","0","0","",""
"null","","272416","HierDyk34wjxqr","z1buorudu6","ms1000418","iti","","null","img/motor_8.png","76","motor","","","","","","",""
"485","","272916","HierDyk34wjxqr","z1buorudu6","ms1000418","motor","","70","img/motor_4.png","70","motor","4","95","1","0","0","",""
"null","","273031","HierDyk34wjxqr","z1buorudu6","ms1000418","iti","","null","img/motor_4.png","70","motor","","","","","","",""
"486","","273525","HierDyk34wjxqr","z1buorudu6","ms1000418","motor","","83","img/motor_2.png","83","motor","2","96","1","0","0","",""
"null","","273640","HierDyk34wjxqr","z1buorudu6","ms1000418","iti","","null","img/motor_2.png","83","motor","","","","","","",""
"445","","274100","HierDyk34wjxqr","z1buorudu6","ms1000418","motor","","72","img/motor_5.png","72","motor","5","97","1","0","0","",""
"null","","274215","HierDyk34wjxqr","z1buorudu6","ms1000418","iti","","null","img/motor_5.png","72","motor","","","","","","",""
"437","","274668","HierDyk34wjxqr","z1buorudu6","ms1000418","motor","","72","img/motor_5.png","72","motor","5","98","1","0","0","",""
"null","","274783","HierDyk34wjxqr","z1buorudu6","ms1000418","iti","","null","img/motor_5.png","72","motor","","","","","","",""
"661","","275460","HierDyk34wjxqr","z1buorudu6","ms1000418","motor","","70","img/motor_4.png","70","motor","4","99","1","0","0","",""
"null","","275575","HierDyk34wjxqr","z1buorudu6","ms1000418","iti","","null","img/motor_4.png","70","motor","","","","","","",""
"389","","275981","HierDyk34wjxqr","z1buorudu6","ms1000418","motor","","70","img/motor_4.png","70","motor","4","100","1","0","0","",""
"null","","276095","HierDyk34wjxqr","z1buorudu6","ms1000418","iti","","null","img/motor_4.png","70","motor","","","","","","",""
"581","","276693","HierDyk34wjxqr","z1buorudu6","ms1000418","motor","","75","img/motor_7.png","75","motor","7","101","1","0","0","",""
"null","","276807","HierDyk34wjxqr","z1buorudu6","ms1000418","iti","","null","img/motor_7.png","75","motor","","","","","","",""
"493","","277316","HierDyk34wjxqr","z1buorudu6","ms1000418","motor","","65","img/motor_1.png","65","motor","1","102","1","0","0","",""
"null","","277431","HierDyk34wjxqr","z1buorudu6","ms1000418","iti","","null","img/motor_1.png","65","motor","","","","","","",""
"541","","277981","HierDyk34wjxqr","z1buorudu6","ms1000418","motor","","68","img/motor_3.png","68","motor","3","103","1","0","0","",""
"null","","278088","HierDyk34wjxqr","z1buorudu6","ms1000418","iti","","null","img/motor_3.png","68","motor","","","","","","",""
"541","","278643","HierDyk34wjxqr","z1buorudu6","ms1000418","motor","","68","img/motor_3.png","68","motor","3","104","1","0","0","",""
"null","","278759","HierDyk34wjxqr","z1buorudu6","ms1000418","iti","","null","img/motor_3.png","68","motor","","","","","","",""
"526","","279300","HierDyk34wjxqr","z1buorudu6","ms1000418","motor","","83","img/motor_2.png","83","motor","2","105","1","0","0","",""
"null","","279415","HierDyk34wjxqr","z1buorudu6","ms1000418","iti","","null","img/motor_2.png","83","motor","","","","","","",""
"622","","280045","HierDyk34wjxqr","z1buorudu6","ms1000418","motor","","75","img/motor_7.png","75","motor","7","106","1","0","0","",""
"null","","280160","HierDyk34wjxqr","z1buorudu6","ms1000418","iti","","null","img/motor_7.png","75","motor","","","","","","",""
"524","","280700","HierDyk34wjxqr","z1buorudu6","ms1000418","motor","","74","img/motor_6.png","74","motor","6","107","1","0","0","",""
"null","","280816","HierDyk34wjxqr","z1buorudu6","ms1000418","iti","","null","img/motor_6.png","74","motor","","","","","","",""
"428","","281260","HierDyk34wjxqr","z1buorudu6","ms1000418","motor","","76","img/motor_8.png","76","motor","8","108","1","0","0","",""
"null","","281375","HierDyk34wjxqr","z1buorudu6","ms1000418","iti","","null","img/motor_8.png","76","motor","","","","","","",""
"693","","282085","HierDyk34wjxqr","z1buorudu6","ms1000418","motor","","75","img/motor_7.png","75","motor","7","109","1","0","0","",""
"null","","282199","HierDyk34wjxqr","z1buorudu6","ms1000418","iti","","null","img/motor_7.png","75","motor","","","","","","",""
"629","","282837","HierDyk34wjxqr","z1buorudu6","ms1000418","motor","","76","img/motor_8.png","76","motor","8","110","1","0","0","",""
"null","","282946","HierDyk34wjxqr","z1buorudu6","ms1000418","iti","","null","img/motor_8.png","76","motor","","","","","","",""
"468","","283422","HierDyk34wjxqr","z1buorudu6","ms1000418","motor","","70","img/motor_4.png","70","motor","4","111","1","0","0","",""
"null","","283530","HierDyk34wjxqr","z1buorudu6","ms1000418","iti","","null","img/motor_4.png","70","motor","","","","","","",""
"516","","284060","HierDyk34wjxqr","z1buorudu6","ms1000418","motor","","74","img/motor_6.png","74","motor","6","112","1","0","0","",""
"null","","284175","HierDyk34wjxqr","z1buorudu6","ms1000418","iti","","null","img/motor_6.png","74","motor","","","","","","",""
"542","","284732","HierDyk34wjxqr","z1buorudu6","ms1000418","motor","","70","img/motor_4.png","70","motor","4","113","1","0","0","",""
"null","","284842","HierDyk34wjxqr","z1buorudu6","ms1000418","iti","","null","img/motor_4.png","70","motor","","","","","","",""
"476","","285331","HierDyk34wjxqr","z1buorudu6","ms1000418","motor","","83","img/motor_2.png","83","motor","2","114","1","0","0","",""
"null","","285447","HierDyk34wjxqr","z1buorudu6","ms1000418","iti","","null","img/motor_2.png","83","motor","","","","","","",""
"494","","285949","HierDyk34wjxqr","z1buorudu6","ms1000418","motor","","72","img/motor_5.png","72","motor","5","115","1","0","0","",""
"null","","286065","HierDyk34wjxqr","z1buorudu6","ms1000418","iti","","null","img/motor_5.png","72","motor","","","","","","",""
"525","","286597","HierDyk34wjxqr","z1buorudu6","ms1000418","motor","","83","img/motor_2.png","83","motor","2","116","1","0","0","",""
"null","","286711","HierDyk34wjxqr","z1buorudu6","ms1000418","iti","","null","img/motor_2.png","83","motor","","","","","","",""
"485","","287212","HierDyk34wjxqr","z1buorudu6","ms1000418","motor","","65","img/motor_1.png","65","motor","1","117","1","0","0","",""
"null","","287321","HierDyk34wjxqr","z1buorudu6","ms1000418","iti","","null","img/motor_1.png","65","motor","","","","","","",""
"725","","288054","HierDyk34wjxqr","z1buorudu6","ms1000418","motor","","72","img/motor_5.png","72","motor","5","118","1","0","0","",""
"null","","288162","HierDyk34wjxqr","z1buorudu6","ms1000418","iti","","null","img/motor_5.png","72","motor","","","","","","",""
"981","","289150","HierDyk34wjxqr","z1buorudu6","ms1000418","motor","","72","img/motor_6.png","74","motor","6","119","0","1","0","",""
"80","","289244","HierDyk34wjxqr","z1buorudu6","ms1000418","motorRepeat","","74","img/motor_6.png","74","motor","6","119","1","0","0","",""
"null","","289353","HierDyk34wjxqr","z1buorudu6","ms1000418","iti","","null","img/motor_6.png","74","motor","","","","","","",""
"493","","289860","HierDyk34wjxqr","z1buorudu6","ms1000418","motor","","72","img/motor_5.png","72","motor","5","120","1","0","0","",""
"null","","289969","HierDyk34wjxqr","z1buorudu6","ms1000418","iti","","null","img/motor_5.png","72","motor","","","","","","",""
"445","","290422","HierDyk34wjxqr","z1buorudu6","ms1000418","motor","","70","img/motor_4.png","70","motor","4","121","1","0","0","",""
"null","","290537","HierDyk34wjxqr","z1buorudu6","ms1000418","iti","","null","img/motor_4.png","70","motor","","","","","","",""
"365","","290908","HierDyk34wjxqr","z1buorudu6","ms1000418","motor","","68","img/motor_3.png","68","motor","3","122","1","0","0","",""
"null","","291024","HierDyk34wjxqr","z1buorudu6","ms1000418","iti","","null","img/motor_3.png","68","motor","","","","","","",""
"550","","291581","HierDyk34wjxqr","z1buorudu6","ms1000418","motor","","76","img/motor_8.png","76","motor","8","123","1","0","0","",""
"null","","291696","HierDyk34wjxqr","z1buorudu6","ms1000418","iti","","null","img/motor_8.png","76","motor","","","","","","",""
"477","","292181","HierDyk34wjxqr","z1buorudu6","ms1000418","motor","","65","img/motor_1.png","65","motor","1","124","1","0","0","",""
"null","","292295","HierDyk34wjxqr","z1buorudu6","ms1000418","iti","","null","img/motor_1.png","65","motor","","","","","","",""
"662","","292972","HierDyk34wjxqr","z1buorudu6","ms1000418","motor","","70","img/motor_4.png","70","motor","4","125","1","0","0","",""
"null","","293087","HierDyk34wjxqr","z1buorudu6","ms1000418","iti","","null","img/motor_4.png","70","motor","","","","","","",""
"428","","293533","HierDyk34wjxqr","z1buorudu6","ms1000418","motor","","74","img/motor_5.png","72","motor","5","126","0","1","0","",""
"344","","293892","HierDyk34wjxqr","z1buorudu6","ms1000418","motorRepeat","","72","img/motor_5.png","72","motor","5","126","1","0","0","",""
"null","","294000","HierDyk34wjxqr","z1buorudu6","ms1000418","iti","","null","img/motor_5.png","72","motor","","","","","","",""
"445","","294454","HierDyk34wjxqr","z1buorudu6","ms1000418","motor","","72","img/motor_5.png","72","motor","5","127","1","0","0","",""
"null","","294562","HierDyk34wjxqr","z1buorudu6","ms1000418","iti","","null","img/motor_5.png","72","motor","","","","","","",""
"547","","295118","HierDyk34wjxqr","z1buorudu6","ms1000418","motor","","76","img/motor_8.png","76","motor","8","128","1","0","0","",""
"null","","295226","HierDyk34wjxqr","z1buorudu6","ms1000418","iti","","null","img/motor_8.png","76","motor","","","","","","",""
"643","","295883","HierDyk34wjxqr","z1buorudu6","ms1000418","motor","","83","img/motor_2.png","83","motor","2","129","1","0","0","",""
"null","","295999","HierDyk34wjxqr","z1buorudu6","ms1000418","iti","","null","img/motor_2.png","83","motor","","","","","","",""
"478","","296492","HierDyk34wjxqr","z1buorudu6","ms1000418","motor","","65","img/motor_1.png","65","motor","1","130","1","0","0","",""
"null","","296608","HierDyk34wjxqr","z1buorudu6","ms1000418","iti","","null","img/motor_1.png","65","motor","","","","","","",""
"605","","297220","HierDyk34wjxqr","z1buorudu6","ms1000418","motor","","74","img/motor_6.png","74","motor","6","131","1","0","0","",""
"null","","297335","HierDyk34wjxqr","z1buorudu6","ms1000418","iti","","null","img/motor_6.png","74","motor","","","","","","",""
"598","","297948","HierDyk34wjxqr","z1buorudu6","ms1000418","motor","","68","img/motor_3.png","68","motor","3","132","1","0","0","",""
"null","","298063","HierDyk34wjxqr","z1buorudu6","ms1000418","iti","","null","img/motor_3.png","68","motor","","","","","","",""
"469","","298541","HierDyk34wjxqr","z1buorudu6","ms1000418","motor","","65","img/motor_1.png","65","motor","1","133","1","0","0","",""
"null","","298649","HierDyk34wjxqr","z1buorudu6","ms1000418","iti","","null","img/motor_1.png","65","motor","","","","","","",""
"355","","299020","HierDyk34wjxqr","z1buorudu6","ms1000418","motor","","72","img/motor_4.png","70","motor","4","134","0","1","0","",""
"297","","299326","HierDyk34wjxqr","z1buorudu6","ms1000418","motorRepeat","","70","img/motor_4.png","70","motor","4","134","1","0","0","",""
"null","","299441","HierDyk34wjxqr","z1buorudu6","ms1000418","iti","","null","img/motor_4.png","70","motor","","","","","","",""
"612","","300068","HierDyk34wjxqr","z1buorudu6","ms1000418","motor","","74","img/motor_6.png","74","motor","6","135","1","0","0","",""
"null","","300183","HierDyk34wjxqr","z1buorudu6","ms1000418","iti","","null","img/motor_6.png","74","motor","","","","","","",""
"405","","300597","HierDyk34wjxqr","z1buorudu6","ms1000418","motor","","76","img/motor_8.png","76","motor","8","136","1","0","0","",""
"null","","300712","HierDyk34wjxqr","z1buorudu6","ms1000418","iti","","null","img/motor_8.png","76","motor","","","","","","",""
"605","","301332","HierDyk34wjxqr","z1buorudu6","ms1000418","motor","","83","img/motor_2.png","83","motor","2","137","1","0","0","",""
"null","","301448","HierDyk34wjxqr","z1buorudu6","ms1000418","iti","","null","img/motor_2.png","83","motor","","","","","","",""
"430","","301886","HierDyk34wjxqr","z1buorudu6","ms1000418","motor","","76","img/motor_8.png","76","motor","8","138","1","0","0","",""
"null","","301994","HierDyk34wjxqr","z1buorudu6","ms1000418","iti","","null","img/motor_8.png","76","motor","","","","","","",""
"483","","302492","HierDyk34wjxqr","z1buorudu6","ms1000418","motor","","72","img/motor_5.png","72","motor","5","139","1","0","0","",""
"null","","302600","HierDyk34wjxqr","z1buorudu6","ms1000418","iti","","null","img/motor_5.png","72","motor","","","","","","",""
"556","","303172","HierDyk34wjxqr","z1buorudu6","ms1000418","motor","","65","img/motor_1.png","65","motor","1","140","1","0","0","",""
"null","","303287","HierDyk34wjxqr","z1buorudu6","ms1000418","iti","","null","img/motor_1.png","65","motor","","","","","","",""
"557","","303860","HierDyk34wjxqr","z1buorudu6","ms1000418","motor","","68","img/motor_3.png","68","motor","3","141","1","0","0","",""
"null","","303969","HierDyk34wjxqr","z1buorudu6","ms1000418","iti","","null","img/motor_3.png","68","motor","","","","","","",""
"645","","304628","HierDyk34wjxqr","z1buorudu6","ms1000418","motor","","74","img/motor_6.png","74","motor","6","142","1","0","0","",""
"null","","304737","HierDyk34wjxqr","z1buorudu6","ms1000418","iti","","null","img/motor_6.png","74","motor","","","","","","",""
"541","","305286","HierDyk34wjxqr","z1buorudu6","ms1000418","motor","","65","img/motor_1.png","65","motor","1","143","1","0","0","",""
"null","","305400","HierDyk34wjxqr","z1buorudu6","ms1000418","iti","","null","img/motor_1.png","65","motor","","","","","","",""
"396","","305813","HierDyk34wjxqr","z1buorudu6","ms1000418","motor","","65","img/motor_1.png","65","motor","1","144","1","0","0","",""
"null","","305921","HierDyk34wjxqr","z1buorudu6","ms1000418","iti","","null","img/motor_1.png","65","motor","","","","","","",""
"493","","306422","HierDyk34wjxqr","z1buorudu6","ms1000418","motor","","72","img/motor_5.png","72","motor","5","145","1","0","0","",""
"null","","306537","HierDyk34wjxqr","z1buorudu6","ms1000418","iti","","null","img/motor_5.png","72","motor","","","","","","",""
"524","","307077","HierDyk34wjxqr","z1buorudu6","ms1000418","motor","","72","img/motor_5.png","72","motor","5","146","1","0","0","",""
"null","","307191","HierDyk34wjxqr","z1buorudu6","ms1000418","iti","","null","img/motor_5.png","72","motor","","","","","","",""
"685","","307886","HierDyk34wjxqr","z1buorudu6","ms1000418","motor","","75","img/motor_7.png","75","motor","7","147","1","0","0","",""
"null","","308001","HierDyk34wjxqr","z1buorudu6","ms1000418","iti","","null","img/motor_7.png","75","motor","","","","","","",""
"414","","308421","HierDyk34wjxqr","z1buorudu6","ms1000418","motor","","76","img/motor_8.png","76","motor","8","148","1","0","0","",""
"null","","308529","HierDyk34wjxqr","z1buorudu6","ms1000418","iti","","null","img/motor_8.png","76","motor","","","","","","",""
"429","","308965","HierDyk34wjxqr","z1buorudu6","ms1000418","motor","","72","img/motor_5.png","72","motor","5","149","1","0","0","",""
"null","","309080","HierDyk34wjxqr","z1buorudu6","ms1000418","iti","","null","img/motor_5.png","72","motor","","","","","","",""
"509","","309604","HierDyk34wjxqr","z1buorudu6","ms1000418","motor","","68","img/motor_3.png","68","motor","3","150","1","0","0","",""
"null","","309713","HierDyk34wjxqr","z1buorudu6","ms1000418","iti","","null","img/motor_3.png","68","motor","","","","","","",""
"429","","310157","HierDyk34wjxqr","z1buorudu6","ms1000418","motor","","68","img/motor_3.png","68","motor","3","151","1","0","0","",""
"null","","310272","HierDyk34wjxqr","z1buorudu6","ms1000418","iti","","null","img/motor_3.png","68","motor","","","","","","",""
"476","","310764","HierDyk34wjxqr","z1buorudu6","ms1000418","motor","","83","img/motor_2.png","83","motor","2","152","1","0","0","",""
"null","","310873","HierDyk34wjxqr","z1buorudu6","ms1000418","iti","","null","img/motor_2.png","83","motor","","","","","","",""
"517","","311404","HierDyk34wjxqr","z1buorudu6","ms1000418","motor","","72","img/motor_5.png","72","motor","5","153","1","0","0","",""
"null","","311520","HierDyk34wjxqr","z1buorudu6","ms1000418","iti","","null","img/motor_5.png","72","motor","","","","","","",""
"494","","312022","HierDyk34wjxqr","z1buorudu6","ms1000418","motor","","75","img/motor_7.png","75","motor","7","154","1","0","0","",""
"null","","312130","HierDyk34wjxqr","z1buorudu6","ms1000418","iti","","null","img/motor_7.png","75","motor","","","","","","",""
"747","","312893","HierDyk34wjxqr","z1buorudu6","ms1000418","motor","","68","img/motor_3.png","68","motor","3","155","1","0","0","",""
"null","","313008","HierDyk34wjxqr","z1buorudu6","ms1000418","iti","","null","img/motor_3.png","68","motor","","","","","","",""
"589","","313612","HierDyk34wjxqr","z1buorudu6","ms1000418","motor","","74","img/motor_6.png","74","motor","6","156","1","0","0","",""
"null","","313721","HierDyk34wjxqr","z1buorudu6","ms1000418","iti","","null","img/motor_6.png","74","motor","","","","","","",""
"660","","314389","HierDyk34wjxqr","z1buorudu6","ms1000418","motor","","83","img/motor_2.png","83","motor","2","157","1","0","0","",""
"null","","314497","HierDyk34wjxqr","z1buorudu6","ms1000418","iti","","null","img/motor_2.png","83","motor","","","","","","",""
"438","","314942","HierDyk34wjxqr","z1buorudu6","ms1000418","motor","","65","img/motor_1.png","65","motor","1","158","1","0","0","",""
"null","","315050","HierDyk34wjxqr","z1buorudu6","ms1000418","iti","","null","img/motor_1.png","65","motor","","","","","","",""
"516","","315580","HierDyk34wjxqr","z1buorudu6","ms1000418","motor","","83","img/motor_2.png","83","motor","2","159","1","0","0","",""
"null","","315689","HierDyk34wjxqr","z1buorudu6","ms1000418","iti","","null","img/motor_2.png","83","motor","","","","","","",""
"453","","316157","HierDyk34wjxqr","z1buorudu6","ms1000418","motor","","68","img/motor_3.png","68","motor","3","160","1","0","0","",""
"null","","316265","HierDyk34wjxqr","z1buorudu6","ms1000418","iti","","null","img/motor_3.png","68","motor","","","","","","",""
"492","","316766","HierDyk34wjxqr","z1buorudu6","ms1000418","motor","","76","img/motor_8.png","76","motor","8","161","1","0","0","",""
"null","","316874","HierDyk34wjxqr","z1buorudu6","ms1000418","iti","","null","img/motor_8.png","76","motor","","","","","","",""
"564","","317446","HierDyk34wjxqr","z1buorudu6","ms1000418","motor","","74","img/motor_6.png","74","motor","6","162","1","0","0","",""
"null","","317555","HierDyk34wjxqr","z1buorudu6","ms1000418","iti","","null","img/motor_6.png","74","motor","","","","","","",""
"484","","318046","HierDyk34wjxqr","z1buorudu6","ms1000418","motor","","72","img/motor_5.png","72","motor","5","163","1","0","0","",""
"null","","318154","HierDyk34wjxqr","z1buorudu6","ms1000418","iti","","null","img/motor_5.png","72","motor","","","","","","",""
"629","","318789","HierDyk34wjxqr","z1buorudu6","ms1000418","motor","","75","img/motor_7.png","75","motor","7","164","1","0","0","",""
"null","","318904","HierDyk34wjxqr","z1buorudu6","ms1000418","iti","","null","img/motor_7.png","75","motor","","","","","","",""
"701","","319614","HierDyk34wjxqr","z1buorudu6","ms1000418","motor","","70","img/motor_4.png","70","motor","4","165","1","0","0","",""
"null","","319722","HierDyk34wjxqr","z1buorudu6","ms1000418","iti","","null","img/motor_4.png","70","motor","","","","","","",""
"444","","320174","HierDyk34wjxqr","z1buorudu6","ms1000418","motor","","76","img/motor_8.png","76","motor","8","166","1","0","0","",""
"null","","320282","HierDyk34wjxqr","z1buorudu6","ms1000418","iti","","null","img/motor_8.png","76","motor","","","","","","",""
"691","","320981","HierDyk34wjxqr","z1buorudu6","ms1000418","motor","","75","img/motor_7.png","75","motor","7","167","1","0","0","",""
"null","","321090","HierDyk34wjxqr","z1buorudu6","ms1000418","iti","","null","img/motor_7.png","75","motor","","","","","","",""
"589","","321685","HierDyk34wjxqr","z1buorudu6","ms1000418","motor","","83","img/motor_2.png","83","motor","2","168","1","0","0","",""
"null","","321794","HierDyk34wjxqr","z1buorudu6","ms1000418","iti","","null","img/motor_2.png","83","motor","","","","","","",""
"453","","322260","HierDyk34wjxqr","z1buorudu6","ms1000418","motor","","74","img/motor_6.png","74","motor","6","169","1","0","0","",""
"null","","322376","HierDyk34wjxqr","z1buorudu6","ms1000418","iti","","null","img/motor_6.png","74","motor","","","","","","",""
"516","","322908","HierDyk34wjxqr","z1buorudu6","ms1000418","motor","","83","img/motor_2.png","83","motor","2","170","1","0","0","",""
"null","","323024","HierDyk34wjxqr","z1buorudu6","ms1000418","iti","","null","img/motor_2.png","83","motor","","","","","","",""
"614","","323645","HierDyk34wjxqr","z1buorudu6","ms1000418","motor","","75","img/motor_7.png","75","motor","7","171","1","0","0","",""
"null","","323760","HierDyk34wjxqr","z1buorudu6","ms1000418","iti","","null","img/motor_7.png","75","motor","","","","","","",""
"532","","324301","HierDyk34wjxqr","z1buorudu6","ms1000418","motor","","72","img/motor_5.png","72","motor","5","172","1","0","0","",""
"null","","324409","HierDyk34wjxqr","z1buorudu6","ms1000418","iti","","null","img/motor_5.png","72","motor","","","","","","",""
"492","","324910","HierDyk34wjxqr","z1buorudu6","ms1000418","motor","","65","img/motor_1.png","65","motor","1","173","1","0","0","",""
"null","","325025","HierDyk34wjxqr","z1buorudu6","ms1000418","iti","","null","img/motor_1.png","65","motor","","","","","","",""
"533","","325572","HierDyk34wjxqr","z1buorudu6","ms1000418","motor","","83","img/motor_2.png","83","motor","2","174","1","0","0","",""
"null","","325680","HierDyk34wjxqr","z1buorudu6","ms1000418","iti","","null","img/motor_2.png","83","motor","","","","","","",""
"500","","326192","HierDyk34wjxqr","z1buorudu6","ms1000418","motor","","72","img/motor_5.png","72","motor","5","175","1","0","0","",""
"null","","326307","HierDyk34wjxqr","z1buorudu6","ms1000418","iti","","null","img/motor_5.png","72","motor","","","","","","",""
"440","","326765","HierDyk34wjxqr","z1buorudu6","ms1000418","motor","","65","img/motor_1.png","65","motor","1","176","1","0","0","",""
"null","","326881","HierDyk34wjxqr","z1buorudu6","ms1000418","iti","","null","img/motor_1.png","65","motor","","","","","","",""
"492","","327389","HierDyk34wjxqr","z1buorudu6","ms1000418","motor","","83","img/motor_2.png","83","motor","2","177","1","0","0","",""
"null","","327499","HierDyk34wjxqr","z1buorudu6","ms1000418","iti","","null","img/motor_2.png","83","motor","","","","","","",""
"516","","328028","HierDyk34wjxqr","z1buorudu6","ms1000418","motor","","70","img/motor_4.png","70","motor","4","178","1","0","0","",""
"null","","328145","HierDyk34wjxqr","z1buorudu6","ms1000418","iti","","null","img/motor_4.png","70","motor","","","","","","",""
"405","","328558","HierDyk34wjxqr","z1buorudu6","ms1000418","motor","","65","img/motor_1.png","65","motor","1","179","1","0","0","",""
"null","","328673","HierDyk34wjxqr","z1buorudu6","ms1000418","iti","","null","img/motor_1.png","65","motor","","","","","","",""
"571","","329254","HierDyk34wjxqr","z1buorudu6","ms1000418","motor","","68","img/motor_3.png","68","motor","3","180","1","0","0","",""
"null","","329369","HierDyk34wjxqr","z1buorudu6","ms1000418","iti","","null","img/motor_3.png","68","motor","","","","","","",""
"387","","329766","HierDyk34wjxqr","z1buorudu6","ms1000418","motor","","68","img/motor_3.png","68","motor","3","181","1","0","0","",""
"null","","329882","HierDyk34wjxqr","z1buorudu6","ms1000418","iti","","null","img/motor_3.png","68","motor","","","","","","",""
"548","","330438","HierDyk34wjxqr","z1buorudu6","ms1000418","motor","","72","img/motor_5.png","72","motor","5","182","1","0","0","",""
"null","","330553","HierDyk34wjxqr","z1buorudu6","ms1000418","iti","","null","img/motor_5.png","72","motor","","","","","","",""
"371","","330941","HierDyk34wjxqr","z1buorudu6","ms1000418","motor","","74","img/motor_6.png","74","motor","6","183","1","0","0","",""
"null","","331056","HierDyk34wjxqr","z1buorudu6","ms1000418","iti","","null","img/motor_6.png","74","motor","","","","","","",""
"468","","331540","HierDyk34wjxqr","z1buorudu6","ms1000418","motor","","75","img/motor_7.png","75","motor","7","184","1","0","0","",""
"null","","331657","HierDyk34wjxqr","z1buorudu6","ms1000418","iti","","null","img/motor_7.png","75","motor","","","","","","",""
"436","","332109","HierDyk34wjxqr","z1buorudu6","ms1000418","motor","","74","img/motor_6.png","74","motor","6","185","1","0","0","",""
"null","","332224","HierDyk34wjxqr","z1buorudu6","ms1000418","iti","","null","img/motor_6.png","74","motor","","","","","","",""
"492","","332732","HierDyk34wjxqr","z1buorudu6","ms1000418","motor","","70","img/motor_4.png","70","motor","4","186","1","0","0","",""
"null","","332841","HierDyk34wjxqr","z1buorudu6","ms1000418","iti","","null","img/motor_4.png","70","motor","","","","","","",""
"437","","333286","HierDyk34wjxqr","z1buorudu6","ms1000418","motor","","83","img/motor_2.png","83","motor","2","187","1","0","0","",""
"null","","333394","HierDyk34wjxqr","z1buorudu6","ms1000418","iti","","null","img/motor_2.png","83","motor","","","","","","",""
"453","","333861","HierDyk34wjxqr","z1buorudu6","ms1000418","motor","","76","img/motor_8.png","76","motor","8","188","1","0","0","",""
"null","","333970","HierDyk34wjxqr","z1buorudu6","ms1000418","iti","","null","img/motor_8.png","76","motor","","","","","","",""
"476","","334454","HierDyk34wjxqr","z1buorudu6","ms1000418","motor","","70","img/motor_4.png","70","motor","4","189","1","0","0","",""
"null","","334569","HierDyk34wjxqr","z1buorudu6","ms1000418","iti","","null","img/motor_4.png","70","motor","","","","","","",""
"395","","334981","HierDyk34wjxqr","z1buorudu6","ms1000418","motor","","70","img/motor_4.png","70","motor","4","190","1","0","0","",""
"null","","335090","HierDyk34wjxqr","z1buorudu6","ms1000418","iti","","null","img/motor_4.png","70","motor","","","","","","",""
"603","","335708","HierDyk34wjxqr","z1buorudu6","ms1000418","motor","","74","img/motor_6.png","74","motor","6","191","1","0","0","",""
"null","","335818","HierDyk34wjxqr","z1buorudu6","ms1000418","iti","","null","img/motor_6.png","74","motor","","","","","","",""
"779","","336613","HierDyk34wjxqr","z1buorudu6","ms1000418","motor","","83","img/motor_2.png","83","motor","2","192","1","0","0","",""
"null","","336728","HierDyk34wjxqr","z1buorudu6","ms1000418","iti","","null","img/motor_2.png","83","motor","","","","","","",""
"574","","337317","HierDyk34wjxqr","z1buorudu6","ms1000418","motor","","74","img/motor_6.png","74","motor","6","193","1","0","0","",""
"null","","337432","HierDyk34wjxqr","z1buorudu6","ms1000418","iti","","null","img/motor_6.png","74","motor","","","","","","",""
"493","","337935","HierDyk34wjxqr","z1buorudu6","ms1000418","motor","","75","img/motor_7.png","75","motor","7","194","1","0","0","",""
"null","","338050","HierDyk34wjxqr","z1buorudu6","ms1000418","iti","","null","img/motor_7.png","75","motor","","","","","","",""
"444","","338501","HierDyk34wjxqr","z1buorudu6","ms1000418","motor","","72","img/motor_5.png","72","motor","5","195","1","0","0","",""
"null","","338616","HierDyk34wjxqr","z1buorudu6","ms1000418","iti","","null","img/motor_5.png","72","motor","","","","","","",""
"558","","339189","HierDyk34wjxqr","z1buorudu6","ms1000418","motor","","74","img/motor_6.png","74","motor","6","196","1","0","0","",""
"null","","339304","HierDyk34wjxqr","z1buorudu6","ms1000418","iti","","null","img/motor_6.png","74","motor","","","","","","",""
"644","","339957","HierDyk34wjxqr","z1buorudu6","ms1000418","motor","","68","img/motor_3.png","68","motor","3","197","1","0","0","",""
"null","","340073","HierDyk34wjxqr","z1buorudu6","ms1000418","iti","","null","img/motor_3.png","68","motor","","","","","","",""
"357","","340438","HierDyk34wjxqr","z1buorudu6","ms1000418","motor","","68","img/motor_3.png","68","motor","3","198","1","0","0","",""
"null","","340552","HierDyk34wjxqr","z1buorudu6","ms1000418","iti","","null","img/motor_3.png","68","motor","","","","","","",""
"1133","","341694","HierDyk34wjxqr","z1buorudu6","ms1000418","motor","","75","img/motor_7.png","75","motor","7","199","1","0","0","",""
"null","","341810","HierDyk34wjxqr","z1buorudu6","ms1000418","iti","","null","img/motor_7.png","75","motor","","","","","","",""
"483","","342309","HierDyk34wjxqr","z1buorudu6","ms1000418","motor","","70","img/motor_4.png","70","motor","4","200","1","0","0","",""
"null","","342424","HierDyk34wjxqr","z1buorudu6","ms1000418","iti","","null","img/motor_4.png","70","motor","","","","","","",""
"606","","343038","HierDyk34wjxqr","z1buorudu6","ms1000418","motor","","75","img/motor_7.png","75","motor","7","201","1","0","0","",""
"null","","343154","HierDyk34wjxqr","z1buorudu6","ms1000418","iti","","null","img/motor_7.png","75","motor","","","","","","",""
"507","","343670","HierDyk34wjxqr","z1buorudu6","ms1000418","motor","","74","img/motor_6.png","74","motor","6","202","1","0","0","",""
"null","","343778","HierDyk34wjxqr","z1buorudu6","ms1000418","iti","","null","img/motor_6.png","74","motor","","","","","","",""
"468","","344252","HierDyk34wjxqr","z1buorudu6","ms1000418","motor","","75","img/motor_7.png","75","motor","7","203","1","0","0","",""
"null","","344368","HierDyk34wjxqr","z1buorudu6","ms1000418","iti","","null","img/motor_7.png","75","motor","","","","","","",""
"654","","345037","HierDyk34wjxqr","z1buorudu6","ms1000418","motor","","68","img/motor_3.png","68","motor","3","204","1","0","0","",""
"null","","345152","HierDyk34wjxqr","z1buorudu6","ms1000418","iti","","null","img/motor_3.png","68","motor","","","","","","",""
"469","","345630","HierDyk34wjxqr","z1buorudu6","ms1000418","motor","","72","img/motor_5.png","72","motor","5","205","1","0","0","",""
"null","","345745","HierDyk34wjxqr","z1buorudu6","ms1000418","iti","","null","img/motor_5.png","72","motor","","","","","","",""
"540","","346300","HierDyk34wjxqr","z1buorudu6","ms1000418","motor","","68","img/motor_3.png","68","motor","3","206","1","0","0","",""
"null","","346416","HierDyk34wjxqr","z1buorudu6","ms1000418","iti","","null","img/motor_3.png","68","motor","","","","","","",""
"718","","347149","HierDyk34wjxqr","z1buorudu6","ms1000418","motor","","75","img/motor_7.png","75","motor","7","207","1","0","0","",""
"null","","347264","HierDyk34wjxqr","z1buorudu6","ms1000418","iti","","null","img/motor_7.png","75","motor","","","","","","",""
"453","","347725","HierDyk34wjxqr","z1buorudu6","ms1000418","motor","","72","img/motor_5.png","72","motor","5","208","1","0","0","",""
"null","","347840","HierDyk34wjxqr","z1buorudu6","ms1000418","iti","","null","img/motor_5.png","72","motor","","","","","","",""
"469","","348318","HierDyk34wjxqr","z1buorudu6","ms1000418","motor","","76","img/motor_8.png","76","motor","8","209","1","0","0","",""
"null","","348433","HierDyk34wjxqr","z1buorudu6","ms1000418","iti","","null","img/motor_8.png","76","motor","","","","","","",""
"532","","348975","HierDyk34wjxqr","z1buorudu6","ms1000418","motor","","70","img/motor_4.png","70","motor","4","210","1","0","0","",""
"null","","349082","HierDyk34wjxqr","z1buorudu6","ms1000418","iti","","null","img/motor_4.png","70","motor","","","","","","",""
"547","","349645","HierDyk34wjxqr","z1buorudu6","ms1000418","motor","","74","img/motor_6.png","74","motor","6","211","1","0","0","",""
"null","","349754","HierDyk34wjxqr","z1buorudu6","ms1000418","iti","","null","img/motor_6.png","74","motor","","","","","","",""
"405","","350173","HierDyk34wjxqr","z1buorudu6","ms1000418","motor","","72","img/motor_5.png","72","motor","5","212","1","0","0","",""
"null","","350281","HierDyk34wjxqr","z1buorudu6","ms1000418","iti","","null","img/motor_5.png","72","motor","","","","","","",""
"461","","350757","HierDyk34wjxqr","z1buorudu6","ms1000418","motor","","72","img/motor_5.png","72","motor","5","213","1","0","0","",""
"null","","350866","HierDyk34wjxqr","z1buorudu6","ms1000418","iti","","null","img/motor_5.png","72","motor","","","","","","",""
"565","","351438","HierDyk34wjxqr","z1buorudu6","ms1000418","motor","","74","img/motor_6.png","74","motor","6","214","1","0","0","",""
"null","","351546","HierDyk34wjxqr","z1buorudu6","ms1000418","iti","","null","img/motor_6.png","74","motor","","","","","","",""
"588","","352142","HierDyk34wjxqr","z1buorudu6","ms1000418","motor","","68","img/motor_3.png","68","motor","3","215","1","0","0","",""
"null","","352251","HierDyk34wjxqr","z1buorudu6","ms1000418","iti","","null","img/motor_3.png","68","motor","","","","","","",""
"546","","352806","HierDyk34wjxqr","z1buorudu6","ms1000418","motor","","65","img/motor_1.png","65","motor","1","216","1","0","0","",""
"null","","352914","HierDyk34wjxqr","z1buorudu6","ms1000418","iti","","null","img/motor_1.png","65","motor","","","","","","",""
"660","","353582","HierDyk34wjxqr","z1buorudu6","ms1000418","motor","","75","img/motor_7.png","75","motor","7","217","1","0","0","",""
"null","","353690","HierDyk34wjxqr","z1buorudu6","ms1000418","iti","","null","img/motor_7.png","75","motor","","","","","","",""
"579","","354285","HierDyk34wjxqr","z1buorudu6","ms1000418","motor","","68","img/motor_3.png","68","motor","3","218","1","0","0","",""
"null","","354394","HierDyk34wjxqr","z1buorudu6","ms1000418","iti","","null","img/motor_3.png","68","motor","","","","","","",""
"389","","354790","HierDyk34wjxqr","z1buorudu6","ms1000418","motor","","70","img/motor_4.png","70","motor","4","219","1","0","0","",""
"null","","354899","HierDyk34wjxqr","z1buorudu6","ms1000418","iti","","null","img/motor_4.png","70","motor","","","","","","",""
"604","","355510","HierDyk34wjxqr","z1buorudu6","ms1000418","motor","","68","img/motor_3.png","68","motor","3","220","1","0","0","",""
"null","","355618","HierDyk34wjxqr","z1buorudu6","ms1000418","iti","","null","img/motor_3.png","68","motor","","","","","","",""
"372","","355998","HierDyk34wjxqr","z1buorudu6","ms1000418","motor","","70","img/motor_4.png","70","motor","4","221","1","0","0","",""
"null","","356113","HierDyk34wjxqr","z1buorudu6","ms1000418","iti","","null","img/motor_4.png","70","motor","","","","","","",""
"723","","356845","HierDyk34wjxqr","z1buorudu6","ms1000418","motor","","74","img/motor_6.png","74","motor","6","222","1","0","0","",""
"null","","356954","HierDyk34wjxqr","z1buorudu6","ms1000418","iti","","null","img/motor_6.png","74","motor","","","","","","",""
"477","","357438","HierDyk34wjxqr","z1buorudu6","ms1000418","motor","","75","img/motor_7.png","75","motor","7","223","1","0","0","",""
"null","","357553","HierDyk34wjxqr","z1buorudu6","ms1000418","iti","","null","img/motor_7.png","75","motor","","","","","","",""
"573","","358141","HierDyk34wjxqr","z1buorudu6","ms1000418","motor","","70","img/motor_4.png","70","motor","4","224","1","0","0","",""
"null","","358257","HierDyk34wjxqr","z1buorudu6","ms1000418","iti","","null","img/motor_4.png","70","motor","","","","","","",""
"516","","358782","HierDyk34wjxqr","z1buorudu6","ms1000418","motor","","83","img/motor_2.png","83","motor","2","225","1","0","0","",""
"null","","358897","HierDyk34wjxqr","z1buorudu6","ms1000418","iti","","null","img/motor_2.png","83","motor","","","","","","",""
"452","","359358","HierDyk34wjxqr","z1buorudu6","ms1000418","motor","","70","img/motor_4.png","70","motor","4","226","1","0","0","",""
"null","","359473","HierDyk34wjxqr","z1buorudu6","ms1000418","iti","","null","img/motor_4.png","70","motor","","","","","","",""
"462","","359942","HierDyk34wjxqr","z1buorudu6","ms1000418","motor","","72","img/motor_5.png","72","motor","5","227","1","0","0","",""
"null","","360057","HierDyk34wjxqr","z1buorudu6","ms1000418","iti","","null","img/motor_5.png","72","motor","","","","","","",""
"404","","360477","HierDyk34wjxqr","z1buorudu6","ms1000418","motor","","68","img/motor_4.png","70","motor","4","228","0","1","0","",""
"329","","360814","HierDyk34wjxqr","z1buorudu6","ms1000418","motorRepeat","","70","img/motor_4.png","70","motor","4","228","1","0","0","",""
"null","","360929","HierDyk34wjxqr","z1buorudu6","ms1000418","iti","","null","img/motor_4.png","70","motor","","","","","","",""
"429","","361366","HierDyk34wjxqr","z1buorudu6","ms1000418","motor","","72","img/motor_5.png","72","motor","5","229","1","0","0","",""
"null","","361481","HierDyk34wjxqr","z1buorudu6","ms1000418","iti","","null","img/motor_5.png","72","motor","","","","","","",""
"396","","361886","HierDyk34wjxqr","z1buorudu6","ms1000418","motor","","70","img/motor_4.png","70","motor","4","230","1","0","0","",""
"null","","362001","HierDyk34wjxqr","z1buorudu6","ms1000418","iti","","null","img/motor_4.png","70","motor","","","","","","",""
"501","","362517","HierDyk34wjxqr","z1buorudu6","ms1000418","motor","","76","img/motor_8.png","76","motor","8","231","1","0","0","",""
"null","","362632","HierDyk34wjxqr","z1buorudu6","ms1000418","iti","","null","img/motor_8.png","76","motor","","","","","","",""
"398","","363045","HierDyk34wjxqr","z1buorudu6","ms1000418","motor","","65","img/motor_1.png","65","motor","1","232","1","0","0","",""
"null","","363161","HierDyk34wjxqr","z1buorudu6","ms1000418","iti","","null","img/motor_1.png","65","motor","","","","","","",""
"582","","363749","HierDyk34wjxqr","z1buorudu6","ms1000418","motor","","74","img/motor_6.png","74","motor","6","233","1","0","0","",""
"null","","363858","HierDyk34wjxqr","z1buorudu6","ms1000418","iti","","null","img/motor_6.png","74","motor","","","","","","",""
"524","","364397","HierDyk34wjxqr","z1buorudu6","ms1000418","motor","","65","img/motor_1.png","65","motor","1","234","1","0","0","",""
"null","","364512","HierDyk34wjxqr","z1buorudu6","ms1000418","iti","","null","img/motor_1.png","65","motor","","","","","","",""
"508","","365029","HierDyk34wjxqr","z1buorudu6","ms1000418","motor","","70","img/motor_4.png","70","motor","4","235","1","0","0","",""
"null","","365138","HierDyk34wjxqr","z1buorudu6","ms1000418","iti","","null","img/motor_4.png","70","motor","","","","","","",""
"475","","365622","HierDyk34wjxqr","z1buorudu6","ms1000418","motor","","76","img/motor_8.png","76","motor","8","236","1","0","0","",""
"null","","365730","HierDyk34wjxqr","z1buorudu6","ms1000418","iti","","null","img/motor_8.png","76","motor","","","","","","",""
"468","","366206","HierDyk34wjxqr","z1buorudu6","ms1000418","motor","","65","img/motor_1.png","65","motor","1","237","1","0","0","",""
"null","","366314","HierDyk34wjxqr","z1buorudu6","ms1000418","iti","","null","img/motor_1.png","65","motor","","","","","","",""
"396","","366725","HierDyk34wjxqr","z1buorudu6","ms1000418","motor","","65","img/motor_1.png","65","motor","1","238","1","0","0","",""
"null","","366841","HierDyk34wjxqr","z1buorudu6","ms1000418","iti","","null","img/motor_1.png","65","motor","","","","","","",""
"589","","367445","HierDyk34wjxqr","z1buorudu6","ms1000418","motor","","75","img/motor_7.png","75","motor","7","239","1","0","0","",""
"null","","367561","HierDyk34wjxqr","z1buorudu6","ms1000418","iti","","null","img/motor_7.png","75","motor","","","","","","",""
"460","","368037","HierDyk34wjxqr","z1buorudu6","ms1000418","motor","","74","img/motor_6.png","74","motor","6","240","1","0","0","",""
"null","","368153","HierDyk34wjxqr","z1buorudu6","ms1000418","iti","","null","img/motor_6.png","74","motor","","","","","","",""
"485","","368646","HierDyk34wjxqr","z1buorudu6","ms1000418","motor","","76","img/motor_8.png","76","motor","8","241","1","0","0","",""
"null","","368761","HierDyk34wjxqr","z1buorudu6","ms1000418","iti","","null","img/motor_8.png","76","motor","","","","","","",""
"709","","369479","HierDyk34wjxqr","z1buorudu6","ms1000418","motor","","70","img/motor_4.png","70","motor","4","242","1","0","0","",""
"null","","369586","HierDyk34wjxqr","z1buorudu6","ms1000418","iti","","null","img/motor_4.png","70","motor","","","","","","",""
"460","","370054","HierDyk34wjxqr","z1buorudu6","ms1000418","motor","","68","img/motor_3.png","68","motor","3","243","1","0","0","",""
"null","","370163","HierDyk34wjxqr","z1buorudu6","ms1000418","iti","","null","img/motor_3.png","68","motor","","","","","","",""
"506","","370678","HierDyk34wjxqr","z1buorudu6","ms1000418","motor","","65","img/motor_1.png","65","motor","1","244","1","0","0","",""
"null","","370787","HierDyk34wjxqr","z1buorudu6","ms1000418","iti","","null","img/motor_1.png","65","motor","","","","","","",""
"500","","371295","HierDyk34wjxqr","z1buorudu6","ms1000418","motor","","76","img/motor_8.png","76","motor","8","245","1","0","0","",""
"null","","371410","HierDyk34wjxqr","z1buorudu6","ms1000418","iti","","null","img/motor_8.png","76","motor","","","","","","",""
"564","","371989","HierDyk34wjxqr","z1buorudu6","ms1000418","motor","","68","img/motor_3.png","68","motor","3","246","1","0","0","",""
"null","","372105","HierDyk34wjxqr","z1buorudu6","ms1000418","iti","","null","img/motor_3.png","68","motor","","","","","","",""
"790","","372903","HierDyk34wjxqr","z1buorudu6","ms1000418","motor","","72","img/motor_5.png","72","motor","5","247","1","0","0","",""
"null","","373011","HierDyk34wjxqr","z1buorudu6","ms1000418","iti","","null","img/motor_5.png","72","motor","","","","","","",""
"451","","373470","HierDyk34wjxqr","z1buorudu6","ms1000418","motor","","65","img/motor_1.png","65","motor","1","248","1","0","0","",""
"null","","373579","HierDyk34wjxqr","z1buorudu6","ms1000418","iti","","null","img/motor_1.png","65","motor","","","","","","",""
"619","","374213","HierDyk34wjxqr","z1buorudu6","ms1000418","motor","","68","img/motor_3.png","68","motor","3","249","1","0","0","",""
"null","","374328","HierDyk34wjxqr","z1buorudu6","ms1000418","iti","","null","img/motor_3.png","68","motor","","","","","","",""
"468","","374813","HierDyk34wjxqr","z1buorudu6","ms1000418","motor","","76","img/motor_8.png","76","motor","8","250","1","0","0","",""
"null","","374922","HierDyk34wjxqr","z1buorudu6","ms1000418","iti","","null","img/motor_8.png","76","motor","","","","","","",""
"476","","375413","HierDyk34wjxqr","z1buorudu6","ms1000418","motor","","70","img/motor_4.png","70","motor","4","251","1","0","0","",""
"null","","375529","HierDyk34wjxqr","z1buorudu6","ms1000418","iti","","null","img/motor_4.png","70","motor","","","","","","",""
"637","","376174","HierDyk34wjxqr","z1buorudu6","ms1000418","motor","","83","img/motor_2.png","83","motor","2","252","1","0","0","",""
"null","","376289","HierDyk34wjxqr","z1buorudu6","ms1000418","iti","","null","img/motor_2.png","83","motor","","","","","","",""
"414","","376711","HierDyk34wjxqr","z1buorudu6","ms1000418","motor","","65","img/motor_1.png","65","motor","1","253","1","0","0","",""
"null","","376819","HierDyk34wjxqr","z1buorudu6","ms1000418","iti","","null","img/motor_1.png","65","motor","","","","","","",""
"459","","377293","HierDyk34wjxqr","z1buorudu6","ms1000418","motor","","65","img/motor_1.png","65","motor","1","254","1","0","0","",""
"null","","377402","HierDyk34wjxqr","z1buorudu6","ms1000418","iti","","null","img/motor_1.png","65","motor","","","","","","",""
"555","","377962","HierDyk34wjxqr","z1buorudu6","ms1000418","motor","","68","img/motor_3.png","68","motor","3","255","1","0","0","",""
"null","","378067","HierDyk34wjxqr","z1buorudu6","ms1000418","iti","","null","img/motor_3.png","68","motor","","","","","","",""
"418","","378490","HierDyk34wjxqr","z1buorudu6","ms1000418","motor","","65","img/motor_1.png","65","motor","1","256","1","0","0","",""
"null","","378594","HierDyk34wjxqr","z1buorudu6","ms1000418","iti","","null","img/motor_1.png","65","motor","","","","","","",""
"908","","379510","HierDyk34wjxqr","z1buorudu6","ms1000418","motor","","75","img/motor_7.png","75","motor","7","257","1","0","0","",""
"null","","379625","HierDyk34wjxqr","z1buorudu6","ms1000418","iti","","null","img/motor_7.png","75","motor","","","","","","",""
"461","","380094","HierDyk34wjxqr","z1buorudu6","ms1000418","motor","","76","img/motor_8.png","76","motor","8","258","1","0","0","",""
"null","","380210","HierDyk34wjxqr","z1buorudu6","ms1000418","iti","","null","img/motor_8.png","76","motor","","","","","","",""
"612","","380831","HierDyk34wjxqr","z1buorudu6","ms1000418","motor","","76","img/motor_8.png","76","motor","8","259","1","0","0","",""
"null","","380939","HierDyk34wjxqr","z1buorudu6","ms1000418","iti","","null","img/motor_8.png","76","motor","","","","","","",""
"628","","381574","HierDyk34wjxqr","z1buorudu6","ms1000418","motor","","83","img/motor_2.png","83","motor","2","260","1","0","0","",""
"null","","381690","HierDyk34wjxqr","z1buorudu6","ms1000418","iti","","null","img/motor_2.png","83","motor","","","","","","",""
"540","","382238","HierDyk34wjxqr","z1buorudu6","ms1000418","motor","","65","img/motor_1.png","65","motor","1","261","1","0","0","",""
"null","","382353","HierDyk34wjxqr","z1buorudu6","ms1000418","iti","","null","img/motor_1.png","65","motor","","","","","","",""
"525","","382893","HierDyk34wjxqr","z1buorudu6","ms1000418","motor","","72","img/motor_5.png","72","motor","5","262","1","0","0","",""
"null","","383008","HierDyk34wjxqr","z1buorudu6","ms1000418","iti","","null","img/motor_5.png","72","motor","","","","","","",""
"437","","383453","HierDyk34wjxqr","z1buorudu6","ms1000418","motor","","76","img/motor_8.png","76","motor","8","263","1","0","0","",""
"null","","383568","HierDyk34wjxqr","z1buorudu6","ms1000418","iti","","null","img/motor_8.png","76","motor","","","","","","",""
"382","","383965","HierDyk34wjxqr","z1buorudu6","ms1000418","motor","","72","img/motor_5.png","72","motor","5","264","1","0","0","",""
"null","","384081","HierDyk34wjxqr","z1buorudu6","ms1000418","iti","","null","img/motor_5.png","72","motor","","","","","","",""
"469","","384559","HierDyk34wjxqr","z1buorudu6","ms1000418","motor","","65","img/motor_1.png","65","motor","1","265","1","0","0","",""
"null","","384673","HierDyk34wjxqr","z1buorudu6","ms1000418","iti","","null","img/motor_1.png","65","motor","","","","","","",""
"444","","385133","HierDyk34wjxqr","z1buorudu6","ms1000418","motor","","76","img/motor_8.png","76","motor","8","266","1","0","0","",""
"null","","385248","HierDyk34wjxqr","z1buorudu6","ms1000418","iti","","null","img/motor_8.png","76","motor","","","","","","",""
"541","","385805","HierDyk34wjxqr","z1buorudu6","ms1000418","motor","","74","img/motor_6.png","74","motor","6","267","1","0","0","",""
"null","","385921","HierDyk34wjxqr","z1buorudu6","ms1000418","iti","","null","img/motor_6.png","74","motor","","","","","","",""
"485","","386421","HierDyk34wjxqr","z1buorudu6","ms1000418","motor","","74","img/motor_6.png","74","motor","6","268","1","0","0","",""
"null","","386537","HierDyk34wjxqr","z1buorudu6","ms1000418","iti","","null","img/motor_6.png","74","motor","","","","","","",""
"790","","387341","HierDyk34wjxqr","z1buorudu6","ms1000418","motor","","68","img/motor_3.png","68","motor","3","269","1","0","0","",""
"null","","387457","HierDyk34wjxqr","z1buorudu6","ms1000418","iti","","null","img/motor_3.png","68","motor","","","","","","",""
"525","","387991","HierDyk34wjxqr","z1buorudu6","ms1000418","motor","","74","img/motor_6.png","74","motor","6","270","1","0","0","",""
"null","","388099","HierDyk34wjxqr","z1buorudu6","ms1000418","iti","","null","img/motor_6.png","74","motor","","","","","","",""
"436","","388542","HierDyk34wjxqr","z1buorudu6","ms1000418","motor","","72","img/motor_5.png","72","motor","5","271","1","0","0","",""
"null","","388657","HierDyk34wjxqr","z1buorudu6","ms1000418","iti","","null","img/motor_5.png","72","motor","","","","","","",""
"468","","389134","HierDyk34wjxqr","z1buorudu6","ms1000418","motor","","70","img/motor_4.png","70","motor","4","272","1","0","0","",""
"null","","389250","HierDyk34wjxqr","z1buorudu6","ms1000418","iti","","null","img/motor_4.png","70","motor","","","","","","",""
"1053","","390324","HierDyk34wjxqr","z1buorudu6","ms1000418","motor","","83","img/motor_2.png","83","motor","2","273","1","0","0","",""
"null","","390432","HierDyk34wjxqr","z1buorudu6","ms1000418","iti","","null","img/motor_2.png","83","motor","","","","","","",""
"716","","391165","HierDyk34wjxqr","z1buorudu6","ms1000418","motor","","74","img/motor_6.png","74","motor","6","274","1","0","0","",""
"null","","391275","HierDyk34wjxqr","z1buorudu6","ms1000418","iti","","null","img/motor_6.png","74","motor","","","","","","",""
"139","","391422","HierDyk34wjxqr","z1buorudu6","ms1000418","motor","","72","img/motor_5.png","72","motor","5","275","1","0","0","",""
"null","","391531","HierDyk34wjxqr","z1buorudu6","ms1000418","iti","","null","img/motor_5.png","72","motor","","","","","","",""
"1219","","392765","HierDyk34wjxqr","z1buorudu6","ms1000418","motor","","83","img/motor_2.png","83","motor","2","276","1","0","0","",""
"null","","392875","HierDyk34wjxqr","z1buorudu6","ms1000418","iti","","null","img/motor_2.png","83","motor","","","","","","",""
"693","","393581","HierDyk34wjxqr","z1buorudu6","ms1000418","motor","","75","img/motor_7.png","75","motor","7","277","1","0","0","",""
"null","","393697","HierDyk34wjxqr","z1buorudu6","ms1000418","iti","","null","img/motor_7.png","75","motor","","","","","","",""
"428","","394134","HierDyk34wjxqr","z1buorudu6","ms1000418","motor","","76","img/motor_8.png","76","motor","8","278","1","0","0","",""
"null","","394243","HierDyk34wjxqr","z1buorudu6","ms1000418","iti","","null","img/motor_8.png","76","motor","","","","","","",""
"627","","394885","HierDyk34wjxqr","z1buorudu6","ms1000418","motor","","75","img/motor_7.png","75","motor","7","279","1","0","0","",""
"null","","395001","HierDyk34wjxqr","z1buorudu6","ms1000418","iti","","null","img/motor_7.png","75","motor","","","","","","",""
"460","","395477","HierDyk34wjxqr","z1buorudu6","ms1000418","motor","","74","img/motor_6.png","74","motor","6","280","1","0","0","",""
"null","","395593","HierDyk34wjxqr","z1buorudu6","ms1000418","iti","","null","img/motor_6.png","74","motor","","","","","","",""
"492","","396101","HierDyk34wjxqr","z1buorudu6","ms1000418","motor","","70","img/motor_4.png","70","motor","4","281","1","0","0","",""
"null","","396217","HierDyk34wjxqr","z1buorudu6","ms1000418","iti","","null","img/motor_4.png","70","motor","","","","","","",""
"429","","396654","HierDyk34wjxqr","z1buorudu6","ms1000418","motor","","83","img/motor_2.png","83","motor","2","282","1","0","0","",""
"null","","396769","HierDyk34wjxqr","z1buorudu6","ms1000418","iti","","null","img/motor_2.png","83","motor","","","","","","",""
"517","","397295","HierDyk34wjxqr","z1buorudu6","ms1000418","motor","","76","img/motor_8.png","76","motor","8","283","1","0","0","",""
"null","","397403","HierDyk34wjxqr","z1buorudu6","ms1000418","iti","","null","img/motor_8.png","76","motor","","","","","","",""
"547","","397958","HierDyk34wjxqr","z1buorudu6","ms1000418","motor","","83","img/motor_2.png","83","motor","2","284","1","0","0","",""
"null","","398073","HierDyk34wjxqr","z1buorudu6","ms1000418","iti","","null","img/motor_2.png","83","motor","","","","","","",""
"517","","398605","HierDyk34wjxqr","z1buorudu6","ms1000418","motor","","70","img/motor_4.png","70","motor","4","285","1","0","0","",""
"null","","398714","HierDyk34wjxqr","z1buorudu6","ms1000418","iti","","null","img/motor_4.png","70","motor","","","","","","",""
"444","","399166","HierDyk34wjxqr","z1buorudu6","ms1000418","motor","","70","img/motor_4.png","70","motor","4","286","1","0","0","",""
"null","","399282","HierDyk34wjxqr","z1buorudu6","ms1000418","iti","","null","img/motor_4.png","70","motor","","","","","","",""
"524","","399814","HierDyk34wjxqr","z1buorudu6","ms1000418","motor","","68","img/motor_3.png","68","motor","3","287","1","0","0","",""
"null","","399923","HierDyk34wjxqr","z1buorudu6","ms1000418","iti","","null","img/motor_3.png","68","motor","","","","","","",""
"452","","400389","HierDyk34wjxqr","z1buorudu6","ms1000418","motor","","70","img/motor_4.png","70","motor","4","288","1","0","0","",""
"null","","400505","HierDyk34wjxqr","z1buorudu6","ms1000418","iti","","null","img/motor_4.png","70","motor","","","","","","",""
"668","","401182","HierDyk34wjxqr","z1buorudu6","ms1000418","motor","","75","img/motor_7.png","75","motor","7","289","1","0","0","",""
"null","","401298","HierDyk34wjxqr","z1buorudu6","ms1000418","iti","","null","img/motor_7.png","75","motor","","","","","","",""
"445","","401757","HierDyk34wjxqr","z1buorudu6","ms1000418","motor","","72","img/motor_5.png","72","motor","5","290","1","0","0","",""
"null","","401873","HierDyk34wjxqr","z1buorudu6","ms1000418","iti","","null","img/motor_5.png","72","motor","","","","","","",""
"661","","402549","HierDyk34wjxqr","z1buorudu6","ms1000418","motor","","68","img/motor_3.png","68","motor","3","291","1","0","0","",""
"null","","402659","HierDyk34wjxqr","z1buorudu6","ms1000418","iti","","null","img/motor_3.png","68","motor","","","","","","",""
"460","","403124","HierDyk34wjxqr","z1buorudu6","ms1000418","motor","","76","img/motor_8.png","76","motor","8","292","1","0","0","",""
"null","","403233","HierDyk34wjxqr","z1buorudu6","ms1000418","iti","","null","img/motor_8.png","76","motor","","","","","","",""
"653","","403901","HierDyk34wjxqr","z1buorudu6","ms1000418","motor","","68","img/motor_3.png","68","motor","3","293","1","0","0","",""
"null","","404011","HierDyk34wjxqr","z1buorudu6","ms1000418","iti","","null","img/motor_3.png","68","motor","","","","","","",""
"715","","404741","HierDyk34wjxqr","z1buorudu6","ms1000418","motor","","83","img/motor_2.png","83","motor","2","294","1","0","0","",""
"null","","404851","HierDyk34wjxqr","z1buorudu6","ms1000418","iti","","null","img/motor_2.png","83","motor","","","","","","",""
"484","","405343","HierDyk34wjxqr","z1buorudu6","ms1000418","motor","","75","img/motor_7.png","75","motor","7","295","1","0","0","",""
"null","","405458","HierDyk34wjxqr","z1buorudu6","ms1000418","iti","","null","img/motor_7.png","75","motor","","","","","","",""
"468","","405935","HierDyk34wjxqr","z1buorudu6","ms1000418","motor","","65","img/motor_1.png","65","motor","1","296","1","0","0","",""
"null","","406043","HierDyk34wjxqr","z1buorudu6","ms1000418","iti","","null","img/motor_1.png","65","motor","","","","","","",""
"420","","406477","HierDyk34wjxqr","z1buorudu6","ms1000418","motor","","70","img/motor_4.png","70","motor","4","297","1","0","0","",""
"null","","406587","HierDyk34wjxqr","z1buorudu6","ms1000418","iti","","null","img/motor_4.png","70","motor","","","","","","",""
"451","","407045","HierDyk34wjxqr","z1buorudu6","ms1000418","motor","","65","img/motor_1.png","65","motor","1","298","1","0","0","",""
"null","","407160","HierDyk34wjxqr","z1buorudu6","ms1000418","iti","","null","img/motor_1.png","65","motor","","","","","","",""
"493","","407662","HierDyk34wjxqr","z1buorudu6","ms1000418","motor","","72","img/motor_5.png","72","motor","5","299","1","0","0","",""
"null","","407771","HierDyk34wjxqr","z1buorudu6","ms1000418","iti","","null","img/motor_5.png","72","motor","","","","","","",""
"492","","408277","HierDyk34wjxqr","z1buorudu6","ms1000418","motor","","65","img/motor_1.png","65","motor","1","300","1","0","0","",""
"null","","408387","HierDyk34wjxqr","z1buorudu6","ms1000418","iti","","null","img/motor_1.png","65","motor","","","","","","",""
"556","","408957","HierDyk34wjxqr","z1buorudu6","ms1000418","motor","","83","img/motor_2.png","83","motor","2","301","1","0","0","",""
"null","","409068","HierDyk34wjxqr","z1buorudu6","ms1000418","iti","","null","img/motor_2.png","83","motor","","","","","","",""
"443","","409525","HierDyk34wjxqr","z1buorudu6","ms1000418","motor","","76","img/motor_8.png","76","motor","8","302","1","0","0","",""
"null","","409634","HierDyk34wjxqr","z1buorudu6","ms1000418","iti","","null","img/motor_8.png","76","motor","","","","","","",""
"404","","410054","HierDyk34wjxqr","z1buorudu6","ms1000418","motor","","70","img/motor_4.png","70","motor","4","303","1","0","0","",""
"null","","410162","HierDyk34wjxqr","z1buorudu6","ms1000418","iti","","null","img/motor_4.png","70","motor","","","","","","",""
"492","","410669","HierDyk34wjxqr","z1buorudu6","ms1000418","motor","","76","img/motor_8.png","76","motor","8","304","1","0","0","",""
"null","","410784","HierDyk34wjxqr","z1buorudu6","ms1000418","iti","","null","img/motor_8.png","76","motor","","","","","","",""
"589","","411390","HierDyk34wjxqr","z1buorudu6","ms1000418","motor","","74","img/motor_6.png","74","motor","6","305","1","0","0","",""
"null","","411506","HierDyk34wjxqr","z1buorudu6","ms1000418","iti","","null","img/motor_6.png","74","motor","","","","","","",""
"515","","412030","HierDyk34wjxqr","z1buorudu6","ms1000418","motor","","76","img/motor_8.png","76","motor","8","306","1","0","0","",""
"null","","412138","HierDyk34wjxqr","z1buorudu6","ms1000418","iti","","null","img/motor_8.png","76","motor","","","","","","",""
"364","","412517","HierDyk34wjxqr","z1buorudu6","ms1000418","motor","","74","img/motor_6.png","74","motor","6","307","1","0","0","",""
"null","","412626","HierDyk34wjxqr","z1buorudu6","ms1000418","iti","","null","img/motor_6.png","74","motor","","","","","","",""
"420","","413054","HierDyk34wjxqr","z1buorudu6","ms1000418","motor","","76","img/motor_7.png","75","motor","7","308","0","1","0","",""
"327","","413397","HierDyk34wjxqr","z1buorudu6","ms1000418","motorRepeat","","75","img/motor_7.png","75","motor","7","308","1","0","0","",""
"null","","413506","HierDyk34wjxqr","z1buorudu6","ms1000418","iti","","null","img/motor_7.png","75","motor","","","","","","",""
"436","","413957","HierDyk34wjxqr","z1buorudu6","ms1000418","motor","","70","img/motor_4.png","70","motor","4","309","1","0","0","",""
"null","","414066","HierDyk34wjxqr","z1buorudu6","ms1000418","iti","","null","img/motor_4.png","70","motor","","","","","","",""
"437","","414510","HierDyk34wjxqr","z1buorudu6","ms1000418","motor","","76","img/motor_8.png","76","motor","8","310","1","0","0","",""
"null","","414618","HierDyk34wjxqr","z1buorudu6","ms1000418","iti","","null","img/motor_8.png","76","motor","","","","","","",""
"493","","415125","HierDyk34wjxqr","z1buorudu6","ms1000418","motor","","83","img/motor_2.png","83","motor","2","311","1","0","0","",""
"null","","415241","HierDyk34wjxqr","z1buorudu6","ms1000418","iti","","null","img/motor_2.png","83","motor","","","","","","",""
"381","","415637","HierDyk34wjxqr","z1buorudu6","ms1000418","motor","","68","img/motor_3.png","68","motor","3","312","1","0","0","",""
"null","","415747","HierDyk34wjxqr","z1buorudu6","ms1000418","iti","","null","img/motor_3.png","68","motor","","","","","","",""
"500","","416255","HierDyk34wjxqr","z1buorudu6","ms1000418","motor","","83","img/motor_2.png","83","motor","2","313","1","0","0","",""
"null","","416364","HierDyk34wjxqr","z1buorudu6","ms1000418","iti","","null","img/motor_2.png","83","motor","","","","","","",""
"459","","416837","HierDyk34wjxqr","z1buorudu6","ms1000418","motor","","76","img/motor_8.png","76","motor","8","314","1","0","0","",""
"null","","416953","HierDyk34wjxqr","z1buorudu6","ms1000418","iti","","null","img/motor_8.png","76","motor","","","","","","",""
"405","","417367","HierDyk34wjxqr","z1buorudu6","ms1000418","motor","","72","img/motor_5.png","72","motor","5","315","1","0","0","",""
"null","","417481","HierDyk34wjxqr","z1buorudu6","ms1000418","iti","","null","img/motor_5.png","72","motor","","","","","","",""
"565","","418061","HierDyk34wjxqr","z1buorudu6","ms1000418","motor","","68","img/motor_3.png","68","motor","3","316","1","0","0","",""
"null","","418170","HierDyk34wjxqr","z1buorudu6","ms1000418","iti","","null","img/motor_3.png","68","motor","","","","","","",""
"669","","418853","HierDyk34wjxqr","z1buorudu6","ms1000418","motor","","83","img/motor_2.png","83","motor","2","317","1","0","0","",""
"null","","418962","HierDyk34wjxqr","z1buorudu6","ms1000418","iti","","null","img/motor_2.png","83","motor","","","","","","",""
"430","","419405","HierDyk34wjxqr","z1buorudu6","ms1000418","motor","","76","img/motor_8.png","76","motor","8","318","1","0","0","",""
"null","","419514","HierDyk34wjxqr","z1buorudu6","ms1000418","iti","","null","img/motor_8.png","76","motor","","","","","","",""
"500","","420030","HierDyk34wjxqr","z1buorudu6","ms1000418","motor","","75","img/motor_7.png","75","motor","7","319","1","0","0","",""
"null","","420139","HierDyk34wjxqr","z1buorudu6","ms1000418","iti","","null","img/motor_7.png","75","motor","","","","","","",""
"539","","420687","HierDyk34wjxqr","z1buorudu6","ms1000418","motor","","70","img/motor_4.png","70","motor","4","320","1","0","0","",""
"null","","420801","HierDyk34wjxqr","z1buorudu6","ms1000418","iti","","null","img/motor_4.png","70","motor","","","","","","",""
"532","","421343","HierDyk34wjxqr","z1buorudu6","ms1000418","motor","","68","img/motor_3.png","68","motor","3","321","1","0","0","",""
"null","","421458","HierDyk34wjxqr","z1buorudu6","ms1000418","iti","","null","img/motor_3.png","68","motor","","","","","","",""
"613","","422079","HierDyk34wjxqr","z1buorudu6","ms1000418","motor","","75","img/motor_7.png","75","motor","7","322","1","0","0","",""
"null","","422187","HierDyk34wjxqr","z1buorudu6","ms1000418","iti","","null","img/motor_7.png","75","motor","","","","","","",""
"452","","422653","HierDyk34wjxqr","z1buorudu6","ms1000418","motor","","75","img/motor_7.png","75","motor","7","323","1","0","0","",""
"null","","422769","HierDyk34wjxqr","z1buorudu6","ms1000418","iti","","null","img/motor_7.png","75","motor","","","","","","",""
"534","","423318","HierDyk34wjxqr","z1buorudu6","ms1000418","motor","","65","img/motor_1.png","65","motor","1","324","1","0","0","",""
"null","","423427","HierDyk34wjxqr","z1buorudu6","ms1000418","iti","","null","img/motor_1.png","65","motor","","","","","","",""
"988","","424429","HierDyk34wjxqr","z1buorudu6","ms1000418","motor","","74","img/motor_6.png","74","motor","6","325","1","0","0","",""
"null","","424539","HierDyk34wjxqr","z1buorudu6","ms1000418","iti","","null","img/motor_6.png","74","motor","","","","","","",""
"532","","425079","HierDyk34wjxqr","z1buorudu6","ms1000418","motor","","70","img/motor_4.png","70","motor","4","326","1","0","0","",""
"null","","425187","HierDyk34wjxqr","z1buorudu6","ms1000418","iti","","null","img/motor_4.png","70","motor","","","","","","",""
"523","","425718","HierDyk34wjxqr","z1buorudu6","ms1000418","motor","","72","img/motor_5.png","72","motor","5","327","1","0","0","",""
"null","","425833","HierDyk34wjxqr","z1buorudu6","ms1000418","iti","","null","img/motor_5.png","72","motor","","","","","","",""
"493","","426341","HierDyk34wjxqr","z1buorudu6","ms1000418","motor","","65","img/motor_1.png","65","motor","1","328","1","0","0","",""
"null","","426450","HierDyk34wjxqr","z1buorudu6","ms1000418","iti","","null","img/motor_1.png","65","motor","","","","","","",""
"595","","427062","HierDyk34wjxqr","z1buorudu6","ms1000418","motor","","74","img/motor_6.png","74","motor","6","329","1","0","0","",""
"null","","427177","HierDyk34wjxqr","z1buorudu6","ms1000418","iti","","null","img/motor_6.png","74","motor","","","","","","",""
"420","","427607","HierDyk34wjxqr","z1buorudu6","ms1000418","motor","","74","img/motor_6.png","74","motor","6","330","1","0","0","",""
"null","","427722","HierDyk34wjxqr","z1buorudu6","ms1000418","iti","","null","img/motor_6.png","74","motor","","","","","","",""
"508","","428239","HierDyk34wjxqr","z1buorudu6","ms1000418","motor","","70","img/motor_4.png","70","motor","4","331","1","0","0","",""
"null","","428347","HierDyk34wjxqr","z1buorudu6","ms1000418","iti","","null","img/motor_4.png","70","motor","","","","","","",""
"476","","428831","HierDyk34wjxqr","z1buorudu6","ms1000418","motor","","74","img/motor_6.png","74","motor","6","332","1","0","0","",""
"null","","428946","HierDyk34wjxqr","z1buorudu6","ms1000418","iti","","null","img/motor_6.png","74","motor","","","","","","",""
"564","","429519","HierDyk34wjxqr","z1buorudu6","ms1000418","motor","","68","img/motor_3.png","68","motor","3","333","1","0","0","",""
"null","","429628","HierDyk34wjxqr","z1buorudu6","ms1000418","iti","","null","img/motor_3.png","68","motor","","","","","","",""
"515","","430151","HierDyk34wjxqr","z1buorudu6","ms1000418","motor","","70","img/motor_4.png","70","motor","4","334","1","0","0","",""
"null","","430266","HierDyk34wjxqr","z1buorudu6","ms1000418","iti","","null","img/motor_4.png","70","motor","","","","","","",""
"461","","430741","HierDyk34wjxqr","z1buorudu6","ms1000418","motor","","65","img/motor_1.png","65","motor","1","335","1","0","0","",""
"null","","430851","HierDyk34wjxqr","z1buorudu6","ms1000418","iti","","null","img/motor_1.png","65","motor","","","","","","",""
"660","","431518","HierDyk34wjxqr","z1buorudu6","ms1000418","motor","","75","img/motor_7.png","75","motor","7","336","1","0","0","",""
"null","","431633","HierDyk34wjxqr","z1buorudu6","ms1000418","iti","","null","img/motor_7.png","75","motor","","","","","","",""
"556","","432198","HierDyk34wjxqr","z1buorudu6","ms1000418","motor","","72","img/motor_5.png","72","motor","5","337","1","0","0","",""
"null","","432307","HierDyk34wjxqr","z1buorudu6","ms1000418","iti","","null","img/motor_5.png","72","motor","","","","","","",""
"652","","432967","HierDyk34wjxqr","z1buorudu6","ms1000418","motor","","83","img/motor_2.png","83","motor","2","338","1","0","0","",""
"null","","433082","HierDyk34wjxqr","z1buorudu6","ms1000418","iti","","null","img/motor_2.png","83","motor","","","","","","",""
"389","","433485","HierDyk34wjxqr","z1buorudu6","ms1000418","motor","","83","img/motor_2.png","83","motor","2","339","1","0","0","",""
"null","","433601","HierDyk34wjxqr","z1buorudu6","ms1000418","iti","","null","img/motor_2.png","83","motor","","","","","","",""
"501","","434118","HierDyk34wjxqr","z1buorudu6","ms1000418","motor","","68","img/motor_3.png","68","motor","3","340","1","0","0","",""
"null","","434233","HierDyk34wjxqr","z1buorudu6","ms1000418","iti","","null","img/motor_3.png","68","motor","","","","","","",""
"508","","434751","HierDyk34wjxqr","z1buorudu6","ms1000418","motor","","76","img/motor_8.png","76","motor","8","341","1","0","0","",""
"null","","434866","HierDyk34wjxqr","z1buorudu6","ms1000418","iti","","null","img/motor_8.png","76","motor","","","","","","",""
"667","","435542","HierDyk34wjxqr","z1buorudu6","ms1000418","motor","","83","img/motor_2.png","83","motor","2","342","1","0","0","",""
"null","","435651","HierDyk34wjxqr","z1buorudu6","ms1000418","iti","","null","img/motor_2.png","83","motor","","","","","","",""
"515","","436175","HierDyk34wjxqr","z1buorudu6","ms1000418","motor","","70","img/motor_4.png","70","motor","4","343","1","0","0","",""
"null","","436291","HierDyk34wjxqr","z1buorudu6","ms1000418","iti","","null","img/motor_4.png","70","motor","","","","","","",""
"539","","436845","HierDyk34wjxqr","z1buorudu6","ms1000418","motor","","74","img/motor_6.png","74","motor","6","344","1","0","0","",""
"null","","436955","HierDyk34wjxqr","z1buorudu6","ms1000418","iti","","null","img/motor_6.png","74","motor","","","","","","",""
"483","","437453","HierDyk34wjxqr","z1buorudu6","ms1000418","motor","","70","img/motor_4.png","70","motor","4","345","1","0","0","",""
"null","","437563","HierDyk34wjxqr","z1buorudu6","ms1000418","iti","","null","img/motor_4.png","70","motor","","","","","","",""
"556","","438127","HierDyk34wjxqr","z1buorudu6","ms1000418","motor","","72","img/motor_5.png","72","motor","5","346","1","0","0","",""
"null","","438236","HierDyk34wjxqr","z1buorudu6","ms1000418","iti","","null","img/motor_5.png","72","motor","","","","","","",""
"443","","438693","HierDyk34wjxqr","z1buorudu6","ms1000418","motor","","74","img/motor_6.png","74","motor","6","347","1","0","0","",""
"null","","438810","HierDyk34wjxqr","z1buorudu6","ms1000418","iti","","null","img/motor_6.png","74","motor","","","","","","",""
"477","","439295","HierDyk34wjxqr","z1buorudu6","ms1000418","motor","","65","img/motor_1.png","65","motor","1","348","1","0","0","",""
"null","","439403","HierDyk34wjxqr","z1buorudu6","ms1000418","iti","","null","img/motor_1.png","65","motor","","","","","","",""
"546","","439958","HierDyk34wjxqr","z1buorudu6","ms1000418","motor","","72","img/motor_5.png","72","motor","5","349","1","0","0","",""
"null","","440067","HierDyk34wjxqr","z1buorudu6","ms1000418","iti","","null","img/motor_5.png","72","motor","","","","","","",""
"555","","440637","HierDyk34wjxqr","z1buorudu6","ms1000418","motor","","68","img/motor_3.png","68","motor","3","350","1","0","0","",""
"null","","440753","HierDyk34wjxqr","z1buorudu6","ms1000418","iti","","null","img/motor_3.png","68","motor","","","","","","",""
"452","","441221","HierDyk34wjxqr","z1buorudu6","ms1000418","motor","","70","img/motor_4.png","70","motor","4","351","1","0","0","",""
"null","","441337","HierDyk34wjxqr","z1buorudu6","ms1000418","iti","","null","img/motor_4.png","70","motor","","","","","","",""
"461","","441814","HierDyk34wjxqr","z1buorudu6","ms1000418","motor","","65","img/motor_1.png","65","motor","1","352","1","0","0","",""
"null","","441930","HierDyk34wjxqr","z1buorudu6","ms1000418","iti","","null","img/motor_1.png","65","motor","","","","","","",""
"493","","442438","HierDyk34wjxqr","z1buorudu6","ms1000418","motor","","72","img/motor_5.png","72","motor","5","353","1","0","0","",""
"null","","442548","HierDyk34wjxqr","z1buorudu6","ms1000418","iti","","null","img/motor_5.png","72","motor","","","","","","",""
"380","","442935","HierDyk34wjxqr","z1buorudu6","ms1000418","motor","","72","img/motor_5.png","72","motor","5","354","1","0","0","",""
"null","","443050","HierDyk34wjxqr","z1buorudu6","ms1000418","iti","","null","img/motor_5.png","72","motor","","","","","","",""
"444","","443509","HierDyk34wjxqr","z1buorudu6","ms1000418","motor","","65","img/motor_1.png","65","motor","1","355","1","0","0","",""
"null","","443625","HierDyk34wjxqr","z1buorudu6","ms1000418","iti","","null","img/motor_1.png","65","motor","","","","","","",""
"532","","444173","HierDyk34wjxqr","z1buorudu6","ms1000418","motor","","74","img/motor_6.png","74","motor","6","356","1","0","0","",""
"null","","444290","HierDyk34wjxqr","z1buorudu6","ms1000418","iti","","null","img/motor_6.png","74","motor","","","","","","",""
"468","","444767","HierDyk34wjxqr","z1buorudu6","ms1000418","motor","","65","img/motor_1.png","65","motor","1","357","1","0","0","",""
"null","","444882","HierDyk34wjxqr","z1buorudu6","ms1000418","iti","","null","img/motor_1.png","65","motor","","","","","","",""
"500","","445391","HierDyk34wjxqr","z1buorudu6","ms1000418","motor","","74","img/motor_6.png","74","motor","6","358","1","0","0","",""
"null","","445506","HierDyk34wjxqr","z1buorudu6","ms1000418","iti","","null","img/motor_6.png","74","motor","","","","","","",""
"509","","446021","HierDyk34wjxqr","z1buorudu6","ms1000418","motor","","75","img/motor_7.png","75","motor","7","359","1","0","0","",""
"null","","446135","HierDyk34wjxqr","z1buorudu6","ms1000418","iti","","null","img/motor_7.png","75","motor","","","","","","",""
"407","","446558","HierDyk34wjxqr","z1buorudu6","ms1000418","motor","","76","img/motor_8.png","76","motor","8","360","1","0","0","",""
"null","","446667","HierDyk34wjxqr","z1buorudu6","ms1000418","iti","","null","img/motor_8.png","76","motor","","","","","","",""
"411","","447093","HierDyk34wjxqr","z1buorudu6","ms1000418","motor","","65","img/motor_1.png","65","motor","1","361","1","0","0","",""
"null","","447209","HierDyk34wjxqr","z1buorudu6","ms1000418","iti","","null","img/motor_1.png","65","motor","","","","","","",""
"580","","447799","HierDyk34wjxqr","z1buorudu6","ms1000418","motor","","75","img/motor_7.png","75","motor","7","362","1","0","0","",""
"null","","447907","HierDyk34wjxqr","z1buorudu6","ms1000418","iti","","null","img/motor_7.png","75","motor","","","","","","",""
"628","","448543","HierDyk34wjxqr","z1buorudu6","ms1000418","motor","","83","img/motor_2.png","83","motor","2","363","1","0","0","",""
"null","","448658","HierDyk34wjxqr","z1buorudu6","ms1000418","iti","","null","img/motor_2.png","83","motor","","","","","","",""
"579","","449253","HierDyk34wjxqr","z1buorudu6","ms1000418","motor","","75","img/motor_7.png","75","motor","7","364","1","0","0","",""
"null","","449369","HierDyk34wjxqr","z1buorudu6","ms1000418","iti","","null","img/motor_7.png","75","motor","","","","","","",""
"470","","449854","HierDyk34wjxqr","z1buorudu6","ms1000418","motor","","83","img/motor_2.png","83","motor","2","365","1","0","0","",""
"null","","449963","HierDyk34wjxqr","z1buorudu6","ms1000418","iti","","null","img/motor_2.png","83","motor","","","","","","",""
"563","","450535","HierDyk34wjxqr","z1buorudu6","ms1000418","motor","","65","img/motor_1.png","65","motor","1","366","1","0","0","",""
