"rt","responses","time_elapsed","subject","prolificID","demoID","trialType","question_order","key_press","stim","corrresp","phase","stimNum","trialNum","corr","repeatTrial","motorSwitch","pracCounter","hierarchy"
"6222","{""Q0"":""ms1000411""}","6257","HierDyqs0m0ww5","beo13y2m7l","ms1000411","","","","","","","","","","","","",""
"2737","","9013","HierDyqs0m0ww5","beo13y2m7l","ms1000411","","","","","","","","","","","","",""
"","","10834","HierDyqs0m0ww5","beo13y2m7l","ms1000411","fullscreen","","","","","","","","","","","",""
"16503","{""Vision"":""Yes"",""Handedness"":""Right"",""Gender"":""male""}","27355","HierDyqs0m0ww5","beo13y2m7l","ms1000411","","[0,1,2]","","","","","","","","","","",""
"6355","{""Q0"":""21""}","33726","HierDyqs0m0ww5","beo13y2m7l","ms1000411","","","","","","","","","","","","",""
"127886","","161624","HierDyqs0m0ww5","beo13y2m7l","ms1000411","","","","","","","","","","","","",""
"651","","162285","HierDyqs0m0ww5","beo13y2m7l","ms1000411","motor","","76","img/motor_8.png","76","motor","8","1","1","0","0","",""
"null","","162394","HierDyqs0m0ww5","beo13y2m7l","ms1000411","iti","","null","img/motor_8.png","76","motor","","","","","","",""
"594","","163003","HierDyqs0m0ww5","beo13y2m7l","ms1000411","motor","","75","img/motor_7.png","75","motor","7","2","1","0","0","",""
"null","","163113","HierDyqs0m0ww5","beo13y2m7l","ms1000411","iti","","null","img/motor_7.png","75","motor","","","","","","",""
"557","","163676","HierDyqs0m0ww5","beo13y2m7l","ms1000411","motor","","72","img/motor_5.png","72","motor","5","3","1","0","0","",""
"null","","163785","HierDyqs0m0ww5","beo13y2m7l","ms1000411","iti","","null","img/motor_5.png","72","motor","","","","","","",""
"524","","164323","HierDyqs0m0ww5","beo13y2m7l","ms1000411","motor","","76","img/motor_8.png","76","motor","8","4","1","0","0","",""
"null","","164438","HierDyqs0m0ww5","beo13y2m7l","ms1000411","iti","","null","img/motor_8.png","76","motor","","","","","","",""
"502","","164948","HierDyqs0m0ww5","beo13y2m7l","ms1000411","motor","","72","img/motor_5.png","72","motor","5","5","1","0","0","",""
"null","","165056","HierDyqs0m0ww5","beo13y2m7l","ms1000411","iti","","null","img/motor_5.png","72","motor","","","","","","",""
"1708","","166773","HierDyqs0m0ww5","beo13y2m7l","ms1000411","motor","","83","img/motor_3.png","68","motor","3","6","0","1","0","",""
"1551","","168331","HierDyqs0m0ww5","beo13y2m7l","ms1000411","motorRepeat","","68","img/motor_3.png","68","motor","3","6","1","0","0","",""
"null","","168440","HierDyqs0m0ww5","beo13y2m7l","ms1000411","iti","","null","img/motor_3.png","68","motor","","","","","","",""
"1277","","169731","HierDyqs0m0ww5","beo13y2m7l","ms1000411","motor","","68","img/motor_3.png","68","motor","3","7","1","0","0","",""
"null","","169846","HierDyqs0m0ww5","beo13y2m7l","ms1000411","iti","","null","img/motor_3.png","68","motor","","","","","","",""
"662","","170523","HierDyqs0m0ww5","beo13y2m7l","ms1000411","motor","","76","img/motor_8.png","76","motor","8","8","1","0","0","",""
"null","","170637","HierDyqs0m0ww5","beo13y2m7l","ms1000411","iti","","null","img/motor_8.png","76","motor","","","","","","",""
"631","","171276","HierDyqs0m0ww5","beo13y2m7l","ms1000411","motor","","75","img/motor_7.png","75","motor","7","9","1","0","0","",""
"null","","171391","HierDyqs0m0ww5","beo13y2m7l","ms1000411","iti","","null","img/motor_7.png","75","motor","","","","","","",""
"685","","172083","HierDyqs0m0ww5","beo13y2m7l","ms1000411","motor","","83","img/motor_2.png","83","motor","2","10","1","0","0","",""
"null","","172198","HierDyqs0m0ww5","beo13y2m7l","ms1000411","iti","","null","img/motor_2.png","83","motor","","","","","","",""
"557","","172771","HierDyqs0m0ww5","beo13y2m7l","ms1000411","motor","","70","img/motor_4.png","70","motor","4","11","1","0","0","",""
"null","","172880","HierDyqs0m0ww5","beo13y2m7l","ms1000411","iti","","null","img/motor_4.png","70","motor","","","","","","",""
"573","","173467","HierDyqs0m0ww5","beo13y2m7l","ms1000411","motor","","83","img/motor_2.png","83","motor","2","12","1","0","0","",""
"null","","173575","HierDyqs0m0ww5","beo13y2m7l","ms1000411","iti","","null","img/motor_2.png","83","motor","","","","","","",""
"566","","174148","HierDyqs0m0ww5","beo13y2m7l","ms1000411","motor","","65","img/motor_1.png","65","motor","1","13","1","0","0","",""
"null","","174263","HierDyqs0m0ww5","beo13y2m7l","ms1000411","iti","","null","img/motor_1.png","65","motor","","","","","","",""
"541","","174812","HierDyqs0m0ww5","beo13y2m7l","ms1000411","motor","","83","img/motor_2.png","83","motor","2","14","1","0","0","",""
"null","","174920","HierDyqs0m0ww5","beo13y2m7l","ms1000411","iti","","null","img/motor_2.png","83","motor","","","","","","",""
"653","","175580","HierDyqs0m0ww5","beo13y2m7l","ms1000411","motor","","74","img/motor_6.png","74","motor","6","15","1","0","0","",""
"null","","175688","HierDyqs0m0ww5","beo13y2m7l","ms1000411","iti","","null","img/motor_6.png","74","motor","","","","","","",""
"549","","176244","HierDyqs0m0ww5","beo13y2m7l","ms1000411","motor","","75","img/motor_7.png","75","motor","7","16","1","0","0","",""
"null","","176353","HierDyqs0m0ww5","beo13y2m7l","ms1000411","iti","","null","img/motor_7.png","75","motor","","","","","","",""
"524","","176890","HierDyqs0m0ww5","beo13y2m7l","ms1000411","motor","","76","img/motor_8.png","76","motor","8","17","1","0","0","",""
"null","","177005","HierDyqs0m0ww5","beo13y2m7l","ms1000411","iti","","null","img/motor_8.png","76","motor","","","","","","",""
"558","","177578","HierDyqs0m0ww5","beo13y2m7l","ms1000411","motor","","65","img/motor_1.png","65","motor","1","18","1","0","0","",""
"null","","177687","HierDyqs0m0ww5","beo13y2m7l","ms1000411","iti","","null","img/motor_1.png","65","motor","","","","","","",""
"509","","178211","HierDyqs0m0ww5","beo13y2m7l","ms1000411","motor","","76","img/motor_8.png","76","motor","8","19","1","0","0","",""
"null","","178326","HierDyqs0m0ww5","beo13y2m7l","ms1000411","iti","","null","img/motor_8.png","76","motor","","","","","","",""
"589","","178930","HierDyqs0m0ww5","beo13y2m7l","ms1000411","motor","","68","img/motor_3.png","68","motor","3","20","1","0","0","",""
"null","","179039","HierDyqs0m0ww5","beo13y2m7l","ms1000411","iti","","null","img/motor_3.png","68","motor","","","","","","",""
"485","","179533","HierDyqs0m0ww5","beo13y2m7l","ms1000411","motor","","76","img/motor_8.png","76","motor","8","21","1","0","0","",""
"null","","179640","HierDyqs0m0ww5","beo13y2m7l","ms1000411","iti","","null","img/motor_8.png","76","motor","","","","","","",""
"588","","180237","HierDyqs0m0ww5","beo13y2m7l","ms1000411","motor","","74","img/motor_6.png","74","motor","6","22","1","0","0","",""
"null","","180345","HierDyqs0m0ww5","beo13y2m7l","ms1000411","iti","","null","img/motor_6.png","74","motor","","","","","","",""
"563","","180915","HierDyqs0m0ww5","beo13y2m7l","ms1000411","motor","","72","img/motor_5.png","72","motor","5","23","1","0","0","",""
"null","","181023","HierDyqs0m0ww5","beo13y2m7l","ms1000411","iti","","null","img/motor_5.png","72","motor","","","","","","",""
"501","","181538","HierDyqs0m0ww5","beo13y2m7l","ms1000411","motor","","74","img/motor_6.png","74","motor","6","24","1","0","0","",""
"null","","181653","HierDyqs0m0ww5","beo13y2m7l","ms1000411","iti","","null","img/motor_6.png","74","motor","","","","","","",""
"511","","182172","HierDyqs0m0ww5","beo13y2m7l","ms1000411","motor","","70","img/motor_4.png","70","motor","4","25","1","0","0","",""
"null","","182286","HierDyqs0m0ww5","beo13y2m7l","ms1000411","iti","","null","img/motor_4.png","70","motor","","","","","","",""
"541","","182837","HierDyqs0m0ww5","beo13y2m7l","ms1000411","motor","","74","img/motor_6.png","74","motor","6","26","1","0","0","",""
"null","","182945","HierDyqs0m0ww5","beo13y2m7l","ms1000411","iti","","null","img/motor_6.png","74","motor","","","","","","",""
"611","","183563","HierDyqs0m0ww5","beo13y2m7l","ms1000411","motor","","74","img/motor_6.png","74","motor","6","27","1","0","0","",""
"null","","183672","HierDyqs0m0ww5","beo13y2m7l","ms1000411","iti","","null","img/motor_6.png","74","motor","","","","","","",""
"725","","184404","HierDyqs0m0ww5","beo13y2m7l","ms1000411","motor","","83","img/motor_2.png","83","motor","2","28","1","0","0","",""
"null","","184512","HierDyqs0m0ww5","beo13y2m7l","ms1000411","iti","","null","img/motor_2.png","83","motor","","","","","","",""
"620","","185147","HierDyqs0m0ww5","beo13y2m7l","ms1000411","motor","","72","img/motor_5.png","72","motor","5","29","1","0","0","",""
"null","","185256","HierDyqs0m0ww5","beo13y2m7l","ms1000411","iti","","null","img/motor_5.png","72","motor","","","","","","",""
"613","","185883","HierDyqs0m0ww5","beo13y2m7l","ms1000411","motor","","75","img/motor_7.png","75","motor","7","30","1","0","0","",""
"null","","185992","HierDyqs0m0ww5","beo13y2m7l","ms1000411","iti","","null","img/motor_7.png","75","motor","","","","","","",""
"549","","186554","HierDyqs0m0ww5","beo13y2m7l","ms1000411","motor","","75","img/motor_7.png","75","motor","7","31","1","0","0","",""
"null","","186664","HierDyqs0m0ww5","beo13y2m7l","ms1000411","iti","","null","img/motor_7.png","75","motor","","","","","","",""
"821","","187492","HierDyqs0m0ww5","beo13y2m7l","ms1000411","motor","","68","img/motor_3.png","68","motor","3","32","1","0","0","",""
"null","","187607","HierDyqs0m0ww5","beo13y2m7l","ms1000411","iti","","null","img/motor_3.png","68","motor","","","","","","",""
"541","","188157","HierDyqs0m0ww5","beo13y2m7l","ms1000411","motor","","72","img/motor_5.png","72","motor","5","33","1","0","0","",""
"null","","188264","HierDyqs0m0ww5","beo13y2m7l","ms1000411","iti","","null","img/motor_5.png","72","motor","","","","","","",""
"564","","188836","HierDyqs0m0ww5","beo13y2m7l","ms1000411","motor","","70","img/motor_4.png","70","motor","4","34","1","0","0","",""
"null","","188945","HierDyqs0m0ww5","beo13y2m7l","ms1000411","iti","","null","img/motor_4.png","70","motor","","","","","","",""
"500","","189458","HierDyqs0m0ww5","beo13y2m7l","ms1000411","motor","","65","img/motor_1.png","65","motor","1","35","1","0","0","",""
"null","","189567","HierDyqs0m0ww5","beo13y2m7l","ms1000411","iti","","null","img/motor_1.png","65","motor","","","","","","",""
"557","","190132","HierDyqs0m0ww5","beo13y2m7l","ms1000411","motor","","65","img/motor_1.png","65","motor","1","36","1","0","0","",""
"null","","190246","HierDyqs0m0ww5","beo13y2m7l","ms1000411","iti","","null","img/motor_1.png","65","motor","","","","","","",""
"558","","190819","HierDyqs0m0ww5","beo13y2m7l","ms1000411","motor","","83","img/motor_2.png","83","motor","2","37","1","0","0","",""
"null","","190934","HierDyqs0m0ww5","beo13y2m7l","ms1000411","iti","","null","img/motor_2.png","83","motor","","","","","","",""
"486","","191435","HierDyqs0m0ww5","beo13y2m7l","ms1000411","motor","","65","img/motor_1.png","65","motor","1","38","1","0","0","",""
"null","","191544","HierDyqs0m0ww5","beo13y2m7l","ms1000411","iti","","null","img/motor_1.png","65","motor","","","","","","",""
"597","","192155","HierDyqs0m0ww5","beo13y2m7l","ms1000411","motor","","65","img/motor_1.png","65","motor","1","39","1","0","0","",""
"null","","192270","HierDyqs0m0ww5","beo13y2m7l","ms1000411","iti","","null","img/motor_1.png","65","motor","","","","","","",""
"583","","192860","HierDyqs0m0ww5","beo13y2m7l","ms1000411","motor","","74","img/motor_6.png","74","motor","6","40","1","0","0","",""
"null","","192968","HierDyqs0m0ww5","beo13y2m7l","ms1000411","iti","","null","img/motor_6.png","74","motor","","","","","","",""
"469","","193451","HierDyqs0m0ww5","beo13y2m7l","ms1000411","motor","","76","img/motor_8.png","76","motor","8","41","1","0","0","",""
"null","","193560","HierDyqs0m0ww5","beo13y2m7l","ms1000411","iti","","null","img/motor_8.png","76","motor","","","","","","",""
"533","","194101","HierDyqs0m0ww5","beo13y2m7l","ms1000411","motor","","70","img/motor_4.png","70","motor","4","42","1","0","0","",""
"null","","194215","HierDyqs0m0ww5","beo13y2m7l","ms1000411","iti","","null","img/motor_4.png","70","motor","","","","","","",""
"597","","194827","HierDyqs0m0ww5","beo13y2m7l","ms1000411","motor","","70","img/motor_4.png","70","motor","4","43","1","0","0","",""
"null","","194942","HierDyqs0m0ww5","beo13y2m7l","ms1000411","iti","","null","img/motor_4.png","70","motor","","","","","","",""
"534","","195484","HierDyqs0m0ww5","beo13y2m7l","ms1000411","motor","","74","img/motor_5.png","72","motor","5","44","0","1","0","",""
"648","","196146","HierDyqs0m0ww5","beo13y2m7l","ms1000411","motorRepeat","","72","img/motor_5.png","72","motor","5","44","1","0","0","",""
"null","","196256","HierDyqs0m0ww5","beo13y2m7l","ms1000411","iti","","null","img/motor_5.png","72","motor","","","","","","",""
"598","","196861","HierDyqs0m0ww5","beo13y2m7l","ms1000411","motor","","83","img/motor_2.png","83","motor","2","45","1","0","0","",""
"null","","196975","HierDyqs0m0ww5","beo13y2m7l","ms1000411","iti","","null","img/motor_2.png","83","motor","","","","","","",""
"548","","197540","HierDyqs0m0ww5","beo13y2m7l","ms1000411","motor","","75","img/motor_7.png","75","motor","7","46","1","0","0","",""
"null","","197649","HierDyqs0m0ww5","beo13y2m7l","ms1000411","iti","","null","img/motor_7.png","75","motor","","","","","","",""
"555","","198213","HierDyqs0m0ww5","beo13y2m7l","ms1000411","motor","","83","img/motor_2.png","83","motor","2","47","1","0","0","",""
"null","","198327","HierDyqs0m0ww5","beo13y2m7l","ms1000411","iti","","null","img/motor_2.png","83","motor","","","","","","",""
"532","","198869","HierDyqs0m0ww5","beo13y2m7l","ms1000411","motor","","72","img/motor_5.png","72","motor","5","48","1","0","0","",""
"null","","198978","HierDyqs0m0ww5","beo13y2m7l","ms1000411","iti","","null","img/motor_5.png","72","motor","","","","","","",""
"498","","199491","HierDyqs0m0ww5","beo13y2m7l","ms1000411","motor","","76","img/motor_8.png","76","motor","8","49","1","0","0","",""
"null","","199606","HierDyqs0m0ww5","beo13y2m7l","ms1000411","iti","","null","img/motor_8.png","76","motor","","","","","","",""
"429","","200045","HierDyqs0m0ww5","beo13y2m7l","ms1000411","motor","","65","img/motor_1.png","65","motor","1","50","1","0","0","",""
"null","","200152","HierDyqs0m0ww5","beo13y2m7l","ms1000411","iti","","null","img/motor_1.png","65","motor","","","","","","",""
"461","","200627","HierDyqs0m0ww5","beo13y2m7l","ms1000411","motor","","76","img/motor_8.png","76","motor","8","51","1","0","0","",""
"null","","200743","HierDyqs0m0ww5","beo13y2m7l","ms1000411","iti","","null","img/motor_8.png","76","motor","","","","","","",""
"469","","201227","HierDyqs0m0ww5","beo13y2m7l","ms1000411","motor","","72","img/motor_5.png","72","motor","5","52","1","0","0","",""
"null","","201336","HierDyqs0m0ww5","beo13y2m7l","ms1000411","iti","","null","img/motor_5.png","72","motor","","","","","","",""
"510","","201851","HierDyqs0m0ww5","beo13y2m7l","ms1000411","motor","","68","img/motor_4.png","70","motor","4","53","0","1","0","",""
"481","","202341","HierDyqs0m0ww5","beo13y2m7l","ms1000411","motorRepeat","","70","img/motor_4.png","70","motor","4","53","1","0","0","",""
"null","","202456","HierDyqs0m0ww5","beo13y2m7l","ms1000411","iti","","null","img/motor_4.png","70","motor","","","","","","",""
"420","","202891","HierDyqs0m0ww5","beo13y2m7l","ms1000411","motor","","76","img/motor_8.png","76","motor","8","54","1","0","0","",""
"null","","202999","HierDyqs0m0ww5","beo13y2m7l","ms1000411","iti","","null","img/motor_8.png","76","motor","","","","","","",""
"565","","203573","HierDyqs0m0ww5","beo13y2m7l","ms1000411","motor","","83","img/motor_2.png","83","motor","2","55","1","0","0","",""
"null","","203687","HierDyqs0m0ww5","beo13y2m7l","ms1000411","iti","","null","img/motor_2.png","83","motor","","","","","","",""
"557","","204252","HierDyqs0m0ww5","beo13y2m7l","ms1000411","motor","","68","img/motor_3.png","68","motor","3","56","1","0","0","",""
"null","","204361","HierDyqs0m0ww5","beo13y2m7l","ms1000411","iti","","null","img/motor_3.png","68","motor","","","","","","",""
"428","","204796","HierDyqs0m0ww5","beo13y2m7l","ms1000411","motor","","76","img/motor_8.png","76","motor","8","57","1","0","0","",""
"null","","204904","HierDyqs0m0ww5","beo13y2m7l","ms1000411","iti","","null","img/motor_8.png","76","motor","","","","","","",""
"532","","205445","HierDyqs0m0ww5","beo13y2m7l","ms1000411","motor","","75","img/motor_7.png","75","motor","7","58","1","0","0","",""
"null","","205559","HierDyqs0m0ww5","beo13y2m7l","ms1000411","iti","","null","img/motor_7.png","75","motor","","","","","","",""
"468","","206036","HierDyqs0m0ww5","beo13y2m7l","ms1000411","motor","","70","img/motor_4.png","70","motor","4","59","1","0","0","",""
"null","","206144","HierDyqs0m0ww5","beo13y2m7l","ms1000411","iti","","null","img/motor_4.png","70","motor","","","","","","",""
"516","","206667","HierDyqs0m0ww5","beo13y2m7l","ms1000411","motor","","68","img/motor_3.png","68","motor","3","60","1","0","0","",""
"null","","206783","HierDyqs0m0ww5","beo13y2m7l","ms1000411","iti","","null","img/motor_3.png","68","motor","","","","","","",""
"438","","207228","HierDyqs0m0ww5","beo13y2m7l","ms1000411","motor","","65","img/motor_1.png","65","motor","1","61","1","0","0","",""
"null","","207344","HierDyqs0m0ww5","beo13y2m7l","ms1000411","iti","","null","img/motor_1.png","65","motor","","","","","","",""
"508","","207860","HierDyqs0m0ww5","beo13y2m7l","ms1000411","motor","","83","img/motor_2.png","83","motor","2","62","1","0","0","",""
"null","","207968","HierDyqs0m0ww5","beo13y2m7l","ms1000411","iti","","null","img/motor_2.png","83","motor","","","","","","",""
"533","","208508","HierDyqs0m0ww5","beo13y2m7l","ms1000411","motor","","75","img/motor_7.png","75","motor","7","63","1","0","0","",""
"null","","208616","HierDyqs0m0ww5","beo13y2m7l","ms1000411","iti","","null","img/motor_7.png","75","motor","","","","","","",""
"605","","209229","HierDyqs0m0ww5","beo13y2m7l","ms1000411","motor","","83","img/motor_2.png","83","motor","2","64","1","0","0","",""
"null","","209344","HierDyqs0m0ww5","beo13y2m7l","ms1000411","iti","","null","img/motor_2.png","83","motor","","","","","","",""
"485","","209843","HierDyqs0m0ww5","beo13y2m7l","ms1000411","motor","","65","img/motor_1.png","65","motor","1","65","1","0","0","",""
"null","","209952","HierDyqs0m0ww5","beo13y2m7l","ms1000411","iti","","null","img/motor_1.png","65","motor","","","","","","",""
"541","","210501","HierDyqs0m0ww5","beo13y2m7l","ms1000411","motor","","75","img/motor_7.png","75","motor","7","66","1","0","0","",""
"null","","210615","HierDyqs0m0ww5","beo13y2m7l","ms1000411","iti","","null","img/motor_7.png","75","motor","","","","","","",""
"613","","211237","HierDyqs0m0ww5","beo13y2m7l","ms1000411","motor","","83","img/motor_2.png","83","motor","2","67","1","0","0","",""
"null","","211351","HierDyqs0m0ww5","beo13y2m7l","ms1000411","iti","","null","img/motor_2.png","83","motor","","","","","","",""
"614","","211971","HierDyqs0m0ww5","beo13y2m7l","ms1000411","motor","","72","img/motor_6.png","74","motor","6","68","0","1","0","",""
"730","","212709","HierDyqs0m0ww5","beo13y2m7l","ms1000411","motorRepeat","","74","img/motor_6.png","74","motor","6","68","1","0","0","",""
"null","","212817","HierDyqs0m0ww5","beo13y2m7l","ms1000411","iti","","null","img/motor_6.png","74","motor","","","","","","",""
"630","","213452","HierDyqs0m0ww5","beo13y2m7l","ms1000411","motor","","70","img/motor_4.png","70","motor","4","69","1","0","0","",""
"null","","213560","HierDyqs0m0ww5","beo13y2m7l","ms1000411","iti","","null","img/motor_4.png","70","motor","","","","","","",""
"637","","214204","HierDyqs0m0ww5","beo13y2m7l","ms1000411","motor","","83","img/motor_2.png","83","motor","2","70","1","0","0","",""
"null","","214319","HierDyqs0m0ww5","beo13y2m7l","ms1000411","iti","","null","img/motor_2.png","83","motor","","","","","","",""
"534","","214860","HierDyqs0m0ww5","beo13y2m7l","ms1000411","motor","","68","img/motor_3.png","68","motor","3","71","1","0","0","",""
"null","","214975","HierDyqs0m0ww5","beo13y2m7l","ms1000411","iti","","null","img/motor_3.png","68","motor","","","","","","",""
"678","","215667","HierDyqs0m0ww5","beo13y2m7l","ms1000411","motor","","74","img/motor_6.png","74","motor","6","72","1","0","0","",""
"null","","215782","HierDyqs0m0ww5","beo13y2m7l","ms1000411","iti","","null","img/motor_6.png","74","motor","","","","","","",""
"509","","216300","HierDyqs0m0ww5","beo13y2m7l","ms1000411","motor","","70","img/motor_4.png","70","motor","4","73","1","0","0","",""
"null","","216415","HierDyqs0m0ww5","beo13y2m7l","ms1000411","iti","","null","img/motor_4.png","70","motor","","","","","","",""
"541","","216972","HierDyqs0m0ww5","beo13y2m7l","ms1000411","motor","","83","img/motor_2.png","83","motor","2","74","1","0","0","",""
"null","","217081","HierDyqs0m0ww5","beo13y2m7l","ms1000411","iti","","null","img/motor_2.png","83","motor","","","","","","",""
"453","","217547","HierDyqs0m0ww5","beo13y2m7l","ms1000411","motor","","70","img/motor_4.png","70","motor","4","75","1","0","0","",""
"null","","217656","HierDyqs0m0ww5","beo13y2m7l","ms1000411","iti","","null","img/motor_4.png","70","motor","","","","","","",""
"573","","218237","HierDyqs0m0ww5","beo13y2m7l","ms1000411","motor","","74","img/motor_7.png","75","motor","7","76","0","1","0","",""
"361","","218605","HierDyqs0m0ww5","beo13y2m7l","ms1000411","motorRepeat","","75","img/motor_7.png","75","motor","7","76","1","0","0","",""
"null","","218714","HierDyqs0m0ww5","beo13y2m7l","ms1000411","iti","","null","img/motor_7.png","75","motor","","","","","","",""
"468","","219189","HierDyqs0m0ww5","beo13y2m7l","ms1000411","motor","","76","img/motor_8.png","76","motor","8","77","1","0","0","",""
"null","","219303","HierDyqs0m0ww5","beo13y2m7l","ms1000411","iti","","null","img/motor_8.png","76","motor","","","","","","",""
"605","","219923","HierDyqs0m0ww5","beo13y2m7l","ms1000411","motor","","83","img/motor_2.png","83","motor","2","78","1","0","0","",""
"null","","220032","HierDyqs0m0ww5","beo13y2m7l","ms1000411","iti","","null","img/motor_2.png","83","motor","","","","","","",""
"470","","220508","HierDyqs0m0ww5","beo13y2m7l","ms1000411","motor","","76","img/motor_8.png","76","motor","8","79","1","0","0","",""
"null","","220617","HierDyqs0m0ww5","beo13y2m7l","ms1000411","iti","","null","img/motor_8.png","76","motor","","","","","","",""
"620","","221245","HierDyqs0m0ww5","beo13y2m7l","ms1000411","motor","","74","img/motor_6.png","74","motor","6","80","1","0","0","",""
"null","","221353","HierDyqs0m0ww5","beo13y2m7l","ms1000411","iti","","null","img/motor_6.png","74","motor","","","","","","",""
"636","","221997","HierDyqs0m0ww5","beo13y2m7l","ms1000411","motor","","74","img/motor_6.png","74","motor","6","81","1","0","0","",""
"null","","222105","HierDyqs0m0ww5","beo13y2m7l","ms1000411","iti","","null","img/motor_6.png","74","motor","","","","","","",""
"524","","222637","HierDyqs0m0ww5","beo13y2m7l","ms1000411","motor","","70","img/motor_4.png","70","motor","4","82","1","0","0","",""
"null","","222752","HierDyqs0m0ww5","beo13y2m7l","ms1000411","iti","","null","img/motor_4.png","70","motor","","","","","","",""
"533","","223293","HierDyqs0m0ww5","beo13y2m7l","ms1000411","motor","","74","img/motor_6.png","74","motor","6","83","1","0","0","",""
"null","","223407","HierDyqs0m0ww5","beo13y2m7l","ms1000411","iti","","null","img/motor_6.png","74","motor","","","","","","",""
"581","","223997","HierDyqs0m0ww5","beo13y2m7l","ms1000411","motor","","72","img/motor_5.png","72","motor","5","84","1","0","0","",""
"null","","224111","HierDyqs0m0ww5","beo13y2m7l","ms1000411","iti","","null","img/motor_5.png","72","motor","","","","","","",""
"485","","224604","HierDyqs0m0ww5","beo13y2m7l","ms1000411","motor","","74","img/motor_6.png","74","motor","6","85","1","0","0","",""
"null","","224720","HierDyqs0m0ww5","beo13y2m7l","ms1000411","iti","","null","img/motor_6.png","74","motor","","","","","","",""
"525","","225259","HierDyqs0m0ww5","beo13y2m7l","ms1000411","motor","","72","img/motor_5.png","72","motor","5","86","1","0","0","",""
"null","","225367","HierDyqs0m0ww5","beo13y2m7l","ms1000411","iti","","null","img/motor_5.png","72","motor","","","","","","",""
"534","","225915","HierDyqs0m0ww5","beo13y2m7l","ms1000411","motor","","68","img/motor_3.png","68","motor","3","87","1","0","0","",""
"null","","226024","HierDyqs0m0ww5","beo13y2m7l","ms1000411","iti","","null","img/motor_3.png","68","motor","","","","","","",""
"486","","226516","HierDyqs0m0ww5","beo13y2m7l","ms1000411","motor","","76","img/motor_8.png","76","motor","8","88","1","0","0","",""
"null","","226624","HierDyqs0m0ww5","beo13y2m7l","ms1000411","iti","","null","img/motor_8.png","76","motor","","","","","","",""
"524","","227163","HierDyqs0m0ww5","beo13y2m7l","ms1000411","motor","","70","img/motor_4.png","70","motor","4","89","1","0","0","",""
"null","","227272","HierDyqs0m0ww5","beo13y2m7l","ms1000411","iti","","null","img/motor_4.png","70","motor","","","","","","",""
"581","","227860","HierDyqs0m0ww5","beo13y2m7l","ms1000411","motor","","74","img/motor_6.png","74","motor","6","90","1","0","0","",""
"null","","227975","HierDyqs0m0ww5","beo13y2m7l","ms1000411","iti","","null","img/motor_6.png","74","motor","","","","","","",""
"526","","228515","HierDyqs0m0ww5","beo13y2m7l","ms1000411","motor","","75","img/motor_7.png","75","motor","7","91","1","0","0","",""
"null","","228624","HierDyqs0m0ww5","beo13y2m7l","ms1000411","iti","","null","img/motor_7.png","75","motor","","","","","","",""
"477","","229109","HierDyqs0m0ww5","beo13y2m7l","ms1000411","motor","","72","img/motor_5.png","72","motor","5","92","1","0","0","",""
"null","","229223","HierDyqs0m0ww5","beo13y2m7l","ms1000411","iti","","null","img/motor_5.png","72","motor","","","","","","",""
"540","","229773","HierDyqs0m0ww5","beo13y2m7l","ms1000411","motor","","68","img/motor_3.png","68","motor","3","93","1","0","0","",""
"null","","229887","HierDyqs0m0ww5","beo13y2m7l","ms1000411","iti","","null","img/motor_3.png","68","motor","","","","","","",""
"597","","230494","HierDyqs0m0ww5","beo13y2m7l","ms1000411","motor","","74","img/motor_6.png","74","motor","6","94","1","0","0","",""
"null","","230608","HierDyqs0m0ww5","beo13y2m7l","ms1000411","iti","","null","img/motor_6.png","74","motor","","","","","","",""
"501","","231123","HierDyqs0m0ww5","beo13y2m7l","ms1000411","motor","","65","img/motor_1.png","65","motor","1","95","1","0","0","",""
"null","","231239","HierDyqs0m0ww5","beo13y2m7l","ms1000411","iti","","null","img/motor_1.png","65","motor","","","","","","",""
"573","","231820","HierDyqs0m0ww5","beo13y2m7l","ms1000411","motor","","72","img/motor_5.png","72","motor","5","96","1","0","0","",""
"null","","231929","HierDyqs0m0ww5","beo13y2m7l","ms1000411","iti","","null","img/motor_5.png","72","motor","","","","","","",""
"555","","232493","HierDyqs0m0ww5","beo13y2m7l","ms1000411","motor","","65","img/motor_1.png","65","motor","1","97","1","0","0","",""
"null","","232607","HierDyqs0m0ww5","beo13y2m7l","ms1000411","iti","","null","img/motor_1.png","65","motor","","","","","","",""
"469","","233085","HierDyqs0m0ww5","beo13y2m7l","ms1000411","motor","","70","img/motor_4.png","70","motor","4","98","1","0","0","",""
"null","","233192","HierDyqs0m0ww5","beo13y2m7l","ms1000411","iti","","null","img/motor_4.png","70","motor","","","","","","",""
"548","","233756","HierDyqs0m0ww5","beo13y2m7l","ms1000411","motor","","83","img/motor_2.png","83","motor","2","99","1","0","0","",""
"null","","233870","HierDyqs0m0ww5","beo13y2m7l","ms1000411","iti","","null","img/motor_2.png","83","motor","","","","","","",""
"575","","234459","HierDyqs0m0ww5","beo13y2m7l","ms1000411","motor","","74","img/motor_6.png","74","motor","6","100","1","0","0","",""
"null","","234575","HierDyqs0m0ww5","beo13y2m7l","ms1000411","iti","","null","img/motor_6.png","74","motor","","","","","","",""
"549","","235140","HierDyqs0m0ww5","beo13y2m7l","ms1000411","motor","","74","img/motor_6.png","74","motor","6","101","1","0","0","",""
"null","","235255","HierDyqs0m0ww5","beo13y2m7l","ms1000411","iti","","null","img/motor_6.png","74","motor","","","","","","",""
"518","","235787","HierDyqs0m0ww5","beo13y2m7l","ms1000411","motor","","76","img/motor_8.png","76","motor","8","102","1","0","0","",""
"null","","235903","HierDyqs0m0ww5","beo13y2m7l","ms1000411","iti","","null","img/motor_8.png","76","motor","","","","","","",""
"678","","236589","HierDyqs0m0ww5","beo13y2m7l","ms1000411","motor","","68","img/motor_3.png","68","motor","3","103","1","0","0","",""
"null","","236704","HierDyqs0m0ww5","beo13y2m7l","ms1000411","iti","","null","img/motor_3.png","68","motor","","","","","","",""
"581","","237293","HierDyqs0m0ww5","beo13y2m7l","ms1000411","motor","","76","img/motor_8.png","76","motor","8","104","1","0","0","",""
"null","","237408","HierDyqs0m0ww5","beo13y2m7l","ms1000411","iti","","null","img/motor_8.png","76","motor","","","","","","",""
"653","","238075","HierDyqs0m0ww5","beo13y2m7l","ms1000411","motor","","83","img/motor_2.png","83","motor","2","105","1","0","0","",""
"null","","238190","HierDyqs0m0ww5","beo13y2m7l","ms1000411","iti","","null","img/motor_2.png","83","motor","","","","","","",""
"559","","238757","HierDyqs0m0ww5","beo13y2m7l","ms1000411","motor","","68","img/motor_3.png","68","motor","3","106","1","0","0","",""
"null","","238865","HierDyqs0m0ww5","beo13y2m7l","ms1000411","iti","","null","img/motor_3.png","68","motor","","","","","","",""
"525","","239403","HierDyqs0m0ww5","beo13y2m7l","ms1000411","motor","","72","img/motor_5.png","72","motor","5","107","1","0","0","",""
"null","","239513","HierDyqs0m0ww5","beo13y2m7l","ms1000411","iti","","null","img/motor_5.png","72","motor","","","","","","",""
"516","","240036","HierDyqs0m0ww5","beo13y2m7l","ms1000411","motor","","65","img/motor_1.png","65","motor","1","108","1","0","0","",""
"null","","240145","HierDyqs0m0ww5","beo13y2m7l","ms1000411","iti","","null","img/motor_1.png","65","motor","","","","","","",""
"484","","240637","HierDyqs0m0ww5","beo13y2m7l","ms1000411","motor","","75","img/motor_7.png","75","motor","7","109","1","0","0","",""
"null","","240751","HierDyqs0m0ww5","beo13y2m7l","ms1000411","iti","","null","img/motor_7.png","75","motor","","","","","","",""
"485","","241245","HierDyqs0m0ww5","beo13y2m7l","ms1000411","motor","","70","img/motor_4.png","70","motor","4","110","1","0","0","",""
"null","","241352","HierDyqs0m0ww5","beo13y2m7l","ms1000411","iti","","null","img/motor_4.png","70","motor","","","","","","",""
"613","","241973","HierDyqs0m0ww5","beo13y2m7l","ms1000411","motor","","75","img/motor_7.png","75","motor","7","111","1","0","0","",""
"null","","242081","HierDyqs0m0ww5","beo13y2m7l","ms1000411","iti","","null","img/motor_7.png","75","motor","","","","","","",""
"485","","242571","HierDyqs0m0ww5","beo13y2m7l","ms1000411","motor","","75","img/motor_7.png","75","motor","7","112","1","0","0","",""
"null","","242685","HierDyqs0m0ww5","beo13y2m7l","ms1000411","iti","","null","img/motor_7.png","75","motor","","","","","","",""
"471","","243165","HierDyqs0m0ww5","beo13y2m7l","ms1000411","motor","","65","img/motor_1.png","65","motor","1","113","1","0","0","",""
"null","","243280","HierDyqs0m0ww5","beo13y2m7l","ms1000411","iti","","null","img/motor_1.png","65","motor","","","","","","",""
"420","","243709","HierDyqs0m0ww5","beo13y2m7l","ms1000411","motor","","70","img/motor_4.png","70","motor","4","114","1","0","0","",""
"null","","243817","HierDyqs0m0ww5","beo13y2m7l","ms1000411","iti","","null","img/motor_4.png","70","motor","","","","","","",""
"435","","244261","HierDyqs0m0ww5","beo13y2m7l","ms1000411","motor","","76","img/motor_8.png","76","motor","8","115","1","0","0","",""
"null","","244376","HierDyqs0m0ww5","beo13y2m7l","ms1000411","iti","","null","img/motor_8.png","76","motor","","","","","","",""
"486","","244876","HierDyqs0m0ww5","beo13y2m7l","ms1000411","motor","","83","img/motor_3.png","68","motor","3","116","0","1","0","",""
"354","","245244","HierDyqs0m0ww5","beo13y2m7l","ms1000411","motorRepeat","","68","img/motor_3.png","68","motor","3","116","1","0","0","",""
"null","","245359","HierDyqs0m0ww5","beo13y2m7l","ms1000411","iti","","null","img/motor_3.png","68","motor","","","","","","",""
"495","","245861","HierDyqs0m0ww5","beo13y2m7l","ms1000411","motor","","83","img/motor_2.png","83","motor","2","117","1","0","0","",""
"null","","245976","HierDyqs0m0ww5","beo13y2m7l","ms1000411","iti","","null","img/motor_2.png","83","motor","","","","","","",""
"428","","246413","HierDyqs0m0ww5","beo13y2m7l","ms1000411","motor","","83","img/motor_2.png","83","motor","2","118","1","0","0","",""
"null","","246527","HierDyqs0m0ww5","beo13y2m7l","ms1000411","iti","","null","img/motor_2.png","83","motor","","","","","","",""
"494","","247029","HierDyqs0m0ww5","beo13y2m7l","ms1000411","motor","","70","img/motor_4.png","70","motor","4","119","1","0","0","",""
"null","","247137","HierDyqs0m0ww5","beo13y2m7l","ms1000411","iti","","null","img/motor_4.png","70","motor","","","","","","",""
"493","","247636","HierDyqs0m0ww5","beo13y2m7l","ms1000411","motor","","68","img/motor_3.png","68","motor","3","120","1","0","0","",""
"null","","247745","HierDyqs0m0ww5","beo13y2m7l","ms1000411","iti","","null","img/motor_3.png","68","motor","","","","","","",""
"389","","248141","HierDyqs0m0ww5","beo13y2m7l","ms1000411","motor","","70","img/motor_4.png","70","motor","4","121","1","0","0","",""
"null","","248249","HierDyqs0m0ww5","beo13y2m7l","ms1000411","iti","","null","img/motor_4.png","70","motor","","","","","","",""
"420","","248676","HierDyqs0m0ww5","beo13y2m7l","ms1000411","motor","","65","img/motor_1.png","65","motor","1","122","1","0","0","",""
"null","","248792","HierDyqs0m0ww5","beo13y2m7l","ms1000411","iti","","null","img/motor_1.png","65","motor","","","","","","",""
"462","","249260","HierDyqs0m0ww5","beo13y2m7l","ms1000411","motor","","76","img/motor_8.png","76","motor","8","123","1","0","0","",""
"null","","249369","HierDyqs0m0ww5","beo13y2m7l","ms1000411","iti","","null","img/motor_8.png","76","motor","","","","","","",""
"516","","249893","HierDyqs0m0ww5","beo13y2m7l","ms1000411","motor","","65","img/motor_1.png","65","motor","1","124","1","0","0","",""
"null","","250008","HierDyqs0m0ww5","beo13y2m7l","ms1000411","iti","","null","img/motor_1.png","65","motor","","","","","","",""
"484","","250501","HierDyqs0m0ww5","beo13y2m7l","ms1000411","motor","","74","img/motor_6.png","74","motor","6","125","1","0","0","",""
"null","","250608","HierDyqs0m0ww5","beo13y2m7l","ms1000411","iti","","null","img/motor_6.png","74","motor","","","","","","",""
"508","","251131","HierDyqs0m0ww5","beo13y2m7l","ms1000411","motor","","70","img/motor_4.png","70","motor","4","126","1","0","0","",""
"null","","251240","HierDyqs0m0ww5","beo13y2m7l","ms1000411","iti","","null","img/motor_4.png","70","motor","","","","","","",""
"454","","251701","HierDyqs0m0ww5","beo13y2m7l","ms1000411","motor","","76","img/motor_8.png","76","motor","8","127","1","0","0","",""
"null","","251815","HierDyqs0m0ww5","beo13y2m7l","ms1000411","iti","","null","img/motor_8.png","76","motor","","","","","","",""
"614","","252436","HierDyqs0m0ww5","beo13y2m7l","ms1000411","motor","","68","img/motor_3.png","68","motor","3","128","1","0","0","",""
"null","","252544","HierDyqs0m0ww5","beo13y2m7l","ms1000411","iti","","null","img/motor_3.png","68","motor","","","","","","",""
"485","","253044","HierDyqs0m0ww5","beo13y2m7l","ms1000411","motor","","83","img/motor_2.png","83","motor","2","129","1","0","0","",""
"null","","253152","HierDyqs0m0ww5","beo13y2m7l","ms1000411","iti","","null","img/motor_2.png","83","motor","","","","","","",""
"509","","253675","HierDyqs0m0ww5","beo13y2m7l","ms1000411","motor","","72","img/motor_5.png","72","motor","5","130","1","0","0","",""
"null","","253790","HierDyqs0m0ww5","beo13y2m7l","ms1000411","iti","","null","img/motor_5.png","72","motor","","","","","","",""
"510","","254316","HierDyqs0m0ww5","beo13y2m7l","ms1000411","motor","","75","img/motor_7.png","75","motor","7","131","1","0","0","",""
"null","","254431","HierDyqs0m0ww5","beo13y2m7l","ms1000411","iti","","null","img/motor_7.png","75","motor","","","","","","",""
"423","","254868","HierDyqs0m0ww5","beo13y2m7l","ms1000411","motor","","72","img/motor_6.png","74","motor","6","132","0","1","0","",""
"306","","255180","HierDyqs0m0ww5","beo13y2m7l","ms1000411","motorRepeat","","74","img/motor_6.png","74","motor","6","132","1","0","0","",""
"null","","255288","HierDyqs0m0ww5","beo13y2m7l","ms1000411","iti","","null","img/motor_6.png","74","motor","","","","","","",""
"533","","255836","HierDyqs0m0ww5","beo13y2m7l","ms1000411","motor","","65","img/motor_1.png","65","motor","1","133","1","0","0","",""
"null","","255944","HierDyqs0m0ww5","beo13y2m7l","ms1000411","iti","","null","img/motor_1.png","65","motor","","","","","","",""
"597","","256549","HierDyqs0m0ww5","beo13y2m7l","ms1000411","motor","","74","img/motor_6.png","74","motor","6","134","1","0","0","",""
"null","","256657","HierDyqs0m0ww5","beo13y2m7l","ms1000411","iti","","null","img/motor_6.png","74","motor","","","","","","",""
"571","","257237","HierDyqs0m0ww5","beo13y2m7l","ms1000411","motor","","68","img/motor_3.png","68","motor","3","135","1","0","0","",""
"null","","257352","HierDyqs0m0ww5","beo13y2m7l","ms1000411","iti","","null","img/motor_3.png","68","motor","","","","","","",""
"412","","257773","HierDyqs0m0ww5","beo13y2m7l","ms1000411","motor","","68","img/motor_3.png","68","motor","3","136","1","0","0","",""
"null","","257882","HierDyqs0m0ww5","beo13y2m7l","ms1000411","iti","","null","img/motor_3.png","68","motor","","","","","","",""
"492","","258382","HierDyqs0m0ww5","beo13y2m7l","ms1000411","motor","","72","img/motor_5.png","72","motor","5","137","1","0","0","",""
"null","","258490","HierDyqs0m0ww5","beo13y2m7l","ms1000411","iti","","null","img/motor_5.png","72","motor","","","","","","",""
"428","","258925","HierDyqs0m0ww5","beo13y2m7l","ms1000411","motor","","68","img/motor_3.png","68","motor","3","138","1","0","0","",""
"null","","259040","HierDyqs0m0ww5","beo13y2m7l","ms1000411","iti","","null","img/motor_3.png","68","motor","","","","","","",""
"485","","259534","HierDyqs0m0ww5","beo13y2m7l","ms1000411","motor","","83","img/motor_2.png","83","motor","2","139","1","0","0","",""
"null","","259647","HierDyqs0m0ww5","beo13y2m7l","ms1000411","iti","","null","img/motor_2.png","83","motor","","","","","","",""
"445","","260100","HierDyqs0m0ww5","beo13y2m7l","ms1000411","motor","","68","img/motor_3.png","68","motor","3","140","1","0","0","",""
"null","","260208","HierDyqs0m0ww5","beo13y2m7l","ms1000411","iti","","null","img/motor_3.png","68","motor","","","","","","",""
"462","","260677","HierDyqs0m0ww5","beo13y2m7l","ms1000411","motor","","68","img/motor_3.png","68","motor","3","141","1","0","0","",""
"null","","260792","HierDyqs0m0ww5","beo13y2m7l","ms1000411","iti","","null","img/motor_3.png","68","motor","","","","","","",""
"429","","261236","HierDyqs0m0ww5","beo13y2m7l","ms1000411","motor","","70","img/motor_4.png","70","motor","4","142","1","0","0","",""
"null","","261351","HierDyqs0m0ww5","beo13y2m7l","ms1000411","iti","","null","img/motor_4.png","70","motor","","","","","","",""
"494","","261865","HierDyqs0m0ww5","beo13y2m7l","ms1000411","motor","","83","img/motor_2.png","83","motor","2","143","1","0","0","",""
"null","","261975","HierDyqs0m0ww5","beo13y2m7l","ms1000411","iti","","null","img/motor_2.png","83","motor","","","","","","",""
"479","","262461","HierDyqs0m0ww5","beo13y2m7l","ms1000411","motor","","70","img/motor_4.png","70","motor","4","144","1","0","0","",""
"null","","262570","HierDyqs0m0ww5","beo13y2m7l","ms1000411","iti","","null","img/motor_4.png","70","motor","","","","","","",""
"675","","263253","HierDyqs0m0ww5","beo13y2m7l","ms1000411","motor","","75","img/motor_7.png","75","motor","7","145","1","0","0","",""
"null","","263361","HierDyqs0m0ww5","beo13y2m7l","ms1000411","iti","","null","img/motor_7.png","75","motor","","","","","","",""
"740","","264109","HierDyqs0m0ww5","beo13y2m7l","ms1000411","motor","","83","img/motor_2.png","83","motor","2","146","1","0","0","",""
"null","","264225","HierDyqs0m0ww5","beo13y2m7l","ms1000411","iti","","null","img/motor_2.png","83","motor","","","","","","",""
"500","","264734","HierDyqs0m0ww5","beo13y2m7l","ms1000411","motor","","76","img/motor_8.png","76","motor","8","147","1","0","0","",""
"null","","264842","HierDyqs0m0ww5","beo13y2m7l","ms1000411","iti","","null","img/motor_8.png","76","motor","","","","","","",""
"595","","265452","HierDyqs0m0ww5","beo13y2m7l","ms1000411","motor","","74","img/motor_6.png","74","motor","6","148","1","0","0","",""
"null","","265568","HierDyqs0m0ww5","beo13y2m7l","ms1000411","iti","","null","img/motor_6.png","74","motor","","","","","","",""
"453","","266035","HierDyqs0m0ww5","beo13y2m7l","ms1000411","motor","","76","img/motor_8.png","76","motor","8","149","1","0","0","",""
"null","","266151","HierDyqs0m0ww5","beo13y2m7l","ms1000411","iti","","null","img/motor_8.png","76","motor","","","","","","",""
"492","","266653","HierDyqs0m0ww5","beo13y2m7l","ms1000411","motor","","75","img/motor_7.png","75","motor","7","150","1","0","0","",""
"null","","266767","HierDyqs0m0ww5","beo13y2m7l","ms1000411","iti","","null","img/motor_7.png","75","motor","","","","","","",""
"446","","267228","HierDyqs0m0ww5","beo13y2m7l","ms1000411","motor","","76","img/motor_8.png","76","motor","8","151","1","0","0","",""
"null","","267343","HierDyqs0m0ww5","beo13y2m7l","ms1000411","iti","","null","img/motor_8.png","76","motor","","","","","","",""
"646","","267996","HierDyqs0m0ww5","beo13y2m7l","ms1000411","motor","","65","img/motor_1.png","65","motor","1","152","1","0","0","",""
"null","","268104","HierDyqs0m0ww5","beo13y2m7l","ms1000411","iti","","null","img/motor_1.png","65","motor","","","","","","",""
"460","","268572","HierDyqs0m0ww5","beo13y2m7l","ms1000411","motor","","76","img/motor_8.png","76","motor","8","153","1","0","0","",""
"null","","268687","HierDyqs0m0ww5","beo13y2m7l","ms1000411","iti","","null","img/motor_8.png","76","motor","","","","","","",""
"653","","269348","HierDyqs0m0ww5","beo13y2m7l","ms1000411","motor","","83","img/motor_2.png","83","motor","2","154","1","0","0","",""
"null","","269457","HierDyqs0m0ww5","beo13y2m7l","ms1000411","iti","","null","img/motor_2.png","83","motor","","","","","","",""
"613","","270078","HierDyqs0m0ww5","beo13y2m7l","ms1000411","motor","","74","img/motor_6.png","74","motor","6","155","1","0","0","",""
"null","","270185","HierDyqs0m0ww5","beo13y2m7l","ms1000411","iti","","null","img/motor_6.png","74","motor","","","","","","",""
"531","","270732","HierDyqs0m0ww5","beo13y2m7l","ms1000411","motor","","83","img/motor_2.png","83","motor","2","156","1","0","0","",""
"null","","270847","HierDyqs0m0ww5","beo13y2m7l","ms1000411","iti","","null","img/motor_2.png","83","motor","","","","","","",""
"549","","271406","HierDyqs0m0ww5","beo13y2m7l","ms1000411","motor","","75","img/motor_7.png","75","motor","7","157","1","0","0","",""
"null","","271514","HierDyqs0m0ww5","beo13y2m7l","ms1000411","iti","","null","img/motor_7.png","75","motor","","","","","","",""
"506","","272029","HierDyqs0m0ww5","beo13y2m7l","ms1000411","motor","","83","img/motor_2.png","83","motor","2","158","1","0","0","",""
"null","","272137","HierDyqs0m0ww5","beo13y2m7l","ms1000411","iti","","null","img/motor_2.png","83","motor","","","","","","",""
"509","","272654","HierDyqs0m0ww5","beo13y2m7l","ms1000411","motor","","68","img/motor_3.png","68","motor","3","159","1","0","0","",""
"null","","272768","HierDyqs0m0ww5","beo13y2m7l","ms1000411","iti","","null","img/motor_3.png","68","motor","","","","","","",""
"517","","273294","HierDyqs0m0ww5","beo13y2m7l","ms1000411","motor","","72","img/motor_5.png","72","motor","5","160","1","0","0","",""
"null","","273401","HierDyqs0m0ww5","beo13y2m7l","ms1000411","iti","","null","img/motor_5.png","72","motor","","","","","","",""
"500","","273908","HierDyqs0m0ww5","beo13y2m7l","ms1000411","motor","","83","img/motor_2.png","83","motor","2","161","1","0","0","",""
"null","","274023","HierDyqs0m0ww5","beo13y2m7l","ms1000411","iti","","null","img/motor_2.png","83","motor","","","","","","",""
"503","","274532","HierDyqs0m0ww5","beo13y2m7l","ms1000411","motor","","68","img/motor_3.png","68","motor","3","162","1","0","0","",""
"null","","274647","HierDyqs0m0ww5","beo13y2m7l","ms1000411","iti","","null","img/motor_3.png","68","motor","","","","","","",""
"623","","275278","HierDyqs0m0ww5","beo13y2m7l","ms1000411","motor","","74","img/motor_6.png","74","motor","6","163","1","0","0","",""
"null","","275392","HierDyqs0m0ww5","beo13y2m7l","ms1000411","iti","","null","img/motor_6.png","74","motor","","","","","","",""
"517","","275916","HierDyqs0m0ww5","beo13y2m7l","ms1000411","motor","","72","img/motor_5.png","72","motor","5","164","1","0","0","",""
"null","","276024","HierDyqs0m0ww5","beo13y2m7l","ms1000411","iti","","null","img/motor_5.png","72","motor","","","","","","",""
"517","","276549","HierDyqs0m0ww5","beo13y2m7l","ms1000411","motor","","65","img/motor_1.png","65","motor","1","165","1","0","0","",""
"null","","276664","HierDyqs0m0ww5","beo13y2m7l","ms1000411","iti","","null","img/motor_1.png","65","motor","","","","","","",""
"477","","277148","HierDyqs0m0ww5","beo13y2m7l","ms1000411","motor","","68","img/motor_3.png","68","motor","3","166","1","0","0","",""
"null","","277257","HierDyqs0m0ww5","beo13y2m7l","ms1000411","iti","","null","img/motor_3.png","68","motor","","","","","","",""
"541","","277805","HierDyqs0m0ww5","beo13y2m7l","ms1000411","motor","","83","img/motor_2.png","83","motor","2","167","1","0","0","",""
"null","","277913","HierDyqs0m0ww5","beo13y2m7l","ms1000411","iti","","null","img/motor_2.png","83","motor","","","","","","",""
"573","","278493","HierDyqs0m0ww5","beo13y2m7l","ms1000411","motor","","65","img/motor_1.png","65","motor","1","168","1","0","0","",""
"null","","278601","HierDyqs0m0ww5","beo13y2m7l","ms1000411","iti","","null","img/motor_1.png","65","motor","","","","","","",""
"436","","279044","HierDyqs0m0ww5","beo13y2m7l","ms1000411","motor","","70","img/motor_4.png","70","motor","4","169","1","0","0","",""
"null","","279160","HierDyqs0m0ww5","beo13y2m7l","ms1000411","iti","","null","img/motor_4.png","70","motor","","","","","","",""
"550","","279718","HierDyqs0m0ww5","beo13y2m7l","ms1000411","motor","","72","img/motor_5.png","72","motor","5","170","1","0","0","",""
"null","","279825","HierDyqs0m0ww5","beo13y2m7l","ms1000411","iti","","null","img/motor_5.png","72","motor","","","","","","",""
"532","","280372","HierDyqs0m0ww5","beo13y2m7l","ms1000411","motor","","74","img/motor_6.png","74","motor","6","171","1","0","0","",""
"null","","280488","HierDyqs0m0ww5","beo13y2m7l","ms1000411","iti","","null","img/motor_6.png","74","motor","","","","","","",""
"492","","280989","HierDyqs0m0ww5","beo13y2m7l","ms1000411","motor","","76","img/motor_8.png","76","motor","8","172","1","0","0","",""
"null","","281103","HierDyqs0m0ww5","beo13y2m7l","ms1000411","iti","","null","img/motor_8.png","76","motor","","","","","","",""
"557","","281676","HierDyqs0m0ww5","beo13y2m7l","ms1000411","motor","","83","img/motor_2.png","83","motor","2","173","1","0","0","",""
"null","","281784","HierDyqs0m0ww5","beo13y2m7l","ms1000411","iti","","null","img/motor_2.png","83","motor","","","","","","",""
"429","","282220","HierDyqs0m0ww5","beo13y2m7l","ms1000411","motor","","74","img/motor_6.png","74","motor","6","174","1","0","0","",""
"null","","282328","HierDyqs0m0ww5","beo13y2m7l","ms1000411","iti","","null","img/motor_6.png","74","motor","","","","","","",""
"461","","282798","HierDyqs0m0ww5","beo13y2m7l","ms1000411","motor","","75","img/motor_7.png","75","motor","7","175","1","0","0","",""
"null","","282906","HierDyqs0m0ww5","beo13y2m7l","ms1000411","iti","","null","img/motor_7.png","75","motor","","","","","","",""
"532","","283452","HierDyqs0m0ww5","beo13y2m7l","ms1000411","motor","","70","img/motor_4.png","70","motor","4","176","1","0","0","",""
"null","","283561","HierDyqs0m0ww5","beo13y2m7l","ms1000411","iti","","null","img/motor_4.png","70","motor","","","","","","",""
"470","","284037","HierDyqs0m0ww5","beo13y2m7l","ms1000411","motor","","74","img/motor_6.png","74","motor","6","177","1","0","0","",""
"null","","284145","HierDyqs0m0ww5","beo13y2m7l","ms1000411","iti","","null","img/motor_6.png","74","motor","","","","","","",""
"486","","284637","HierDyqs0m0ww5","beo13y2m7l","ms1000411","motor","","72","img/motor_5.png","72","motor","5","178","1","0","0","",""
"null","","284752","HierDyqs0m0ww5","beo13y2m7l","ms1000411","iti","","null","img/motor_5.png","72","motor","","","","","","",""
"582","","285340","HierDyqs0m0ww5","beo13y2m7l","ms1000411","motor","","70","img/motor_4.png","70","motor","4","179","1","0","0","",""
"null","","285455","HierDyqs0m0ww5","beo13y2m7l","ms1000411","iti","","null","img/motor_4.png","70","motor","","","","","","",""
"663","","286125","HierDyqs0m0ww5","beo13y2m7l","ms1000411","motor","","75","img/motor_7.png","75","motor","7","180","1","0","0","",""
"null","","286233","HierDyqs0m0ww5","beo13y2m7l","ms1000411","iti","","null","img/motor_7.png","75","motor","","","","","","",""
"1004","","287253","HierDyqs0m0ww5","beo13y2m7l","ms1000411","motor","","74","img/motor_6.png","74","motor","6","181","1","0","0","",""
"null","","287367","HierDyqs0m0ww5","beo13y2m7l","ms1000411","iti","","null","img/motor_6.png","74","motor","","","","","","",""
"589","","287966","HierDyqs0m0ww5","beo13y2m7l","ms1000411","motor","","65","img/motor_1.png","65","motor","1","182","1","0","0","",""
"null","","288074","HierDyqs0m0ww5","beo13y2m7l","ms1000411","iti","","null","img/motor_1.png","65","motor","","","","","","",""
"524","","288606","HierDyqs0m0ww5","beo13y2m7l","ms1000411","motor","","68","img/motor_3.png","68","motor","3","183","1","0","0","",""
"null","","288720","HierDyqs0m0ww5","beo13y2m7l","ms1000411","iti","","null","img/motor_3.png","68","motor","","","","","","",""
"549","","289284","HierDyqs0m0ww5","beo13y2m7l","ms1000411","motor","","83","img/motor_2.png","83","motor","2","184","1","0","0","",""
"null","","289400","HierDyqs0m0ww5","beo13y2m7l","ms1000411","iti","","null","img/motor_2.png","83","motor","","","","","","",""
"533","","289948","HierDyqs0m0ww5","beo13y2m7l","ms1000411","motor","","83","img/motor_2.png","83","motor","2","185","1","0","0","",""
"null","","290058","HierDyqs0m0ww5","beo13y2m7l","ms1000411","iti","","null","img/motor_2.png","83","motor","","","","","","",""
"556","","290628","HierDyqs0m0ww5","beo13y2m7l","ms1000411","motor","","72","img/motor_5.png","72","motor","5","186","1","0","0","",""
"null","","290737","HierDyqs0m0ww5","beo13y2m7l","ms1000411","iti","","null","img/motor_5.png","72","motor","","","","","","",""
"461","","291205","HierDyqs0m0ww5","beo13y2m7l","ms1000411","motor","","76","img/motor_8.png","76","motor","8","187","1","0","0","",""
"null","","291313","HierDyqs0m0ww5","beo13y2m7l","ms1000411","iti","","null","img/motor_8.png","76","motor","","","","","","",""
"500","","291822","HierDyqs0m0ww5","beo13y2m7l","ms1000411","motor","","68","img/motor_3.png","68","motor","3","188","1","0","0","",""
"null","","291930","HierDyqs0m0ww5","beo13y2m7l","ms1000411","iti","","null","img/motor_3.png","68","motor","","","","","","",""
"442","","292380","HierDyqs0m0ww5","beo13y2m7l","ms1000411","motor","","70","img/motor_4.png","70","motor","4","189","1","0","0","",""
"null","","292496","HierDyqs0m0ww5","beo13y2m7l","ms1000411","iti","","null","img/motor_4.png","70","motor","","","","","","",""
"428","","292932","HierDyqs0m0ww5","beo13y2m7l","ms1000411","motor","","70","img/motor_4.png","70","motor","4","190","1","0","0","",""
"null","","293048","HierDyqs0m0ww5","beo13y2m7l","ms1000411","iti","","null","img/motor_4.png","70","motor","","","","","","",""
"420","","293485","HierDyqs0m0ww5","beo13y2m7l","ms1000411","motor","","76","img/motor_8.png","76","motor","8","191","1","0","0","",""
"null","","293599","HierDyqs0m0ww5","beo13y2m7l","ms1000411","iti","","null","img/motor_8.png","76","motor","","","","","","",""
"454","","294068","HierDyqs0m0ww5","beo13y2m7l","ms1000411","motor","","74","img/motor_6.png","74","motor","6","192","1","0","0","",""
"null","","294185","HierDyqs0m0ww5","beo13y2m7l","ms1000411","iti","","null","img/motor_6.png","74","motor","","","","","","",""
"548","","294748","HierDyqs0m0ww5","beo13y2m7l","ms1000411","motor","","72","img/motor_5.png","72","motor","5","193","1","0","0","",""
"null","","294864","HierDyqs0m0ww5","beo13y2m7l","ms1000411","iti","","null","img/motor_5.png","72","motor","","","","","","",""
"484","","295356","HierDyqs0m0ww5","beo13y2m7l","ms1000411","motor","","74","img/motor_6.png","74","motor","6","194","1","0","0","",""
"null","","295471","HierDyqs0m0ww5","beo13y2m7l","ms1000411","iti","","null","img/motor_6.png","74","motor","","","","","","",""
"462","","295948","HierDyqs0m0ww5","beo13y2m7l","ms1000411","motor","","76","img/motor_8.png","76","motor","8","195","1","0","0","",""
"null","","296063","HierDyqs0m0ww5","beo13y2m7l","ms1000411","iti","","null","img/motor_8.png","76","motor","","","","","","",""
"478","","296549","HierDyqs0m0ww5","beo13y2m7l","ms1000411","motor","","70","img/motor_4.png","70","motor","4","196","1","0","0","",""
"null","","296665","HierDyqs0m0ww5","beo13y2m7l","ms1000411","iti","","null","img/motor_4.png","70","motor","","","","","","",""
"420","","297093","HierDyqs0m0ww5","beo13y2m7l","ms1000411","motor","","68","img/motor_3.png","68","motor","3","197","1","0","0","",""
"null","","297203","HierDyqs0m0ww5","beo13y2m7l","ms1000411","iti","","null","img/motor_3.png","68","motor","","","","","","",""
"539","","297750","HierDyqs0m0ww5","beo13y2m7l","ms1000411","motor","","72","img/motor_5.png","72","motor","5","198","1","0","0","",""
"null","","297858","HierDyqs0m0ww5","beo13y2m7l","ms1000411","iti","","null","img/motor_5.png","72","motor","","","","","","",""
"451","","298324","HierDyqs0m0ww5","beo13y2m7l","ms1000411","motor","","83","img/motor_2.png","83","motor","2","199","1","0","0","",""
"null","","298432","HierDyqs0m0ww5","beo13y2m7l","ms1000411","iti","","null","img/motor_2.png","83","motor","","","","","","",""
"557","","298998","HierDyqs0m0ww5","beo13y2m7l","ms1000411","motor","","74","img/motor_7.png","75","motor","7","200","0","1","0","",""
"263","","299276","HierDyqs0m0ww5","beo13y2m7l","ms1000411","motorRepeat","","75","img/motor_7.png","75","motor","7","200","1","0","0","",""
"null","","299385","HierDyqs0m0ww5","beo13y2m7l","ms1000411","iti","","null","img/motor_7.png","75","motor","","","","","","",""
"469","","299868","HierDyqs0m0ww5","beo13y2m7l","ms1000411","motor","","65","img/motor_1.png","65","motor","1","201","1","0","0","",""
"null","","299978","HierDyqs0m0ww5","beo13y2m7l","ms1000411","iti","","null","img/motor_1.png","65","motor","","","","","","",""
"524","","300510","HierDyqs0m0ww5","beo13y2m7l","ms1000411","motor","","74","img/motor_7.png","75","motor","7","202","0","1","0","",""
"328","","300852","HierDyqs0m0ww5","beo13y2m7l","ms1000411","motorRepeat","","75","img/motor_7.png","75","motor","7","202","1","0","0","",""
"null","","300967","HierDyqs0m0ww5","beo13y2m7l","ms1000411","iti","","null","img/motor_7.png","75","motor","","","","","","",""
"438","","301414","HierDyqs0m0ww5","beo13y2m7l","ms1000411","motor","","76","img/motor_8.png","76","motor","8","203","1","0","0","",""
"null","","301529","HierDyqs0m0ww5","beo13y2m7l","ms1000411","iti","","null","img/motor_8.png","76","motor","","","","","","",""
"492","","302029","HierDyqs0m0ww5","beo13y2m7l","ms1000411","motor","","70","img/motor_4.png","70","motor","4","204","1","0","0","",""
"null","","302138","HierDyqs0m0ww5","beo13y2m7l","ms1000411","iti","","null","img/motor_4.png","70","motor","","","","","","",""
"491","","302638","HierDyqs0m0ww5","beo13y2m7l","ms1000411","motor","","76","img/motor_8.png","76","motor","8","205","1","0","0","",""
"null","","302746","HierDyqs0m0ww5","beo13y2m7l","ms1000411","iti","","null","img/motor_8.png","76","motor","","","","","","",""
"492","","303246","HierDyqs0m0ww5","beo13y2m7l","ms1000411","motor","","75","img/motor_7.png","75","motor","7","206","1","0","0","",""
"null","","303355","HierDyqs0m0ww5","beo13y2m7l","ms1000411","iti","","null","img/motor_7.png","75","motor","","","","","","",""
"523","","303892","HierDyqs0m0ww5","beo13y2m7l","ms1000411","motor","","70","img/motor_4.png","70","motor","4","207","1","0","0","",""
"null","","304002","HierDyqs0m0ww5","beo13y2m7l","ms1000411","iti","","null","img/motor_4.png","70","motor","","","","","","",""
"469","","304478","HierDyqs0m0ww5","beo13y2m7l","ms1000411","motor","","72","img/motor_5.png","72","motor","5","208","1","0","0","",""
"null","","304585","HierDyqs0m0ww5","beo13y2m7l","ms1000411","iti","","null","img/motor_5.png","72","motor","","","","","","",""
"459","","305053","HierDyqs0m0ww5","beo13y2m7l","ms1000411","motor","","70","img/motor_4.png","70","motor","4","209","1","0","0","",""
"null","","305163","HierDyqs0m0ww5","beo13y2m7l","ms1000411","iti","","null","img/motor_4.png","70","motor","","","","","","",""
"475","","305645","HierDyqs0m0ww5","beo13y2m7l","ms1000411","motor","","75","img/motor_7.png","75","motor","7","210","1","0","0","",""
"null","","305754","HierDyqs0m0ww5","beo13y2m7l","ms1000411","iti","","null","img/motor_7.png","75","motor","","","","","","",""
"507","","306269","HierDyqs0m0ww5","beo13y2m7l","ms1000411","motor","","70","img/motor_3.png","68","motor","3","211","0","1","0","",""
"649","","306932","HierDyqs0m0ww5","beo13y2m7l","ms1000411","motorRepeat","","68","img/motor_3.png","68","motor","3","211","1","0","0","",""
"null","","307048","HierDyqs0m0ww5","beo13y2m7l","ms1000411","iti","","null","img/motor_3.png","68","motor","","","","","","",""
"445","","307502","HierDyqs0m0ww5","beo13y2m7l","ms1000411","motor","","83","img/motor_2.png","83","motor","2","212","1","0","0","",""
"null","","307609","HierDyqs0m0ww5","beo13y2m7l","ms1000411","iti","","null","img/motor_2.png","83","motor","","","","","","",""
"475","","308092","HierDyqs0m0ww5","beo13y2m7l","ms1000411","motor","","76","img/motor_8.png","76","motor","8","213","1","0","0","",""
"null","","308201","HierDyqs0m0ww5","beo13y2m7l","ms1000411","iti","","null","img/motor_8.png","76","motor","","","","","","",""
"525","","308733","HierDyqs0m0ww5","beo13y2m7l","ms1000411","motor","","76","img/motor_8.png","76","motor","8","214","1","0","0","",""
"null","","308848","HierDyqs0m0ww5","beo13y2m7l","ms1000411","iti","","null","img/motor_8.png","76","motor","","","","","","",""
"485","","309348","HierDyqs0m0ww5","beo13y2m7l","ms1000411","motor","","74","img/motor_6.png","74","motor","6","215","1","0","0","",""
"null","","309458","HierDyqs0m0ww5","beo13y2m7l","ms1000411","iti","","null","img/motor_6.png","74","motor","","","","","","",""
"492","","309958","HierDyqs0m0ww5","beo13y2m7l","ms1000411","motor","","70","img/motor_4.png","70","motor","4","216","1","0","0","",""
"null","","310067","HierDyqs0m0ww5","beo13y2m7l","ms1000411","iti","","null","img/motor_4.png","70","motor","","","","","","",""
"548","","310622","HierDyqs0m0ww5","beo13y2m7l","ms1000411","motor","","70","img/motor_4.png","70","motor","4","217","1","0","0","",""
"null","","310730","HierDyqs0m0ww5","beo13y2m7l","ms1000411","iti","","null","img/motor_4.png","70","motor","","","","","","",""
"428","","311165","HierDyqs0m0ww5","beo13y2m7l","ms1000411","motor","","76","img/motor_8.png","76","motor","8","218","1","0","0","",""
"null","","311274","HierDyqs0m0ww5","beo13y2m7l","ms1000411","iti","","null","img/motor_8.png","76","motor","","","","","","",""
"452","","311734","HierDyqs0m0ww5","beo13y2m7l","ms1000411","motor","","76","img/motor_8.png","76","motor","8","219","1","0","0","",""
"null","","311849","HierDyqs0m0ww5","beo13y2m7l","ms1000411","iti","","null","img/motor_8.png","76","motor","","","","","","",""
"515","","312373","HierDyqs0m0ww5","beo13y2m7l","ms1000411","motor","","72","img/motor_5.png","72","motor","5","220","1","0","0","",""
"null","","312489","HierDyqs0m0ww5","beo13y2m7l","ms1000411","iti","","null","img/motor_5.png","72","motor","","","","","","",""
"533","","313029","HierDyqs0m0ww5","beo13y2m7l","ms1000411","motor","","72","img/motor_5.png","72","motor","5","221","1","0","0","",""
"null","","313137","HierDyqs0m0ww5","beo13y2m7l","ms1000411","iti","","null","img/motor_5.png","72","motor","","","","","","",""
"517","","313662","HierDyqs0m0ww5","beo13y2m7l","ms1000411","motor","","83","img/motor_2.png","83","motor","2","222","1","0","0","",""
"null","","313770","HierDyqs0m0ww5","beo13y2m7l","ms1000411","iti","","null","img/motor_2.png","83","motor","","","","","","",""
"412","","314196","HierDyqs0m0ww5","beo13y2m7l","ms1000411","motor","","83","img/motor_2.png","83","motor","2","223","1","0","0","",""
"null","","314306","HierDyqs0m0ww5","beo13y2m7l","ms1000411","iti","","null","img/motor_2.png","83","motor","","","","","","",""
"484","","314798","HierDyqs0m0ww5","beo13y2m7l","ms1000411","motor","","70","img/motor_4.png","70","motor","4","224","1","0","0","",""
"null","","314906","HierDyqs0m0ww5","beo13y2m7l","ms1000411","iti","","null","img/motor_4.png","70","motor","","","","","","",""
"524","","315437","HierDyqs0m0ww5","beo13y2m7l","ms1000411","motor","","72","img/motor_5.png","72","motor","5","225","1","0","0","",""
"null","","315546","HierDyqs0m0ww5","beo13y2m7l","ms1000411","iti","","null","img/motor_5.png","72","motor","","","","","","",""
"523","","316078","HierDyqs0m0ww5","beo13y2m7l","ms1000411","motor","","70","img/motor_4.png","70","motor","4","226","1","0","0","",""
"null","","316193","HierDyqs0m0ww5","beo13y2m7l","ms1000411","iti","","null","img/motor_4.png","70","motor","","","","","","",""
"565","","316772","HierDyqs0m0ww5","beo13y2m7l","ms1000411","motor","","68","img/motor_3.png","68","motor","3","227","1","0","0","",""
"null","","316882","HierDyqs0m0ww5","beo13y2m7l","ms1000411","iti","","null","img/motor_3.png","68","motor","","","","","","",""
"493","","317382","HierDyqs0m0ww5","beo13y2m7l","ms1000411","motor","","76","img/motor_8.png","76","motor","8","228","1","0","0","",""
"null","","317490","HierDyqs0m0ww5","beo13y2m7l","ms1000411","iti","","null","img/motor_8.png","76","motor","","","","","","",""
"532","","318029","HierDyqs0m0ww5","beo13y2m7l","ms1000411","motor","","72","img/motor_5.png","72","motor","5","229","1","0","0","",""
"null","","318137","HierDyqs0m0ww5","beo13y2m7l","ms1000411","iti","","null","img/motor_5.png","72","motor","","","","","","",""
"589","","318741","HierDyqs0m0ww5","beo13y2m7l","ms1000411","motor","","70","img/motor_4.png","70","motor","4","230","1","0","0","",""
"null","","318850","HierDyqs0m0ww5","beo13y2m7l","ms1000411","iti","","null","img/motor_4.png","70","motor","","","","","","",""
"660","","319525","HierDyqs0m0ww5","beo13y2m7l","ms1000411","motor","","75","img/motor_7.png","75","motor","7","231","1","0","0","",""
"null","","319633","HierDyqs0m0ww5","beo13y2m7l","ms1000411","iti","","null","img/motor_7.png","75","motor","","","","","","",""
"645","","320286","HierDyqs0m0ww5","beo13y2m7l","ms1000411","motor","","83","img/motor_2.png","83","motor","2","232","1","0","0","",""
"null","","320394","HierDyqs0m0ww5","beo13y2m7l","ms1000411","iti","","null","img/motor_2.png","83","motor","","","","","","",""
"524","","320925","HierDyqs0m0ww5","beo13y2m7l","ms1000411","motor","","75","img/motor_7.png","75","motor","7","233","1","0","0","",""
"null","","321039","HierDyqs0m0ww5","beo13y2m7l","ms1000411","iti","","null","img/motor_7.png","75","motor","","","","","","",""
"622","","321671","HierDyqs0m0ww5","beo13y2m7l","ms1000411","motor","","70","img/motor_4.png","70","motor","4","234","1","0","0","",""
"null","","321779","HierDyqs0m0ww5","beo13y2m7l","ms1000411","iti","","null","img/motor_4.png","70","motor","","","","","","",""
"523","","322309","HierDyqs0m0ww5","beo13y2m7l","ms1000411","motor","","76","img/motor_8.png","76","motor","8","235","1","0","0","",""
"null","","322424","HierDyqs0m0ww5","beo13y2m7l","ms1000411","iti","","null","img/motor_8.png","76","motor","","","","","","",""
"596","","323037","HierDyqs0m0ww5","beo13y2m7l","ms1000411","motor","","83","img/motor_3.png","68","motor","3","236","0","1","0","",""
"361","","323412","HierDyqs0m0ww5","beo13y2m7l","ms1000411","motorRepeat","","68","img/motor_3.png","68","motor","3","236","1","0","0","",""
"null","","323522","HierDyqs0m0ww5","beo13y2m7l","ms1000411","iti","","null","img/motor_3.png","68","motor","","","","","","",""
"708","","324238","HierDyqs0m0ww5","beo13y2m7l","ms1000411","motor","","74","img/motor_6.png","74","motor","6","237","1","0","0","",""
"null","","324346","HierDyqs0m0ww5","beo13y2m7l","ms1000411","iti","","null","img/motor_6.png","74","motor","","","","","","",""
"715","","325070","HierDyqs0m0ww5","beo13y2m7l","ms1000411","motor","","74","img/motor_6.png","74","motor","6","238","1","0","0","",""
"null","","325185","HierDyqs0m0ww5","beo13y2m7l","ms1000411","iti","","null","img/motor_6.png","74","motor","","","","","","",""
"476","","325676","HierDyqs0m0ww5","beo13y2m7l","ms1000411","motor","","75","img/motor_7.png","75","motor","7","239","1","0","0","",""
"null","","325786","HierDyqs0m0ww5","beo13y2m7l","ms1000411","iti","","null","img/motor_7.png","75","motor","","","","","","",""
"580","","326377","HierDyqs0m0ww5","beo13y2m7l","ms1000411","motor","","74","img/motor_6.png","74","motor","6","240","1","0","0","",""
"null","","326492","HierDyqs0m0ww5","beo13y2m7l","ms1000411","iti","","null","img/motor_6.png","74","motor","","","","","","",""
"567","","327077","HierDyqs0m0ww5","beo13y2m7l","ms1000411","motor","","68","img/motor_3.png","68","motor","3","241","1","0","0","",""
"null","","327193","HierDyqs0m0ww5","beo13y2m7l","ms1000411","iti","","null","img/motor_3.png","68","motor","","","","","","",""
"636","","327838","HierDyqs0m0ww5","beo13y2m7l","ms1000411","motor","","75","img/motor_7.png","75","motor","7","242","1","0","0","",""
"null","","327947","HierDyqs0m0ww5","beo13y2m7l","ms1000411","iti","","null","img/motor_7.png","75","motor","","","","","","",""
"539","","328500","HierDyqs0m0ww5","beo13y2m7l","ms1000411","motor","","68","img/motor_3.png","68","motor","3","243","1","0","0","",""
"null","","328611","HierDyqs0m0ww5","beo13y2m7l","ms1000411","iti","","null","img/motor_3.png","68","motor","","","","","","",""
"555","","329174","HierDyqs0m0ww5","beo13y2m7l","ms1000411","motor","","75","img/motor_7.png","75","motor","7","244","1","0","0","",""
"null","","329289","HierDyqs0m0ww5","beo13y2m7l","ms1000411","iti","","null","img/motor_7.png","75","motor","","","","","","",""
"570","","329870","HierDyqs0m0ww5","beo13y2m7l","ms1000411","motor","","70","img/motor_4.png","70","motor","4","245","1","0","0","",""
"null","","329980","HierDyqs0m0ww5","beo13y2m7l","ms1000411","iti","","null","img/motor_4.png","70","motor","","","","","","",""
"474","","330461","HierDyqs0m0ww5","beo13y2m7l","ms1000411","motor","","72","img/motor_5.png","72","motor","5","246","1","0","0","",""
"null","","330570","HierDyqs0m0ww5","beo13y2m7l","ms1000411","iti","","null","img/motor_5.png","72","motor","","","","","","",""
"468","","331046","HierDyqs0m0ww5","beo13y2m7l","ms1000411","motor","","70","img/motor_4.png","70","motor","4","247","1","0","0","",""
"null","","331161","HierDyqs0m0ww5","beo13y2m7l","ms1000411","iti","","null","img/motor_4.png","70","motor","","","","","","",""
"596","","331766","HierDyqs0m0ww5","beo13y2m7l","ms1000411","motor","","74","img/motor_6.png","74","motor","6","248","1","0","0","",""
"null","","331874","HierDyqs0m0ww5","beo13y2m7l","ms1000411","iti","","null","img/motor_6.png","74","motor","","","","","","",""
"539","","332421","HierDyqs0m0ww5","beo13y2m7l","ms1000411","motor","","75","img/motor_7.png","75","motor","7","249","1","0","0","",""
"null","","332537","HierDyqs0m0ww5","beo13y2m7l","ms1000411","iti","","null","img/motor_7.png","75","motor","","","","","","",""
"516","","333068","HierDyqs0m0ww5","beo13y2m7l","ms1000411","motor","","70","img/motor_3.png","68","motor","3","250","0","1","0","",""
"624","","333702","HierDyqs0m0ww5","beo13y2m7l","ms1000411","motorRepeat","","68","img/motor_3.png","68","motor","3","250","1","0","0","",""
"null","","333810","HierDyqs0m0ww5","beo13y2m7l","ms1000411","iti","","null","img/motor_3.png","68","motor","","","","","","",""
"572","","334396","HierDyqs0m0ww5","beo13y2m7l","ms1000411","motor","","65","img/motor_1.png","65","motor","1","251","1","0","0","",""
"null","","334506","HierDyqs0m0ww5","beo13y2m7l","ms1000411","iti","","null","img/motor_1.png","65","motor","","","","","","",""
"452","","334966","HierDyqs0m0ww5","beo13y2m7l","ms1000411","motor","","70","img/motor_4.png","70","motor","4","252","1","0","0","",""
"null","","335080","HierDyqs0m0ww5","beo13y2m7l","ms1000411","iti","","null","img/motor_4.png","70","motor","","","","","","",""
"477","","335566","HierDyqs0m0ww5","beo13y2m7l","ms1000411","motor","","83","img/motor_2.png","83","motor","2","253","1","0","0","",""
"null","","335674","HierDyqs0m0ww5","beo13y2m7l","ms1000411","iti","","null","img/motor_2.png","83","motor","","","","","","",""
"540","","336228","HierDyqs0m0ww5","beo13y2m7l","ms1000411","motor","","70","img/motor_4.png","70","motor","4","254","1","0","0","",""
"null","","336338","HierDyqs0m0ww5","beo13y2m7l","ms1000411","iti","","null","img/motor_4.png","70","motor","","","","","","",""
"508","","336854","HierDyqs0m0ww5","beo13y2m7l","ms1000411","motor","","68","img/motor_3.png","68","motor","3","255","1","0","0","",""
"null","","336962","HierDyqs0m0ww5","beo13y2m7l","ms1000411","iti","","null","img/motor_3.png","68","motor","","","","","","",""
"484","","337460","HierDyqs0m0ww5","beo13y2m7l","ms1000411","motor","","70","img/motor_4.png","70","motor","4","256","1","0","0","",""
"null","","337570","HierDyqs0m0ww5","beo13y2m7l","ms1000411","iti","","null","img/motor_4.png","70","motor","","","","","","",""
"532","","338116","HierDyqs0m0ww5","beo13y2m7l","ms1000411","motor","","74","img/motor_6.png","74","motor","6","257","1","0","0","",""
"null","","338232","HierDyqs0m0ww5","beo13y2m7l","ms1000411","iti","","null","img/motor_6.png","74","motor","","","","","","",""
"621","","338862","HierDyqs0m0ww5","beo13y2m7l","ms1000411","motor","","68","img/motor_3.png","68","motor","3","258","1","0","0","",""
"null","","338970","HierDyqs0m0ww5","beo13y2m7l","ms1000411","iti","","null","img/motor_3.png","68","motor","","","","","","",""
"500","","339477","HierDyqs0m0ww5","beo13y2m7l","ms1000411","motor","","76","img/motor_8.png","76","motor","8","259","1","0","0","",""
"null","","339586","HierDyqs0m0ww5","beo13y2m7l","ms1000411","iti","","null","img/motor_8.png","76","motor","","","","","","",""
"596","","340196","HierDyqs0m0ww5","beo13y2m7l","ms1000411","motor","","75","img/motor_7.png","75","motor","7","260","1","0","0","",""
"null","","340312","HierDyqs0m0ww5","beo13y2m7l","ms1000411","iti","","null","img/motor_7.png","75","motor","","","","","","",""
"526","","340846","HierDyqs0m0ww5","beo13y2m7l","ms1000411","motor","","72","img/motor_5.png","72","motor","5","261","1","0","0","",""
"null","","340962","HierDyqs0m0ww5","beo13y2m7l","ms1000411","iti","","null","img/motor_5.png","72","motor","","","","","","",""
"716","","341686","HierDyqs0m0ww5","beo13y2m7l","ms1000411","motor","","72","img/motor_5.png","72","motor","5","262","1","0","0","",""
"null","","341794","HierDyqs0m0ww5","beo13y2m7l","ms1000411","iti","","null","img/motor_5.png","72","motor","","","","","","",""
"484","","342286","HierDyqs0m0ww5","beo13y2m7l","ms1000411","motor","","65","img/motor_1.png","65","motor","1","263","1","0","0","",""
"null","","342395","HierDyqs0m0ww5","beo13y2m7l","ms1000411","iti","","null","img/motor_1.png","65","motor","","","","","","",""
"539","","342942","HierDyqs0m0ww5","beo13y2m7l","ms1000411","motor","","75","img/motor_7.png","75","motor","7","264","1","0","0","",""
"null","","343051","HierDyqs0m0ww5","beo13y2m7l","ms1000411","iti","","null","img/motor_7.png","75","motor","","","","","","",""
"523","","343582","HierDyqs0m0ww5","beo13y2m7l","ms1000411","motor","","76","img/motor_8.png","76","motor","8","265","1","0","0","",""
"null","","343697","HierDyqs0m0ww5","beo13y2m7l","ms1000411","iti","","null","img/motor_8.png","76","motor","","","","","","",""
"597","","344308","HierDyqs0m0ww5","beo13y2m7l","ms1000411","motor","","65","img/motor_1.png","65","motor","1","266","1","0","0","",""
"null","","344424","HierDyqs0m0ww5","beo13y2m7l","ms1000411","iti","","null","img/motor_1.png","65","motor","","","","","","",""
"620","","345054","HierDyqs0m0ww5","beo13y2m7l","ms1000411","motor","","68","img/motor_3.png","68","motor","3","267","1","0","0","",""
"null","","345169","HierDyqs0m0ww5","beo13y2m7l","ms1000411","iti","","null","img/motor_3.png","68","motor","","","","","","",""
"699","","345877","HierDyqs0m0ww5","beo13y2m7l","ms1000411","motor","","75","img/motor_7.png","75","motor","7","268","1","0","0","",""
"null","","345987","HierDyqs0m0ww5","beo13y2m7l","ms1000411","iti","","null","img/motor_7.png","75","motor","","","","","","",""
"564","","346557","HierDyqs0m0ww5","beo13y2m7l","ms1000411","motor","","74","img/motor_6.png","74","motor","6","269","1","0","0","",""
"null","","346672","HierDyqs0m0ww5","beo13y2m7l","ms1000411","iti","","null","img/motor_6.png","74","motor","","","","","","",""
"574","","347253","HierDyqs0m0ww5","beo13y2m7l","ms1000411","motor","","75","img/motor_7.png","75","motor","7","270","1","0","0","",""
"null","","347368","HierDyqs0m0ww5","beo13y2m7l","ms1000411","iti","","null","img/motor_7.png","75","motor","","","","","","",""
"677","","348054","HierDyqs0m0ww5","beo13y2m7l","ms1000411","motor","","74","img/motor_6.png","74","motor","6","271","1","0","0","",""
"null","","348169","HierDyqs0m0ww5","beo13y2m7l","ms1000411","iti","","null","img/motor_6.png","74","motor","","","","","","",""
"661","","348838","HierDyqs0m0ww5","beo13y2m7l","ms1000411","motor","","83","img/motor_2.png","83","motor","2","272","1","0","0","",""
"null","","348954","HierDyqs0m0ww5","beo13y2m7l","ms1000411","iti","","null","img/motor_2.png","83","motor","","","","","","",""
"845","","349806","HierDyqs0m0ww5","beo13y2m7l","ms1000411","motor","","76","img/motor_8.png","76","motor","8","273","1","0","0","",""
"null","","349914","HierDyqs0m0ww5","beo13y2m7l","ms1000411","iti","","null","img/motor_8.png","76","motor","","","","","","",""
"587","","350510","HierDyqs0m0ww5","beo13y2m7l","ms1000411","motor","","70","img/motor_4.png","70","motor","4","274","1","0","0","",""
"null","","350625","HierDyqs0m0ww5","beo13y2m7l","ms1000411","iti","","null","img/motor_4.png","70","motor","","","","","","",""
"2029","","352662","HierDyqs0m0ww5","beo13y2m7l","ms1000411","motor","","65","img/motor_1.png","65","motor","1","275","1","0","0","",""
"null","","352770","HierDyqs0m0ww5","beo13y2m7l","ms1000411","iti","","null","img/motor_1.png","65","motor","","","","","","",""
"547","","353326","HierDyqs0m0ww5","beo13y2m7l","ms1000411","motor","","72","img/motor_5.png","72","motor","5","276","1","0","0","",""
"null","","353434","HierDyqs0m0ww5","beo13y2m7l","ms1000411","iti","","null","img/motor_5.png","72","motor","","","","","","",""
"492","","353941","HierDyqs0m0ww5","beo13y2m7l","ms1000411","motor","","83","img/motor_2.png","83","motor","2","277","1","0","0","",""
"null","","354050","HierDyqs0m0ww5","beo13y2m7l","ms1000411","iti","","null","img/motor_2.png","83","motor","","","","","","",""
"492","","354557","HierDyqs0m0ww5","beo13y2m7l","ms1000411","motor","","65","img/motor_1.png","65","motor","1","278","1","0","0","",""
"null","","354672","HierDyqs0m0ww5","beo13y2m7l","ms1000411","iti","","null","img/motor_1.png","65","motor","","","","","","",""
"557","","355239","HierDyqs0m0ww5","beo13y2m7l","ms1000411","motor","","76","img/motor_8.png","76","motor","8","279","1","0","0","",""
"null","","355354","HierDyqs0m0ww5","beo13y2m7l","ms1000411","iti","","null","img/motor_8.png","76","motor","","","","","","",""
"587","","355957","HierDyqs0m0ww5","beo13y2m7l","ms1000411","motor","","83","img/motor_2.png","83","motor","2","280","1","0","0","",""
"null","","356072","HierDyqs0m0ww5","beo13y2m7l","ms1000411","iti","","null","img/motor_2.png","83","motor","","","","","","",""
"541","","356622","HierDyqs0m0ww5","beo13y2m7l","ms1000411","motor","","65","img/motor_1.png","65","motor","1","281","1","0","0","",""
"null","","356730","HierDyqs0m0ww5","beo13y2m7l","ms1000411","iti","","null","img/motor_1.png","65","motor","","","","","","",""
"516","","357255","HierDyqs0m0ww5","beo13y2m7l","ms1000411","motor","","72","img/motor_5.png","72","motor","5","282","1","0","0","",""
"null","","357370","HierDyqs0m0ww5","beo13y2m7l","ms1000411","iti","","null","img/motor_5.png","72","motor","","","","","","",""
"539","","357918","HierDyqs0m0ww5","beo13y2m7l","ms1000411","motor","","70","img/motor_4.png","70","motor","4","283","1","0","0","",""
"null","","358034","HierDyqs0m0ww5","beo13y2m7l","ms1000411","iti","","null","img/motor_4.png","70","motor","","","","","","",""
"540","","358589","HierDyqs0m0ww5","beo13y2m7l","ms1000411","motor","","83","img/motor_2.png","83","motor","2","284","1","0","0","",""
"null","","358698","HierDyqs0m0ww5","beo13y2m7l","ms1000411","iti","","null","img/motor_2.png","83","motor","","","","","","",""
"525","","359236","HierDyqs0m0ww5","beo13y2m7l","ms1000411","motor","","75","img/motor_7.png","75","motor","7","285","1","0","0","",""
"null","","359346","HierDyqs0m0ww5","beo13y2m7l","ms1000411","iti","","null","img/motor_7.png","75","motor","","","","","","",""
"620","","359974","HierDyqs0m0ww5","beo13y2m7l","ms1000411","motor","","68","img/motor_3.png","68","motor","3","286","1","0","0","",""
"null","","360089","HierDyqs0m0ww5","beo13y2m7l","ms1000411","iti","","null","img/motor_3.png","68","motor","","","","","","",""
"595","","360695","HierDyqs0m0ww5","beo13y2m7l","ms1000411","motor","","74","img/motor_6.png","74","motor","6","287","1","0","0","",""
"null","","360803","HierDyqs0m0ww5","beo13y2m7l","ms1000411","iti","","null","img/motor_6.png","74","motor","","","","","","",""
"514","","361327","HierDyqs0m0ww5","beo13y2m7l","ms1000411","motor","","72","img/motor_5.png","72","motor","5","288","1","0","0","",""
"null","","361435","HierDyqs0m0ww5","beo13y2m7l","ms1000411","iti","","null","img/motor_5.png","72","motor","","","","","","",""
"459","","361902","HierDyqs0m0ww5","beo13y2m7l","ms1000411","motor","","74","img/motor_6.png","74","motor","6","289","1","0","0","",""
"null","","362010","HierDyqs0m0ww5","beo13y2m7l","ms1000411","iti","","null","img/motor_6.png","74","motor","","","","","","",""
"564","","362589","HierDyqs0m0ww5","beo13y2m7l","ms1000411","motor","","65","img/motor_1.png","65","motor","1","290","1","0","0","",""
"null","","362698","HierDyqs0m0ww5","beo13y2m7l","ms1000411","iti","","null","img/motor_1.png","65","motor","","","","","","",""
"460","","363167","HierDyqs0m0ww5","beo13y2m7l","ms1000411","motor","","76","img/motor_8.png","76","motor","8","291","1","0","0","",""
"null","","363275","HierDyqs0m0ww5","beo13y2m7l","ms1000411","iti","","null","img/motor_8.png","76","motor","","","","","","",""
"555","","363845","HierDyqs0m0ww5","beo13y2m7l","ms1000411","motor","","83","img/motor_3.png","68","motor","3","292","0","1","0","",""
"672","","364533","HierDyqs0m0ww5","beo13y2m7l","ms1000411","motorRepeat","","68","img/motor_3.png","68","motor","3","292","1","0","0","",""
"null","","364648","HierDyqs0m0ww5","beo13y2m7l","ms1000411","iti","","null","img/motor_3.png","68","motor","","","","","","",""
"677","","365334","HierDyqs0m0ww5","beo13y2m7l","ms1000411","motor","","72","img/motor_6.png","74","motor","6","293","0","1","0","",""
"408","","365751","HierDyqs0m0ww5","beo13y2m7l","ms1000411","motorRepeat","","74","img/motor_6.png","74","motor","6","293","1","0","0","",""
"null","","365865","HierDyqs0m0ww5","beo13y2m7l","ms1000411","iti","","null","img/motor_6.png","74","motor","","","","","","",""
"501","","366381","HierDyqs0m0ww5","beo13y2m7l","ms1000411","motor","","68","img/motor_3.png","68","motor","3","294","1","0","0","",""
"null","","366489","HierDyqs0m0ww5","beo13y2m7l","ms1000411","iti","","null","img/motor_3.png","68","motor","","","","","","",""
"676","","367174","HierDyqs0m0ww5","beo13y2m7l","ms1000411","motor","","68","img/motor_3.png","68","motor","3","295","1","0","0","",""
"null","","367290","HierDyqs0m0ww5","beo13y2m7l","ms1000411","iti","","null","img/motor_3.png","68","motor","","","","","","",""
"492","","367788","HierDyqs0m0ww5","beo13y2m7l","ms1000411","motor","","74","img/motor_6.png","74","motor","6","296","1","0","0","",""
"null","","367896","HierDyqs0m0ww5","beo13y2m7l","ms1000411","iti","","null","img/motor_6.png","74","motor","","","","","","",""
"533","","368436","HierDyqs0m0ww5","beo13y2m7l","ms1000411","motor","","75","img/motor_7.png","75","motor","7","297","1","0","0","",""
"null","","368545","HierDyqs0m0ww5","beo13y2m7l","ms1000411","iti","","null","img/motor_7.png","75","motor","","","","","","",""
"581","","369134","HierDyqs0m0ww5","beo13y2m7l","ms1000411","motor","","83","img/motor_2.png","83","motor","2","298","1","0","0","",""
"null","","369243","HierDyqs0m0ww5","beo13y2m7l","ms1000411","iti","","null","img/motor_2.png","83","motor","","","","","","",""
"523","","369775","HierDyqs0m0ww5","beo13y2m7l","ms1000411","motor","","65","img/motor_1.png","65","motor","1","299","1","0","0","",""
"null","","369890","HierDyqs0m0ww5","beo13y2m7l","ms1000411","iti","","null","img/motor_1.png","65","motor","","","","","","",""
"564","","370461","HierDyqs0m0ww5","beo13y2m7l","ms1000411","motor","","72","img/motor_5.png","72","motor","5","300","1","0","0","",""
"null","","370569","HierDyqs0m0ww5","beo13y2m7l","ms1000411","iti","","null","img/motor_5.png","72","motor","","","","","","",""
"526","","371102","HierDyqs0m0ww5","beo13y2m7l","ms1000411","motor","","74","img/motor_6.png","74","motor","6","301","1","0","0","",""
"null","","371218","HierDyqs0m0ww5","beo13y2m7l","ms1000411","iti","","null","img/motor_6.png","74","motor","","","","","","",""
"548","","371774","HierDyqs0m0ww5","beo13y2m7l","ms1000411","motor","","70","img/motor_4.png","70","motor","4","302","1","0","0","",""
"null","","371889","HierDyqs0m0ww5","beo13y2m7l","ms1000411","iti","","null","img/motor_4.png","70","motor","","","","","","",""
"779","","372678","HierDyqs0m0ww5","beo13y2m7l","ms1000411","motor","","65","img/motor_1.png","65","motor","1","303","1","0","0","",""
"null","","372787","HierDyqs0m0ww5","beo13y2m7l","ms1000411","iti","","null","img/motor_1.png","65","motor","","","","","","",""
"477","","373270","HierDyqs0m0ww5","beo13y2m7l","ms1000411","motor","","68","img/motor_3.png","68","motor","3","304","1","0","0","",""
"null","","373385","HierDyqs0m0ww5","beo13y2m7l","ms1000411","iti","","null","img/motor_3.png","68","motor","","","","","","",""
"460","","373855","HierDyqs0m0ww5","beo13y2m7l","ms1000411","motor","","72","img/motor_5.png","72","motor","5","305","1","0","0","",""
"null","","373963","HierDyqs0m0ww5","beo13y2m7l","ms1000411","iti","","null","img/motor_5.png","72","motor","","","","","","",""
"555","","374527","HierDyqs0m0ww5","beo13y2m7l","ms1000411","motor","","74","img/motor_7.png","75","motor","7","306","0","1","0","",""
"160","","374694","HierDyqs0m0ww5","beo13y2m7l","ms1000411","motorRepeat","","75","img/motor_7.png","75","motor","7","306","1","0","0","",""
"null","","374809","HierDyqs0m0ww5","beo13y2m7l","ms1000411","iti","","null","img/motor_7.png","75","motor","","","","","","",""
"1012","","375829","HierDyqs0m0ww5","beo13y2m7l","ms1000411","motor","","75","img/motor_7.png","75","motor","7","307","1","0","0","",""
"null","","375944","HierDyqs0m0ww5","beo13y2m7l","ms1000411","iti","","null","img/motor_7.png","75","motor","","","","","","",""
"542","","376494","HierDyqs0m0ww5","beo13y2m7l","ms1000411","motor","","74","img/motor_6.png","74","motor","6","308","1","0","0","",""
"null","","376603","HierDyqs0m0ww5","beo13y2m7l","ms1000411","iti","","null","img/motor_6.png","74","motor","","","","","","",""
"516","","377133","HierDyqs0m0ww5","beo13y2m7l","ms1000411","motor","","83","img/motor_2.png","83","motor","2","309","1","0","0","",""
"null","","377242","HierDyqs0m0ww5","beo13y2m7l","ms1000411","iti","","null","img/motor_2.png","83","motor","","","","","","",""
"484","","377735","HierDyqs0m0ww5","beo13y2m7l","ms1000411","motor","","76","img/motor_8.png","76","motor","8","310","1","0","0","",""
"null","","377843","HierDyqs0m0ww5","beo13y2m7l","ms1000411","iti","","null","img/motor_8.png","76","motor","","","","","","",""
"547","","378405","HierDyqs0m0ww5","beo13y2m7l","ms1000411","motor","","72","img/motor_5.png","72","motor","5","311","1","0","0","",""
"null","","378521","HierDyqs0m0ww5","beo13y2m7l","ms1000411","iti","","null","img/motor_5.png","72","motor","","","","","","",""
"517","","379053","HierDyqs0m0ww5","beo13y2m7l","ms1000411","motor","","76","img/motor_8.png","76","motor","8","312","1","0","0","",""
"null","","379169","HierDyqs0m0ww5","beo13y2m7l","ms1000411","iti","","null","img/motor_8.png","76","motor","","","","","","",""
"550","","379726","HierDyqs0m0ww5","beo13y2m7l","ms1000411","motor","","74","img/motor_6.png","74","motor","6","313","1","0","0","",""
"null","","379834","HierDyqs0m0ww5","beo13y2m7l","ms1000411","iti","","null","img/motor_6.png","74","motor","","","","","","",""
"620","","380462","HierDyqs0m0ww5","beo13y2m7l","ms1000411","motor","","83","img/motor_2.png","83","motor","2","314","1","0","0","",""
"null","","380570","HierDyqs0m0ww5","beo13y2m7l","ms1000411","iti","","null","img/motor_2.png","83","motor","","","","","","",""
"813","","381390","HierDyqs0m0ww5","beo13y2m7l","ms1000411","motor","","72","img/motor_5.png","72","motor","5","315","1","0","0","",""
"null","","381498","HierDyqs0m0ww5","beo13y2m7l","ms1000411","iti","","null","img/motor_5.png","72","motor","","","","","","",""
"572","","382085","HierDyqs0m0ww5","beo13y2m7l","ms1000411","motor","","76","img/motor_8.png","76","motor","8","316","1","0","0","",""
"null","","382194","HierDyqs0m0ww5","beo13y2m7l","ms1000411","iti","","null","img/motor_8.png","76","motor","","","","","","",""
"579","","382782","HierDyqs0m0ww5","beo13y2m7l","ms1000411","motor","","70","img/motor_4.png","70","motor","4","317","1","0","0","",""
"null","","382897","HierDyqs0m0ww5","beo13y2m7l","ms1000411","iti","","null","img/motor_4.png","70","motor","","","","","","",""
"605","","383511","HierDyqs0m0ww5","beo13y2m7l","ms1000411","motor","","65","img/motor_1.png","65","motor","1","318","1","0","0","",""
"null","","383625","HierDyqs0m0ww5","beo13y2m7l","ms1000411","iti","","null","img/motor_1.png","65","motor","","","","","","",""
"701","","384341","HierDyqs0m0ww5","beo13y2m7l","ms1000411","motor","","68","img/motor_4.png","70","motor","4","319","0","1","0","",""
"56","","384413","HierDyqs0m0ww5","beo13y2m7l","ms1000411","motorRepeat","","70","img/motor_4.png","70","motor","4","319","1","0","0","",""
"null","","384529","HierDyqs0m0ww5","beo13y2m7l","ms1000411","iti","","null","img/motor_4.png","70","motor","","","","","","",""
"598","","385135","HierDyqs0m0ww5","beo13y2m7l","ms1000411","motor","","65","img/motor_1.png","65","motor","1","320","1","0","0","",""
"null","","385243","HierDyqs0m0ww5","beo13y2m7l","ms1000411","iti","","null","img/motor_1.png","65","motor","","","","","","",""
"459","","385710","HierDyqs0m0ww5","beo13y2m7l","ms1000411","motor","","70","img/motor_4.png","70","motor","4","321","1","0","0","",""
"null","","385825","HierDyqs0m0ww5","beo13y2m7l","ms1000411","iti","","null","img/motor_4.png","70","motor","","","","","","",""
"484","","386319","HierDyqs0m0ww5","beo13y2m7l","ms1000411","motor","","74","img/motor_7.png","75","motor","7","322","0","1","0","",""
"663","","386990","HierDyqs0m0ww5","beo13y2m7l","ms1000411","motorRepeat","","75","img/motor_7.png","75","motor","7","322","1","0","0","",""
"null","","387106","HierDyqs0m0ww5","beo13y2m7l","ms1000411","iti","","null","img/motor_7.png","75","motor","","","","","","",""
"419","","387533","HierDyqs0m0ww5","beo13y2m7l","ms1000411","motor","","72","img/motor_5.png","72","motor","5","323","1","0","0","",""
"null","","387649","HierDyqs0m0ww5","beo13y2m7l","ms1000411","iti","","null","img/motor_5.png","72","motor","","","","","","",""
"589","","388253","HierDyqs0m0ww5","beo13y2m7l","ms1000411","motor","","65","img/motor_1.png","65","motor","1","324","1","0","0","",""
"null","","388362","HierDyqs0m0ww5","beo13y2m7l","ms1000411","iti","","null","img/motor_1.png","65","motor","","","","","","",""
"604","","388973","HierDyqs0m0ww5","beo13y2m7l","ms1000411","motor","","74","img/motor_6.png","74","motor","6","325","1","0","0","",""
"null","","389082","HierDyqs0m0ww5","beo13y2m7l","ms1000411","iti","","null","img/motor_6.png","74","motor","","","","","","",""
"661","","389750","HierDyqs0m0ww5","beo13y2m7l","ms1000411","motor","","68","img/motor_3.png","68","motor","3","326","1","0","0","",""
"null","","389858","HierDyqs0m0ww5","beo13y2m7l","ms1000411","iti","","null","img/motor_3.png","68","motor","","","","","","",""
"579","","390459","HierDyqs0m0ww5","beo13y2m7l","ms1000411","motor","","65","img/motor_1.png","65","motor","1","327","1","0","0","",""
"null","","390575","HierDyqs0m0ww5","beo13y2m7l","ms1000411","iti","","null","img/motor_1.png","65","motor","","","","","","",""
"612","","391197","HierDyqs0m0ww5","beo13y2m7l","ms1000411","motor","","72","img/motor_5.png","72","motor","5","328","1","0","0","",""
"null","","391307","HierDyqs0m0ww5","beo13y2m7l","ms1000411","iti","","null","img/motor_5.png","72","motor","","","","","","",""
"707","","392022","HierDyqs0m0ww5","beo13y2m7l","ms1000411","motor","","68","img/motor_3.png","68","motor","3","329","1","0","0","",""
"null","","392139","HierDyqs0m0ww5","beo13y2m7l","ms1000411","iti","","null","img/motor_3.png","68","motor","","","","","","",""
"667","","392815","HierDyqs0m0ww5","beo13y2m7l","ms1000411","motor","","75","img/motor_7.png","75","motor","7","330","1","0","0","",""
"null","","392923","HierDyqs0m0ww5","beo13y2m7l","ms1000411","iti","","null","img/motor_7.png","75","motor","","","","","","",""
"554","","393487","HierDyqs0m0ww5","beo13y2m7l","ms1000411","motor","","65","img/motor_1.png","65","motor","1","331","1","0","0","",""
"null","","393595","HierDyqs0m0ww5","beo13y2m7l","ms1000411","iti","","null","img/motor_1.png","65","motor","","","","","","",""
"732","","394341","HierDyqs0m0ww5","beo13y2m7l","ms1000411","motor","","75","img/motor_7.png","75","motor","7","332","1","0","0","",""
"null","","394452","HierDyqs0m0ww5","beo13y2m7l","ms1000411","iti","","null","img/motor_7.png","75","motor","","","","","","",""
"474","","394934","HierDyqs0m0ww5","beo13y2m7l","ms1000411","motor","","76","img/motor_8.png","76","motor","8","333","1","0","0","",""
"null","","395050","HierDyqs0m0ww5","beo13y2m7l","ms1000411","iti","","null","img/motor_8.png","76","motor","","","","","","",""
"620","","395684","HierDyqs0m0ww5","beo13y2m7l","ms1000411","motor","","76","img/motor_8.png","76","motor","8","334","1","0","0","",""
"null","","395801","HierDyqs0m0ww5","beo13y2m7l","ms1000411","iti","","null","img/motor_8.png","76","motor","","","","","","",""
"541","","396350","HierDyqs0m0ww5","beo13y2m7l","ms1000411","motor","","70","img/motor_4.png","70","motor","4","335","1","0","0","",""
"null","","396459","HierDyqs0m0ww5","beo13y2m7l","ms1000411","iti","","null","img/motor_4.png","70","motor","","","","","","",""
"484","","396951","HierDyqs0m0ww5","beo13y2m7l","ms1000411","motor","","68","img/motor_3.png","68","motor","3","336","1","0","0","",""
"null","","397065","HierDyqs0m0ww5","beo13y2m7l","ms1000411","iti","","null","img/motor_3.png","68","motor","","","","","","",""
"564","","397638","HierDyqs0m0ww5","beo13y2m7l","ms1000411","motor","","65","img/motor_1.png","65","motor","1","337","1","0","0","",""
"null","","397747","HierDyqs0m0ww5","beo13y2m7l","ms1000411","iti","","null","img/motor_1.png","65","motor","","","","","","",""
"682","","398438","HierDyqs0m0ww5","beo13y2m7l","ms1000411","motor","","83","img/motor_2.png","83","motor","2","338","1","0","0","",""
"null","","398547","HierDyqs0m0ww5","beo13y2m7l","ms1000411","iti","","null","img/motor_2.png","83","motor","","","","","","",""
"603","","399158","HierDyqs0m0ww5","beo13y2m7l","ms1000411","motor","","83","img/motor_2.png","83","motor","2","339","1","0","0","",""
"null","","399267","HierDyqs0m0ww5","beo13y2m7l","ms1000411","iti","","null","img/motor_2.png","83","motor","","","","","","",""
"507","","399783","HierDyqs0m0ww5","beo13y2m7l","ms1000411","motor","","72","img/motor_5.png","72","motor","5","340","1","0","0","",""
"null","","399891","HierDyqs0m0ww5","beo13y2m7l","ms1000411","iti","","null","img/motor_5.png","72","motor","","","","","","",""
"539","","400438","HierDyqs0m0ww5","beo13y2m7l","ms1000411","motor","","83","img/motor_2.png","83","motor","2","341","1","0","0","",""
"null","","400553","HierDyqs0m0ww5","beo13y2m7l","ms1000411","iti","","null","img/motor_2.png","83","motor","","","","","","",""
"476","","401045","HierDyqs0m0ww5","beo13y2m7l","ms1000411","motor","","68","img/motor_3.png","68","motor","3","342","1","0","0","",""
"null","","401162","HierDyqs0m0ww5","beo13y2m7l","ms1000411","iti","","null","img/motor_3.png","68","motor","","","","","","",""
"419","","401597","HierDyqs0m0ww5","beo13y2m7l","ms1000411","motor","","70","img/motor_4.png","70","motor","4","343","1","0","0","",""
"null","","401706","HierDyqs0m0ww5","beo13y2m7l","ms1000411","iti","","null","img/motor_4.png","70","motor","","","","","","",""
"587","","402302","HierDyqs0m0ww5","beo13y2m7l","ms1000411","motor","","70","img/motor_4.png","70","motor","4","344","1","0","0","",""
"null","","402410","HierDyqs0m0ww5","beo13y2m7l","ms1000411","iti","","null","img/motor_4.png","70","motor","","","","","","",""
"484","","402910","HierDyqs0m0ww5","beo13y2m7l","ms1000411","motor","","76","img/motor_8.png","76","motor","8","345","1","0","0","",""
"null","","403020","HierDyqs0m0ww5","beo13y2m7l","ms1000411","iti","","null","img/motor_8.png","76","motor","","","","","","",""
"523","","403550","HierDyqs0m0ww5","beo13y2m7l","ms1000411","motor","","65","img/motor_1.png","65","motor","1","346","1","0","0","",""
"null","","403659","HierDyqs0m0ww5","beo13y2m7l","ms1000411","iti","","null","img/motor_1.png","65","motor","","","","","","",""
"603","","404269","HierDyqs0m0ww5","beo13y2m7l","ms1000411","motor","","74","img/motor_6.png","74","motor","6","347","1","0","0","",""
"null","","404378","HierDyqs0m0ww5","beo13y2m7l","ms1000411","iti","","null","img/motor_6.png","74","motor","","","","","","",""
"556","","404950","HierDyqs0m0ww5","beo13y2m7l","ms1000411","motor","","83","img/motor_2.png","83","motor","2","348","1","0","0","",""
"null","","405066","HierDyqs0m0ww5","beo13y2m7l","ms1000411","iti","","null","img/motor_2.png","83","motor","","","","","","",""
"525","","405598","HierDyqs0m0ww5","beo13y2m7l","ms1000411","motor","","76","img/motor_8.png","76","motor","8","349","1","0","0","",""
"null","","405707","HierDyqs0m0ww5","beo13y2m7l","ms1000411","iti","","null","img/motor_8.png","76","motor","","","","","","",""
"540","","406254","HierDyqs0m0ww5","beo13y2m7l","ms1000411","motor","","75","img/motor_7.png","75","motor","7","350","1","0","0","",""
"null","","406369","HierDyqs0m0ww5","beo13y2m7l","ms1000411","iti","","null","img/motor_7.png","75","motor","","","","","","",""
"590","","406967","HierDyqs0m0ww5","beo13y2m7l","ms1000411","motor","","75","img/motor_7.png","75","motor","7","351","1","0","0","",""
"null","","407075","HierDyqs0m0ww5","beo13y2m7l","ms1000411","iti","","null","img/motor_7.png","75","motor","","","","","","",""
"539","","407622","HierDyqs0m0ww5","beo13y2m7l","ms1000411","motor","","72","img/motor_5.png","72","motor","5","352","1","0","0","",""
"null","","407732","HierDyqs0m0ww5","beo13y2m7l","ms1000411","iti","","null","img/motor_5.png","72","motor","","","","","","",""
"516","","408255","HierDyqs0m0ww5","beo13y2m7l","ms1000411","motor","","75","img/motor_7.png","75","motor","7","353","1","0","0","",""
"null","","408370","HierDyqs0m0ww5","beo13y2m7l","ms1000411","iti","","null","img/motor_7.png","75","motor","","","","","","",""
"499","","408878","HierDyqs0m0ww5","beo13y2m7l","ms1000411","motor","","72","img/motor_5.png","72","motor","5","354","1","0","0","",""
"null","","408986","HierDyqs0m0ww5","beo13y2m7l","ms1000411","iti","","null","img/motor_5.png","72","motor","","","","","","",""
"524","","409518","HierDyqs0m0ww5","beo13y2m7l","ms1000411","motor","","68","img/motor_3.png","68","motor","3","355","1","0","0","",""
"null","","409628","HierDyqs0m0ww5","beo13y2m7l","ms1000411","iti","","null","img/motor_3.png","68","motor","","","","","","",""
"484","","410119","HierDyqs0m0ww5","beo13y2m7l","ms1000411","motor","","83","img/motor_2.png","83","motor","2","356","1","0","0","",""
"null","","410227","HierDyqs0m0ww5","beo13y2m7l","ms1000411","iti","","null","img/motor_2.png","83","motor","","","","","","",""
"547","","410789","HierDyqs0m0ww5","beo13y2m7l","ms1000411","motor","","74","img/motor_6.png","74","motor","6","357","1","0","0","",""
"null","","410905","HierDyqs0m0ww5","beo13y2m7l","ms1000411","iti","","null","img/motor_6.png","74","motor","","","","","","",""
"573","","411487","HierDyqs0m0ww5","beo13y2m7l","ms1000411","motor","","65","img/motor_1.png","65","motor","1","358","1","0","0","",""
"null","","411595","HierDyqs0m0ww5","beo13y2m7l","ms1000411","iti","","null","img/motor_1.png","65","motor","","","","","","",""
"467","","412071","HierDyqs0m0ww5","beo13y2m7l","ms1000411","motor","","68","img/motor_3.png","68","motor","3","359","1","0","0","",""
"null","","412179","HierDyqs0m0ww5","beo13y2m7l","ms1000411","iti","","null","img/motor_3.png","68","motor","","","","","","",""
"572","","412758","HierDyqs0m0ww5","beo13y2m7l","ms1000411","motor","","65","img/motor_1.png","65","motor","1","360","1","0","0","",""
"null","","412867","HierDyqs0m0ww5","beo13y2m7l","ms1000411","iti","","null","img/motor_1.png","65","motor","","","","","","",""
"452","","413327","HierDyqs0m0ww5","beo13y2m7l","ms1000411","motor","","70","img/motor_4.png","70","motor","4","361","1","0","0","",""
"null","","413435","HierDyqs0m0ww5","beo13y2m7l","ms1000411","iti","","null","img/motor_4.png","70","motor","","","","","","",""
"428","","413869","HierDyqs0m0ww5","beo13y2m7l","ms1000411","motor","","65","img/motor_1.png","65","motor","1","362","1","0","0","",""
"null","","413985","HierDyqs0m0ww5","beo13y2m7l","ms1000411","iti","","null","img/motor_1.png","65","motor","","","","","","",""
"540","","414541","HierDyqs0m0ww5","beo13y2m7l","ms1000411","motor","","83","img/motor_2.png","83","motor","2","363","1","0","0","",""
"null","","414657","HierDyqs0m0ww5","beo13y2m7l","ms1000411","iti","","null","img/motor_2.png","83","motor","","","","","","",""
"685","","415351","HierDyqs0m0ww5","beo13y2m7l","ms1000411","motor","","72","img/motor_5.png","72","motor","5","364","1","0","0","",""
