"rt","responses","time_elapsed","subject","prolificID","demoID","trialType","question_order","key_press","stim","corrresp","phase","stimNum","trialNum","corr","repeatTrial","motorSwitch","pracCounter","hierarchy"
"140686","{""Q0"":""msl000335""}","140724","HierDym1rlp495","igivijld8a","msl000335","","","","","","","","","","","","",""
"1028","","141763","HierDym1rlp495","igivijld8a","msl000335","","","","","","","","","","","","",""
"","","144050","HierDym1rlp495","igivijld8a","msl000335","fullscreen","","","","","","","","","","","",""
"16654","{""Vision"":""Yes"",""Handedness"":""Right"",""Gender"":""male""}","160718","HierDym1rlp495","igivijld8a","msl000335","","[0,1,2]","","","","","","","","","","",""
"3801","{""Q0"":""20""}","164533","HierDym1rlp495","igivijld8a","msl000335","","","","","","","","","","","","",""
"196936","","361484","HierDym1rlp495","igivijld8a","msl000335","","","","","","","","","","","","",""
"812","","362311","HierDym1rlp495","igivijld8a","msl000335","motor","","70","img/motor_4.png","70","motor","4","1","1","0","0","",""
"null","","362425","HierDym1rlp495","igivijld8a","msl000335","iti","","null","img/motor_4.png","70","motor","","","","","","",""
"619","","363055","HierDym1rlp495","igivijld8a","msl000335","motor","","72","img/motor_5.png","72","motor","5","2","1","0","0","",""
"null","","363167","HierDym1rlp495","igivijld8a","msl000335","iti","","null","img/motor_5.png","72","motor","","","","","","",""
"587","","363766","HierDym1rlp495","igivijld8a","msl000335","motor","","83","img/motor_2.png","83","motor","2","3","1","0","0","",""
"null","","363880","HierDym1rlp495","igivijld8a","msl000335","iti","","null","img/motor_2.png","83","motor","","","","","","",""
"578","","364468","HierDym1rlp495","igivijld8a","msl000335","motor","","75","img/motor_7.png","75","motor","7","4","1","0","0","",""
"null","","364579","HierDym1rlp495","igivijld8a","msl000335","iti","","null","img/motor_7.png","75","motor","","","","","","",""
"488","","365080","HierDym1rlp495","igivijld8a","msl000335","motor","","72","img/motor_5.png","72","motor","5","5","1","0","0","",""
"null","","365192","HierDym1rlp495","igivijld8a","msl000335","iti","","null","img/motor_5.png","72","motor","","","","","","",""
"470","","365672","HierDym1rlp495","igivijld8a","msl000335","motor","","65","img/motor_1.png","65","motor","1","6","1","0","0","",""
"null","","365784","HierDym1rlp495","igivijld8a","msl000335","iti","","null","img/motor_1.png","65","motor","","","","","","",""
"630","","366425","HierDym1rlp495","igivijld8a","msl000335","motor","","83","img/motor_3.png","68","motor","3","7","0","1","0","",""
"159","","366595","HierDym1rlp495","igivijld8a","msl000335","motorRepeat","","68","img/motor_3.png","68","motor","3","7","1","0","0","",""
"null","","366706","HierDym1rlp495","igivijld8a","msl000335","iti","","null","img/motor_3.png","68","motor","","","","","","",""
"848","","367566","HierDym1rlp495","igivijld8a","msl000335","motor","","74","img/motor_6.png","74","motor","6","8","1","0","0","",""
"null","","367678","HierDym1rlp495","igivijld8a","msl000335","iti","","null","img/motor_6.png","74","motor","","","","","","",""
"456","","368145","HierDym1rlp495","igivijld8a","msl000335","motor","","72","img/motor_5.png","72","motor","5","9","1","0","0","",""
"null","","368257","HierDym1rlp495","igivijld8a","msl000335","iti","","null","img/motor_5.png","72","motor","","","","","","",""
"605","","368874","HierDym1rlp495","igivijld8a","msl000335","motor","","83","img/motor_2.png","83","motor","2","10","1","0","0","",""
"null","","368986","HierDym1rlp495","igivijld8a","msl000335","iti","","null","img/motor_2.png","83","motor","","","","","","",""
"474","","369470","HierDym1rlp495","igivijld8a","msl000335","motor","","68","img/motor_3.png","68","motor","3","11","1","0","0","",""
"null","","369583","HierDym1rlp495","igivijld8a","msl000335","iti","","null","img/motor_3.png","68","motor","","","","","","",""
"483","","370078","HierDym1rlp495","igivijld8a","msl000335","motor","","76","img/motor_8.png","76","motor","8","12","1","0","0","",""
"null","","370191","HierDym1rlp495","igivijld8a","msl000335","iti","","null","img/motor_8.png","76","motor","","","","","","",""
"541","","370743","HierDym1rlp495","igivijld8a","msl000335","motor","","74","img/motor_6.png","74","motor","6","13","1","0","0","",""
"null","","370855","HierDym1rlp495","igivijld8a","msl000335","iti","","null","img/motor_6.png","74","motor","","","","","","",""
"730","","371596","HierDym1rlp495","igivijld8a","msl000335","motor","","68","img/motor_2.png","83","motor","2","14","0","1","0","",""
"175","","371784","HierDym1rlp495","igivijld8a","msl000335","motorRepeat","","83","img/motor_2.png","83","motor","2","14","1","0","0","",""
"null","","371898","HierDym1rlp495","igivijld8a","msl000335","iti","","null","img/motor_2.png","83","motor","","","","","","",""
"968","","372877","HierDym1rlp495","igivijld8a","msl000335","motor","","74","img/motor_6.png","74","motor","6","15","1","0","0","",""
"null","","372989","HierDym1rlp495","igivijld8a","msl000335","iti","","null","img/motor_6.png","74","motor","","","","","","",""
"512","","373513","HierDym1rlp495","igivijld8a","msl000335","motor","","70","img/motor_4.png","70","motor","4","16","1","0","0","",""
"null","","373624","HierDym1rlp495","igivijld8a","msl000335","iti","","null","img/motor_4.png","70","motor","","","","","","",""
"605","","374241","HierDym1rlp495","igivijld8a","msl000335","motor","","75","img/motor_6.png","74","motor","6","17","0","1","0","",""
"0","","374253","HierDym1rlp495","igivijld8a","msl000335","motorRepeat","","74","img/motor_6.png","74","motor","6","17","1","0","0","",""
"null","","374365","HierDym1rlp495","igivijld8a","msl000335","iti","","null","img/motor_6.png","74","motor","","","","","","",""
"478","","374852","HierDym1rlp495","igivijld8a","msl000335","motor","","75","img/motor_7.png","75","motor","7","18","1","0","0","",""
"null","","374964","HierDym1rlp495","igivijld8a","msl000335","iti","","null","img/motor_7.png","75","motor","","","","","","",""
"515","","375490","HierDym1rlp495","igivijld8a","msl000335","motor","","74","img/motor_6.png","74","motor","6","19","1","0","0","",""
"null","","375603","HierDym1rlp495","igivijld8a","msl000335","iti","","null","img/motor_6.png","74","motor","","","","","","",""
"641","","376254","HierDym1rlp495","igivijld8a","msl000335","motor","","68","img/motor_3.png","68","motor","3","20","1","0","0","",""
"null","","376366","HierDym1rlp495","igivijld8a","msl000335","iti","","null","img/motor_3.png","68","motor","","","","","","",""
"584","","376962","HierDym1rlp495","igivijld8a","msl000335","motor","","72","img/motor_5.png","72","motor","5","21","1","0","0","",""
"null","","377073","HierDym1rlp495","igivijld8a","msl000335","iti","","null","img/motor_5.png","72","motor","","","","","","",""
"542","","377627","HierDym1rlp495","igivijld8a","msl000335","motor","","68","img/motor_3.png","68","motor","3","22","1","0","0","",""
"null","","377739","HierDym1rlp495","igivijld8a","msl000335","iti","","null","img/motor_3.png","68","motor","","","","","","",""
"458","","378209","HierDym1rlp495","igivijld8a","msl000335","motor","","65","img/motor_1.png","65","motor","1","23","1","0","0","",""
"null","","378321","HierDym1rlp495","igivijld8a","msl000335","iti","","null","img/motor_1.png","65","motor","","","","","","",""
"454","","378787","HierDym1rlp495","igivijld8a","msl000335","motor","","65","img/motor_1.png","65","motor","1","24","1","0","0","",""
"null","","378899","HierDym1rlp495","igivijld8a","msl000335","iti","","null","img/motor_1.png","65","motor","","","","","","",""
"494","","379404","HierDym1rlp495","igivijld8a","msl000335","motor","","68","img/motor_3.png","68","motor","3","25","1","0","0","",""
"null","","379516","HierDym1rlp495","igivijld8a","msl000335","iti","","null","img/motor_3.png","68","motor","","","","","","",""
"489","","380017","HierDym1rlp495","igivijld8a","msl000335","motor","","72","img/motor_5.png","72","motor","5","26","1","0","0","",""
"null","","380128","HierDym1rlp495","igivijld8a","msl000335","iti","","null","img/motor_5.png","72","motor","","","","","","",""
"474","","380614","HierDym1rlp495","igivijld8a","msl000335","motor","","74","img/motor_6.png","74","motor","6","27","1","0","0","",""
"null","","380727","HierDym1rlp495","igivijld8a","msl000335","iti","","null","img/motor_6.png","74","motor","","","","","","",""
"484","","381222","HierDym1rlp495","igivijld8a","msl000335","motor","","74","img/motor_6.png","74","motor","6","28","1","0","0","",""
"null","","381334","HierDym1rlp495","igivijld8a","msl000335","iti","","null","img/motor_6.png","74","motor","","","","","","",""
"502","","381848","HierDym1rlp495","igivijld8a","msl000335","motor","","83","img/motor_2.png","83","motor","2","29","1","0","0","",""
"null","","381961","HierDym1rlp495","igivijld8a","msl000335","iti","","null","img/motor_2.png","83","motor","","","","","","",""
"593","","382565","HierDym1rlp495","igivijld8a","msl000335","motor","","68","img/motor_3.png","68","motor","3","30","1","0","0","",""
"null","","382676","HierDym1rlp495","igivijld8a","msl000335","iti","","null","img/motor_3.png","68","motor","","","","","","",""
"437","","383126","HierDym1rlp495","igivijld8a","msl000335","motor","","83","img/motor_2.png","83","motor","2","31","1","0","0","",""
"null","","383239","HierDym1rlp495","igivijld8a","msl000335","iti","","null","img/motor_2.png","83","motor","","","","","","",""
"509","","383759","HierDym1rlp495","igivijld8a","msl000335","motor","","76","img/motor_8.png","76","motor","8","32","1","0","0","",""
"null","","383871","HierDym1rlp495","igivijld8a","msl000335","iti","","null","img/motor_8.png","76","motor","","","","","","",""
"576","","384457","HierDym1rlp495","igivijld8a","msl000335","motor","","83","img/motor_2.png","83","motor","2","33","1","0","0","",""
"null","","384570","HierDym1rlp495","igivijld8a","msl000335","iti","","null","img/motor_2.png","83","motor","","","","","","",""
"54","","384635","HierDym1rlp495","igivijld8a","msl000335","motor","","70","img/motor_7.png","75","motor","7","34","0","1","0","",""
"792","","385439","HierDym1rlp495","igivijld8a","msl000335","motorRepeat","","75","img/motor_7.png","75","motor","7","34","1","0","0","",""
"null","","385552","HierDym1rlp495","igivijld8a","msl000335","iti","","null","img/motor_7.png","75","motor","","","","","","",""
"548","","386111","HierDym1rlp495","igivijld8a","msl000335","motor","","72","img/motor_5.png","72","motor","5","35","1","0","0","",""
"null","","386223","HierDym1rlp495","igivijld8a","msl000335","iti","","null","img/motor_5.png","72","motor","","","","","","",""
"448","","386683","HierDym1rlp495","igivijld8a","msl000335","motor","","65","img/motor_1.png","65","motor","1","36","1","0","0","",""
"null","","386795","HierDym1rlp495","igivijld8a","msl000335","iti","","null","img/motor_1.png","65","motor","","","","","","",""
"589","","387396","HierDym1rlp495","igivijld8a","msl000335","motor","","83","img/motor_2.png","83","motor","2","37","1","0","0","",""
"null","","387509","HierDym1rlp495","igivijld8a","msl000335","iti","","null","img/motor_2.png","83","motor","","","","","","",""
"553","","388073","HierDym1rlp495","igivijld8a","msl000335","motor","","76","img/motor_8.png","76","motor","8","38","1","0","0","",""
"null","","388185","HierDym1rlp495","igivijld8a","msl000335","iti","","null","img/motor_8.png","76","motor","","","","","","",""
"510","","388706","HierDym1rlp495","igivijld8a","msl000335","motor","","83","img/motor_2.png","83","motor","2","39","1","0","0","",""
"null","","388818","HierDym1rlp495","igivijld8a","msl000335","iti","","null","img/motor_2.png","83","motor","","","","","","",""
"473","","389303","HierDym1rlp495","igivijld8a","msl000335","motor","","70","img/motor_4.png","70","motor","4","40","1","0","0","",""
"null","","389416","HierDym1rlp495","igivijld8a","msl000335","iti","","null","img/motor_4.png","70","motor","","","","","","",""
"498","","389927","HierDym1rlp495","igivijld8a","msl000335","motor","","68","img/motor_3.png","68","motor","3","41","1","0","0","",""
"null","","390040","HierDym1rlp495","igivijld8a","msl000335","iti","","null","img/motor_3.png","68","motor","","","","","","",""
"550","","390602","HierDym1rlp495","igivijld8a","msl000335","motor","","74","img/motor_6.png","74","motor","6","42","1","0","0","",""
"null","","390714","HierDym1rlp495","igivijld8a","msl000335","iti","","null","img/motor_6.png","74","motor","","","","","","",""
"654","","391380","HierDym1rlp495","igivijld8a","msl000335","motor","","65","img/motor_1.png","65","motor","1","43","1","0","0","",""
"null","","391494","HierDym1rlp495","igivijld8a","msl000335","iti","","null","img/motor_1.png","65","motor","","","","","","",""
"712","","392218","HierDym1rlp495","igivijld8a","msl000335","motor","","74","img/motor_6.png","74","motor","6","44","1","0","0","",""
"null","","392330","HierDym1rlp495","igivijld8a","msl000335","iti","","null","img/motor_6.png","74","motor","","","","","","",""
"513","","392855","HierDym1rlp495","igivijld8a","msl000335","motor","","76","img/motor_8.png","76","motor","8","45","1","0","0","",""
"null","","392967","HierDym1rlp495","igivijld8a","msl000335","iti","","null","img/motor_8.png","76","motor","","","","","","",""
"564","","393543","HierDym1rlp495","igivijld8a","msl000335","motor","","68","img/motor_3.png","68","motor","3","46","1","0","0","",""
"null","","393656","HierDym1rlp495","igivijld8a","msl000335","iti","","null","img/motor_3.png","68","motor","","","","","","",""
"433","","394102","HierDym1rlp495","igivijld8a","msl000335","motor","","68","img/motor_3.png","68","motor","3","47","1","0","0","",""
"null","","394214","HierDym1rlp495","igivijld8a","msl000335","iti","","null","img/motor_3.png","68","motor","","","","","","",""
"772","","394998","HierDym1rlp495","igivijld8a","msl000335","motor","","75","img/motor_7.png","75","motor","7","48","1","0","0","",""
"null","","395112","HierDym1rlp495","igivijld8a","msl000335","iti","","null","img/motor_7.png","75","motor","","","","","","",""
"477","","395600","HierDym1rlp495","igivijld8a","msl000335","motor","","75","img/motor_7.png","75","motor","7","49","1","0","0","",""
"null","","395713","HierDym1rlp495","igivijld8a","msl000335","iti","","null","img/motor_7.png","75","motor","","","","","","",""
"443","","396166","HierDym1rlp495","igivijld8a","msl000335","motor","","76","img/motor_8.png","76","motor","8","50","1","0","0","",""
"null","","396279","HierDym1rlp495","igivijld8a","msl000335","iti","","null","img/motor_8.png","76","motor","","","","","","",""
"478","","396769","HierDym1rlp495","igivijld8a","msl000335","motor","","72","img/motor_5.png","72","motor","5","51","1","0","0","",""
"null","","396881","HierDym1rlp495","igivijld8a","msl000335","iti","","null","img/motor_5.png","72","motor","","","","","","",""
"644","","397537","HierDym1rlp495","igivijld8a","msl000335","motor","","68","img/motor_2.png","83","motor","2","52","0","1","0","",""
"289","","397836","HierDym1rlp495","igivijld8a","msl000335","motorRepeat","","83","img/motor_2.png","83","motor","2","52","1","0","0","",""
"null","","397949","HierDym1rlp495","igivijld8a","msl000335","iti","","null","img/motor_2.png","83","motor","","","","","","",""
"469","","398430","HierDym1rlp495","igivijld8a","msl000335","motor","","83","img/motor_2.png","83","motor","2","53","1","0","0","",""
"null","","398542","HierDym1rlp495","igivijld8a","msl000335","iti","","null","img/motor_2.png","83","motor","","","","","","",""
"483","","399036","HierDym1rlp495","igivijld8a","msl000335","motor","","70","img/motor_4.png","70","motor","4","54","1","0","0","",""
"null","","399149","HierDym1rlp495","igivijld8a","msl000335","iti","","null","img/motor_4.png","70","motor","","","","","","",""
"560","","399721","HierDym1rlp495","igivijld8a","msl000335","motor","","76","img/motor_8.png","76","motor","8","55","1","0","0","",""
"null","","399834","HierDym1rlp495","igivijld8a","msl000335","iti","","null","img/motor_8.png","76","motor","","","","","","",""
"682","","400528","HierDym1rlp495","igivijld8a","msl000335","motor","","83","img/motor_2.png","83","motor","2","56","1","0","0","",""
"null","","400639","HierDym1rlp495","igivijld8a","msl000335","iti","","null","img/motor_2.png","83","motor","","","","","","",""
"558","","401209","HierDym1rlp495","igivijld8a","msl000335","motor","","72","img/motor_5.png","72","motor","5","57","1","0","0","",""
"null","","401321","HierDym1rlp495","igivijld8a","msl000335","iti","","null","img/motor_5.png","72","motor","","","","","","",""
"684","","402017","HierDym1rlp495","igivijld8a","msl000335","motor","","76","img/motor_8.png","76","motor","8","58","1","0","0","",""
"null","","402130","HierDym1rlp495","igivijld8a","msl000335","iti","","null","img/motor_8.png","76","motor","","","","","","",""
"557","","402700","HierDym1rlp495","igivijld8a","msl000335","motor","","75","img/motor_7.png","75","motor","7","59","1","0","0","",""
"null","","402814","HierDym1rlp495","igivijld8a","msl000335","iti","","null","img/motor_7.png","75","motor","","","","","","",""
"609","","403435","HierDym1rlp495","igivijld8a","msl000335","motor","","83","img/motor_2.png","83","motor","2","60","1","0","0","",""
"null","","403547","HierDym1rlp495","igivijld8a","msl000335","iti","","null","img/motor_2.png","83","motor","","","","","","",""
"621","","404179","HierDym1rlp495","igivijld8a","msl000335","motor","","75","img/motor_7.png","75","motor","7","61","1","0","0","",""
"null","","404293","HierDym1rlp495","igivijld8a","msl000335","iti","","null","img/motor_7.png","75","motor","","","","","","",""
"447","","404751","HierDym1rlp495","igivijld8a","msl000335","motor","","74","img/motor_6.png","74","motor","6","62","1","0","0","",""
"null","","404864","HierDym1rlp495","igivijld8a","msl000335","iti","","null","img/motor_6.png","74","motor","","","","","","",""
"602","","405478","HierDym1rlp495","igivijld8a","msl000335","motor","","76","img/motor_8.png","76","motor","8","63","1","0","0","",""
"null","","405590","HierDym1rlp495","igivijld8a","msl000335","iti","","null","img/motor_8.png","76","motor","","","","","","",""
"606","","406207","HierDym1rlp495","igivijld8a","msl000335","motor","","74","img/motor_6.png","74","motor","6","64","1","0","0","",""
"null","","406319","HierDym1rlp495","igivijld8a","msl000335","iti","","null","img/motor_6.png","74","motor","","","","","","",""
"438","","406768","HierDym1rlp495","igivijld8a","msl000335","motor","","74","img/motor_6.png","74","motor","6","65","1","0","0","",""
"null","","406879","HierDym1rlp495","igivijld8a","msl000335","iti","","null","img/motor_6.png","74","motor","","","","","","",""
"569","","407460","HierDym1rlp495","igivijld8a","msl000335","motor","","70","img/motor_4.png","70","motor","4","66","1","0","0","",""
"null","","407572","HierDym1rlp495","igivijld8a","msl000335","iti","","null","img/motor_4.png","70","motor","","","","","","",""
"475","","408059","HierDym1rlp495","igivijld8a","msl000335","motor","","65","img/motor_1.png","65","motor","1","67","1","0","0","",""
"null","","408170","HierDym1rlp495","igivijld8a","msl000335","iti","","null","img/motor_1.png","65","motor","","","","","","",""
"553","","408735","HierDym1rlp495","igivijld8a","msl000335","motor","","83","img/motor_2.png","83","motor","2","68","1","0","0","",""
"null","","408848","HierDym1rlp495","igivijld8a","msl000335","iti","","null","img/motor_2.png","83","motor","","","","","","",""
"810","","409669","HierDym1rlp495","igivijld8a","msl000335","motor","","75","img/motor_7.png","75","motor","7","69","1","0","0","",""
"null","","409781","HierDym1rlp495","igivijld8a","msl000335","iti","","null","img/motor_7.png","75","motor","","","","","","",""
"438","","410231","HierDym1rlp495","igivijld8a","msl000335","motor","","75","img/motor_7.png","75","motor","7","70","1","0","0","",""
"null","","410342","HierDym1rlp495","igivijld8a","msl000335","iti","","null","img/motor_7.png","75","motor","","","","","","",""
"524","","410878","HierDym1rlp495","igivijld8a","msl000335","motor","","70","img/motor_4.png","70","motor","4","71","1","0","0","",""
"null","","410992","HierDym1rlp495","igivijld8a","msl000335","iti","","null","img/motor_4.png","70","motor","","","","","","",""
"471","","411475","HierDym1rlp495","igivijld8a","msl000335","motor","","72","img/motor_5.png","72","motor","5","72","1","0","0","",""
"null","","411587","HierDym1rlp495","igivijld8a","msl000335","iti","","null","img/motor_5.png","72","motor","","","","","","",""
"487","","412086","HierDym1rlp495","igivijld8a","msl000335","motor","","83","img/motor_2.png","83","motor","2","73","1","0","0","",""
"null","","412199","HierDym1rlp495","igivijld8a","msl000335","iti","","null","img/motor_2.png","83","motor","","","","","","",""
"689","","412899","HierDym1rlp495","igivijld8a","msl000335","motor","","68","img/motor_3.png","68","motor","3","74","1","0","0","",""
"null","","413010","HierDym1rlp495","igivijld8a","msl000335","iti","","null","img/motor_3.png","68","motor","","","","","","",""
"494","","413516","HierDym1rlp495","igivijld8a","msl000335","motor","","68","img/motor_3.png","68","motor","3","75","1","0","0","",""
"null","","413630","HierDym1rlp495","igivijld8a","msl000335","iti","","null","img/motor_3.png","68","motor","","","","","","",""
"425","","414065","HierDym1rlp495","igivijld8a","msl000335","motor","","76","img/motor_8.png","76","motor","8","76","1","0","0","",""
"null","","414179","HierDym1rlp495","igivijld8a","msl000335","iti","","null","img/motor_8.png","76","motor","","","","","","",""
"483","","414672","HierDym1rlp495","igivijld8a","msl000335","motor","","72","img/motor_5.png","72","motor","5","77","1","0","0","",""
"null","","414785","HierDym1rlp495","igivijld8a","msl000335","iti","","null","img/motor_5.png","72","motor","","","","","","",""
"486","","415284","HierDym1rlp495","igivijld8a","msl000335","motor","","83","img/motor_2.png","83","motor","2","78","1","0","0","",""
"null","","415395","HierDym1rlp495","igivijld8a","msl000335","iti","","null","img/motor_2.png","83","motor","","","","","","",""
"448","","415854","HierDym1rlp495","igivijld8a","msl000335","motor","","65","img/motor_1.png","65","motor","1","79","1","0","0","",""
"null","","415966","HierDym1rlp495","igivijld8a","msl000335","iti","","null","img/motor_1.png","65","motor","","","","","","",""
"601","","416579","HierDym1rlp495","igivijld8a","msl000335","motor","","72","img/motor_5.png","72","motor","5","80","1","0","0","",""
"null","","416694","HierDym1rlp495","igivijld8a","msl000335","iti","","null","img/motor_5.png","72","motor","","","","","","",""
"518","","417224","HierDym1rlp495","igivijld8a","msl000335","motor","","68","img/motor_3.png","68","motor","3","81","1","0","0","",""
"null","","417336","HierDym1rlp495","igivijld8a","msl000335","iti","","null","img/motor_3.png","68","motor","","","","","","",""
"770","","418117","HierDym1rlp495","igivijld8a","msl000335","motor","","74","img/motor_6.png","74","motor","6","82","1","0","0","",""
"null","","418230","HierDym1rlp495","igivijld8a","msl000335","iti","","null","img/motor_6.png","74","motor","","","","","","",""
"522","","418764","HierDym1rlp495","igivijld8a","msl000335","motor","","72","img/motor_5.png","72","motor","5","83","1","0","0","",""
"null","","418877","HierDym1rlp495","igivijld8a","msl000335","iti","","null","img/motor_5.png","72","motor","","","","","","",""
"473","","419362","HierDym1rlp495","igivijld8a","msl000335","motor","","76","img/motor_8.png","76","motor","8","84","1","0","0","",""
"null","","419475","HierDym1rlp495","igivijld8a","msl000335","iti","","null","img/motor_8.png","76","motor","","","","","","",""
"517","","420005","HierDym1rlp495","igivijld8a","msl000335","motor","","72","img/motor_5.png","72","motor","5","85","1","0","0","",""
"null","","420116","HierDym1rlp495","igivijld8a","msl000335","iti","","null","img/motor_5.png","72","motor","","","","","","",""
"513","","420641","HierDym1rlp495","igivijld8a","msl000335","motor","","75","img/motor_7.png","75","motor","7","86","1","0","0","",""
"null","","420753","HierDym1rlp495","igivijld8a","msl000335","iti","","null","img/motor_7.png","75","motor","","","","","","",""
"457","","421221","HierDym1rlp495","igivijld8a","msl000335","motor","","74","img/motor_6.png","74","motor","6","87","1","0","0","",""
"null","","421335","HierDym1rlp495","igivijld8a","msl000335","iti","","null","img/motor_6.png","74","motor","","","","","","",""
"562","","421908","HierDym1rlp495","igivijld8a","msl000335","motor","","70","img/motor_4.png","70","motor","4","88","1","0","0","",""
"null","","422020","HierDym1rlp495","igivijld8a","msl000335","iti","","null","img/motor_4.png","70","motor","","","","","","",""
"482","","422514","HierDym1rlp495","igivijld8a","msl000335","motor","","68","img/motor_3.png","68","motor","3","89","1","0","0","",""
"null","","422626","HierDym1rlp495","igivijld8a","msl000335","iti","","null","img/motor_3.png","68","motor","","","","","","",""
"467","","423104","HierDym1rlp495","igivijld8a","msl000335","motor","","65","img/motor_1.png","65","motor","1","90","1","0","0","",""
"null","","423216","HierDym1rlp495","igivijld8a","msl000335","iti","","null","img/motor_1.png","65","motor","","","","","","",""
"463","","423692","HierDym1rlp495","igivijld8a","msl000335","motor","","75","img/motor_7.png","75","motor","7","91","1","0","0","",""
"null","","423804","HierDym1rlp495","igivijld8a","msl000335","iti","","null","img/motor_7.png","75","motor","","","","","","",""
"608","","424424","HierDym1rlp495","igivijld8a","msl000335","motor","","68","img/motor_3.png","68","motor","3","92","1","0","0","",""
"null","","424536","HierDym1rlp495","igivijld8a","msl000335","iti","","null","img/motor_3.png","68","motor","","","","","","",""
"564","","425111","HierDym1rlp495","igivijld8a","msl000335","motor","","76","img/motor_8.png","76","motor","8","93","1","0","0","",""
"null","","425224","HierDym1rlp495","igivijld8a","msl000335","iti","","null","img/motor_8.png","76","motor","","","","","","",""
"524","","425759","HierDym1rlp495","igivijld8a","msl000335","motor","","68","img/motor_3.png","68","motor","3","94","1","0","0","",""
"null","","425872","HierDym1rlp495","igivijld8a","msl000335","iti","","null","img/motor_3.png","68","motor","","","","","","",""
"449","","426332","HierDym1rlp495","igivijld8a","msl000335","motor","","83","img/motor_2.png","83","motor","2","95","1","0","0","",""
"null","","426444","HierDym1rlp495","igivijld8a","msl000335","iti","","null","img/motor_2.png","83","motor","","","","","","",""
"445","","426900","HierDym1rlp495","igivijld8a","msl000335","motor","","76","img/motor_8.png","76","motor","8","96","1","0","0","",""
"null","","427013","HierDym1rlp495","igivijld8a","msl000335","iti","","null","img/motor_8.png","76","motor","","","","","","",""
"581","","427606","HierDym1rlp495","igivijld8a","msl000335","motor","","72","img/motor_5.png","72","motor","5","97","1","0","0","",""
"null","","427717","HierDym1rlp495","igivijld8a","msl000335","iti","","null","img/motor_5.png","72","motor","","","","","","",""
"443","","428173","HierDym1rlp495","igivijld8a","msl000335","motor","","76","img/motor_8.png","76","motor","8","98","1","0","0","",""
"null","","428285","HierDym1rlp495","igivijld8a","msl000335","iti","","null","img/motor_8.png","76","motor","","","","","","",""
"368","","428666","HierDym1rlp495","igivijld8a","msl000335","motor","","72","img/motor_5.png","72","motor","5","99","1","0","0","",""
"null","","428778","HierDym1rlp495","igivijld8a","msl000335","iti","","null","img/motor_5.png","72","motor","","","","","","",""
"391","","429182","HierDym1rlp495","igivijld8a","msl000335","motor","","72","img/motor_5.png","72","motor","5","100","1","0","0","",""
"null","","429294","HierDym1rlp495","igivijld8a","msl000335","iti","","null","img/motor_5.png","72","motor","","","","","","",""
"511","","429818","HierDym1rlp495","igivijld8a","msl000335","motor","","75","img/motor_7.png","75","motor","7","101","1","0","0","",""
"null","","429931","HierDym1rlp495","igivijld8a","msl000335","iti","","null","img/motor_7.png","75","motor","","","","","","",""
"474","","430417","HierDym1rlp495","igivijld8a","msl000335","motor","","83","img/motor_3.png","68","motor","3","102","0","1","0","",""
"130","","430557","HierDym1rlp495","igivijld8a","msl000335","motorRepeat","","68","img/motor_3.png","68","motor","3","102","1","0","0","",""
"null","","430670","HierDym1rlp495","igivijld8a","msl000335","iti","","null","img/motor_3.png","68","motor","","","","","","",""
"840","","431520","HierDym1rlp495","igivijld8a","msl000335","motor","","74","img/motor_5.png","72","motor","5","103","0","1","0","",""
"511","","432042","HierDym1rlp495","igivijld8a","msl000335","motorRepeat","","72","img/motor_5.png","72","motor","5","103","1","0","0","",""
"null","","432155","HierDym1rlp495","igivijld8a","msl000335","iti","","null","img/motor_5.png","72","motor","","","","","","",""
"683","","432849","HierDym1rlp495","igivijld8a","msl000335","motor","","72","img/motor_5.png","72","motor","5","104","1","0","0","",""
"null","","432963","HierDym1rlp495","igivijld8a","msl000335","iti","","null","img/motor_5.png","72","motor","","","","","","",""
"838","","433813","HierDym1rlp495","igivijld8a","msl000335","motor","","68","img/motor_2.png","83","motor","2","105","0","1","0","",""
"181","","434005","HierDym1rlp495","igivijld8a","msl000335","motorRepeat","","83","img/motor_2.png","83","motor","2","105","1","0","0","",""
"null","","434117","HierDym1rlp495","igivijld8a","msl000335","iti","","null","img/motor_2.png","83","motor","","","","","","",""
"694","","434823","HierDym1rlp495","igivijld8a","msl000335","motor","","75","img/motor_7.png","75","motor","7","106","1","0","0","",""
"null","","434935","HierDym1rlp495","igivijld8a","msl000335","iti","","null","img/motor_7.png","75","motor","","","","","","",""
"544","","435490","HierDym1rlp495","igivijld8a","msl000335","motor","","70","img/motor_4.png","70","motor","4","107","1","0","0","",""
"null","","435602","HierDym1rlp495","igivijld8a","msl000335","iti","","null","img/motor_4.png","70","motor","","","","","","",""
"512","","436127","HierDym1rlp495","igivijld8a","msl000335","motor","","70","img/motor_4.png","70","motor","4","108","1","0","0","",""
"null","","436238","HierDym1rlp495","igivijld8a","msl000335","iti","","null","img/motor_4.png","70","motor","","","","","","",""
"513","","436764","HierDym1rlp495","igivijld8a","msl000335","motor","","83","img/motor_2.png","83","motor","2","109","1","0","0","",""
"null","","436875","HierDym1rlp495","igivijld8a","msl000335","iti","","null","img/motor_2.png","83","motor","","","","","","",""
"459","","437345","HierDym1rlp495","igivijld8a","msl000335","motor","","65","img/motor_1.png","65","motor","1","110","1","0","0","",""
"null","","437458","HierDym1rlp495","igivijld8a","msl000335","iti","","null","img/motor_1.png","65","motor","","","","","","",""
"489","","437960","HierDym1rlp495","igivijld8a","msl000335","motor","","76","img/motor_8.png","76","motor","8","111","1","0","0","",""
"null","","438072","HierDym1rlp495","igivijld8a","msl000335","iti","","null","img/motor_8.png","76","motor","","","","","","",""
"526","","438608","HierDym1rlp495","igivijld8a","msl000335","motor","","83","img/motor_2.png","83","motor","2","112","1","0","0","",""
"null","","438721","HierDym1rlp495","igivijld8a","msl000335","iti","","null","img/motor_2.png","83","motor","","","","","","",""
"485","","439217","HierDym1rlp495","igivijld8a","msl000335","motor","","65","img/motor_1.png","65","motor","1","113","1","0","0","",""
"null","","439329","HierDym1rlp495","igivijld8a","msl000335","iti","","null","img/motor_1.png","65","motor","","","","","","",""
"484","","439826","HierDym1rlp495","igivijld8a","msl000335","motor","","72","img/motor_5.png","72","motor","5","114","1","0","0","",""
"null","","439938","HierDym1rlp495","igivijld8a","msl000335","iti","","null","img/motor_5.png","72","motor","","","","","","",""
"547","","440498","HierDym1rlp495","igivijld8a","msl000335","motor","","70","img/motor_4.png","70","motor","4","115","1","0","0","",""
"null","","440610","HierDym1rlp495","igivijld8a","msl000335","iti","","null","img/motor_4.png","70","motor","","","","","","",""
"543","","441164","HierDym1rlp495","igivijld8a","msl000335","motor","","75","img/motor_7.png","75","motor","7","116","1","0","0","",""
"null","","441276","HierDym1rlp495","igivijld8a","msl000335","iti","","null","img/motor_7.png","75","motor","","","","","","",""
"468","","441756","HierDym1rlp495","igivijld8a","msl000335","motor","","76","img/motor_8.png","76","motor","8","117","1","0","0","",""
"null","","441868","HierDym1rlp495","igivijld8a","msl000335","iti","","null","img/motor_8.png","76","motor","","","","","","",""
"550","","442429","HierDym1rlp495","igivijld8a","msl000335","motor","","83","img/motor_2.png","83","motor","2","118","1","0","0","",""
"null","","442541","HierDym1rlp495","igivijld8a","msl000335","iti","","null","img/motor_2.png","83","motor","","","","","","",""
"493","","443046","HierDym1rlp495","igivijld8a","msl000335","motor","","76","img/motor_8.png","76","motor","8","119","1","0","0","",""
"null","","443158","HierDym1rlp495","igivijld8a","msl000335","iti","","null","img/motor_8.png","76","motor","","","","","","",""
"477","","443647","HierDym1rlp495","igivijld8a","msl000335","motor","","83","img/motor_2.png","83","motor","2","120","1","0","0","",""
"null","","443758","HierDym1rlp495","igivijld8a","msl000335","iti","","null","img/motor_2.png","83","motor","","","","","","",""
"484","","444255","HierDym1rlp495","igivijld8a","msl000335","motor","","68","img/motor_3.png","68","motor","3","121","1","0","0","",""
"null","","444367","HierDym1rlp495","igivijld8a","msl000335","iti","","null","img/motor_3.png","68","motor","","","","","","",""
"477","","444857","HierDym1rlp495","igivijld8a","msl000335","motor","","83","img/motor_2.png","83","motor","2","122","1","0","0","",""
"null","","444969","HierDym1rlp495","igivijld8a","msl000335","iti","","null","img/motor_2.png","83","motor","","","","","","",""
"603","","445584","HierDym1rlp495","igivijld8a","msl000335","motor","","72","img/motor_5.png","72","motor","5","123","1","0","0","",""
"null","","445695","HierDym1rlp495","igivijld8a","msl000335","iti","","null","img/motor_5.png","72","motor","","","","","","",""
"548","","446256","HierDym1rlp495","igivijld8a","msl000335","motor","","70","img/motor_4.png","70","motor","4","124","1","0","0","",""
"null","","446369","HierDym1rlp495","igivijld8a","msl000335","iti","","null","img/motor_4.png","70","motor","","","","","","",""
"458","","446838","HierDym1rlp495","igivijld8a","msl000335","motor","","70","img/motor_4.png","70","motor","4","125","1","0","0","",""
"null","","446952","HierDym1rlp495","igivijld8a","msl000335","iti","","null","img/motor_4.png","70","motor","","","","","","",""
"437","","447400","HierDym1rlp495","igivijld8a","msl000335","motor","","65","img/motor_1.png","65","motor","1","126","1","0","0","",""
"null","","447512","HierDym1rlp495","igivijld8a","msl000335","iti","","null","img/motor_1.png","65","motor","","","","","","",""
"461","","447985","HierDym1rlp495","igivijld8a","msl000335","motor","","70","img/motor_4.png","70","motor","4","127","1","0","0","",""
"null","","448095","HierDym1rlp495","igivijld8a","msl000335","iti","","null","img/motor_4.png","70","motor","","","","","","",""
"427","","448535","HierDym1rlp495","igivijld8a","msl000335","motor","","65","img/motor_1.png","65","motor","1","128","1","0","0","",""
"null","","448648","HierDym1rlp495","igivijld8a","msl000335","iti","","null","img/motor_1.png","65","motor","","","","","","",""
"513","","449173","HierDym1rlp495","igivijld8a","msl000335","motor","","75","img/motor_7.png","75","motor","7","129","1","0","0","",""
"null","","449286","HierDym1rlp495","igivijld8a","msl000335","iti","","null","img/motor_7.png","75","motor","","","","","","",""
"521","","449819","HierDym1rlp495","igivijld8a","msl000335","motor","","83","img/motor_2.png","83","motor","2","130","1","0","0","",""
"null","","449931","HierDym1rlp495","igivijld8a","msl000335","iti","","null","img/motor_2.png","83","motor","","","","","","",""
"468","","450411","HierDym1rlp495","igivijld8a","msl000335","motor","","70","img/motor_4.png","70","motor","4","131","1","0","0","",""
"null","","450524","HierDym1rlp495","igivijld8a","msl000335","iti","","null","img/motor_4.png","70","motor","","","","","","",""
"636","","451172","HierDym1rlp495","igivijld8a","msl000335","motor","","75","img/motor_6.png","74","motor","6","132","0","1","0","",""
"137","","451320","HierDym1rlp495","igivijld8a","msl000335","motorRepeat","","74","img/motor_6.png","74","motor","6","132","1","0","0","",""
"null","","451433","HierDym1rlp495","igivijld8a","msl000335","iti","","null","img/motor_6.png","74","motor","","","","","","",""
"1013","","452458","HierDym1rlp495","igivijld8a","msl000335","motor","","68","img/motor_3.png","68","motor","3","133","1","0","0","",""
"null","","452571","HierDym1rlp495","igivijld8a","msl000335","iti","","null","img/motor_3.png","68","motor","","","","","","",""
"691","","453274","HierDym1rlp495","igivijld8a","msl000335","motor","","74","img/motor_6.png","74","motor","6","134","1","0","0","",""
"null","","453387","HierDym1rlp495","igivijld8a","msl000335","iti","","null","img/motor_6.png","74","motor","","","","","","",""
"414","","453812","HierDym1rlp495","igivijld8a","msl000335","motor","","72","img/motor_5.png","72","motor","5","135","1","0","0","",""
"null","","453924","HierDym1rlp495","igivijld8a","msl000335","iti","","null","img/motor_5.png","72","motor","","","","","","",""
"485","","454426","HierDym1rlp495","igivijld8a","msl000335","motor","","75","img/motor_7.png","75","motor","7","136","1","0","0","",""
"null","","454539","HierDym1rlp495","igivijld8a","msl000335","iti","","null","img/motor_7.png","75","motor","","","","","","",""
"590","","455143","HierDym1rlp495","igivijld8a","msl000335","motor","","68","img/motor_3.png","68","motor","3","137","1","0","0","",""
"null","","455255","HierDym1rlp495","igivijld8a","msl000335","iti","","null","img/motor_3.png","68","motor","","","","","","",""
"544","","455810","HierDym1rlp495","igivijld8a","msl000335","motor","","83","img/motor_2.png","83","motor","2","138","1","0","0","",""
"null","","455924","HierDym1rlp495","igivijld8a","msl000335","iti","","null","img/motor_2.png","83","motor","","","","","","",""
"597","","456532","HierDym1rlp495","igivijld8a","msl000335","motor","","74","img/motor_6.png","74","motor","6","139","1","0","0","",""
"null","","456645","HierDym1rlp495","igivijld8a","msl000335","iti","","null","img/motor_6.png","74","motor","","","","","","",""
"453","","457111","HierDym1rlp495","igivijld8a","msl000335","motor","","72","img/motor_5.png","72","motor","5","140","1","0","0","",""
"null","","457222","HierDym1rlp495","igivijld8a","msl000335","iti","","null","img/motor_5.png","72","motor","","","","","","",""
"519","","457753","HierDym1rlp495","igivijld8a","msl000335","motor","","68","img/motor_3.png","68","motor","3","141","1","0","0","",""
"null","","457865","HierDym1rlp495","igivijld8a","msl000335","iti","","null","img/motor_3.png","68","motor","","","","","","",""
"659","","458539","HierDym1rlp495","igivijld8a","msl000335","motor","","74","img/motor_6.png","74","motor","6","142","1","0","0","",""
"null","","458652","HierDym1rlp495","igivijld8a","msl000335","iti","","null","img/motor_6.png","74","motor","","","","","","",""
"519","","459184","HierDym1rlp495","igivijld8a","msl000335","motor","","76","img/motor_8.png","76","motor","8","143","1","0","0","",""
"null","","459296","HierDym1rlp495","igivijld8a","msl000335","iti","","null","img/motor_8.png","76","motor","","","","","","",""
"624","","459935","HierDym1rlp495","igivijld8a","msl000335","motor","","70","img/motor_4.png","70","motor","4","144","1","0","0","",""
"null","","460048","HierDym1rlp495","igivijld8a","msl000335","iti","","null","img/motor_4.png","70","motor","","","","","","",""
"558","","460617","HierDym1rlp495","igivijld8a","msl000335","motor","","75","img/motor_7.png","75","motor","7","145","1","0","0","",""
"null","","460730","HierDym1rlp495","igivijld8a","msl000335","iti","","null","img/motor_7.png","75","motor","","","","","","",""
"740","","461482","HierDym1rlp495","igivijld8a","msl000335","motor","","68","img/motor_3.png","68","motor","3","146","1","0","0","",""
"null","","461595","HierDym1rlp495","igivijld8a","msl000335","iti","","null","img/motor_3.png","68","motor","","","","","","",""
"547","","462153","HierDym1rlp495","igivijld8a","msl000335","motor","","76","img/motor_8.png","76","motor","8","147","1","0","0","",""
"null","","462265","HierDym1rlp495","igivijld8a","msl000335","iti","","null","img/motor_8.png","76","motor","","","","","","",""
"458","","462735","HierDym1rlp495","igivijld8a","msl000335","motor","","76","img/motor_8.png","76","motor","8","148","1","0","0","",""
"null","","462848","HierDym1rlp495","igivijld8a","msl000335","iti","","null","img/motor_8.png","76","motor","","","","","","",""
"540","","463399","HierDym1rlp495","igivijld8a","msl000335","motor","","83","img/motor_2.png","83","motor","2","149","1","0","0","",""
"null","","463512","HierDym1rlp495","igivijld8a","msl000335","iti","","null","img/motor_2.png","83","motor","","","","","","",""
"642","","464166","HierDym1rlp495","igivijld8a","msl000335","motor","","75","img/motor_6.png","74","motor","6","150","0","1","0","",""
"94","","464271","HierDym1rlp495","igivijld8a","msl000335","motorRepeat","","74","img/motor_6.png","74","motor","6","150","1","0","0","",""
"null","","464383","HierDym1rlp495","igivijld8a","msl000335","iti","","null","img/motor_6.png","74","motor","","","","","","",""
"638","","465034","HierDym1rlp495","igivijld8a","msl000335","motor","","83","img/motor_2.png","83","motor","2","151","1","0","0","",""
"null","","465146","HierDym1rlp495","igivijld8a","msl000335","iti","","null","img/motor_2.png","83","motor","","","","","","",""
"504","","465662","HierDym1rlp495","igivijld8a","msl000335","motor","","70","img/motor_4.png","70","motor","4","152","1","0","0","",""
"null","","465774","HierDym1rlp495","igivijld8a","msl000335","iti","","null","img/motor_4.png","70","motor","","","","","","",""
"467","","466253","HierDym1rlp495","igivijld8a","msl000335","motor","","72","img/motor_5.png","72","motor","5","153","1","0","0","",""
"null","","466365","HierDym1rlp495","igivijld8a","msl000335","iti","","null","img/motor_5.png","72","motor","","","","","","",""
"498","","466876","HierDym1rlp495","igivijld8a","msl000335","motor","","75","img/motor_7.png","75","motor","7","154","1","0","0","",""
"null","","466987","HierDym1rlp495","igivijld8a","msl000335","iti","","null","img/motor_7.png","75","motor","","","","","","",""
"482","","467481","HierDym1rlp495","igivijld8a","msl000335","motor","","65","img/motor_1.png","65","motor","1","155","1","0","0","",""
"null","","467592","HierDym1rlp495","igivijld8a","msl000335","iti","","null","img/motor_1.png","65","motor","","","","","","",""
"399","","468004","HierDym1rlp495","igivijld8a","msl000335","motor","","65","img/motor_1.png","65","motor","1","156","1","0","0","",""
"null","","468117","HierDym1rlp495","igivijld8a","msl000335","iti","","null","img/motor_1.png","65","motor","","","","","","",""
"552","","468680","HierDym1rlp495","igivijld8a","msl000335","motor","","70","img/motor_4.png","70","motor","4","157","1","0","0","",""
"null","","468793","HierDym1rlp495","igivijld8a","msl000335","iti","","null","img/motor_4.png","70","motor","","","","","","",""
"513","","469317","HierDym1rlp495","igivijld8a","msl000335","motor","","83","img/motor_2.png","83","motor","2","158","1","0","0","",""
"null","","469431","HierDym1rlp495","igivijld8a","msl000335","iti","","null","img/motor_2.png","83","motor","","","","","","",""
"465","","469907","HierDym1rlp495","igivijld8a","msl000335","motor","","65","img/motor_1.png","65","motor","1","159","1","0","0","",""
"null","","470020","HierDym1rlp495","igivijld8a","msl000335","iti","","null","img/motor_1.png","65","motor","","","","","","",""
"480","","470512","HierDym1rlp495","igivijld8a","msl000335","motor","","83","img/motor_2.png","83","motor","2","160","1","0","0","",""
"null","","470625","HierDym1rlp495","igivijld8a","msl000335","iti","","null","img/motor_2.png","83","motor","","","","","","",""
"528","","471165","HierDym1rlp495","igivijld8a","msl000335","motor","","75","img/motor_7.png","75","motor","7","161","1","0","0","",""
"null","","471276","HierDym1rlp495","igivijld8a","msl000335","iti","","null","img/motor_7.png","75","motor","","","","","","",""
"610","","471899","HierDym1rlp495","igivijld8a","msl000335","motor","","68","img/motor_3.png","68","motor","3","162","1","0","0","",""
"null","","472011","HierDym1rlp495","igivijld8a","msl000335","iti","","null","img/motor_3.png","68","motor","","","","","","",""
"516","","472540","HierDym1rlp495","igivijld8a","msl000335","motor","","76","img/motor_8.png","76","motor","8","163","1","0","0","",""
"null","","472653","HierDym1rlp495","igivijld8a","msl000335","iti","","null","img/motor_8.png","76","motor","","","","","","",""
"537","","473201","HierDym1rlp495","igivijld8a","msl000335","motor","","68","img/motor_3.png","68","motor","3","164","1","0","0","",""
"null","","473313","HierDym1rlp495","igivijld8a","msl000335","iti","","null","img/motor_3.png","68","motor","","","","","","",""
"469","","473795","HierDym1rlp495","igivijld8a","msl000335","motor","","72","img/motor_5.png","72","motor","5","165","1","0","0","",""
"null","","473908","HierDym1rlp495","igivijld8a","msl000335","iti","","null","img/motor_5.png","72","motor","","","","","","",""
"526","","474446","HierDym1rlp495","igivijld8a","msl000335","motor","","70","img/motor_4.png","70","motor","4","166","1","0","0","",""
"null","","474558","HierDym1rlp495","igivijld8a","msl000335","iti","","null","img/motor_4.png","70","motor","","","","","","",""
"499","","475069","HierDym1rlp495","igivijld8a","msl000335","motor","","68","img/motor_3.png","68","motor","3","167","1","0","0","",""
"null","","475183","HierDym1rlp495","igivijld8a","msl000335","iti","","null","img/motor_3.png","68","motor","","","","","","",""
"421","","475615","HierDym1rlp495","igivijld8a","msl000335","motor","","65","img/motor_1.png","65","motor","1","168","1","0","0","",""
"null","","475728","HierDym1rlp495","igivijld8a","msl000335","iti","","null","img/motor_1.png","65","motor","","","","","","",""
"422","","476162","HierDym1rlp495","igivijld8a","msl000335","motor","","68","img/motor_3.png","68","motor","3","169","1","0","0","",""
"null","","476274","HierDym1rlp495","igivijld8a","msl000335","iti","","null","img/motor_3.png","68","motor","","","","","","",""
"432","","476718","HierDym1rlp495","igivijld8a","msl000335","motor","","76","img/motor_8.png","76","motor","8","170","1","0","0","",""
"null","","476831","HierDym1rlp495","igivijld8a","msl000335","iti","","null","img/motor_8.png","76","motor","","","","","","",""
"560","","477402","HierDym1rlp495","igivijld8a","msl000335","motor","","74","img/motor_6.png","74","motor","6","171","1","0","0","",""
"null","","477513","HierDym1rlp495","igivijld8a","msl000335","iti","","null","img/motor_6.png","74","motor","","","","","","",""
"680","","478205","HierDym1rlp495","igivijld8a","msl000335","motor","","83","img/motor_2.png","83","motor","2","172","1","0","0","",""
"null","","478317","HierDym1rlp495","igivijld8a","msl000335","iti","","null","img/motor_2.png","83","motor","","","","","","",""
"386","","478714","HierDym1rlp495","igivijld8a","msl000335","motor","","83","img/motor_2.png","83","motor","2","173","1","0","0","",""
"null","","478826","HierDym1rlp495","igivijld8a","msl000335","iti","","null","img/motor_2.png","83","motor","","","","","","",""
"439","","479278","HierDym1rlp495","igivijld8a","msl000335","motor","","70","img/motor_4.png","70","motor","4","174","1","0","0","",""
"null","","479390","HierDym1rlp495","igivijld8a","msl000335","iti","","null","img/motor_4.png","70","motor","","","","","","",""
"473","","479875","HierDym1rlp495","igivijld8a","msl000335","motor","","65","img/motor_1.png","65","motor","1","175","1","0","0","",""
"null","","479987","HierDym1rlp495","igivijld8a","msl000335","iti","","null","img/motor_1.png","65","motor","","","","","","",""
"464","","480463","HierDym1rlp495","igivijld8a","msl000335","motor","","76","img/motor_8.png","76","motor","8","176","1","0","0","",""
"null","","480575","HierDym1rlp495","igivijld8a","msl000335","iti","","null","img/motor_8.png","76","motor","","","","","","",""
"401","","480988","HierDym1rlp495","igivijld8a","msl000335","motor","","76","img/motor_8.png","76","motor","8","177","1","0","0","",""
"null","","481101","HierDym1rlp495","igivijld8a","msl000335","iti","","null","img/motor_8.png","76","motor","","","","","","",""
"600","","481713","HierDym1rlp495","igivijld8a","msl000335","motor","","74","img/motor_6.png","74","motor","6","178","1","0","0","",""
"null","","481825","HierDym1rlp495","igivijld8a","msl000335","iti","","null","img/motor_6.png","74","motor","","","","","","",""
"584","","482420","HierDym1rlp495","igivijld8a","msl000335","motor","","70","img/motor_4.png","70","motor","4","179","1","0","0","",""
"null","","482533","HierDym1rlp495","igivijld8a","msl000335","iti","","null","img/motor_4.png","70","motor","","","","","","",""
"550","","483095","HierDym1rlp495","igivijld8a","msl000335","motor","","72","img/motor_5.png","72","motor","5","180","1","0","0","",""
"null","","483208","HierDym1rlp495","igivijld8a","msl000335","iti","","null","img/motor_5.png","72","motor","","","","","","",""
"574","","483794","HierDym1rlp495","igivijld8a","msl000335","motor","","65","img/motor_1.png","65","motor","1","181","1","0","0","",""
"null","","483906","HierDym1rlp495","igivijld8a","msl000335","iti","","null","img/motor_1.png","65","motor","","","","","","",""
"422","","484341","HierDym1rlp495","igivijld8a","msl000335","motor","","72","img/motor_5.png","72","motor","5","182","1","0","0","",""
"null","","484453","HierDym1rlp495","igivijld8a","msl000335","iti","","null","img/motor_5.png","72","motor","","","","","","",""
"527","","484992","HierDym1rlp495","igivijld8a","msl000335","motor","","68","img/motor_3.png","68","motor","3","183","1","0","0","",""
"null","","485105","HierDym1rlp495","igivijld8a","msl000335","iti","","null","img/motor_3.png","68","motor","","","","","","",""
"538","","485654","HierDym1rlp495","igivijld8a","msl000335","motor","","70","img/motor_4.png","70","motor","4","184","1","0","0","",""
"null","","485766","HierDym1rlp495","igivijld8a","msl000335","iti","","null","img/motor_4.png","70","motor","","","","","","",""
"459","","486238","HierDym1rlp495","igivijld8a","msl000335","motor","","76","img/motor_8.png","76","motor","8","185","1","0","0","",""
"null","","486350","HierDym1rlp495","igivijld8a","msl000335","iti","","null","img/motor_8.png","76","motor","","","","","","",""
"571","","486934","HierDym1rlp495","igivijld8a","msl000335","motor","","68","img/motor_3.png","68","motor","3","186","1","0","0","",""
"null","","487047","HierDym1rlp495","igivijld8a","msl000335","iti","","null","img/motor_3.png","68","motor","","","","","","",""
"629","","487687","HierDym1rlp495","igivijld8a","msl000335","motor","","74","img/motor_6.png","74","motor","6","187","1","0","0","",""
"null","","487799","HierDym1rlp495","igivijld8a","msl000335","iti","","null","img/motor_6.png","74","motor","","","","","","",""
"503","","488315","HierDym1rlp495","igivijld8a","msl000335","motor","","75","img/motor_7.png","75","motor","7","188","1","0","0","",""
"null","","488427","HierDym1rlp495","igivijld8a","msl000335","iti","","null","img/motor_7.png","75","motor","","","","","","",""
"491","","488931","HierDym1rlp495","igivijld8a","msl000335","motor","","72","img/motor_5.png","72","motor","5","189","1","0","0","",""
"null","","489044","HierDym1rlp495","igivijld8a","msl000335","iti","","null","img/motor_5.png","72","motor","","","","","","",""
"506","","489563","HierDym1rlp495","igivijld8a","msl000335","motor","","68","img/motor_3.png","68","motor","3","190","1","0","0","",""
"null","","489675","HierDym1rlp495","igivijld8a","msl000335","iti","","null","img/motor_3.png","68","motor","","","","","","",""
"427","","490115","HierDym1rlp495","igivijld8a","msl000335","motor","","70","img/motor_4.png","70","motor","4","191","1","0","0","",""
"null","","490228","HierDym1rlp495","igivijld8a","msl000335","iti","","null","img/motor_4.png","70","motor","","","","","","",""
"493","","490732","HierDym1rlp495","igivijld8a","msl000335","motor","","72","img/motor_5.png","72","motor","5","192","1","0","0","",""
"null","","490844","HierDym1rlp495","igivijld8a","msl000335","iti","","null","img/motor_5.png","72","motor","","","","","","",""
"463","","491319","HierDym1rlp495","igivijld8a","msl000335","motor","","76","img/motor_8.png","76","motor","8","193","1","0","0","",""
"null","","491431","HierDym1rlp495","igivijld8a","msl000335","iti","","null","img/motor_8.png","76","motor","","","","","","",""
"487","","491931","HierDym1rlp495","igivijld8a","msl000335","motor","","70","img/motor_4.png","70","motor","4","194","1","0","0","",""
"null","","492043","HierDym1rlp495","igivijld8a","msl000335","iti","","null","img/motor_4.png","70","motor","","","","","","",""
"490","","492544","HierDym1rlp495","igivijld8a","msl000335","motor","","72","img/motor_5.png","72","motor","5","195","1","0","0","",""
"null","","492657","HierDym1rlp495","igivijld8a","msl000335","iti","","null","img/motor_5.png","72","motor","","","","","","",""
"517","","493184","HierDym1rlp495","igivijld8a","msl000335","motor","","70","img/motor_4.png","70","motor","4","196","1","0","0","",""
"null","","493297","HierDym1rlp495","igivijld8a","msl000335","iti","","null","img/motor_4.png","70","motor","","","","","","",""
"510","","493818","HierDym1rlp495","igivijld8a","msl000335","motor","","75","img/motor_7.png","75","motor","7","197","1","0","0","",""
"null","","493932","HierDym1rlp495","igivijld8a","msl000335","iti","","null","img/motor_7.png","75","motor","","","","","","",""
"618","","494561","HierDym1rlp495","igivijld8a","msl000335","motor","","65","img/motor_1.png","65","motor","1","198","1","0","0","",""
"null","","494672","HierDym1rlp495","igivijld8a","msl000335","iti","","null","img/motor_1.png","65","motor","","","","","","",""
"568","","495252","HierDym1rlp495","igivijld8a","msl000335","motor","","75","img/motor_7.png","75","motor","7","199","1","0","0","",""
"null","","495364","HierDym1rlp495","igivijld8a","msl000335","iti","","null","img/motor_7.png","75","motor","","","","","","",""
"455","","495830","HierDym1rlp495","igivijld8a","msl000335","motor","","74","img/motor_6.png","74","motor","6","200","1","0","0","",""
"null","","495942","HierDym1rlp495","igivijld8a","msl000335","iti","","null","img/motor_6.png","74","motor","","","","","","",""
"553","","496507","HierDym1rlp495","igivijld8a","msl000335","motor","","68","img/motor_3.png","68","motor","3","201","1","0","0","",""
"null","","496620","HierDym1rlp495","igivijld8a","msl000335","iti","","null","img/motor_3.png","68","motor","","","","","","",""
"533","","497165","HierDym1rlp495","igivijld8a","msl000335","motor","","83","img/motor_2.png","83","motor","2","202","1","0","0","",""
"null","","497277","HierDym1rlp495","igivijld8a","msl000335","iti","","null","img/motor_2.png","83","motor","","","","","","",""
"481","","497770","HierDym1rlp495","igivijld8a","msl000335","motor","","65","img/motor_1.png","65","motor","1","203","1","0","0","",""
"null","","497883","HierDym1rlp495","igivijld8a","msl000335","iti","","null","img/motor_1.png","65","motor","","","","","","",""
"543","","498439","HierDym1rlp495","igivijld8a","msl000335","motor","","68","img/motor_3.png","68","motor","3","204","1","0","0","",""
"null","","498551","HierDym1rlp495","igivijld8a","msl000335","iti","","null","img/motor_3.png","68","motor","","","","","","",""
"468","","499032","HierDym1rlp495","igivijld8a","msl000335","motor","","65","img/motor_1.png","65","motor","1","205","1","0","0","",""
"null","","499145","HierDym1rlp495","igivijld8a","msl000335","iti","","null","img/motor_1.png","65","motor","","","","","","",""
"503","","499660","HierDym1rlp495","igivijld8a","msl000335","motor","","76","img/motor_8.png","76","motor","8","206","1","0","0","",""
"null","","499772","HierDym1rlp495","igivijld8a","msl000335","iti","","null","img/motor_8.png","76","motor","","","","","","",""
"520","","500304","HierDym1rlp495","igivijld8a","msl000335","motor","","68","img/motor_3.png","68","motor","3","207","1","0","0","",""
"null","","500417","HierDym1rlp495","igivijld8a","msl000335","iti","","null","img/motor_3.png","68","motor","","","","","","",""
"529","","500957","HierDym1rlp495","igivijld8a","msl000335","motor","","74","img/motor_6.png","74","motor","6","208","1","0","0","",""
"null","","501070","HierDym1rlp495","igivijld8a","msl000335","iti","","null","img/motor_6.png","74","motor","","","","","","",""
"453","","501536","HierDym1rlp495","igivijld8a","msl000335","motor","","65","img/motor_1.png","65","motor","1","209","1","0","0","",""
"null","","501648","HierDym1rlp495","igivijld8a","msl000335","iti","","null","img/motor_1.png","65","motor","","","","","","",""
"568","","502227","HierDym1rlp495","igivijld8a","msl000335","motor","","83","img/motor_2.png","83","motor","2","210","1","0","0","",""
"null","","502339","HierDym1rlp495","igivijld8a","msl000335","iti","","null","img/motor_2.png","83","motor","","","","","","",""
"448","","502800","HierDym1rlp495","igivijld8a","msl000335","motor","","70","img/motor_4.png","70","motor","4","211","1","0","0","",""
"null","","502913","HierDym1rlp495","igivijld8a","msl000335","iti","","null","img/motor_4.png","70","motor","","","","","","",""
"457","","503382","HierDym1rlp495","igivijld8a","msl000335","motor","","68","img/motor_3.png","68","motor","3","212","1","0","0","",""
"null","","503496","HierDym1rlp495","igivijld8a","msl000335","iti","","null","img/motor_3.png","68","motor","","","","","","",""
"417","","503924","HierDym1rlp495","igivijld8a","msl000335","motor","","83","img/motor_2.png","83","motor","2","213","1","0","0","",""
"null","","504037","HierDym1rlp495","igivijld8a","msl000335","iti","","null","img/motor_2.png","83","motor","","","","","","",""
"345","","504395","HierDym1rlp495","igivijld8a","msl000335","motor","","65","img/motor_1.png","65","motor","1","214","1","0","0","",""
"null","","504508","HierDym1rlp495","igivijld8a","msl000335","iti","","null","img/motor_1.png","65","motor","","","","","","",""
"381","","504899","HierDym1rlp495","igivijld8a","msl000335","motor","","70","img/motor_4.png","70","motor","4","215","1","0","0","",""
"null","","505013","HierDym1rlp495","igivijld8a","msl000335","iti","","null","img/motor_4.png","70","motor","","","","","","",""
"335","","505359","HierDym1rlp495","igivijld8a","msl000335","motor","","65","img/motor_1.png","65","motor","1","216","1","0","0","",""
"null","","505473","HierDym1rlp495","igivijld8a","msl000335","iti","","null","img/motor_1.png","65","motor","","","","","","",""
"544","","506030","HierDym1rlp495","igivijld8a","msl000335","motor","","72","img/motor_5.png","72","motor","5","217","1","0","0","",""
"null","","506142","HierDym1rlp495","igivijld8a","msl000335","iti","","null","img/motor_5.png","72","motor","","","","","","",""
"398","","506553","HierDym1rlp495","igivijld8a","msl000335","motor","","76","img/motor_8.png","76","motor","8","218","1","0","0","",""
"null","","506665","HierDym1rlp495","igivijld8a","msl000335","iti","","null","img/motor_8.png","76","motor","","","","","","",""
"362","","507039","HierDym1rlp495","igivijld8a","msl000335","motor","","72","img/motor_5.png","72","motor","5","219","1","0","0","",""
"null","","507153","HierDym1rlp495","igivijld8a","msl000335","iti","","null","img/motor_5.png","72","motor","","","","","","",""
"468","","507633","HierDym1rlp495","igivijld8a","msl000335","motor","","74","img/motor_6.png","74","motor","6","220","1","0","0","",""
"null","","507745","HierDym1rlp495","igivijld8a","msl000335","iti","","null","img/motor_6.png","74","motor","","","","","","",""
"320","","508077","HierDym1rlp495","igivijld8a","msl000335","motor","","72","img/motor_3.png","68","motor","3","221","0","1","0","",""
"307","","508395","HierDym1rlp495","igivijld8a","msl000335","motorRepeat","","68","img/motor_3.png","68","motor","3","221","1","0","0","",""
"null","","508509","HierDym1rlp495","igivijld8a","msl000335","iti","","null","img/motor_3.png","68","motor","","","","","","",""
"521","","509042","HierDym1rlp495","igivijld8a","msl000335","motor","","76","img/motor_8.png","76","motor","8","222","1","0","0","",""
"null","","509155","HierDym1rlp495","igivijld8a","msl000335","iti","","null","img/motor_8.png","76","motor","","","","","","",""
"573","","509738","HierDym1rlp495","igivijld8a","msl000335","motor","","83","img/motor_2.png","83","motor","2","223","1","0","0","",""
"null","","509850","HierDym1rlp495","igivijld8a","msl000335","iti","","null","img/motor_2.png","83","motor","","","","","","",""
"422","","510284","HierDym1rlp495","igivijld8a","msl000335","motor","","68","img/motor_3.png","68","motor","3","224","1","0","0","",""
"null","","510397","HierDym1rlp495","igivijld8a","msl000335","iti","","null","img/motor_3.png","68","motor","","","","","","",""
"638","","511047","HierDym1rlp495","igivijld8a","msl000335","motor","","75","img/motor_7.png","75","motor","7","225","1","0","0","",""
"null","","511159","HierDym1rlp495","igivijld8a","msl000335","iti","","null","img/motor_7.png","75","motor","","","","","","",""
"408","","511579","HierDym1rlp495","igivijld8a","msl000335","motor","","76","img/motor_8.png","76","motor","8","226","1","0","0","",""
"null","","511691","HierDym1rlp495","igivijld8a","msl000335","iti","","null","img/motor_8.png","76","motor","","","","","","",""
"448","","512151","HierDym1rlp495","igivijld8a","msl000335","motor","","65","img/motor_1.png","65","motor","1","227","1","0","0","",""
"null","","512264","HierDym1rlp495","igivijld8a","msl000335","iti","","null","img/motor_1.png","65","motor","","","","","","",""
"477","","512753","HierDym1rlp495","igivijld8a","msl000335","motor","","74","img/motor_6.png","74","motor","6","228","1","0","0","",""
"null","","512866","HierDym1rlp495","igivijld8a","msl000335","iti","","null","img/motor_6.png","74","motor","","","","","","",""
"499","","513377","HierDym1rlp495","igivijld8a","msl000335","motor","","70","img/motor_4.png","70","motor","4","229","1","0","0","",""
"null","","513490","HierDym1rlp495","igivijld8a","msl000335","iti","","null","img/motor_4.png","70","motor","","","","","","",""
"493","","513993","HierDym1rlp495","igivijld8a","msl000335","motor","","75","img/motor_7.png","75","motor","7","230","1","0","0","",""
"null","","514105","HierDym1rlp495","igivijld8a","msl000335","iti","","null","img/motor_7.png","75","motor","","","","","","",""
"424","","514543","HierDym1rlp495","igivijld8a","msl000335","motor","","75","img/motor_7.png","75","motor","7","231","1","0","0","",""
"null","","514656","HierDym1rlp495","igivijld8a","msl000335","iti","","null","img/motor_7.png","75","motor","","","","","","",""
"414","","515081","HierDym1rlp495","igivijld8a","msl000335","motor","","74","img/motor_6.png","74","motor","6","232","1","0","0","",""
"null","","515194","HierDym1rlp495","igivijld8a","msl000335","iti","","null","img/motor_6.png","74","motor","","","","","","",""
"398","","515603","HierDym1rlp495","igivijld8a","msl000335","motor","","76","img/motor_8.png","76","motor","8","233","1","0","0","",""
"null","","515715","HierDym1rlp495","igivijld8a","msl000335","iti","","null","img/motor_8.png","76","motor","","","","","","",""
"479","","516207","HierDym1rlp495","igivijld8a","msl000335","motor","","75","img/motor_7.png","75","motor","7","234","1","0","0","",""
"null","","516320","HierDym1rlp495","igivijld8a","msl000335","iti","","null","img/motor_7.png","75","motor","","","","","","",""
"411","","516744","HierDym1rlp495","igivijld8a","msl000335","motor","","65","img/motor_1.png","65","motor","1","235","1","0","0","",""
"null","","516857","HierDym1rlp495","igivijld8a","msl000335","iti","","null","img/motor_1.png","65","motor","","","","","","",""
"558","","517427","HierDym1rlp495","igivijld8a","msl000335","motor","","83","img/motor_2.png","83","motor","2","236","1","0","0","",""
"null","","517539","HierDym1rlp495","igivijld8a","msl000335","iti","","null","img/motor_2.png","83","motor","","","","","","",""
"501","","518052","HierDym1rlp495","igivijld8a","msl000335","motor","","83","img/motor_2.png","83","motor","2","237","1","0","0","",""
"null","","518166","HierDym1rlp495","igivijld8a","msl000335","iti","","null","img/motor_2.png","83","motor","","","","","","",""
"421","","518601","HierDym1rlp495","igivijld8a","msl000335","motor","","68","img/motor_3.png","68","motor","3","238","1","0","0","",""
"null","","518714","HierDym1rlp495","igivijld8a","msl000335","iti","","null","img/motor_3.png","68","motor","","","","","","",""
"566","","519294","HierDym1rlp495","igivijld8a","msl000335","motor","","72","img/motor_5.png","72","motor","5","239","1","0","0","",""
"null","","519406","HierDym1rlp495","igivijld8a","msl000335","iti","","null","img/motor_5.png","72","motor","","","","","","",""
"405","","519823","HierDym1rlp495","igivijld8a","msl000335","motor","","74","img/motor_6.png","74","motor","6","240","1","0","0","",""
"null","","519937","HierDym1rlp495","igivijld8a","msl000335","iti","","null","img/motor_6.png","74","motor","","","","","","",""
"416","","520365","HierDym1rlp495","igivijld8a","msl000335","motor","","75","img/motor_7.png","75","motor","7","241","1","0","0","",""
"null","","520477","HierDym1rlp495","igivijld8a","msl000335","iti","","null","img/motor_7.png","75","motor","","","","","","",""
"499","","520987","HierDym1rlp495","igivijld8a","msl000335","motor","","83","img/motor_2.png","83","motor","2","242","1","0","0","",""
"null","","521100","HierDym1rlp495","igivijld8a","msl000335","iti","","null","img/motor_2.png","83","motor","","","","","","",""
"458","","521571","HierDym1rlp495","igivijld8a","msl000335","motor","","72","img/motor_5.png","72","motor","5","243","1","0","0","",""
"null","","521685","HierDym1rlp495","igivijld8a","msl000335","iti","","null","img/motor_5.png","72","motor","","","","","","",""
"506","","522203","HierDym1rlp495","igivijld8a","msl000335","motor","","70","img/motor_4.png","70","motor","4","244","1","0","0","",""
"null","","522316","HierDym1rlp495","igivijld8a","msl000335","iti","","null","img/motor_4.png","70","motor","","","","","","",""
"596","","522928","HierDym1rlp495","igivijld8a","msl000335","motor","","75","img/motor_7.png","75","motor","7","245","1","0","0","",""
"null","","523041","HierDym1rlp495","igivijld8a","msl000335","iti","","null","img/motor_7.png","75","motor","","","","","","",""
"560","","523614","HierDym1rlp495","igivijld8a","msl000335","motor","","70","img/motor_4.png","70","motor","4","246","1","0","0","",""
"null","","523727","HierDym1rlp495","igivijld8a","msl000335","iti","","null","img/motor_4.png","70","motor","","","","","","",""
"708","","524447","HierDym1rlp495","igivijld8a","msl000335","motor","","74","img/motor_6.png","74","motor","6","247","1","0","0","",""
"null","","524561","HierDym1rlp495","igivijld8a","msl000335","iti","","null","img/motor_6.png","74","motor","","","","","","",""
"860","","525435","HierDym1rlp495","igivijld8a","msl000335","motor","","75","img/motor_7.png","75","motor","7","248","1","0","0","",""
"null","","525547","HierDym1rlp495","igivijld8a","msl000335","iti","","null","img/motor_7.png","75","motor","","","","","","",""
"513","","526072","HierDym1rlp495","igivijld8a","msl000335","motor","","74","img/motor_6.png","74","motor","6","249","1","0","0","",""
"null","","526185","HierDym1rlp495","igivijld8a","msl000335","iti","","null","img/motor_6.png","74","motor","","","","","","",""
"535","","526734","HierDym1rlp495","igivijld8a","msl000335","motor","","70","img/motor_4.png","70","motor","4","250","1","0","0","",""
"null","","526848","HierDym1rlp495","igivijld8a","msl000335","iti","","null","img/motor_4.png","70","motor","","","","","","",""
"429","","527289","HierDym1rlp495","igivijld8a","msl000335","motor","","76","img/motor_8.png","76","motor","8","251","1","0","0","",""
"null","","527402","HierDym1rlp495","igivijld8a","msl000335","iti","","null","img/motor_8.png","76","motor","","","","","","",""
"498","","527911","HierDym1rlp495","igivijld8a","msl000335","motor","","75","img/motor_7.png","75","motor","7","252","1","0","0","",""
"null","","528025","HierDym1rlp495","igivijld8a","msl000335","iti","","null","img/motor_7.png","75","motor","","","","","","",""
"469","","528505","HierDym1rlp495","igivijld8a","msl000335","motor","","70","img/motor_4.png","70","motor","4","253","1","0","0","",""
"null","","528617","HierDym1rlp495","igivijld8a","msl000335","iti","","null","img/motor_4.png","70","motor","","","","","","",""
"545","","529174","HierDym1rlp495","igivijld8a","msl000335","motor","","83","img/motor_3.png","68","motor","3","254","0","1","0","",""
"226","","529412","HierDym1rlp495","igivijld8a","msl000335","motorRepeat","","68","img/motor_3.png","68","motor","3","254","1","0","0","",""
"null","","529524","HierDym1rlp495","igivijld8a","msl000335","iti","","null","img/motor_3.png","68","motor","","","","","","",""
"675","","530211","HierDym1rlp495","igivijld8a","msl000335","motor","","75","img/motor_7.png","75","motor","7","255","1","0","0","",""
"null","","530323","HierDym1rlp495","igivijld8a","msl000335","iti","","null","img/motor_7.png","75","motor","","","","","","",""
"544","","530879","HierDym1rlp495","igivijld8a","msl000335","motor","","72","img/motor_5.png","72","motor","5","256","1","0","0","",""
"null","","530991","HierDym1rlp495","igivijld8a","msl000335","iti","","null","img/motor_5.png","72","motor","","","","","","",""
"607","","531610","HierDym1rlp495","igivijld8a","msl000335","motor","","74","img/motor_6.png","74","motor","6","257","1","0","0","",""
"null","","531722","HierDym1rlp495","igivijld8a","msl000335","iti","","null","img/motor_6.png","74","motor","","","","","","",""
"414","","532150","HierDym1rlp495","igivijld8a","msl000335","motor","","74","img/motor_6.png","74","motor","6","258","1","0","0","",""
"null","","532262","HierDym1rlp495","igivijld8a","msl000335","iti","","null","img/motor_6.png","74","motor","","","","","","",""
"398","","532673","HierDym1rlp495","igivijld8a","msl000335","motor","","72","img/motor_5.png","72","motor","5","259","1","0","0","",""
"null","","532786","HierDym1rlp495","igivijld8a","msl000335","iti","","null","img/motor_5.png","72","motor","","","","","","",""
"402","","533201","HierDym1rlp495","igivijld8a","msl000335","motor","","70","img/motor_4.png","70","motor","4","260","1","0","0","",""
"null","","533313","HierDym1rlp495","igivijld8a","msl000335","iti","","null","img/motor_4.png","70","motor","","","","","","",""
"477","","533803","HierDym1rlp495","igivijld8a","msl000335","motor","","76","img/motor_8.png","76","motor","8","261","1","0","0","",""
"null","","533915","HierDym1rlp495","igivijld8a","msl000335","iti","","null","img/motor_8.png","76","motor","","","","","","",""
"554","","534480","HierDym1rlp495","igivijld8a","msl000335","motor","","75","img/motor_7.png","75","motor","7","262","1","0","0","",""
"null","","534594","HierDym1rlp495","igivijld8a","msl000335","iti","","null","img/motor_7.png","75","motor","","","","","","",""
"525","","535132","HierDym1rlp495","igivijld8a","msl000335","motor","","68","img/motor_3.png","68","motor","3","263","1","0","0","",""
"null","","535244","HierDym1rlp495","igivijld8a","msl000335","iti","","null","img/motor_3.png","68","motor","","","","","","",""
"393","","535650","HierDym1rlp495","igivijld8a","msl000335","motor","","68","img/motor_3.png","68","motor","3","264","1","0","0","",""
"null","","535763","HierDym1rlp495","igivijld8a","msl000335","iti","","null","img/motor_3.png","68","motor","","","","","","",""
"578","","536353","HierDym1rlp495","igivijld8a","msl000335","motor","","72","img/motor_5.png","72","motor","5","265","1","0","0","",""
"null","","536466","HierDym1rlp495","igivijld8a","msl000335","iti","","null","img/motor_5.png","72","motor","","","","","","",""
"497","","536974","HierDym1rlp495","igivijld8a","msl000335","motor","","83","img/motor_2.png","83","motor","2","266","1","0","0","",""
"null","","537087","HierDym1rlp495","igivijld8a","msl000335","iti","","null","img/motor_2.png","83","motor","","","","","","",""
"442","","537540","HierDym1rlp495","igivijld8a","msl000335","motor","","70","img/motor_4.png","70","motor","4","267","1","0","0","",""
"null","","537652","HierDym1rlp495","igivijld8a","msl000335","iti","","null","img/motor_4.png","70","motor","","","","","","",""
"424","","538088","HierDym1rlp495","igivijld8a","msl000335","motor","","72","img/motor_5.png","72","motor","5","268","1","0","0","",""
"null","","538200","HierDym1rlp495","igivijld8a","msl000335","iti","","null","img/motor_5.png","72","motor","","","","","","",""
"493","","538706","HierDym1rlp495","igivijld8a","msl000335","motor","","65","img/motor_1.png","65","motor","1","269","1","0","0","",""
"null","","538818","HierDym1rlp495","igivijld8a","msl000335","iti","","null","img/motor_1.png","65","motor","","","","","","",""
"433","","539264","HierDym1rlp495","igivijld8a","msl000335","motor","","74","img/motor_5.png","72","motor","5","270","0","1","0","",""
"269","","539544","HierDym1rlp495","igivijld8a","msl000335","motorRepeat","","72","img/motor_5.png","72","motor","5","270","1","0","0","",""
"null","","539657","HierDym1rlp495","igivijld8a","msl000335","iti","","null","img/motor_5.png","72","motor","","","","","","",""
"467","","540136","HierDym1rlp495","igivijld8a","msl000335","motor","","74","img/motor_6.png","74","motor","6","271","1","0","0","",""
"null","","540248","HierDym1rlp495","igivijld8a","msl000335","iti","","null","img/motor_6.png","74","motor","","","","","","",""
"437","","540697","HierDym1rlp495","igivijld8a","msl000335","motor","","72","img/motor_5.png","72","motor","5","272","1","0","0","",""
"null","","540810","HierDym1rlp495","igivijld8a","msl000335","iti","","null","img/motor_5.png","72","motor","","","","","","",""
"610","","541431","HierDym1rlp495","igivijld8a","msl000335","motor","","68","img/motor_3.png","68","motor","3","273","1","0","0","",""
"null","","541544","HierDym1rlp495","igivijld8a","msl000335","iti","","null","img/motor_3.png","68","motor","","","","","","",""
"515","","542070","HierDym1rlp495","igivijld8a","msl000335","motor","","65","img/motor_1.png","65","motor","1","274","1","0","0","",""
"null","","542184","HierDym1rlp495","igivijld8a","msl000335","iti","","null","img/motor_1.png","65","motor","","","","","","",""
"531","","542726","HierDym1rlp495","igivijld8a","msl000335","motor","","74","img/motor_6.png","74","motor","6","275","1","0","0","",""
"null","","542840","HierDym1rlp495","igivijld8a","msl000335","iti","","null","img/motor_6.png","74","motor","","","","","","",""
"451","","543302","HierDym1rlp495","igivijld8a","msl000335","motor","","65","img/motor_1.png","65","motor","1","276","1","0","0","",""
"null","","543415","HierDym1rlp495","igivijld8a","msl000335","iti","","null","img/motor_1.png","65","motor","","","","","","",""
"458","","543885","HierDym1rlp495","igivijld8a","msl000335","motor","","72","img/motor_5.png","72","motor","5","277","1","0","0","",""
"null","","543998","HierDym1rlp495","igivijld8a","msl000335","iti","","null","img/motor_5.png","72","motor","","","","","","",""
"341","","544352","HierDym1rlp495","igivijld8a","msl000335","motor","","65","img/motor_1.png","65","motor","1","278","1","0","0","",""
"null","","544466","HierDym1rlp495","igivijld8a","msl000335","iti","","null","img/motor_1.png","65","motor","","","","","","",""
"399","","544877","HierDym1rlp495","igivijld8a","msl000335","motor","","65","img/motor_1.png","65","motor","1","279","1","0","0","",""
"null","","544989","HierDym1rlp495","igivijld8a","msl000335","iti","","null","img/motor_1.png","65","motor","","","","","","",""
"497","","545498","HierDym1rlp495","igivijld8a","msl000335","motor","","75","img/motor_7.png","75","motor","7","280","1","0","0","",""
"null","","545611","HierDym1rlp495","igivijld8a","msl000335","iti","","null","img/motor_7.png","75","motor","","","","","","",""
"431","","546053","HierDym1rlp495","igivijld8a","msl000335","motor","","72","img/motor_5.png","72","motor","5","281","1","0","0","",""
"null","","546166","HierDym1rlp495","igivijld8a","msl000335","iti","","null","img/motor_5.png","72","motor","","","","","","",""
"340","","546518","HierDym1rlp495","igivijld8a","msl000335","motor","","65","img/motor_1.png","65","motor","1","282","1","0","0","",""
"null","","546631","HierDym1rlp495","igivijld8a","msl000335","iti","","null","img/motor_1.png","65","motor","","","","","","",""
"567","","547211","HierDym1rlp495","igivijld8a","msl000335","motor","","83","img/motor_2.png","83","motor","2","283","1","0","0","",""
"null","","547323","HierDym1rlp495","igivijld8a","msl000335","iti","","null","img/motor_2.png","83","motor","","","","","","",""
"736","","548071","HierDym1rlp495","igivijld8a","msl000335","motor","","74","img/motor_6.png","74","motor","6","284","1","0","0","",""
"null","","548184","HierDym1rlp495","igivijld8a","msl000335","iti","","null","img/motor_6.png","74","motor","","","","","","",""
"450","","548644","HierDym1rlp495","igivijld8a","msl000335","motor","","65","img/motor_1.png","65","motor","1","285","1","0","0","",""
"null","","548758","HierDym1rlp495","igivijld8a","msl000335","iti","","null","img/motor_1.png","65","motor","","","","","","",""
"474","","549242","HierDym1rlp495","igivijld8a","msl000335","motor","","72","img/motor_5.png","72","motor","5","286","1","0","0","",""
"null","","549355","HierDym1rlp495","igivijld8a","msl000335","iti","","null","img/motor_5.png","72","motor","","","","","","",""
"414","","549781","HierDym1rlp495","igivijld8a","msl000335","motor","","65","img/motor_1.png","65","motor","1","287","1","0","0","",""
"null","","549893","HierDym1rlp495","igivijld8a","msl000335","iti","","null","img/motor_1.png","65","motor","","","","","","",""
"435","","550341","HierDym1rlp495","igivijld8a","msl000335","motor","","76","img/motor_8.png","76","motor","8","288","1","0","0","",""
"null","","550453","HierDym1rlp495","igivijld8a","msl000335","iti","","null","img/motor_8.png","76","motor","","","","","","",""
"433","","550898","HierDym1rlp495","igivijld8a","msl000335","motor","","74","img/motor_6.png","74","motor","6","289","1","0","0","",""
"null","","551011","HierDym1rlp495","igivijld8a","msl000335","iti","","null","img/motor_6.png","74","motor","","","","","","",""
"394","","551418","HierDym1rlp495","igivijld8a","msl000335","motor","","65","img/motor_1.png","65","motor","1","290","1","0","0","",""
"null","","551530","HierDym1rlp495","igivijld8a","msl000335","iti","","null","img/motor_1.png","65","motor","","","","","","",""
"570","","552113","HierDym1rlp495","igivijld8a","msl000335","motor","","70","img/motor_4.png","70","motor","4","291","1","0","0","",""
"null","","552226","HierDym1rlp495","igivijld8a","msl000335","iti","","null","img/motor_4.png","70","motor","","","","","","",""
"463","","552700","HierDym1rlp495","igivijld8a","msl000335","motor","","83","img/motor_2.png","83","motor","2","292","1","0","0","",""
"null","","552813","HierDym1rlp495","igivijld8a","msl000335","iti","","null","img/motor_2.png","83","motor","","","","","","",""
"550","","553373","HierDym1rlp495","igivijld8a","msl000335","motor","","74","img/motor_6.png","74","motor","6","293","1","0","0","",""
"null","","553488","HierDym1rlp495","igivijld8a","msl000335","iti","","null","img/motor_6.png","74","motor","","","","","","",""
"496","","553996","HierDym1rlp495","igivijld8a","msl000335","motor","","65","img/motor_1.png","65","motor","1","294","1","0","0","",""
"null","","554109","HierDym1rlp495","igivijld8a","msl000335","iti","","null","img/motor_1.png","65","motor","","","","","","",""
"501","","554622","HierDym1rlp495","igivijld8a","msl000335","motor","","74","img/motor_5.png","72","motor","5","295","0","1","0","",""
"178","","554812","HierDym1rlp495","igivijld8a","msl000335","motorRepeat","","72","img/motor_5.png","72","motor","5","295","1","0","0","",""
"null","","554925","HierDym1rlp495","igivijld8a","msl000335","iti","","null","img/motor_5.png","72","motor","","","","","","",""
"508","","555446","HierDym1rlp495","igivijld8a","msl000335","motor","","70","img/motor_4.png","70","motor","4","296","1","0","0","",""
"null","","555559","HierDym1rlp495","igivijld8a","msl000335","iti","","null","img/motor_4.png","70","motor","","","","","","",""
"430","","556002","HierDym1rlp495","igivijld8a","msl000335","motor","","76","img/motor_8.png","76","motor","8","297","1","0","0","",""
"null","","556115","HierDym1rlp495","igivijld8a","msl000335","iti","","null","img/motor_8.png","76","motor","","","","","","",""
"592","","556720","HierDym1rlp495","igivijld8a","msl000335","motor","","70","img/motor_4.png","70","motor","4","298","1","0","0","",""
"null","","556834","HierDym1rlp495","igivijld8a","msl000335","iti","","null","img/motor_4.png","70","motor","","","","","","",""
"579","","557426","HierDym1rlp495","igivijld8a","msl000335","motor","","83","img/motor_2.png","83","motor","2","299","1","0","0","",""
"null","","557539","HierDym1rlp495","igivijld8a","msl000335","iti","","null","img/motor_2.png","83","motor","","","","","","",""
"669","","558219","HierDym1rlp495","igivijld8a","msl000335","motor","","68","img/motor_3.png","68","motor","3","300","1","0","0","",""
"null","","558332","HierDym1rlp495","igivijld8a","msl000335","iti","","null","img/motor_3.png","68","motor","","","","","","",""
"643","","558987","HierDym1rlp495","igivijld8a","msl000335","motor","","75","img/motor_7.png","75","motor","7","301","1","0","0","",""
"null","","559100","HierDym1rlp495","igivijld8a","msl000335","iti","","null","img/motor_7.png","75","motor","","","","","","",""
"521","","559634","HierDym1rlp495","igivijld8a","msl000335","motor","","70","img/motor_4.png","70","motor","4","302","1","0","0","",""
"null","","559749","HierDym1rlp495","igivijld8a","msl000335","iti","","null","img/motor_4.png","70","motor","","","","","","",""
"481","","560243","HierDym1rlp495","igivijld8a","msl000335","motor","","75","img/motor_7.png","75","motor","7","303","1","0","0","",""
"null","","560355","HierDym1rlp495","igivijld8a","msl000335","iti","","null","img/motor_7.png","75","motor","","","","","","",""
"427","","560795","HierDym1rlp495","igivijld8a","msl000335","motor","","75","img/motor_7.png","75","motor","7","304","1","0","0","",""
"null","","560908","HierDym1rlp495","igivijld8a","msl000335","iti","","null","img/motor_7.png","75","motor","","","","","","",""
"433","","561353","HierDym1rlp495","igivijld8a","msl000335","motor","","70","img/motor_4.png","70","motor","4","305","1","0","0","",""
"null","","561465","HierDym1rlp495","igivijld8a","msl000335","iti","","null","img/motor_4.png","70","motor","","","","","","",""
"321","","561798","HierDym1rlp495","igivijld8a","msl000335","motor","","65","img/motor_1.png","65","motor","1","306","1","0","0","",""
"null","","561911","HierDym1rlp495","igivijld8a","msl000335","iti","","null","img/motor_1.png","65","motor","","","","","","",""
"462","","562384","HierDym1rlp495","igivijld8a","msl000335","motor","","83","img/motor_2.png","83","motor","2","307","1","0","0","",""
"null","","562497","HierDym1rlp495","igivijld8a","msl000335","iti","","null","img/motor_2.png","83","motor","","","","","","",""
"437","","562947","HierDym1rlp495","igivijld8a","msl000335","motor","","75","img/motor_6.png","74","motor","6","308","0","1","0","",""
"204","","563162","HierDym1rlp495","igivijld8a","msl000335","motorRepeat","","74","img/motor_6.png","74","motor","6","308","1","0","0","",""
"null","","563275","HierDym1rlp495","igivijld8a","msl000335","iti","","null","img/motor_6.png","74","motor","","","","","","",""
"628","","563915","HierDym1rlp495","igivijld8a","msl000335","motor","","68","img/motor_3.png","68","motor","3","309","1","0","0","",""
"null","","564027","HierDym1rlp495","igivijld8a","msl000335","iti","","null","img/motor_3.png","68","motor","","","","","","",""
"524","","564562","HierDym1rlp495","igivijld8a","msl000335","motor","","75","img/motor_7.png","75","motor","7","310","1","0","0","",""
"null","","564675","HierDym1rlp495","igivijld8a","msl000335","iti","","null","img/motor_7.png","75","motor","","","","","","",""
"448","","565136","HierDym1rlp495","igivijld8a","msl000335","motor","","76","img/motor_8.png","76","motor","8","311","1","0","0","",""
"null","","565249","HierDym1rlp495","igivijld8a","msl000335","iti","","null","img/motor_8.png","76","motor","","","","","","",""
"591","","565852","HierDym1rlp495","igivijld8a","msl000335","motor","","70","img/motor_4.png","70","motor","4","312","1","0","0","",""
"null","","565965","HierDym1rlp495","igivijld8a","msl000335","iti","","null","img/motor_4.png","70","motor","","","","","","",""
"507","","566483","HierDym1rlp495","igivijld8a","msl000335","motor","","83","img/motor_2.png","83","motor","2","313","1","0","0","",""
"null","","566597","HierDym1rlp495","igivijld8a","msl000335","iti","","null","img/motor_2.png","83","motor","","","","","","",""
"366","","566976","HierDym1rlp495","igivijld8a","msl000335","motor","","72","img/motor_5.png","72","motor","5","314","1","0","0","",""
"null","","567090","HierDym1rlp495","igivijld8a","msl000335","iti","","null","img/motor_5.png","72","motor","","","","","","",""
"466","","567568","HierDym1rlp495","igivijld8a","msl000335","motor","","68","img/motor_4.png","70","motor","4","315","0","1","0","",""
"244","","567823","HierDym1rlp495","igivijld8a","msl000335","motorRepeat","","70","img/motor_4.png","70","motor","4","315","1","0","0","",""
"null","","567935","HierDym1rlp495","igivijld8a","msl000335","iti","","null","img/motor_4.png","70","motor","","","","","","",""
"563","","568511","HierDym1rlp495","igivijld8a","msl000335","motor","","74","img/motor_6.png","74","motor","6","316","1","0","0","",""
"null","","568623","HierDym1rlp495","igivijld8a","msl000335","iti","","null","img/motor_6.png","74","motor","","","","","","",""
"593","","569229","HierDym1rlp495","igivijld8a","msl000335","motor","","83","img/motor_2.png","83","motor","2","317","1","0","0","",""
"null","","569342","HierDym1rlp495","igivijld8a","msl000335","iti","","null","img/motor_2.png","83","motor","","","","","","",""
"448","","569802","HierDym1rlp495","igivijld8a","msl000335","motor","","76","img/motor_8.png","76","motor","8","318","1","0","0","",""
"null","","569915","HierDym1rlp495","igivijld8a","msl000335","iti","","null","img/motor_8.png","76","motor","","","","","","",""
"467","","570393","HierDym1rlp495","igivijld8a","msl000335","motor","","65","img/motor_1.png","65","motor","1","319","1","0","0","",""
"null","","570506","HierDym1rlp495","igivijld8a","msl000335","iti","","null","img/motor_1.png","65","motor","","","","","","",""
"642","","571161","HierDym1rlp495","igivijld8a","msl000335","motor","","70","img/motor_4.png","70","motor","4","320","1","0","0","",""
"null","","571274","HierDym1rlp495","igivijld8a","msl000335","iti","","null","img/motor_4.png","70","motor","","","","","","",""
"398","","571684","HierDym1rlp495","igivijld8a","msl000335","motor","","70","img/motor_4.png","70","motor","4","321","1","0","0","",""
"null","","571796","HierDym1rlp495","igivijld8a","msl000335","iti","","null","img/motor_4.png","70","motor","","","","","","",""
"456","","572264","HierDym1rlp495","igivijld8a","msl000335","motor","","83","img/motor_2.png","83","motor","2","322","1","0","0","",""
"null","","572377","HierDym1rlp495","igivijld8a","msl000335","iti","","null","img/motor_2.png","83","motor","","","","","","",""
"464","","572854","HierDym1rlp495","igivijld8a","msl000335","motor","","76","img/motor_8.png","76","motor","8","323","1","0","0","",""
"null","","572967","HierDym1rlp495","igivijld8a","msl000335","iti","","null","img/motor_8.png","76","motor","","","","","","",""
"533","","573512","HierDym1rlp495","igivijld8a","msl000335","motor","","75","img/motor_7.png","75","motor","7","324","1","0","0","",""
"null","","573626","HierDym1rlp495","igivijld8a","msl000335","iti","","null","img/motor_7.png","75","motor","","","","","","",""
"396","","574033","HierDym1rlp495","igivijld8a","msl000335","motor","","65","img/motor_1.png","65","motor","1","325","1","0","0","",""
"null","","574146","HierDym1rlp495","igivijld8a","msl000335","iti","","null","img/motor_1.png","65","motor","","","","","","",""
"383","","574541","HierDym1rlp495","igivijld8a","msl000335","motor","","75","img/motor_7.png","75","motor","7","326","1","0","0","",""
"null","","574654","HierDym1rlp495","igivijld8a","msl000335","iti","","null","img/motor_7.png","75","motor","","","","","","",""
"379","","575045","HierDym1rlp495","igivijld8a","msl000335","motor","","65","img/motor_1.png","65","motor","1","327","1","0","0","",""
"null","","575158","HierDym1rlp495","igivijld8a","msl000335","iti","","null","img/motor_1.png","65","motor","","","","","","",""
"492","","575662","HierDym1rlp495","igivijld8a","msl000335","motor","","74","img/motor_6.png","74","motor","6","328","1","0","0","",""
"null","","575775","HierDym1rlp495","igivijld8a","msl000335","iti","","null","img/motor_6.png","74","motor","","","","","","",""
"579","","576367","HierDym1rlp495","igivijld8a","msl000335","motor","","83","img/motor_2.png","83","motor","2","329","1","0","0","",""
"null","","576479","HierDym1rlp495","igivijld8a","msl000335","iti","","null","img/motor_2.png","83","motor","","","","","","",""
"546","","577038","HierDym1rlp495","igivijld8a","msl000335","motor","","65","img/motor_1.png","65","motor","1","330","1","0","0","",""
"null","","577150","HierDym1rlp495","igivijld8a","msl000335","iti","","null","img/motor_1.png","65","motor","","","","","","",""
"502","","577665","HierDym1rlp495","igivijld8a","msl000335","motor","","70","img/motor_3.png","68","motor","3","331","0","1","0","",""
"284","","577960","HierDym1rlp495","igivijld8a","msl000335","motorRepeat","","68","img/motor_3.png","68","motor","3","331","1","0","0","",""
"null","","578073","HierDym1rlp495","igivijld8a","msl000335","iti","","null","img/motor_3.png","68","motor","","","","","","",""
"618","","578703","HierDym1rlp495","igivijld8a","msl000335","motor","","75","img/motor_7.png","75","motor","7","332","1","0","0","",""
"null","","578815","HierDym1rlp495","igivijld8a","msl000335","iti","","null","img/motor_7.png","75","motor","","","","","","",""
"614","","579441","HierDym1rlp495","igivijld8a","msl000335","motor","","83","img/motor_2.png","83","motor","2","333","1","0","0","",""
"null","","579553","HierDym1rlp495","igivijld8a","msl000335","iti","","null","img/motor_2.png","83","motor","","","","","","",""
"512","","580079","HierDym1rlp495","igivijld8a","msl000335","motor","","65","img/motor_1.png","65","motor","1","334","1","0","0","",""
"null","","580191","HierDym1rlp495","igivijld8a","msl000335","iti","","null","img/motor_1.png","65","motor","","","","","","",""
"478","","580681","HierDym1rlp495","igivijld8a","msl000335","motor","","68","img/motor_3.png","68","motor","3","335","1","0","0","",""
"null","","580794","HierDym1rlp495","igivijld8a","msl000335","iti","","null","img/motor_3.png","68","motor","","","","","","",""
"446","","581253","HierDym1rlp495","igivijld8a","msl000335","motor","","83","img/motor_2.png","83","motor","2","336","1","0","0","",""
"null","","581366","HierDym1rlp495","igivijld8a","msl000335","iti","","null","img/motor_2.png","83","motor","","","","","","",""
"516","","581895","HierDym1rlp495","igivijld8a","msl000335","motor","","72","img/motor_5.png","72","motor","5","337","1","0","0","",""
"null","","582008","HierDym1rlp495","igivijld8a","msl000335","iti","","null","img/motor_5.png","72","motor","","","","","","",""
"417","","582436","HierDym1rlp495","igivijld8a","msl000335","motor","","75","img/motor_7.png","75","motor","7","338","1","0","0","",""
"null","","582550","HierDym1rlp495","igivijld8a","msl000335","iti","","null","img/motor_7.png","75","motor","","","","","","",""
"454","","583018","HierDym1rlp495","igivijld8a","msl000335","motor","","70","img/motor_4.png","70","motor","4","339","1","0","0","",""
"null","","583130","HierDym1rlp495","igivijld8a","msl000335","iti","","null","img/motor_4.png","70","motor","","","","","","",""
"507","","583651","HierDym1rlp495","igivijld8a","msl000335","motor","","74","img/motor_6.png","74","motor","6","340","1","0","0","",""
"null","","583763","HierDym1rlp495","igivijld8a","msl000335","iti","","null","img/motor_6.png","74","motor","","","","","","",""
"597","","584374","HierDym1rlp495","igivijld8a","msl000335","motor","","68","img/motor_3.png","68","motor","3","341","1","0","0","",""
"null","","584487","HierDym1rlp495","igivijld8a","msl000335","iti","","null","img/motor_3.png","68","motor","","","","","","",""
"444","","584943","HierDym1rlp495","igivijld8a","msl000335","motor","","65","img/motor_1.png","65","motor","1","342","1","0","0","",""
"null","","585056","HierDym1rlp495","igivijld8a","msl000335","iti","","null","img/motor_1.png","65","motor","","","","","","",""
"529","","585598","HierDym1rlp495","igivijld8a","msl000335","motor","","83","img/motor_2.png","83","motor","2","343","1","0","0","",""
"null","","585711","HierDym1rlp495","igivijld8a","msl000335","iti","","null","img/motor_2.png","83","motor","","","","","","",""
"577","","586300","HierDym1rlp495","igivijld8a","msl000335","motor","","74","img/motor_6.png","74","motor","6","344","1","0","0","",""
"null","","586413","HierDym1rlp495","igivijld8a","msl000335","iti","","null","img/motor_6.png","74","motor","","","","","","",""
"373","","586799","HierDym1rlp495","igivijld8a","msl000335","motor","","76","img/motor_8.png","76","motor","8","345","1","0","0","",""
"null","","586911","HierDym1rlp495","igivijld8a","msl000335","iti","","null","img/motor_8.png","76","motor","","","","","","",""
"552","","587479","HierDym1rlp495","igivijld8a","msl000335","motor","","70","img/motor_4.png","70","motor","4","346","1","0","0","",""
"null","","587592","HierDym1rlp495","igivijld8a","msl000335","iti","","null","img/motor_4.png","70","motor","","","","","","",""
"462","","588069","HierDym1rlp495","igivijld8a","msl000335","motor","","75","img/motor_7.png","75","motor","7","347","1","0","0","",""
"null","","588182","HierDym1rlp495","igivijld8a","msl000335","iti","","null","img/motor_7.png","75","motor","","","","","","",""
"593","","588787","HierDym1rlp495","igivijld8a","msl000335","motor","","83","img/motor_2.png","83","motor","2","348","1","0","0","",""
"null","","588900","HierDym1rlp495","igivijld8a","msl000335","iti","","null","img/motor_2.png","83","motor","","","","","","",""
"425","","589338","HierDym1rlp495","igivijld8a","msl000335","motor","","76","img/motor_8.png","76","motor","8","349","1","0","0","",""
"null","","589451","HierDym1rlp495","igivijld8a","msl000335","iti","","null","img/motor_8.png","76","motor","","","","","","",""
"492","","589955","HierDym1rlp495","igivijld8a","msl000335","motor","","65","img/motor_1.png","65","motor","1","350","1","0","0","",""
"null","","590069","HierDym1rlp495","igivijld8a","msl000335","iti","","null","img/motor_1.png","65","motor","","","","","","",""
"333","","590413","HierDym1rlp495","igivijld8a","msl000335","motor","","76","img/motor_8.png","76","motor","8","351","1","0","0","",""
"null","","590526","HierDym1rlp495","igivijld8a","msl000335","iti","","null","img/motor_8.png","76","motor","","","","","","",""
"607","","591144","HierDym1rlp495","igivijld8a","msl000335","motor","","68","img/motor_3.png","68","motor","3","352","1","0","0","",""
"null","","591257","HierDym1rlp495","igivijld8a","msl000335","iti","","null","img/motor_3.png","68","motor","","","","","","",""
"455","","591725","HierDym1rlp495","igivijld8a","msl000335","motor","","68","img/motor_3.png","68","motor","3","353","1","0","0","",""
"null","","591838","HierDym1rlp495","igivijld8a","msl000335","iti","","null","img/motor_3.png","68","motor","","","","","","",""
"533","","592383","HierDym1rlp495","igivijld8a","msl000335","motor","","65","img/motor_1.png","65","motor","1","354","1","0","0","",""
"null","","592496","HierDym1rlp495","igivijld8a","msl000335","iti","","null","img/motor_1.png","65","motor","","","","","","",""
"539","","593047","HierDym1rlp495","igivijld8a","msl000335","motor","","74","img/motor_6.png","74","motor","6","355","1","0","0","",""
"null","","593159","HierDym1rlp495","igivijld8a","msl000335","iti","","null","img/motor_6.png","74","motor","","","","","","",""
"377","","593547","HierDym1rlp495","igivijld8a","msl000335","motor","","74","img/motor_6.png","74","motor","6","356","1","0","0","",""
"null","","593661","HierDym1rlp495","igivijld8a","msl000335","iti","","null","img/motor_6.png","74","motor","","","","","","",""
"513","","594186","HierDym1rlp495","igivijld8a","msl000335","motor","","83","img/motor_2.png","83","motor","2","357","1","0","0","",""
"null","","594299","HierDym1rlp495","igivijld8a","msl000335","iti","","null","img/motor_2.png","83","motor","","","","","","",""
"498","","594810","HierDym1rlp495","igivijld8a","msl000335","motor","","70","img/motor_4.png","70","motor","4","358","1","0","0","",""
"null","","594922","HierDym1rlp495","igivijld8a","msl000335","iti","","null","img/motor_4.png","70","motor","","","","","","",""
"324","","595259","HierDym1rlp495","igivijld8a","msl000335","motor","","65","img/motor_1.png","65","motor","1","359","1","0","0","",""
"null","","595372","HierDym1rlp495","igivijld8a","msl000335","iti","","null","img/motor_1.png","65","motor","","","","","","",""
"543","","595927","HierDym1rlp495","igivijld8a","msl000335","motor","","75","img/motor_7.png","75","motor","7","360","1","0","0","",""
"null","","596039","HierDym1rlp495","igivijld8a","msl000335","iti","","null","img/motor_7.png","75","motor","","","","","","",""
"531","","596584","HierDym1rlp495","igivijld8a","msl000335","motor","","83","img/motor_2.png","83","motor","2","361","1","0","0","",""
"null","","596696","HierDym1rlp495","igivijld8a","msl000335","iti","","null","img/motor_2.png","83","motor","","","","","","",""
"442","","597150","HierDym1rlp495","igivijld8a","msl000335","motor","","75","img/motor_7.png","75","motor","7","362","1","0","0","",""
"null","","597263","HierDym1rlp495","igivijld8a","msl000335","iti","","null","img/motor_7.png","75","motor","","","","","","",""
"389","","597665","HierDym1rlp495","igivijld8a","msl000335","motor","","72","img/motor_5.png","72","motor","5","363","1","0","0","",""
"null","","597777","HierDym1rlp495","igivijld8a","msl000335","iti","","null","img/motor_5.png","72","motor","","","","","","",""
"335","","598125","HierDym1rlp495","igivijld8a","msl000335","motor","","75","img/motor_7.png","75","motor","7","364","1","0","0","",""
