"rt","responses","time_elapsed","subject","prolificID","demoID","trialType","question_order","key_press","stim","corrresp","phase","stimNum","trialNum","corr","repeatTrial","motorSwitch","pracCounter","hierarchy"
"24382","{""Q0"":""ms1000340""}","24423","HierDyzjgxa46w","luavm70zy3","ms1000340","","","","","","","","","","","","",""
"2603","","27039","HierDyzjgxa46w","luavm70zy3","ms1000340","","","","","","","","","","","","",""
"","","29599","HierDyzjgxa46w","luavm70zy3","ms1000340","fullscreen","","","","","","","","","","","",""
"13143","{""Vision"":""Yes"",""Handedness"":""Right"",""Gender"":""male""}","42754","HierDyzjgxa46w","luavm70zy3","ms1000340","","[0,1,2]","","","","","","","","","","",""
"4243","{""Q0"":""23""}","47009","HierDyzjgxa46w","luavm70zy3","ms1000340","","","","","","","","","","","","",""
"77114","","124137","HierDyzjgxa46w","luavm70zy3","ms1000340","","","","","","","","","","","","",""
"872","","125023","HierDyzjgxa46w","luavm70zy3","ms1000340","motor","","70","img/motor_4.png","70","motor","4","1","1","0","0","",""
"null","","125136","HierDyzjgxa46w","luavm70zy3","ms1000340","iti","","null","img/motor_4.png","70","motor","","","","","","",""
"697","","125846","HierDyzjgxa46w","luavm70zy3","ms1000340","motor","","65","img/motor_1.png","65","motor","1","2","1","0","0","",""
"null","","125958","HierDyzjgxa46w","luavm70zy3","ms1000340","iti","","null","img/motor_1.png","65","motor","","","","","","",""
"690","","126659","HierDyzjgxa46w","luavm70zy3","ms1000340","motor","","65","img/motor_1.png","65","motor","1","3","1","0","0","",""
"null","","126771","HierDyzjgxa46w","luavm70zy3","ms1000340","iti","","null","img/motor_1.png","65","motor","","","","","","",""
"712","","127495","HierDyzjgxa46w","luavm70zy3","ms1000340","motor","","72","img/motor_5.png","72","motor","5","4","1","0","0","",""
"null","","127607","HierDyzjgxa46w","luavm70zy3","ms1000340","iti","","null","img/motor_5.png","72","motor","","","","","","",""
"664","","128283","HierDyzjgxa46w","luavm70zy3","ms1000340","motor","","76","img/motor_8.png","76","motor","8","5","1","0","0","",""
"null","","128396","HierDyzjgxa46w","luavm70zy3","ms1000340","iti","","null","img/motor_8.png","76","motor","","","","","","",""
"643","","129051","HierDyzjgxa46w","luavm70zy3","ms1000340","motor","","72","img/motor_5.png","72","motor","5","6","1","0","0","",""
"null","","129163","HierDyzjgxa46w","luavm70zy3","ms1000340","iti","","null","img/motor_5.png","72","motor","","","","","","",""
"588","","129764","HierDyzjgxa46w","luavm70zy3","ms1000340","motor","","65","img/motor_1.png","65","motor","1","7","1","0","0","",""
"null","","129876","HierDyzjgxa46w","luavm70zy3","ms1000340","iti","","null","img/motor_1.png","65","motor","","","","","","",""
"628","","130515","HierDyzjgxa46w","luavm70zy3","ms1000340","motor","","72","img/motor_5.png","72","motor","5","8","1","0","0","",""
"null","","130627","HierDyzjgxa46w","luavm70zy3","ms1000340","iti","","null","img/motor_5.png","72","motor","","","","","","",""
"636","","131276","HierDyzjgxa46w","luavm70zy3","ms1000340","motor","","74","img/motor_6.png","74","motor","6","9","1","0","0","",""
"null","","131388","HierDyzjgxa46w","luavm70zy3","ms1000340","iti","","null","img/motor_6.png","74","motor","","","","","","",""
"587","","131987","HierDyzjgxa46w","luavm70zy3","ms1000340","motor","","76","img/motor_8.png","76","motor","8","10","1","0","0","",""
"null","","132100","HierDyzjgxa46w","luavm70zy3","ms1000340","iti","","null","img/motor_8.png","76","motor","","","","","","",""
"561","","132673","HierDyzjgxa46w","luavm70zy3","ms1000340","motor","","75","img/motor_7.png","75","motor","7","11","1","0","0","",""
"null","","132790","HierDyzjgxa46w","luavm70zy3","ms1000340","iti","","null","img/motor_7.png","75","motor","","","","","","",""
"623","","133430","HierDyzjgxa46w","luavm70zy3","ms1000340","motor","","83","img/motor_2.png","83","motor","2","12","1","0","0","",""
"null","","133542","HierDyzjgxa46w","luavm70zy3","ms1000340","iti","","null","img/motor_2.png","83","motor","","","","","","",""
"612","","134166","HierDyzjgxa46w","luavm70zy3","ms1000340","motor","","72","img/motor_5.png","72","motor","5","13","1","0","0","",""
"null","","134278","HierDyzjgxa46w","luavm70zy3","ms1000340","iti","","null","img/motor_5.png","72","motor","","","","","","",""
"569","","134859","HierDyzjgxa46w","luavm70zy3","ms1000340","motor","","70","img/motor_4.png","70","motor","4","14","1","0","0","",""
"null","","134971","HierDyzjgxa46w","luavm70zy3","ms1000340","iti","","null","img/motor_4.png","70","motor","","","","","","",""
"560","","135544","HierDyzjgxa46w","luavm70zy3","ms1000340","motor","","65","img/motor_1.png","65","motor","1","15","1","0","0","",""
"null","","135658","HierDyzjgxa46w","luavm70zy3","ms1000340","iti","","null","img/motor_1.png","65","motor","","","","","","",""
"762","","136432","HierDyzjgxa46w","luavm70zy3","ms1000340","motor","","68","img/motor_3.png","68","motor","3","16","1","0","0","",""
"null","","136545","HierDyzjgxa46w","luavm70zy3","ms1000340","iti","","null","img/motor_3.png","68","motor","","","","","","",""
"574","","137133","HierDyzjgxa46w","luavm70zy3","ms1000340","motor","","75","img/motor_7.png","75","motor","7","17","1","0","0","",""
"null","","137246","HierDyzjgxa46w","luavm70zy3","ms1000340","iti","","null","img/motor_7.png","75","motor","","","","","","",""
"612","","137869","HierDyzjgxa46w","luavm70zy3","ms1000340","motor","","83","img/motor_2.png","83","motor","2","18","1","0","0","",""
"null","","137982","HierDyzjgxa46w","luavm70zy3","ms1000340","iti","","null","img/motor_2.png","83","motor","","","","","","",""
"693","","138688","HierDyzjgxa46w","luavm70zy3","ms1000340","motor","","83","img/motor_2.png","83","motor","2","19","1","0","0","",""
"null","","138800","HierDyzjgxa46w","luavm70zy3","ms1000340","iti","","null","img/motor_2.png","83","motor","","","","","","",""
"592","","139403","HierDyzjgxa46w","luavm70zy3","ms1000340","motor","","68","img/motor_3.png","68","motor","3","20","1","0","0","",""
"null","","139515","HierDyzjgxa46w","luavm70zy3","ms1000340","iti","","null","img/motor_3.png","68","motor","","","","","","",""
"617","","140144","HierDyzjgxa46w","luavm70zy3","ms1000340","motor","","72","img/motor_5.png","72","motor","5","21","1","0","0","",""
"null","","140257","HierDyzjgxa46w","luavm70zy3","ms1000340","iti","","null","img/motor_5.png","72","motor","","","","","","",""
"573","","140840","HierDyzjgxa46w","luavm70zy3","ms1000340","motor","","76","img/motor_8.png","76","motor","8","22","1","0","0","",""
"null","","140953","HierDyzjgxa46w","luavm70zy3","ms1000340","iti","","null","img/motor_8.png","76","motor","","","","","","",""
"742","","141709","HierDyzjgxa46w","luavm70zy3","ms1000340","motor","","70","img/motor_4.png","70","motor","4","23","1","0","0","",""
"null","","141822","HierDyzjgxa46w","luavm70zy3","ms1000340","iti","","null","img/motor_4.png","70","motor","","","","","","",""
"534","","142368","HierDyzjgxa46w","luavm70zy3","ms1000340","motor","","70","img/motor_4.png","70","motor","4","24","1","0","0","",""
"null","","142480","HierDyzjgxa46w","luavm70zy3","ms1000340","iti","","null","img/motor_4.png","70","motor","","","","","","",""
"596","","143089","HierDyzjgxa46w","luavm70zy3","ms1000340","motor","","68","img/motor_3.png","68","motor","3","25","1","0","0","",""
"null","","143201","HierDyzjgxa46w","luavm70zy3","ms1000340","iti","","null","img/motor_3.png","68","motor","","","","","","",""
"588","","143800","HierDyzjgxa46w","luavm70zy3","ms1000340","motor","","76","img/motor_8.png","76","motor","8","26","1","0","0","",""
"null","","143913","HierDyzjgxa46w","luavm70zy3","ms1000340","iti","","null","img/motor_8.png","76","motor","","","","","","",""
"472","","144396","HierDyzjgxa46w","luavm70zy3","ms1000340","motor","","72","img/motor_5.png","72","motor","5","27","1","0","0","",""
"null","","144509","HierDyzjgxa46w","luavm70zy3","ms1000340","iti","","null","img/motor_5.png","72","motor","","","","","","",""
"562","","145084","HierDyzjgxa46w","luavm70zy3","ms1000340","motor","","72","img/motor_5.png","72","motor","5","28","1","0","0","",""
"null","","145197","HierDyzjgxa46w","luavm70zy3","ms1000340","iti","","null","img/motor_5.png","72","motor","","","","","","",""
"548","","145757","HierDyzjgxa46w","luavm70zy3","ms1000340","motor","","74","img/motor_6.png","74","motor","6","29","1","0","0","",""
"null","","145869","HierDyzjgxa46w","luavm70zy3","ms1000340","iti","","null","img/motor_6.png","74","motor","","","","","","",""
"573","","146454","HierDyzjgxa46w","luavm70zy3","ms1000340","motor","","72","img/motor_5.png","72","motor","5","30","1","0","0","",""
"null","","146567","HierDyzjgxa46w","luavm70zy3","ms1000340","iti","","null","img/motor_5.png","72","motor","","","","","","",""
"649","","147226","HierDyzjgxa46w","luavm70zy3","ms1000340","motor","","68","img/motor_3.png","68","motor","3","31","1","0","0","",""
"null","","147339","HierDyzjgxa46w","luavm70zy3","ms1000340","iti","","null","img/motor_3.png","68","motor","","","","","","",""
"514","","147864","HierDyzjgxa46w","luavm70zy3","ms1000340","motor","","72","img/motor_5.png","72","motor","5","32","1","0","0","",""
"null","","147975","HierDyzjgxa46w","luavm70zy3","ms1000340","iti","","null","img/motor_5.png","72","motor","","","","","","",""
"501","","148487","HierDyzjgxa46w","luavm70zy3","ms1000340","motor","","68","img/motor_3.png","68","motor","3","33","1","0","0","",""
"null","","148599","HierDyzjgxa46w","luavm70zy3","ms1000340","iti","","null","img/motor_3.png","68","motor","","","","","","",""
"536","","149147","HierDyzjgxa46w","luavm70zy3","ms1000340","motor","","65","img/motor_1.png","65","motor","1","34","1","0","0","",""
"null","","149263","HierDyzjgxa46w","luavm70zy3","ms1000340","iti","","null","img/motor_1.png","65","motor","","","","","","",""
"504","","149779","HierDyzjgxa46w","luavm70zy3","ms1000340","motor","","83","img/motor_2.png","83","motor","2","35","1","0","0","",""
"null","","149892","HierDyzjgxa46w","luavm70zy3","ms1000340","iti","","null","img/motor_2.png","83","motor","","","","","","",""
"543","","150447","HierDyzjgxa46w","luavm70zy3","ms1000340","motor","","83","img/motor_2.png","83","motor","2","36","1","0","0","",""
"null","","150561","HierDyzjgxa46w","luavm70zy3","ms1000340","iti","","null","img/motor_2.png","83","motor","","","","","","",""
"597","","151169","HierDyzjgxa46w","luavm70zy3","ms1000340","motor","","76","img/motor_8.png","76","motor","8","37","1","0","0","",""
"null","","151282","HierDyzjgxa46w","luavm70zy3","ms1000340","iti","","null","img/motor_8.png","76","motor","","","","","","",""
"602","","151897","HierDyzjgxa46w","luavm70zy3","ms1000340","motor","","68","img/motor_3.png","68","motor","3","38","1","0","0","",""
"null","","152010","HierDyzjgxa46w","luavm70zy3","ms1000340","iti","","null","img/motor_3.png","68","motor","","","","","","",""
"530","","152552","HierDyzjgxa46w","luavm70zy3","ms1000340","motor","","74","img/motor_6.png","74","motor","6","39","1","0","0","",""
"null","","152665","HierDyzjgxa46w","luavm70zy3","ms1000340","iti","","null","img/motor_6.png","74","motor","","","","","","",""
"584","","153261","HierDyzjgxa46w","luavm70zy3","ms1000340","motor","","68","img/motor_3.png","68","motor","3","40","1","0","0","",""
"null","","153373","HierDyzjgxa46w","luavm70zy3","ms1000340","iti","","null","img/motor_3.png","68","motor","","","","","","",""
"489","","153875","HierDyzjgxa46w","luavm70zy3","ms1000340","motor","","83","img/motor_2.png","83","motor","2","41","1","0","0","",""
"null","","153987","HierDyzjgxa46w","luavm70zy3","ms1000340","iti","","null","img/motor_2.png","83","motor","","","","","","",""
"562","","154560","HierDyzjgxa46w","luavm70zy3","ms1000340","motor","","68","img/motor_3.png","68","motor","3","42","1","0","0","",""
"null","","154672","HierDyzjgxa46w","luavm70zy3","ms1000340","iti","","null","img/motor_3.png","68","motor","","","","","","",""
"540","","155223","HierDyzjgxa46w","luavm70zy3","ms1000340","motor","","65","img/motor_1.png","65","motor","1","43","1","0","0","",""
"null","","155335","HierDyzjgxa46w","luavm70zy3","ms1000340","iti","","null","img/motor_1.png","65","motor","","","","","","",""
"609","","155956","HierDyzjgxa46w","luavm70zy3","ms1000340","motor","","83","img/motor_2.png","83","motor","2","44","1","0","0","",""
"null","","156068","HierDyzjgxa46w","luavm70zy3","ms1000340","iti","","null","img/motor_2.png","83","motor","","","","","","",""
"530","","156608","HierDyzjgxa46w","luavm70zy3","ms1000340","motor","","65","img/motor_1.png","65","motor","1","45","1","0","0","",""
"null","","156720","HierDyzjgxa46w","luavm70zy3","ms1000340","iti","","null","img/motor_1.png","65","motor","","","","","","",""
"629","","157362","HierDyzjgxa46w","luavm70zy3","ms1000340","motor","","72","img/motor_5.png","72","motor","5","46","1","0","0","",""
"null","","157474","HierDyzjgxa46w","luavm70zy3","ms1000340","iti","","null","img/motor_5.png","72","motor","","","","","","",""
"534","","158020","HierDyzjgxa46w","luavm70zy3","ms1000340","motor","","65","img/motor_1.png","65","motor","1","47","1","0","0","",""
"null","","158132","HierDyzjgxa46w","luavm70zy3","ms1000340","iti","","null","img/motor_1.png","65","motor","","","","","","",""
"565","","158710","HierDyzjgxa46w","luavm70zy3","ms1000340","motor","","76","img/motor_8.png","76","motor","8","48","1","0","0","",""
"null","","158822","HierDyzjgxa46w","luavm70zy3","ms1000340","iti","","null","img/motor_8.png","76","motor","","","","","","",""
"558","","159392","HierDyzjgxa46w","luavm70zy3","ms1000340","motor","","74","img/motor_6.png","74","motor","6","49","1","0","0","",""
"null","","159505","HierDyzjgxa46w","luavm70zy3","ms1000340","iti","","null","img/motor_6.png","74","motor","","","","","","",""
"562","","160079","HierDyzjgxa46w","luavm70zy3","ms1000340","motor","","65","img/motor_1.png","65","motor","1","50","1","0","0","",""
"null","","160192","HierDyzjgxa46w","luavm70zy3","ms1000340","iti","","null","img/motor_1.png","65","motor","","","","","","",""
"562","","160766","HierDyzjgxa46w","luavm70zy3","ms1000340","motor","","76","img/motor_8.png","76","motor","8","51","1","0","0","",""
"null","","160879","HierDyzjgxa46w","luavm70zy3","ms1000340","iti","","null","img/motor_8.png","76","motor","","","","","","",""
"693","","161584","HierDyzjgxa46w","luavm70zy3","ms1000340","motor","","70","img/motor_4.png","70","motor","4","52","1","0","0","",""
"null","","161697","HierDyzjgxa46w","luavm70zy3","ms1000340","iti","","null","img/motor_4.png","70","motor","","","","","","",""
"600","","162308","HierDyzjgxa46w","luavm70zy3","ms1000340","motor","","72","img/motor_5.png","72","motor","5","53","1","0","0","",""
"null","","162421","HierDyzjgxa46w","luavm70zy3","ms1000340","iti","","null","img/motor_5.png","72","motor","","","","","","",""
"538","","162969","HierDyzjgxa46w","luavm70zy3","ms1000340","motor","","72","img/motor_5.png","72","motor","5","54","1","0","0","",""
"null","","163082","HierDyzjgxa46w","luavm70zy3","ms1000340","iti","","null","img/motor_5.png","72","motor","","","","","","",""
"582","","163676","HierDyzjgxa46w","luavm70zy3","ms1000340","motor","","75","img/motor_7.png","75","motor","7","55","1","0","0","",""
"null","","163787","HierDyzjgxa46w","luavm70zy3","ms1000340","iti","","null","img/motor_7.png","75","motor","","","","","","",""
"550","","164349","HierDyzjgxa46w","luavm70zy3","ms1000340","motor","","65","img/motor_1.png","65","motor","1","56","1","0","0","",""
"null","","164462","HierDyzjgxa46w","luavm70zy3","ms1000340","iti","","null","img/motor_1.png","65","motor","","","","","","",""
"590","","165063","HierDyzjgxa46w","luavm70zy3","ms1000340","motor","","74","img/motor_6.png","74","motor","6","57","1","0","0","",""
"null","","165176","HierDyzjgxa46w","luavm70zy3","ms1000340","iti","","null","img/motor_6.png","74","motor","","","","","","",""
"558","","165744","HierDyzjgxa46w","luavm70zy3","ms1000340","motor","","76","img/motor_8.png","76","motor","8","58","1","0","0","",""
"null","","165856","HierDyzjgxa46w","luavm70zy3","ms1000340","iti","","null","img/motor_8.png","76","motor","","","","","","",""
"544","","166411","HierDyzjgxa46w","luavm70zy3","ms1000340","motor","","83","img/motor_2.png","83","motor","2","59","1","0","0","",""
"null","","166524","HierDyzjgxa46w","luavm70zy3","ms1000340","iti","","null","img/motor_2.png","83","motor","","","","","","",""
"527","","167063","HierDyzjgxa46w","luavm70zy3","ms1000340","motor","","65","img/motor_1.png","65","motor","1","60","1","0","0","",""
"null","","167175","HierDyzjgxa46w","luavm70zy3","ms1000340","iti","","null","img/motor_1.png","65","motor","","","","","","",""
"663","","167850","HierDyzjgxa46w","luavm70zy3","ms1000340","motor","","70","img/motor_4.png","70","motor","4","61","1","0","0","",""
"null","","167963","HierDyzjgxa46w","luavm70zy3","ms1000340","iti","","null","img/motor_4.png","70","motor","","","","","","",""
"492","","168467","HierDyzjgxa46w","luavm70zy3","ms1000340","motor","","83","img/motor_2.png","83","motor","2","62","1","0","0","",""
"null","","168579","HierDyzjgxa46w","luavm70zy3","ms1000340","iti","","null","img/motor_2.png","83","motor","","","","","","",""
"574","","169165","HierDyzjgxa46w","luavm70zy3","ms1000340","motor","","68","img/motor_3.png","68","motor","3","63","1","0","0","",""
"null","","169278","HierDyzjgxa46w","luavm70zy3","ms1000340","iti","","null","img/motor_3.png","68","motor","","","","","","",""
"533","","169821","HierDyzjgxa46w","luavm70zy3","ms1000340","motor","","70","img/motor_4.png","70","motor","4","64","1","0","0","",""
"null","","169934","HierDyzjgxa46w","luavm70zy3","ms1000340","iti","","null","img/motor_4.png","70","motor","","","","","","",""
"539","","170484","HierDyzjgxa46w","luavm70zy3","ms1000340","motor","","74","img/motor_6.png","74","motor","6","65","1","0","0","",""
"null","","170597","HierDyzjgxa46w","luavm70zy3","ms1000340","iti","","null","img/motor_6.png","74","motor","","","","","","",""
"503","","171112","HierDyzjgxa46w","luavm70zy3","ms1000340","motor","","83","img/motor_2.png","83","motor","2","66","1","0","0","",""
"null","","171224","HierDyzjgxa46w","luavm70zy3","ms1000340","iti","","null","img/motor_2.png","83","motor","","","","","","",""
"532","","171768","HierDyzjgxa46w","luavm70zy3","ms1000340","motor","","74","img/motor_6.png","74","motor","6","67","1","0","0","",""
"null","","171880","HierDyzjgxa46w","luavm70zy3","ms1000340","iti","","null","img/motor_6.png","74","motor","","","","","","",""
"548","","172441","HierDyzjgxa46w","luavm70zy3","ms1000340","motor","","76","img/motor_8.png","76","motor","8","68","1","0","0","",""
"null","","172554","HierDyzjgxa46w","luavm70zy3","ms1000340","iti","","null","img/motor_8.png","76","motor","","","","","","",""
"492","","173058","HierDyzjgxa46w","luavm70zy3","ms1000340","motor","","75","img/motor_7.png","75","motor","7","69","1","0","0","",""
"null","","173170","HierDyzjgxa46w","luavm70zy3","ms1000340","iti","","null","img/motor_7.png","75","motor","","","","","","",""
"480","","173662","HierDyzjgxa46w","luavm70zy3","ms1000340","motor","","75","img/motor_7.png","75","motor","7","70","1","0","0","",""
"null","","173774","HierDyzjgxa46w","luavm70zy3","ms1000340","iti","","null","img/motor_7.png","75","motor","","","","","","",""
"587","","174372","HierDyzjgxa46w","luavm70zy3","ms1000340","motor","","83","img/motor_2.png","83","motor","2","71","1","0","0","",""
"null","","174486","HierDyzjgxa46w","luavm70zy3","ms1000340","iti","","null","img/motor_2.png","83","motor","","","","","","",""
"617","","175118","HierDyzjgxa46w","luavm70zy3","ms1000340","motor","","75","img/motor_7.png","75","motor","7","72","1","0","0","",""
"null","","175230","HierDyzjgxa46w","luavm70zy3","ms1000340","iti","","null","img/motor_7.png","75","motor","","","","","","",""
"560","","175802","HierDyzjgxa46w","luavm70zy3","ms1000340","motor","","70","img/motor_4.png","70","motor","4","73","1","0","0","",""
"null","","175915","HierDyzjgxa46w","luavm70zy3","ms1000340","iti","","null","img/motor_4.png","70","motor","","","","","","",""
"502","","176432","HierDyzjgxa46w","luavm70zy3","ms1000340","motor","","72","img/motor_5.png","72","motor","5","74","1","0","0","",""
"null","","176545","HierDyzjgxa46w","luavm70zy3","ms1000340","iti","","null","img/motor_5.png","72","motor","","","","","","",""
"485","","177042","HierDyzjgxa46w","luavm70zy3","ms1000340","motor","","83","img/motor_2.png","83","motor","2","75","1","0","0","",""
"null","","177156","HierDyzjgxa46w","luavm70zy3","ms1000340","iti","","null","img/motor_2.png","83","motor","","","","","","",""
"527","","177693","HierDyzjgxa46w","luavm70zy3","ms1000340","motor","","75","img/motor_7.png","75","motor","7","76","1","0","0","",""
"null","","177806","HierDyzjgxa46w","luavm70zy3","ms1000340","iti","","null","img/motor_7.png","75","motor","","","","","","",""
"533","","178350","HierDyzjgxa46w","luavm70zy3","ms1000340","motor","","76","img/motor_8.png","76","motor","8","77","1","0","0","",""
"null","","178462","HierDyzjgxa46w","luavm70zy3","ms1000340","iti","","null","img/motor_8.png","76","motor","","","","","","",""
"513","","178987","HierDyzjgxa46w","luavm70zy3","ms1000340","motor","","65","img/motor_1.png","65","motor","1","78","1","0","0","",""
"null","","179101","HierDyzjgxa46w","luavm70zy3","ms1000340","iti","","null","img/motor_1.png","65","motor","","","","","","",""
"543","","179654","HierDyzjgxa46w","luavm70zy3","ms1000340","motor","","74","img/motor_6.png","74","motor","6","79","1","0","0","",""
"null","","179768","HierDyzjgxa46w","luavm70zy3","ms1000340","iti","","null","img/motor_6.png","74","motor","","","","","","",""
"603","","180383","HierDyzjgxa46w","luavm70zy3","ms1000340","motor","","68","img/motor_3.png","68","motor","3","80","1","0","0","",""
"null","","180496","HierDyzjgxa46w","luavm70zy3","ms1000340","iti","","null","img/motor_3.png","68","motor","","","","","","",""
"556","","181063","HierDyzjgxa46w","luavm70zy3","ms1000340","motor","","76","img/motor_8.png","76","motor","8","81","1","0","0","",""
"null","","181177","HierDyzjgxa46w","luavm70zy3","ms1000340","iti","","null","img/motor_8.png","76","motor","","","","","","",""
"510","","181698","HierDyzjgxa46w","luavm70zy3","ms1000340","motor","","65","img/motor_1.png","65","motor","1","82","1","0","0","",""
"null","","181811","HierDyzjgxa46w","luavm70zy3","ms1000340","iti","","null","img/motor_1.png","65","motor","","","","","","",""
"546","","182368","HierDyzjgxa46w","luavm70zy3","ms1000340","motor","","83","img/motor_2.png","83","motor","2","83","1","0","0","",""
"null","","182481","HierDyzjgxa46w","luavm70zy3","ms1000340","iti","","null","img/motor_2.png","83","motor","","","","","","",""
"543","","183035","HierDyzjgxa46w","luavm70zy3","ms1000340","motor","","76","img/motor_8.png","76","motor","8","84","1","0","0","",""
"null","","183149","HierDyzjgxa46w","luavm70zy3","ms1000340","iti","","null","img/motor_8.png","76","motor","","","","","","",""
"457","","183618","HierDyzjgxa46w","luavm70zy3","ms1000340","motor","","83","img/motor_2.png","83","motor","2","85","1","0","0","",""
"null","","183731","HierDyzjgxa46w","luavm70zy3","ms1000340","iti","","null","img/motor_2.png","83","motor","","","","","","",""
"550","","184293","HierDyzjgxa46w","luavm70zy3","ms1000340","motor","","74","img/motor_6.png","74","motor","6","86","1","0","0","",""
"null","","184406","HierDyzjgxa46w","luavm70zy3","ms1000340","iti","","null","img/motor_6.png","74","motor","","","","","","",""
"469","","184887","HierDyzjgxa46w","luavm70zy3","ms1000340","motor","","72","img/motor_5.png","72","motor","5","87","1","0","0","",""
"null","","185000","HierDyzjgxa46w","luavm70zy3","ms1000340","iti","","null","img/motor_5.png","72","motor","","","","","","",""
"493","","185505","HierDyzjgxa46w","luavm70zy3","ms1000340","motor","","74","img/motor_6.png","74","motor","6","88","1","0","0","",""
"null","","185618","HierDyzjgxa46w","luavm70zy3","ms1000340","iti","","null","img/motor_6.png","74","motor","","","","","","",""
"574","","186204","HierDyzjgxa46w","luavm70zy3","ms1000340","motor","","70","img/motor_4.png","70","motor","4","89","1","0","0","",""
"null","","186317","HierDyzjgxa46w","luavm70zy3","ms1000340","iti","","null","img/motor_4.png","70","motor","","","","","","",""
"465","","186796","HierDyzjgxa46w","luavm70zy3","ms1000340","motor","","70","img/motor_4.png","70","motor","4","90","1","0","0","",""
"null","","186908","HierDyzjgxa46w","luavm70zy3","ms1000340","iti","","null","img/motor_4.png","70","motor","","","","","","",""
"580","","187501","HierDyzjgxa46w","luavm70zy3","ms1000340","motor","","75","img/motor_7.png","75","motor","7","91","1","0","0","",""
"null","","187614","HierDyzjgxa46w","luavm70zy3","ms1000340","iti","","null","img/motor_7.png","75","motor","","","","","","",""
"476","","188102","HierDyzjgxa46w","luavm70zy3","ms1000340","motor","","70","img/motor_4.png","70","motor","4","92","1","0","0","",""
"null","","188216","HierDyzjgxa46w","luavm70zy3","ms1000340","iti","","null","img/motor_4.png","70","motor","","","","","","",""
"533","","188760","HierDyzjgxa46w","luavm70zy3","ms1000340","motor","","68","img/motor_3.png","68","motor","3","93","1","0","0","",""
"null","","188873","HierDyzjgxa46w","luavm70zy3","ms1000340","iti","","null","img/motor_3.png","68","motor","","","","","","",""
"527","","189412","HierDyzjgxa46w","luavm70zy3","ms1000340","motor","","68","img/motor_3.png","68","motor","3","94","1","0","0","",""
"null","","189524","HierDyzjgxa46w","luavm70zy3","ms1000340","iti","","null","img/motor_3.png","68","motor","","","","","","",""
"529","","190064","HierDyzjgxa46w","luavm70zy3","ms1000340","motor","","83","img/motor_2.png","83","motor","2","95","1","0","0","",""
"null","","190177","HierDyzjgxa46w","luavm70zy3","ms1000340","iti","","null","img/motor_2.png","83","motor","","","","","","",""
"511","","190703","HierDyzjgxa46w","luavm70zy3","ms1000340","motor","","65","img/motor_1.png","65","motor","1","96","1","0","0","",""
"null","","190816","HierDyzjgxa46w","luavm70zy3","ms1000340","iti","","null","img/motor_1.png","65","motor","","","","","","",""
"517","","191343","HierDyzjgxa46w","luavm70zy3","ms1000340","motor","","76","img/motor_8.png","76","motor","8","97","1","0","0","",""
"null","","191457","HierDyzjgxa46w","luavm70zy3","ms1000340","iti","","null","img/motor_8.png","76","motor","","","","","","",""
"487","","191956","HierDyzjgxa46w","luavm70zy3","ms1000340","motor","","83","img/motor_2.png","83","motor","2","98","1","0","0","",""
"null","","192068","HierDyzjgxa46w","luavm70zy3","ms1000340","iti","","null","img/motor_2.png","83","motor","","","","","","",""
"485","","192565","HierDyzjgxa46w","luavm70zy3","ms1000340","motor","","83","img/motor_2.png","83","motor","2","99","1","0","0","",""
"null","","192678","HierDyzjgxa46w","luavm70zy3","ms1000340","iti","","null","img/motor_2.png","83","motor","","","","","","",""
"534","","193226","HierDyzjgxa46w","luavm70zy3","ms1000340","motor","","75","img/motor_7.png","75","motor","7","100","1","0","0","",""
"null","","193339","HierDyzjgxa46w","luavm70zy3","ms1000340","iti","","null","img/motor_7.png","75","motor","","","","","","",""
"457","","193806","HierDyzjgxa46w","luavm70zy3","ms1000340","motor","","76","img/motor_8.png","76","motor","8","101","1","0","0","",""
"null","","193919","HierDyzjgxa46w","luavm70zy3","ms1000340","iti","","null","img/motor_8.png","76","motor","","","","","","",""
"520","","194451","HierDyzjgxa46w","luavm70zy3","ms1000340","motor","","74","img/motor_6.png","74","motor","6","102","1","0","0","",""
"null","","194563","HierDyzjgxa46w","luavm70zy3","ms1000340","iti","","null","img/motor_6.png","74","motor","","","","","","",""
"472","","195048","HierDyzjgxa46w","luavm70zy3","ms1000340","motor","","70","img/motor_4.png","70","motor","4","103","1","0","0","",""
"null","","195160","HierDyzjgxa46w","luavm70zy3","ms1000340","iti","","null","img/motor_4.png","70","motor","","","","","","",""
"466","","195638","HierDyzjgxa46w","luavm70zy3","ms1000340","motor","","74","img/motor_6.png","74","motor","6","104","1","0","0","",""
"null","","195752","HierDyzjgxa46w","luavm70zy3","ms1000340","iti","","null","img/motor_6.png","74","motor","","","","","","",""
"474","","196237","HierDyzjgxa46w","luavm70zy3","ms1000340","motor","","72","img/motor_5.png","72","motor","5","105","1","0","0","",""
"null","","196350","HierDyzjgxa46w","luavm70zy3","ms1000340","iti","","null","img/motor_5.png","72","motor","","","","","","",""
"501","","196863","HierDyzjgxa46w","luavm70zy3","ms1000340","motor","","70","img/motor_4.png","70","motor","4","106","1","0","0","",""
"null","","196976","HierDyzjgxa46w","luavm70zy3","ms1000340","iti","","null","img/motor_4.png","70","motor","","","","","","",""
"507","","197496","HierDyzjgxa46w","luavm70zy3","ms1000340","motor","","68","img/motor_3.png","68","motor","3","107","1","0","0","",""
"null","","197609","HierDyzjgxa46w","luavm70zy3","ms1000340","iti","","null","img/motor_3.png","68","motor","","","","","","",""
"503","","198123","HierDyzjgxa46w","luavm70zy3","ms1000340","motor","","65","img/motor_1.png","65","motor","1","108","1","0","0","",""
"null","","198236","HierDyzjgxa46w","luavm70zy3","ms1000340","iti","","null","img/motor_1.png","65","motor","","","","","","",""
"541","","198789","HierDyzjgxa46w","luavm70zy3","ms1000340","motor","","74","img/motor_6.png","74","motor","6","109","1","0","0","",""
"null","","198902","HierDyzjgxa46w","luavm70zy3","ms1000340","iti","","null","img/motor_6.png","74","motor","","","","","","",""
"467","","199380","HierDyzjgxa46w","luavm70zy3","ms1000340","motor","","70","img/motor_4.png","70","motor","4","110","1","0","0","",""
"null","","199494","HierDyzjgxa46w","luavm70zy3","ms1000340","iti","","null","img/motor_4.png","70","motor","","","","","","",""
"528","","200033","HierDyzjgxa46w","luavm70zy3","ms1000340","motor","","76","img/motor_8.png","76","motor","8","111","1","0","0","",""
"null","","200146","HierDyzjgxa46w","luavm70zy3","ms1000340","iti","","null","img/motor_8.png","76","motor","","","","","","",""
"507","","200665","HierDyzjgxa46w","luavm70zy3","ms1000340","motor","","74","img/motor_6.png","74","motor","6","112","1","0","0","",""
"null","","200777","HierDyzjgxa46w","luavm70zy3","ms1000340","iti","","null","img/motor_6.png","74","motor","","","","","","",""
"495","","201283","HierDyzjgxa46w","luavm70zy3","ms1000340","motor","","76","img/motor_8.png","76","motor","8","113","1","0","0","",""
"null","","201396","HierDyzjgxa46w","luavm70zy3","ms1000340","iti","","null","img/motor_8.png","76","motor","","","","","","",""
"520","","201927","HierDyzjgxa46w","luavm70zy3","ms1000340","motor","","83","img/motor_3.png","68","motor","3","114","0","1","0","",""
"398","","202335","HierDyzjgxa46w","luavm70zy3","ms1000340","motorRepeat","","68","img/motor_3.png","68","motor","3","114","1","0","0","",""
"null","","202449","HierDyzjgxa46w","luavm70zy3","ms1000340","iti","","null","img/motor_3.png","68","motor","","","","","","",""
"438","","202898","HierDyzjgxa46w","luavm70zy3","ms1000340","motor","","76","img/motor_8.png","76","motor","8","115","1","0","0","",""
"null","","203012","HierDyzjgxa46w","luavm70zy3","ms1000340","iti","","null","img/motor_8.png","76","motor","","","","","","",""
"652","","203676","HierDyzjgxa46w","luavm70zy3","ms1000340","motor","","75","img/motor_7.png","75","motor","7","116","1","0","0","",""
"null","","203788","HierDyzjgxa46w","luavm70zy3","ms1000340","iti","","null","img/motor_7.png","75","motor","","","","","","",""
"488","","204289","HierDyzjgxa46w","luavm70zy3","ms1000340","motor","","72","img/motor_5.png","72","motor","5","117","1","0","0","",""
"null","","204400","HierDyzjgxa46w","luavm70zy3","ms1000340","iti","","null","img/motor_5.png","72","motor","","","","","","",""
"627","","205039","HierDyzjgxa46w","luavm70zy3","ms1000340","motor","","68","img/motor_3.png","68","motor","3","118","1","0","0","",""
"null","","205152","HierDyzjgxa46w","luavm70zy3","ms1000340","iti","","null","img/motor_3.png","68","motor","","","","","","",""
"507","","205671","HierDyzjgxa46w","luavm70zy3","ms1000340","motor","","72","img/motor_5.png","72","motor","5","119","1","0","0","",""
"null","","205784","HierDyzjgxa46w","luavm70zy3","ms1000340","iti","","null","img/motor_5.png","72","motor","","","","","","",""
"474","","206269","HierDyzjgxa46w","luavm70zy3","ms1000340","motor","","75","img/motor_7.png","75","motor","7","120","1","0","0","",""
"null","","206382","HierDyzjgxa46w","luavm70zy3","ms1000340","iti","","null","img/motor_7.png","75","motor","","","","","","",""
"497","","206891","HierDyzjgxa46w","luavm70zy3","ms1000340","motor","","65","img/motor_1.png","65","motor","1","121","1","0","0","",""
"null","","207003","HierDyzjgxa46w","luavm70zy3","ms1000340","iti","","null","img/motor_1.png","65","motor","","","","","","",""
"489","","207504","HierDyzjgxa46w","luavm70zy3","ms1000340","motor","","65","img/motor_1.png","65","motor","1","122","1","0","0","",""
"null","","207616","HierDyzjgxa46w","luavm70zy3","ms1000340","iti","","null","img/motor_1.png","65","motor","","","","","","",""
"534","","208161","HierDyzjgxa46w","luavm70zy3","ms1000340","motor","","83","img/motor_2.png","83","motor","2","123","1","0","0","",""
"null","","208274","HierDyzjgxa46w","luavm70zy3","ms1000340","iti","","null","img/motor_2.png","83","motor","","","","","","",""
"508","","208794","HierDyzjgxa46w","luavm70zy3","ms1000340","motor","","70","img/motor_4.png","70","motor","4","124","1","0","0","",""
"null","","208906","HierDyzjgxa46w","luavm70zy3","ms1000340","iti","","null","img/motor_4.png","70","motor","","","","","","",""
"517","","209436","HierDyzjgxa46w","luavm70zy3","ms1000340","motor","","75","img/motor_7.png","75","motor","7","125","1","0","0","",""
"null","","209547","HierDyzjgxa46w","luavm70zy3","ms1000340","iti","","null","img/motor_7.png","75","motor","","","","","","",""
"522","","210081","HierDyzjgxa46w","luavm70zy3","ms1000340","motor","","74","img/motor_6.png","74","motor","6","126","1","0","0","",""
"null","","210194","HierDyzjgxa46w","luavm70zy3","ms1000340","iti","","null","img/motor_6.png","74","motor","","","","","","",""
"473","","210678","HierDyzjgxa46w","luavm70zy3","ms1000340","motor","","72","img/motor_5.png","72","motor","5","127","1","0","0","",""
"null","","210790","HierDyzjgxa46w","luavm70zy3","ms1000340","iti","","null","img/motor_5.png","72","motor","","","","","","",""
"505","","211307","HierDyzjgxa46w","luavm70zy3","ms1000340","motor","","74","img/motor_6.png","74","motor","6","128","1","0","0","",""
"null","","211420","HierDyzjgxa46w","luavm70zy3","ms1000340","iti","","null","img/motor_6.png","74","motor","","","","","","",""
"468","","211899","HierDyzjgxa46w","luavm70zy3","ms1000340","motor","","83","img/motor_2.png","83","motor","2","129","1","0","0","",""
"null","","212012","HierDyzjgxa46w","luavm70zy3","ms1000340","iti","","null","img/motor_2.png","83","motor","","","","","","",""
"571","","212594","HierDyzjgxa46w","luavm70zy3","ms1000340","motor","","76","img/motor_8.png","76","motor","8","130","1","0","0","",""
"null","","212708","HierDyzjgxa46w","luavm70zy3","ms1000340","iti","","null","img/motor_8.png","76","motor","","","","","","",""
"509","","213229","HierDyzjgxa46w","luavm70zy3","ms1000340","motor","","76","img/motor_8.png","76","motor","8","131","1","0","0","",""
"null","","213342","HierDyzjgxa46w","luavm70zy3","ms1000340","iti","","null","img/motor_8.png","76","motor","","","","","","",""
"502","","213854","HierDyzjgxa46w","luavm70zy3","ms1000340","motor","","75","img/motor_7.png","75","motor","7","132","1","0","0","",""
"null","","213967","HierDyzjgxa46w","luavm70zy3","ms1000340","iti","","null","img/motor_7.png","75","motor","","","","","","",""
"488","","214466","HierDyzjgxa46w","luavm70zy3","ms1000340","motor","","65","img/motor_1.png","65","motor","1","133","1","0","0","",""
"null","","214579","HierDyzjgxa46w","luavm70zy3","ms1000340","iti","","null","img/motor_1.png","65","motor","","","","","","",""
"544","","215135","HierDyzjgxa46w","luavm70zy3","ms1000340","motor","","72","img/motor_5.png","72","motor","5","134","1","0","0","",""
"null","","215249","HierDyzjgxa46w","luavm70zy3","ms1000340","iti","","null","img/motor_5.png","72","motor","","","","","","",""
"686","","215948","HierDyzjgxa46w","luavm70zy3","ms1000340","motor","","76","img/motor_8.png","76","motor","8","135","1","0","0","",""
"null","","216060","HierDyzjgxa46w","luavm70zy3","ms1000340","iti","","null","img/motor_8.png","76","motor","","","","","","",""
"574","","216645","HierDyzjgxa46w","luavm70zy3","ms1000340","motor","","70","img/motor_4.png","70","motor","4","136","1","0","0","",""
"null","","216759","HierDyzjgxa46w","luavm70zy3","ms1000340","iti","","null","img/motor_4.png","70","motor","","","","","","",""
"466","","217237","HierDyzjgxa46w","luavm70zy3","ms1000340","motor","","75","img/motor_7.png","75","motor","7","137","1","0","0","",""
"null","","217350","HierDyzjgxa46w","luavm70zy3","ms1000340","iti","","null","img/motor_7.png","75","motor","","","","","","",""
"531","","217893","HierDyzjgxa46w","luavm70zy3","ms1000340","motor","","83","img/motor_2.png","83","motor","2","138","1","0","0","",""
"null","","218006","HierDyzjgxa46w","luavm70zy3","ms1000340","iti","","null","img/motor_2.png","83","motor","","","","","","",""
"504","","218521","HierDyzjgxa46w","luavm70zy3","ms1000340","motor","","75","img/motor_7.png","75","motor","7","139","1","0","0","",""
"null","","218634","HierDyzjgxa46w","luavm70zy3","ms1000340","iti","","null","img/motor_7.png","75","motor","","","","","","",""
"521","","219166","HierDyzjgxa46w","luavm70zy3","ms1000340","motor","","76","img/motor_8.png","76","motor","8","140","1","0","0","",""
"null","","219279","HierDyzjgxa46w","luavm70zy3","ms1000340","iti","","null","img/motor_8.png","76","motor","","","","","","",""
"624","","219915","HierDyzjgxa46w","luavm70zy3","ms1000340","motor","","70","img/motor_4.png","70","motor","4","141","1","0","0","",""
"null","","220029","HierDyzjgxa46w","luavm70zy3","ms1000340","iti","","null","img/motor_4.png","70","motor","","","","","","",""
"507","","220548","HierDyzjgxa46w","luavm70zy3","ms1000340","motor","","74","img/motor_6.png","74","motor","6","142","1","0","0","",""
"null","","220662","HierDyzjgxa46w","luavm70zy3","ms1000340","iti","","null","img/motor_6.png","74","motor","","","","","","",""
"421","","221095","HierDyzjgxa46w","luavm70zy3","ms1000340","motor","","74","img/motor_6.png","74","motor","6","143","1","0","0","",""
"null","","221208","HierDyzjgxa46w","luavm70zy3","ms1000340","iti","","null","img/motor_6.png","74","motor","","","","","","",""
"150","","221370","HierDyzjgxa46w","luavm70zy3","ms1000340","motor","","74","img/motor_3.png","68","motor","3","144","0","1","0","",""
"435","","221816","HierDyzjgxa46w","luavm70zy3","ms1000340","motorRepeat","","68","img/motor_3.png","68","motor","3","144","1","0","0","",""
"null","","221929","HierDyzjgxa46w","luavm70zy3","ms1000340","iti","","null","img/motor_3.png","68","motor","","","","","","",""
"547","","222488","HierDyzjgxa46w","luavm70zy3","ms1000340","motor","","75","img/motor_7.png","75","motor","7","145","1","0","0","",""
"null","","222600","HierDyzjgxa46w","luavm70zy3","ms1000340","iti","","null","img/motor_7.png","75","motor","","","","","","",""
"599","","223210","HierDyzjgxa46w","luavm70zy3","ms1000340","motor","","68","img/motor_3.png","68","motor","3","146","1","0","0","",""
"null","","223324","HierDyzjgxa46w","luavm70zy3","ms1000340","iti","","null","img/motor_3.png","68","motor","","","","","","",""
"887","","224222","HierDyzjgxa46w","luavm70zy3","ms1000340","motor","","68","img/motor_3.png","68","motor","3","147","1","0","0","",""
"null","","224335","HierDyzjgxa46w","luavm70zy3","ms1000340","iti","","null","img/motor_3.png","68","motor","","","","","","",""
"560","","224907","HierDyzjgxa46w","luavm70zy3","ms1000340","motor","","75","img/motor_7.png","75","motor","7","148","1","0","0","",""
"null","","225020","HierDyzjgxa46w","luavm70zy3","ms1000340","iti","","null","img/motor_7.png","75","motor","","","","","","",""
"651","","225684","HierDyzjgxa46w","luavm70zy3","ms1000340","motor","","83","img/motor_2.png","83","motor","2","149","1","0","0","",""
"null","","225796","HierDyzjgxa46w","luavm70zy3","ms1000340","iti","","null","img/motor_2.png","83","motor","","","","","","",""
"480","","226288","HierDyzjgxa46w","luavm70zy3","ms1000340","motor","","83","img/motor_2.png","83","motor","2","150","1","0","0","",""
"null","","226401","HierDyzjgxa46w","luavm70zy3","ms1000340","iti","","null","img/motor_2.png","83","motor","","","","","","",""
"650","","227064","HierDyzjgxa46w","luavm70zy3","ms1000340","motor","","74","img/motor_6.png","74","motor","6","151","1","0","0","",""
"null","","227178","HierDyzjgxa46w","luavm70zy3","ms1000340","iti","","null","img/motor_6.png","74","motor","","","","","","",""
"448","","227636","HierDyzjgxa46w","luavm70zy3","ms1000340","motor","","74","img/motor_6.png","74","motor","6","152","1","0","0","",""
"null","","227748","HierDyzjgxa46w","luavm70zy3","ms1000340","iti","","null","img/motor_6.png","74","motor","","","","","","",""
"583","","228344","HierDyzjgxa46w","luavm70zy3","ms1000340","motor","","75","img/motor_7.png","75","motor","7","153","1","0","0","",""
"null","","228457","HierDyzjgxa46w","luavm70zy3","ms1000340","iti","","null","img/motor_7.png","75","motor","","","","","","",""
"513","","228981","HierDyzjgxa46w","luavm70zy3","ms1000340","motor","","76","img/motor_8.png","76","motor","8","154","1","0","0","",""
"null","","229093","HierDyzjgxa46w","luavm70zy3","ms1000340","iti","","null","img/motor_8.png","76","motor","","","","","","",""
"541","","229647","HierDyzjgxa46w","luavm70zy3","ms1000340","motor","","72","img/motor_5.png","72","motor","5","155","1","0","0","",""
"null","","229760","HierDyzjgxa46w","luavm70zy3","ms1000340","iti","","null","img/motor_5.png","72","motor","","","","","","",""
"487","","230258","HierDyzjgxa46w","luavm70zy3","ms1000340","motor","","75","img/motor_7.png","75","motor","7","156","1","0","0","",""
"null","","230372","HierDyzjgxa46w","luavm70zy3","ms1000340","iti","","null","img/motor_7.png","75","motor","","","","","","",""
"513","","230897","HierDyzjgxa46w","luavm70zy3","ms1000340","motor","","75","img/motor_7.png","75","motor","7","157","1","0","0","",""
"null","","231011","HierDyzjgxa46w","luavm70zy3","ms1000340","iti","","null","img/motor_7.png","75","motor","","","","","","",""
"507","","231529","HierDyzjgxa46w","luavm70zy3","ms1000340","motor","","72","img/motor_5.png","72","motor","5","158","1","0","0","",""
"null","","231642","HierDyzjgxa46w","luavm70zy3","ms1000340","iti","","null","img/motor_5.png","72","motor","","","","","","",""
"512","","232165","HierDyzjgxa46w","luavm70zy3","ms1000340","motor","","72","img/motor_5.png","72","motor","5","159","1","0","0","",""
"null","","232279","HierDyzjgxa46w","luavm70zy3","ms1000340","iti","","null","img/motor_5.png","72","motor","","","","","","",""
"503","","232794","HierDyzjgxa46w","luavm70zy3","ms1000340","motor","","75","img/motor_7.png","75","motor","7","160","1","0","0","",""
"null","","232906","HierDyzjgxa46w","luavm70zy3","ms1000340","iti","","null","img/motor_7.png","75","motor","","","","","","",""
"538","","233456","HierDyzjgxa46w","luavm70zy3","ms1000340","motor","","72","img/motor_5.png","72","motor","5","161","1","0","0","",""
"null","","233568","HierDyzjgxa46w","luavm70zy3","ms1000340","iti","","null","img/motor_5.png","72","motor","","","","","","",""
"571","","234151","HierDyzjgxa46w","luavm70zy3","ms1000340","motor","","83","img/motor_2.png","83","motor","2","162","1","0","0","",""
"null","","234264","HierDyzjgxa46w","luavm70zy3","ms1000340","iti","","null","img/motor_2.png","83","motor","","","","","","",""
"488","","234765","HierDyzjgxa46w","luavm70zy3","ms1000340","motor","","65","img/motor_1.png","65","motor","1","163","1","0","0","",""
"null","","234878","HierDyzjgxa46w","luavm70zy3","ms1000340","iti","","null","img/motor_1.png","65","motor","","","","","","",""
"527","","235417","HierDyzjgxa46w","luavm70zy3","ms1000340","motor","","83","img/motor_2.png","83","motor","2","164","1","0","0","",""
"null","","235529","HierDyzjgxa46w","luavm70zy3","ms1000340","iti","","null","img/motor_2.png","83","motor","","","","","","",""
"643","","236185","HierDyzjgxa46w","luavm70zy3","ms1000340","motor","","68","img/motor_3.png","68","motor","3","165","1","0","0","",""
"null","","236299","HierDyzjgxa46w","luavm70zy3","ms1000340","iti","","null","img/motor_3.png","68","motor","","","","","","",""
"622","","236933","HierDyzjgxa46w","luavm70zy3","ms1000340","motor","","83","img/motor_2.png","83","motor","2","166","1","0","0","",""
"null","","237046","HierDyzjgxa46w","luavm70zy3","ms1000340","iti","","null","img/motor_2.png","83","motor","","","","","","",""
"606","","237663","HierDyzjgxa46w","luavm70zy3","ms1000340","motor","","68","img/motor_3.png","68","motor","3","167","1","0","0","",""
"null","","237776","HierDyzjgxa46w","luavm70zy3","ms1000340","iti","","null","img/motor_3.png","68","motor","","","","","","",""
"508","","238296","HierDyzjgxa46w","luavm70zy3","ms1000340","motor","","65","img/motor_1.png","65","motor","1","168","1","0","0","",""
"null","","238409","HierDyzjgxa46w","luavm70zy3","ms1000340","iti","","null","img/motor_1.png","65","motor","","","","","","",""
"794","","239216","HierDyzjgxa46w","luavm70zy3","ms1000340","motor","","76","img/motor_8.png","76","motor","8","169","1","0","0","",""
"null","","239328","HierDyzjgxa46w","luavm70zy3","ms1000340","iti","","null","img/motor_8.png","76","motor","","","","","","",""
"497","","239837","HierDyzjgxa46w","luavm70zy3","ms1000340","motor","","83","img/motor_2.png","83","motor","2","170","1","0","0","",""
"null","","239949","HierDyzjgxa46w","luavm70zy3","ms1000340","iti","","null","img/motor_2.png","83","motor","","","","","","",""
"572","","240535","HierDyzjgxa46w","luavm70zy3","ms1000340","motor","","72","img/motor_5.png","72","motor","5","171","1","0","0","",""
"null","","240647","HierDyzjgxa46w","luavm70zy3","ms1000340","iti","","null","img/motor_5.png","72","motor","","","","","","",""
"512","","241171","HierDyzjgxa46w","luavm70zy3","ms1000340","motor","","75","img/motor_7.png","75","motor","7","172","1","0","0","",""
"null","","241285","HierDyzjgxa46w","luavm70zy3","ms1000340","iti","","null","img/motor_7.png","75","motor","","","","","","",""
"697","","241994","HierDyzjgxa46w","luavm70zy3","ms1000340","motor","","70","img/motor_4.png","70","motor","4","173","1","0","0","",""
"null","","242105","HierDyzjgxa46w","luavm70zy3","ms1000340","iti","","null","img/motor_4.png","70","motor","","","","","","",""
"604","","242722","HierDyzjgxa46w","luavm70zy3","ms1000340","motor","","76","img/motor_8.png","76","motor","8","174","1","0","0","",""
"null","","242833","HierDyzjgxa46w","luavm70zy3","ms1000340","iti","","null","img/motor_8.png","76","motor","","","","","","",""
"584","","243429","HierDyzjgxa46w","luavm70zy3","ms1000340","motor","","65","img/motor_1.png","65","motor","1","175","1","0","0","",""
"null","","243542","HierDyzjgxa46w","luavm70zy3","ms1000340","iti","","null","img/motor_1.png","65","motor","","","","","","",""
"611","","244166","HierDyzjgxa46w","luavm70zy3","ms1000340","motor","","75","img/motor_7.png","75","motor","7","176","1","0","0","",""
"null","","244280","HierDyzjgxa46w","luavm70zy3","ms1000340","iti","","null","img/motor_7.png","75","motor","","","","","","",""
"658","","244950","HierDyzjgxa46w","luavm70zy3","ms1000340","motor","","68","img/motor_3.png","68","motor","3","177","1","0","0","",""
"null","","245064","HierDyzjgxa46w","luavm70zy3","ms1000340","iti","","null","img/motor_3.png","68","motor","","","","","","",""
"546","","245622","HierDyzjgxa46w","luavm70zy3","ms1000340","motor","","74","img/motor_6.png","74","motor","6","178","1","0","0","",""
"null","","245735","HierDyzjgxa46w","luavm70zy3","ms1000340","iti","","null","img/motor_6.png","74","motor","","","","","","",""
"563","","246311","HierDyzjgxa46w","luavm70zy3","ms1000340","motor","","75","img/motor_7.png","75","motor","7","179","1","0","0","",""
"null","","246423","HierDyzjgxa46w","luavm70zy3","ms1000340","iti","","null","img/motor_7.png","75","motor","","","","","","",""
"698","","247133","HierDyzjgxa46w","luavm70zy3","ms1000340","motor","","74","img/motor_6.png","74","motor","6","180","1","0","0","",""
"null","","247246","HierDyzjgxa46w","luavm70zy3","ms1000340","iti","","null","img/motor_6.png","74","motor","","","","","","",""
"617","","247873","HierDyzjgxa46w","luavm70zy3","ms1000340","motor","","83","img/motor_2.png","83","motor","2","181","1","0","0","",""
"null","","247986","HierDyzjgxa46w","luavm70zy3","ms1000340","iti","","null","img/motor_2.png","83","motor","","","","","","",""
"517","","248515","HierDyzjgxa46w","luavm70zy3","ms1000340","motor","","75","img/motor_7.png","75","motor","7","182","1","0","0","",""
"null","","248627","HierDyzjgxa46w","luavm70zy3","ms1000340","iti","","null","img/motor_7.png","75","motor","","","","","","",""
"604","","249243","HierDyzjgxa46w","luavm70zy3","ms1000340","motor","","76","img/motor_8.png","76","motor","8","183","1","0","0","",""
"null","","249355","HierDyzjgxa46w","luavm70zy3","ms1000340","iti","","null","img/motor_8.png","76","motor","","","","","","",""
"534","","249900","HierDyzjgxa46w","luavm70zy3","ms1000340","motor","","74","img/motor_6.png","74","motor","6","184","1","0","0","",""
"null","","250014","HierDyzjgxa46w","luavm70zy3","ms1000340","iti","","null","img/motor_6.png","74","motor","","","","","","",""
"543","","250568","HierDyzjgxa46w","luavm70zy3","ms1000340","motor","","75","img/motor_7.png","75","motor","7","185","1","0","0","",""
"null","","250681","HierDyzjgxa46w","luavm70zy3","ms1000340","iti","","null","img/motor_7.png","75","motor","","","","","","",""
"606","","251300","HierDyzjgxa46w","luavm70zy3","ms1000340","motor","","65","img/motor_1.png","65","motor","1","186","1","0","0","",""
"null","","251413","HierDyzjgxa46w","luavm70zy3","ms1000340","iti","","null","img/motor_1.png","65","motor","","","","","","",""
"612","","252038","HierDyzjgxa46w","luavm70zy3","ms1000340","motor","","75","img/motor_7.png","75","motor","7","187","1","0","0","",""
"null","","252149","HierDyzjgxa46w","luavm70zy3","ms1000340","iti","","null","img/motor_7.png","75","motor","","","","","","",""
"685","","252846","HierDyzjgxa46w","luavm70zy3","ms1000340","motor","","68","img/motor_3.png","68","motor","3","188","1","0","0","",""
"null","","252959","HierDyzjgxa46w","luavm70zy3","ms1000340","iti","","null","img/motor_3.png","68","motor","","","","","","",""
"567","","253537","HierDyzjgxa46w","luavm70zy3","ms1000340","motor","","72","img/motor_5.png","72","motor","5","189","1","0","0","",""
"null","","253651","HierDyzjgxa46w","luavm70zy3","ms1000340","iti","","null","img/motor_5.png","72","motor","","","","","","",""
"553","","254215","HierDyzjgxa46w","luavm70zy3","ms1000340","motor","","70","img/motor_4.png","70","motor","4","190","1","0","0","",""
"null","","254329","HierDyzjgxa46w","luavm70zy3","ms1000340","iti","","null","img/motor_4.png","70","motor","","","","","","",""
"636","","254980","HierDyzjgxa46w","luavm70zy3","ms1000340","motor","","76","img/motor_8.png","76","motor","8","191","1","0","0","",""
"null","","255092","HierDyzjgxa46w","luavm70zy3","ms1000340","iti","","null","img/motor_8.png","76","motor","","","","","","",""
"575","","255680","HierDyzjgxa46w","luavm70zy3","ms1000340","motor","","75","img/motor_7.png","75","motor","7","192","1","0","0","",""
"null","","255794","HierDyzjgxa46w","luavm70zy3","ms1000340","iti","","null","img/motor_7.png","75","motor","","","","","","",""
"511","","256318","HierDyzjgxa46w","luavm70zy3","ms1000340","motor","","70","img/motor_4.png","70","motor","4","193","1","0","0","",""
"null","","256430","HierDyzjgxa46w","luavm70zy3","ms1000340","iti","","null","img/motor_4.png","70","motor","","","","","","",""
"647","","257090","HierDyzjgxa46w","luavm70zy3","ms1000340","motor","","76","img/motor_8.png","76","motor","8","194","1","0","0","",""
"null","","257203","HierDyzjgxa46w","luavm70zy3","ms1000340","iti","","null","img/motor_8.png","76","motor","","","","","","",""
"589","","257804","HierDyzjgxa46w","luavm70zy3","ms1000340","motor","","76","img/motor_8.png","76","motor","8","195","1","0","0","",""
"null","","257917","HierDyzjgxa46w","luavm70zy3","ms1000340","iti","","null","img/motor_8.png","76","motor","","","","","","",""
"590","","258519","HierDyzjgxa46w","luavm70zy3","ms1000340","motor","","72","img/motor_5.png","72","motor","5","196","1","0","0","",""
"null","","258632","HierDyzjgxa46w","luavm70zy3","ms1000340","iti","","null","img/motor_5.png","72","motor","","","","","","",""
"714","","259357","HierDyzjgxa46w","luavm70zy3","ms1000340","motor","","76","img/motor_8.png","76","motor","8","197","1","0","0","",""
"null","","259470","HierDyzjgxa46w","luavm70zy3","ms1000340","iti","","null","img/motor_8.png","76","motor","","","","","","",""
"511","","259994","HierDyzjgxa46w","luavm70zy3","ms1000340","motor","","75","img/motor_7.png","75","motor","7","198","1","0","0","",""
"null","","260107","HierDyzjgxa46w","luavm70zy3","ms1000340","iti","","null","img/motor_7.png","75","motor","","","","","","",""
"527","","260647","HierDyzjgxa46w","luavm70zy3","ms1000340","motor","","83","img/motor_2.png","83","motor","2","199","1","0","0","",""
"null","","260760","HierDyzjgxa46w","luavm70zy3","ms1000340","iti","","null","img/motor_2.png","83","motor","","","","","","",""
"583","","261356","HierDyzjgxa46w","luavm70zy3","ms1000340","motor","","70","img/motor_4.png","70","motor","4","200","1","0","0","",""
"null","","261469","HierDyzjgxa46w","luavm70zy3","ms1000340","iti","","null","img/motor_4.png","70","motor","","","","","","",""
"536","","262018","HierDyzjgxa46w","luavm70zy3","ms1000340","motor","","68","img/motor_3.png","68","motor","3","201","1","0","0","",""
"null","","262130","HierDyzjgxa46w","luavm70zy3","ms1000340","iti","","null","img/motor_3.png","68","motor","","","","","","",""
"487","","262630","HierDyzjgxa46w","luavm70zy3","ms1000340","motor","","75","img/motor_7.png","75","motor","7","202","1","0","0","",""
"null","","262742","HierDyzjgxa46w","luavm70zy3","ms1000340","iti","","null","img/motor_7.png","75","motor","","","","","","",""
"462","","263216","HierDyzjgxa46w","luavm70zy3","ms1000340","motor","","83","img/motor_2.png","83","motor","2","203","1","0","0","",""
"null","","263329","HierDyzjgxa46w","luavm70zy3","ms1000340","iti","","null","img/motor_2.png","83","motor","","","","","","",""
"638","","263979","HierDyzjgxa46w","luavm70zy3","ms1000340","motor","","68","img/motor_3.png","68","motor","3","204","1","0","0","",""
"null","","264092","HierDyzjgxa46w","luavm70zy3","ms1000340","iti","","null","img/motor_3.png","68","motor","","","","","","",""
"575","","264680","HierDyzjgxa46w","luavm70zy3","ms1000340","motor","","74","img/motor_6.png","74","motor","6","205","1","0","0","",""
"null","","264793","HierDyzjgxa46w","luavm70zy3","ms1000340","iti","","null","img/motor_6.png","74","motor","","","","","","",""
"572","","265377","HierDyzjgxa46w","luavm70zy3","ms1000340","motor","","70","img/motor_4.png","70","motor","4","206","1","0","0","",""
"null","","265490","HierDyzjgxa46w","luavm70zy3","ms1000340","iti","","null","img/motor_4.png","70","motor","","","","","","",""
"498","","266001","HierDyzjgxa46w","luavm70zy3","ms1000340","motor","","76","img/motor_8.png","76","motor","8","207","1","0","0","",""
"null","","266114","HierDyzjgxa46w","luavm70zy3","ms1000340","iti","","null","img/motor_8.png","76","motor","","","","","","",""
"534","","266662","HierDyzjgxa46w","luavm70zy3","ms1000340","motor","","83","img/motor_2.png","83","motor","2","208","1","0","0","",""
"null","","266774","HierDyzjgxa46w","luavm70zy3","ms1000340","iti","","null","img/motor_2.png","83","motor","","","","","","",""
"422","","267209","HierDyzjgxa46w","luavm70zy3","ms1000340","motor","","72","img/motor_5.png","72","motor","5","209","1","0","0","",""
"null","","267321","HierDyzjgxa46w","luavm70zy3","ms1000340","iti","","null","img/motor_5.png","72","motor","","","","","","",""
"528","","267861","HierDyzjgxa46w","luavm70zy3","ms1000340","motor","","83","img/motor_2.png","83","motor","2","210","1","0","0","",""
"null","","267973","HierDyzjgxa46w","luavm70zy3","ms1000340","iti","","null","img/motor_2.png","83","motor","","","","","","",""
"499","","268484","HierDyzjgxa46w","luavm70zy3","ms1000340","motor","","72","img/motor_5.png","72","motor","5","211","1","0","0","",""
"null","","268596","HierDyzjgxa46w","luavm70zy3","ms1000340","iti","","null","img/motor_5.png","72","motor","","","","","","",""
"586","","269196","HierDyzjgxa46w","luavm70zy3","ms1000340","motor","","74","img/motor_6.png","74","motor","6","212","1","0","0","",""
"null","","269309","HierDyzjgxa46w","luavm70zy3","ms1000340","iti","","null","img/motor_6.png","74","motor","","","","","","",""
"557","","269877","HierDyzjgxa46w","luavm70zy3","ms1000340","motor","","72","img/motor_5.png","72","motor","5","213","1","0","0","",""
"null","","269991","HierDyzjgxa46w","luavm70zy3","ms1000340","iti","","null","img/motor_5.png","72","motor","","","","","","",""
"512","","270515","HierDyzjgxa46w","luavm70zy3","ms1000340","motor","","68","img/motor_3.png","68","motor","3","214","1","0","0","",""
"null","","270628","HierDyzjgxa46w","luavm70zy3","ms1000340","iti","","null","img/motor_3.png","68","motor","","","","","","",""
"522","","271163","HierDyzjgxa46w","luavm70zy3","ms1000340","motor","","70","img/motor_4.png","70","motor","4","215","1","0","0","",""
"null","","271276","HierDyzjgxa46w","luavm70zy3","ms1000340","iti","","null","img/motor_4.png","70","motor","","","","","","",""
"501","","271789","HierDyzjgxa46w","luavm70zy3","ms1000340","motor","","72","img/motor_5.png","72","motor","5","216","1","0","0","",""
"null","","271903","HierDyzjgxa46w","luavm70zy3","ms1000340","iti","","null","img/motor_5.png","72","motor","","","","","","",""
"557","","272470","HierDyzjgxa46w","luavm70zy3","ms1000340","motor","","75","img/motor_7.png","75","motor","7","217","1","0","0","",""
"null","","272584","HierDyzjgxa46w","luavm70zy3","ms1000340","iti","","null","img/motor_7.png","75","motor","","","","","","",""
"574","","273169","HierDyzjgxa46w","luavm70zy3","ms1000340","motor","","68","img/motor_3.png","68","motor","3","218","1","0","0","",""
"null","","273282","HierDyzjgxa46w","luavm70zy3","ms1000340","iti","","null","img/motor_3.png","68","motor","","","","","","",""
"489","","273782","HierDyzjgxa46w","luavm70zy3","ms1000340","motor","","68","img/motor_3.png","68","motor","3","219","1","0","0","",""
"null","","273895","HierDyzjgxa46w","luavm70zy3","ms1000340","iti","","null","img/motor_3.png","68","motor","","","","","","",""
"475","","274383","HierDyzjgxa46w","luavm70zy3","ms1000340","motor","","72","img/motor_5.png","72","motor","5","220","1","0","0","",""
"null","","274497","HierDyzjgxa46w","luavm70zy3","ms1000340","iti","","null","img/motor_5.png","72","motor","","","","","","",""
"518","","275027","HierDyzjgxa46w","luavm70zy3","ms1000340","motor","","83","img/motor_2.png","83","motor","2","221","1","0","0","",""
"null","","275140","HierDyzjgxa46w","luavm70zy3","ms1000340","iti","","null","img/motor_2.png","83","motor","","","","","","",""
"487","","275639","HierDyzjgxa46w","luavm70zy3","ms1000340","motor","","65","img/motor_1.png","65","motor","1","222","1","0","0","",""
"null","","275751","HierDyzjgxa46w","luavm70zy3","ms1000340","iti","","null","img/motor_1.png","65","motor","","","","","","",""
"522","","276285","HierDyzjgxa46w","luavm70zy3","ms1000340","motor","","70","img/motor_4.png","70","motor","4","223","1","0","0","",""
"null","","276397","HierDyzjgxa46w","luavm70zy3","ms1000340","iti","","null","img/motor_4.png","70","motor","","","","","","",""
"538","","276947","HierDyzjgxa46w","luavm70zy3","ms1000340","motor","","76","img/motor_8.png","76","motor","8","224","1","0","0","",""
"null","","277060","HierDyzjgxa46w","luavm70zy3","ms1000340","iti","","null","img/motor_8.png","76","motor","","","","","","",""
"493","","277565","HierDyzjgxa46w","luavm70zy3","ms1000340","motor","","68","img/motor_3.png","68","motor","3","225","1","0","0","",""
"null","","277679","HierDyzjgxa46w","luavm70zy3","ms1000340","iti","","null","img/motor_3.png","68","motor","","","","","","",""
"601","","278292","HierDyzjgxa46w","luavm70zy3","ms1000340","motor","","75","img/motor_7.png","75","motor","7","226","1","0","0","",""
"null","","278404","HierDyzjgxa46w","luavm70zy3","ms1000340","iti","","null","img/motor_7.png","75","motor","","","","","","",""
"558","","278974","HierDyzjgxa46w","luavm70zy3","ms1000340","motor","","70","img/motor_4.png","70","motor","4","227","1","0","0","",""
"null","","279088","HierDyzjgxa46w","luavm70zy3","ms1000340","iti","","null","img/motor_4.png","70","motor","","","","","","",""
"591","","279691","HierDyzjgxa46w","luavm70zy3","ms1000340","motor","","72","img/motor_5.png","72","motor","5","228","1","0","0","",""
"null","","279804","HierDyzjgxa46w","luavm70zy3","ms1000340","iti","","null","img/motor_5.png","72","motor","","","","","","",""
"537","","280354","HierDyzjgxa46w","luavm70zy3","ms1000340","motor","","68","img/motor_3.png","68","motor","3","229","1","0","0","",""
"null","","280466","HierDyzjgxa46w","luavm70zy3","ms1000340","iti","","null","img/motor_3.png","68","motor","","","","","","",""
"547","","281025","HierDyzjgxa46w","luavm70zy3","ms1000340","motor","","72","img/motor_5.png","72","motor","5","230","1","0","0","",""
"null","","281139","HierDyzjgxa46w","luavm70zy3","ms1000340","iti","","null","img/motor_5.png","72","motor","","","","","","",""
"508","","281659","HierDyzjgxa46w","luavm70zy3","ms1000340","motor","","83","img/motor_2.png","83","motor","2","231","1","0","0","",""
"null","","281772","HierDyzjgxa46w","luavm70zy3","ms1000340","iti","","null","img/motor_2.png","83","motor","","","","","","",""
"527","","282312","HierDyzjgxa46w","luavm70zy3","ms1000340","motor","","70","img/motor_4.png","70","motor","4","232","1","0","0","",""
"null","","282425","HierDyzjgxa46w","luavm70zy3","ms1000340","iti","","null","img/motor_4.png","70","motor","","","","","","",""
"531","","282968","HierDyzjgxa46w","luavm70zy3","ms1000340","motor","","76","img/motor_8.png","76","motor","8","233","1","0","0","",""
"null","","283081","HierDyzjgxa46w","luavm70zy3","ms1000340","iti","","null","img/motor_8.png","76","motor","","","","","","",""
"494","","283586","HierDyzjgxa46w","luavm70zy3","ms1000340","motor","","83","img/motor_2.png","83","motor","2","234","1","0","0","",""
"null","","283698","HierDyzjgxa46w","luavm70zy3","ms1000340","iti","","null","img/motor_2.png","83","motor","","","","","","",""
"368","","284078","HierDyzjgxa46w","luavm70zy3","ms1000340","motor","","72","img/motor_5.png","72","motor","5","235","1","0","0","",""
"null","","284191","HierDyzjgxa46w","luavm70zy3","ms1000340","iti","","null","img/motor_5.png","72","motor","","","","","","",""
"610","","284815","HierDyzjgxa46w","luavm70zy3","ms1000340","motor","","70","img/motor_4.png","70","motor","4","236","1","0","0","",""
"null","","284927","HierDyzjgxa46w","luavm70zy3","ms1000340","iti","","null","img/motor_4.png","70","motor","","","","","","",""
"527","","285467","HierDyzjgxa46w","luavm70zy3","ms1000340","motor","","65","img/motor_1.png","65","motor","1","237","1","0","0","",""
"null","","285579","HierDyzjgxa46w","luavm70zy3","ms1000340","iti","","null","img/motor_1.png","65","motor","","","","","","",""
"531","","286122","HierDyzjgxa46w","luavm70zy3","ms1000340","motor","","68","img/motor_3.png","68","motor","3","238","1","0","0","",""
"null","","286236","HierDyzjgxa46w","luavm70zy3","ms1000340","iti","","null","img/motor_3.png","68","motor","","","","","","",""
"597","","286845","HierDyzjgxa46w","luavm70zy3","ms1000340","motor","","76","img/motor_8.png","76","motor","8","239","1","0","0","",""
"null","","286957","HierDyzjgxa46w","luavm70zy3","ms1000340","iti","","null","img/motor_8.png","76","motor","","","","","","",""
"509","","287479","HierDyzjgxa46w","luavm70zy3","ms1000340","motor","","65","img/motor_1.png","65","motor","1","240","1","0","0","",""
"null","","287592","HierDyzjgxa46w","luavm70zy3","ms1000340","iti","","null","img/motor_1.png","65","motor","","","","","","",""
"517","","288120","HierDyzjgxa46w","luavm70zy3","ms1000340","motor","","70","img/motor_4.png","70","motor","4","241","1","0","0","",""
"null","","288233","HierDyzjgxa46w","luavm70zy3","ms1000340","iti","","null","img/motor_4.png","70","motor","","","","","","",""
"521","","288766","HierDyzjgxa46w","luavm70zy3","ms1000340","motor","","75","img/motor_7.png","75","motor","7","242","1","0","0","",""
"null","","288880","HierDyzjgxa46w","luavm70zy3","ms1000340","iti","","null","img/motor_7.png","75","motor","","","","","","",""
"613","","289504","HierDyzjgxa46w","luavm70zy3","ms1000340","motor","","74","img/motor_6.png","74","motor","6","243","1","0","0","",""
"null","","289618","HierDyzjgxa46w","luavm70zy3","ms1000340","iti","","null","img/motor_6.png","74","motor","","","","","","",""
"574","","290204","HierDyzjgxa46w","luavm70zy3","ms1000340","motor","","65","img/motor_1.png","65","motor","1","244","1","0","0","",""
"null","","290317","HierDyzjgxa46w","luavm70zy3","ms1000340","iti","","null","img/motor_1.png","65","motor","","","","","","",""
"525","","290854","HierDyzjgxa46w","luavm70zy3","ms1000340","motor","","68","img/motor_3.png","68","motor","3","245","1","0","0","",""
"null","","290967","HierDyzjgxa46w","luavm70zy3","ms1000340","iti","","null","img/motor_3.png","68","motor","","","","","","",""
"482","","291461","HierDyzjgxa46w","luavm70zy3","ms1000340","motor","","70","img/motor_4.png","70","motor","4","246","1","0","0","",""
"null","","291573","HierDyzjgxa46w","luavm70zy3","ms1000340","iti","","null","img/motor_4.png","70","motor","","","","","","",""
"473","","292059","HierDyzjgxa46w","luavm70zy3","ms1000340","motor","","70","img/motor_4.png","70","motor","4","247","1","0","0","",""
"null","","292173","HierDyzjgxa46w","luavm70zy3","ms1000340","iti","","null","img/motor_4.png","70","motor","","","","","","",""
"511","","292696","HierDyzjgxa46w","luavm70zy3","ms1000340","motor","","75","img/motor_7.png","75","motor","7","248","1","0","0","",""
"null","","292808","HierDyzjgxa46w","luavm70zy3","ms1000340","iti","","null","img/motor_7.png","75","motor","","","","","","",""
"498","","293320","HierDyzjgxa46w","luavm70zy3","ms1000340","motor","","65","img/motor_1.png","65","motor","1","249","1","0","0","",""
"null","","293433","HierDyzjgxa46w","luavm70zy3","ms1000340","iti","","null","img/motor_1.png","65","motor","","","","","","",""
"462","","293906","HierDyzjgxa46w","luavm70zy3","ms1000340","motor","","70","img/motor_4.png","70","motor","4","250","1","0","0","",""
"null","","294020","HierDyzjgxa46w","luavm70zy3","ms1000340","iti","","null","img/motor_4.png","70","motor","","","","","","",""
"451","","294483","HierDyzjgxa46w","luavm70zy3","ms1000340","motor","","72","img/motor_5.png","72","motor","5","251","1","0","0","",""
"null","","294597","HierDyzjgxa46w","luavm70zy3","ms1000340","iti","","null","img/motor_5.png","72","motor","","","","","","",""
"475","","295084","HierDyzjgxa46w","luavm70zy3","ms1000340","motor","","76","img/motor_8.png","76","motor","8","252","1","0","0","",""
"null","","295198","HierDyzjgxa46w","luavm70zy3","ms1000340","iti","","null","img/motor_8.png","76","motor","","","","","","",""
"611","","295820","HierDyzjgxa46w","luavm70zy3","ms1000340","motor","","68","img/motor_3.png","68","motor","3","253","1","0","0","",""
"null","","295935","HierDyzjgxa46w","luavm70zy3","ms1000340","iti","","null","img/motor_3.png","68","motor","","","","","","",""
"467","","296413","HierDyzjgxa46w","luavm70zy3","ms1000340","motor","","70","img/motor_4.png","70","motor","4","254","1","0","0","",""
"null","","296526","HierDyzjgxa46w","luavm70zy3","ms1000340","iti","","null","img/motor_4.png","70","motor","","","","","","",""
"477","","297015","HierDyzjgxa46w","luavm70zy3","ms1000340","motor","","68","img/motor_3.png","68","motor","3","255","1","0","0","",""
"null","","297128","HierDyzjgxa46w","luavm70zy3","ms1000340","iti","","null","img/motor_3.png","68","motor","","","","","","",""
"498","","297638","HierDyzjgxa46w","luavm70zy3","ms1000340","motor","","72","img/motor_6.png","74","motor","6","256","0","1","0","",""
"169","","297820","HierDyzjgxa46w","luavm70zy3","ms1000340","motorRepeat","","74","img/motor_6.png","74","motor","6","256","1","0","0","",""
"null","","297933","HierDyzjgxa46w","luavm70zy3","ms1000340","iti","","null","img/motor_6.png","74","motor","","","","","","",""
"595","","298542","HierDyzjgxa46w","luavm70zy3","ms1000340","motor","","68","img/motor_3.png","68","motor","3","257","1","0","0","",""
"null","","298655","HierDyzjgxa46w","luavm70zy3","ms1000340","iti","","null","img/motor_3.png","68","motor","","","","","","",""
"505","","299173","HierDyzjgxa46w","luavm70zy3","ms1000340","motor","","68","img/motor_3.png","68","motor","3","258","1","0","0","",""
"null","","299284","HierDyzjgxa46w","luavm70zy3","ms1000340","iti","","null","img/motor_3.png","68","motor","","","","","","",""
"570","","299866","HierDyzjgxa46w","luavm70zy3","ms1000340","motor","","76","img/motor_8.png","76","motor","8","259","1","0","0","",""
"null","","299979","HierDyzjgxa46w","luavm70zy3","ms1000340","iti","","null","img/motor_8.png","76","motor","","","","","","",""
"509","","300502","HierDyzjgxa46w","luavm70zy3","ms1000340","motor","","65","img/motor_1.png","65","motor","1","260","1","0","0","",""
"null","","300615","HierDyzjgxa46w","luavm70zy3","ms1000340","iti","","null","img/motor_1.png","65","motor","","","","","","",""
"446","","301074","HierDyzjgxa46w","luavm70zy3","ms1000340","motor","","68","img/motor_3.png","68","motor","3","261","1","0","0","",""
"null","","301186","HierDyzjgxa46w","luavm70zy3","ms1000340","iti","","null","img/motor_3.png","68","motor","","","","","","",""
"614","","301814","HierDyzjgxa46w","luavm70zy3","ms1000340","motor","","70","img/motor_4.png","70","motor","4","262","1","0","0","",""
"null","","301927","HierDyzjgxa46w","luavm70zy3","ms1000340","iti","","null","img/motor_4.png","70","motor","","","","","","",""
"626","","302564","HierDyzjgxa46w","luavm70zy3","ms1000340","motor","","65","img/motor_1.png","65","motor","1","263","1","0","0","",""
"null","","302678","HierDyzjgxa46w","luavm70zy3","ms1000340","iti","","null","img/motor_1.png","65","motor","","","","","","",""
"688","","303378","HierDyzjgxa46w","luavm70zy3","ms1000340","motor","","76","img/motor_8.png","76","motor","8","264","1","0","0","",""
"null","","303490","HierDyzjgxa46w","luavm70zy3","ms1000340","iti","","null","img/motor_8.png","76","motor","","","","","","",""
"548","","304051","HierDyzjgxa46w","luavm70zy3","ms1000340","motor","","70","img/motor_4.png","70","motor","4","265","1","0","0","",""
"null","","304164","HierDyzjgxa46w","luavm70zy3","ms1000340","iti","","null","img/motor_4.png","70","motor","","","","","","",""
"539","","304715","HierDyzjgxa46w","luavm70zy3","ms1000340","motor","","65","img/motor_1.png","65","motor","1","266","1","0","0","",""
"null","","304829","HierDyzjgxa46w","luavm70zy3","ms1000340","iti","","null","img/motor_1.png","65","motor","","","","","","",""
"593","","305434","HierDyzjgxa46w","luavm70zy3","ms1000340","motor","","74","img/motor_6.png","74","motor","6","267","1","0","0","",""
"null","","305548","HierDyzjgxa46w","luavm70zy3","ms1000340","iti","","null","img/motor_6.png","74","motor","","","","","","",""
"547","","306109","HierDyzjgxa46w","luavm70zy3","ms1000340","motor","","83","img/motor_2.png","83","motor","2","268","1","0","0","",""
"null","","306221","HierDyzjgxa46w","luavm70zy3","ms1000340","iti","","null","img/motor_2.png","83","motor","","","","","","",""
"385","","306618","HierDyzjgxa46w","luavm70zy3","ms1000340","motor","","76","img/motor_8.png","76","motor","8","269","1","0","0","",""
"null","","306730","HierDyzjgxa46w","luavm70zy3","ms1000340","iti","","null","img/motor_8.png","76","motor","","","","","","",""
"568","","307311","HierDyzjgxa46w","luavm70zy3","ms1000340","motor","","76","img/motor_8.png","76","motor","8","270","1","0","0","",""
"null","","307425","HierDyzjgxa46w","luavm70zy3","ms1000340","iti","","null","img/motor_8.png","76","motor","","","","","","",""
"591","","308028","HierDyzjgxa46w","luavm70zy3","ms1000340","motor","","65","img/motor_1.png","65","motor","1","271","1","0","0","",""
"null","","308141","HierDyzjgxa46w","luavm70zy3","ms1000340","iti","","null","img/motor_1.png","65","motor","","","","","","",""
"527","","308679","HierDyzjgxa46w","luavm70zy3","ms1000340","motor","","83","img/motor_2.png","83","motor","2","272","1","0","0","",""
"null","","308793","HierDyzjgxa46w","luavm70zy3","ms1000340","iti","","null","img/motor_2.png","83","motor","","","","","","",""
"518","","309324","HierDyzjgxa46w","luavm70zy3","ms1000340","motor","","68","img/motor_3.png","68","motor","3","273","1","0","0","",""
"null","","309437","HierDyzjgxa46w","luavm70zy3","ms1000340","iti","","null","img/motor_3.png","68","motor","","","","","","",""
"470","","309918","HierDyzjgxa46w","luavm70zy3","ms1000340","motor","","70","img/motor_4.png","70","motor","4","274","1","0","0","",""
"null","","310030","HierDyzjgxa46w","luavm70zy3","ms1000340","iti","","null","img/motor_4.png","70","motor","","","","","","",""
"488","","310530","HierDyzjgxa46w","luavm70zy3","ms1000340","motor","","70","img/motor_4.png","70","motor","4","275","1","0","0","",""
"null","","310643","HierDyzjgxa46w","luavm70zy3","ms1000340","iti","","null","img/motor_4.png","70","motor","","","","","","",""
"508","","311164","HierDyzjgxa46w","luavm70zy3","ms1000340","motor","","83","img/motor_2.png","83","motor","2","276","1","0","0","",""
"null","","311276","HierDyzjgxa46w","luavm70zy3","ms1000340","iti","","null","img/motor_2.png","83","motor","","","","","","",""
"550","","311837","HierDyzjgxa46w","luavm70zy3","ms1000340","motor","","74","img/motor_6.png","74","motor","6","277","1","0","0","",""
"null","","311951","HierDyzjgxa46w","luavm70zy3","ms1000340","iti","","null","img/motor_6.png","74","motor","","","","","","",""
"531","","312493","HierDyzjgxa46w","luavm70zy3","ms1000340","motor","","83","img/motor_2.png","83","motor","2","278","1","0","0","",""
"null","","312606","HierDyzjgxa46w","luavm70zy3","ms1000340","iti","","null","img/motor_2.png","83","motor","","","","","","",""
"563","","313180","HierDyzjgxa46w","luavm70zy3","ms1000340","motor","","68","img/motor_3.png","68","motor","3","279","1","0","0","",""
"null","","313293","HierDyzjgxa46w","luavm70zy3","ms1000340","iti","","null","img/motor_3.png","68","motor","","","","","","",""
"562","","313867","HierDyzjgxa46w","luavm70zy3","ms1000340","motor","","74","img/motor_6.png","74","motor","6","280","1","0","0","",""
"null","","313981","HierDyzjgxa46w","luavm70zy3","ms1000340","iti","","null","img/motor_6.png","74","motor","","","","","","",""
"516","","314509","HierDyzjgxa46w","luavm70zy3","ms1000340","motor","","76","img/motor_8.png","76","motor","8","281","1","0","0","",""
"null","","314623","HierDyzjgxa46w","luavm70zy3","ms1000340","iti","","null","img/motor_8.png","76","motor","","","","","","",""
"517","","315152","HierDyzjgxa46w","luavm70zy3","ms1000340","motor","","72","img/motor_5.png","72","motor","5","282","1","0","0","",""
"null","","315265","HierDyzjgxa46w","luavm70zy3","ms1000340","iti","","null","img/motor_5.png","72","motor","","","","","","",""
"562","","315838","HierDyzjgxa46w","luavm70zy3","ms1000340","motor","","74","img/motor_6.png","74","motor","6","283","1","0","0","",""
"null","","315951","HierDyzjgxa46w","luavm70zy3","ms1000340","iti","","null","img/motor_6.png","74","motor","","","","","","",""
"533","","316496","HierDyzjgxa46w","luavm70zy3","ms1000340","motor","","75","img/motor_7.png","75","motor","7","284","1","0","0","",""
"null","","316608","HierDyzjgxa46w","luavm70zy3","ms1000340","iti","","null","img/motor_7.png","75","motor","","","","","","",""
"743","","317364","HierDyzjgxa46w","luavm70zy3","ms1000340","motor","","72","img/motor_5.png","72","motor","5","285","1","0","0","",""
"null","","317476","HierDyzjgxa46w","luavm70zy3","ms1000340","iti","","null","img/motor_5.png","72","motor","","","","","","",""
"418","","317908","HierDyzjgxa46w","luavm70zy3","ms1000340","motor","","83","img/motor_2.png","83","motor","2","286","1","0","0","",""
"null","","318020","HierDyzjgxa46w","luavm70zy3","ms1000340","iti","","null","img/motor_2.png","83","motor","","","","","","",""
"546","","318579","HierDyzjgxa46w","luavm70zy3","ms1000340","motor","","76","img/motor_8.png","76","motor","8","287","1","0","0","",""
"null","","318692","HierDyzjgxa46w","luavm70zy3","ms1000340","iti","","null","img/motor_8.png","76","motor","","","","","","",""
"502","","319205","HierDyzjgxa46w","luavm70zy3","ms1000340","motor","","68","img/motor_3.png","68","motor","3","288","1","0","0","",""
"null","","319319","HierDyzjgxa46w","luavm70zy3","ms1000340","iti","","null","img/motor_3.png","68","motor","","","","","","",""
"657","","319988","HierDyzjgxa46w","luavm70zy3","ms1000340","motor","","68","img/motor_3.png","68","motor","3","289","1","0","0","",""
"null","","320101","HierDyzjgxa46w","luavm70zy3","ms1000340","iti","","null","img/motor_3.png","68","motor","","","","","","",""
"481","","320596","HierDyzjgxa46w","luavm70zy3","ms1000340","motor","","65","img/motor_1.png","65","motor","1","290","1","0","0","",""
"null","","320708","HierDyzjgxa46w","luavm70zy3","ms1000340","iti","","null","img/motor_1.png","65","motor","","","","","","",""
"463","","321182","HierDyzjgxa46w","luavm70zy3","ms1000340","motor","","68","img/motor_3.png","68","motor","3","291","1","0","0","",""
"null","","321295","HierDyzjgxa46w","luavm70zy3","ms1000340","iti","","null","img/motor_3.png","68","motor","","","","","","",""
"578","","321886","HierDyzjgxa46w","luavm70zy3","ms1000340","motor","","76","img/motor_8.png","76","motor","8","292","1","0","0","",""
"null","","321999","HierDyzjgxa46w","luavm70zy3","ms1000340","iti","","null","img/motor_8.png","76","motor","","","","","","",""
"514","","322527","HierDyzjgxa46w","luavm70zy3","ms1000340","motor","","74","img/motor_6.png","74","motor","6","293","1","0","0","",""
"null","","322640","HierDyzjgxa46w","luavm70zy3","ms1000340","iti","","null","img/motor_6.png","74","motor","","","","","","",""
"533","","323185","HierDyzjgxa46w","luavm70zy3","ms1000340","motor","","70","img/motor_4.png","70","motor","4","294","1","0","0","",""
"null","","323298","HierDyzjgxa46w","luavm70zy3","ms1000340","iti","","null","img/motor_4.png","70","motor","","","","","","",""
"542","","323852","HierDyzjgxa46w","luavm70zy3","ms1000340","motor","","68","img/motor_3.png","68","motor","3","295","1","0","0","",""
"null","","323966","HierDyzjgxa46w","luavm70zy3","ms1000340","iti","","null","img/motor_3.png","68","motor","","","","","","",""
"672","","324650","HierDyzjgxa46w","luavm70zy3","ms1000340","motor","","75","img/motor_7.png","75","motor","7","296","1","0","0","",""
"null","","324763","HierDyzjgxa46w","luavm70zy3","ms1000340","iti","","null","img/motor_7.png","75","motor","","","","","","",""
"588","","325362","HierDyzjgxa46w","luavm70zy3","ms1000340","motor","","72","img/motor_6.png","74","motor","6","297","0","1","0","",""
"332","","325709","HierDyzjgxa46w","luavm70zy3","ms1000340","motorRepeat","","74","img/motor_6.png","74","motor","6","297","1","0","0","",""
"null","","325820","HierDyzjgxa46w","luavm70zy3","ms1000340","iti","","null","img/motor_6.png","74","motor","","","","","","",""
"523","","326355","HierDyzjgxa46w","luavm70zy3","ms1000340","motor","","75","img/motor_7.png","75","motor","7","298","1","0","0","",""
"null","","326469","HierDyzjgxa46w","luavm70zy3","ms1000340","iti","","null","img/motor_7.png","75","motor","","","","","","",""
"508","","326990","HierDyzjgxa46w","luavm70zy3","ms1000340","motor","","70","img/motor_4.png","70","motor","4","299","1","0","0","",""
"null","","327102","HierDyzjgxa46w","luavm70zy3","ms1000340","iti","","null","img/motor_4.png","70","motor","","","","","","",""
"526","","327641","HierDyzjgxa46w","luavm70zy3","ms1000340","motor","","68","img/motor_3.png","68","motor","3","300","1","0","0","",""
"null","","327753","HierDyzjgxa46w","luavm70zy3","ms1000340","iti","","null","img/motor_3.png","68","motor","","","","","","",""
"497","","328264","HierDyzjgxa46w","luavm70zy3","ms1000340","motor","","70","img/motor_4.png","70","motor","4","301","1","0","0","",""
"null","","328377","HierDyzjgxa46w","luavm70zy3","ms1000340","iti","","null","img/motor_4.png","70","motor","","","","","","",""
"579","","328966","HierDyzjgxa46w","luavm70zy3","ms1000340","motor","","83","img/motor_2.png","83","motor","2","302","1","0","0","",""
"null","","329080","HierDyzjgxa46w","luavm70zy3","ms1000340","iti","","null","img/motor_2.png","83","motor","","","","","","",""
"0","","329091","HierDyzjgxa46w","luavm70zy3","ms1000340","motor","","83","img/motor_1.png","65","motor","1","303","0","1","0","",""
"529","","329631","HierDyzjgxa46w","luavm70zy3","ms1000340","motorRepeat","","65","img/motor_1.png","65","motor","1","303","1","0","0","",""
"null","","329745","HierDyzjgxa46w","luavm70zy3","ms1000340","iti","","null","img/motor_1.png","65","motor","","","","","","",""
"774","","330532","HierDyzjgxa46w","luavm70zy3","ms1000340","motor","","75","img/motor_7.png","75","motor","7","304","1","0","0","",""
"null","","330645","HierDyzjgxa46w","luavm70zy3","ms1000340","iti","","null","img/motor_7.png","75","motor","","","","","","",""
"500","","331156","HierDyzjgxa46w","luavm70zy3","ms1000340","motor","","74","img/motor_6.png","74","motor","6","305","1","0","0","",""
"null","","331270","HierDyzjgxa46w","luavm70zy3","ms1000340","iti","","null","img/motor_6.png","74","motor","","","","","","",""
"548","","331829","HierDyzjgxa46w","luavm70zy3","ms1000340","motor","","65","img/motor_1.png","65","motor","1","306","1","0","0","",""
"null","","331942","HierDyzjgxa46w","luavm70zy3","ms1000340","iti","","null","img/motor_1.png","65","motor","","","","","","",""
"597","","332551","HierDyzjgxa46w","luavm70zy3","ms1000340","motor","","74","img/motor_6.png","74","motor","6","307","1","0","0","",""
"null","","332663","HierDyzjgxa46w","luavm70zy3","ms1000340","iti","","null","img/motor_6.png","74","motor","","","","","","",""
"502","","333178","HierDyzjgxa46w","luavm70zy3","ms1000340","motor","","72","img/motor_5.png","72","motor","5","308","1","0","0","",""
"null","","333291","HierDyzjgxa46w","luavm70zy3","ms1000340","iti","","null","img/motor_5.png","72","motor","","","","","","",""
"528","","333832","HierDyzjgxa46w","luavm70zy3","ms1000340","motor","","75","img/motor_7.png","75","motor","7","309","1","0","0","",""
"null","","333945","HierDyzjgxa46w","luavm70zy3","ms1000340","iti","","null","img/motor_7.png","75","motor","","","","","","",""
"601","","334559","HierDyzjgxa46w","luavm70zy3","ms1000340","motor","","68","img/motor_3.png","68","motor","3","310","1","0","0","",""
"null","","334673","HierDyzjgxa46w","luavm70zy3","ms1000340","iti","","null","img/motor_3.png","68","motor","","","","","","",""
"496","","335180","HierDyzjgxa46w","luavm70zy3","ms1000340","motor","","70","img/motor_4.png","70","motor","4","311","1","0","0","",""
"null","","335293","HierDyzjgxa46w","luavm70zy3","ms1000340","iti","","null","img/motor_4.png","70","motor","","","","","","",""
"538","","335845","HierDyzjgxa46w","luavm70zy3","ms1000340","motor","","74","img/motor_6.png","74","motor","6","312","1","0","0","",""
"null","","335958","HierDyzjgxa46w","luavm70zy3","ms1000340","iti","","null","img/motor_6.png","74","motor","","","","","","",""
"545","","336515","HierDyzjgxa46w","luavm70zy3","ms1000340","motor","","70","img/motor_4.png","70","motor","4","313","1","0","0","",""
"null","","336628","HierDyzjgxa46w","luavm70zy3","ms1000340","iti","","null","img/motor_4.png","70","motor","","","","","","",""
"743","","337385","HierDyzjgxa46w","luavm70zy3","ms1000340","motor","","74","img/motor_6.png","74","motor","6","314","1","0","0","",""
"null","","337498","HierDyzjgxa46w","luavm70zy3","ms1000340","iti","","null","img/motor_6.png","74","motor","","","","","","",""
"522","","338031","HierDyzjgxa46w","luavm70zy3","ms1000340","motor","","72","img/motor_5.png","72","motor","5","315","1","0","0","",""
"null","","338144","HierDyzjgxa46w","luavm70zy3","ms1000340","iti","","null","img/motor_5.png","72","motor","","","","","","",""
"475","","338632","HierDyzjgxa46w","luavm70zy3","ms1000340","motor","","65","img/motor_1.png","65","motor","1","316","1","0","0","",""
"null","","338745","HierDyzjgxa46w","luavm70zy3","ms1000340","iti","","null","img/motor_1.png","65","motor","","","","","","",""
"543","","339299","HierDyzjgxa46w","luavm70zy3","ms1000340","motor","","72","img/motor_5.png","72","motor","5","317","1","0","0","",""
"null","","339413","HierDyzjgxa46w","luavm70zy3","ms1000340","iti","","null","img/motor_5.png","72","motor","","","","","","",""
"467","","339893","HierDyzjgxa46w","luavm70zy3","ms1000340","motor","","74","img/motor_6.png","74","motor","6","318","1","0","0","",""
"null","","340006","HierDyzjgxa46w","luavm70zy3","ms1000340","iti","","null","img/motor_6.png","74","motor","","","","","","",""
"448","","340465","HierDyzjgxa46w","luavm70zy3","ms1000340","motor","","65","img/motor_1.png","65","motor","1","319","1","0","0","",""
"null","","340578","HierDyzjgxa46w","luavm70zy3","ms1000340","iti","","null","img/motor_1.png","65","motor","","","","","","",""
"566","","341156","HierDyzjgxa46w","luavm70zy3","ms1000340","motor","","75","img/motor_7.png","75","motor","7","320","1","0","0","",""
"null","","341270","HierDyzjgxa46w","luavm70zy3","ms1000340","iti","","null","img/motor_7.png","75","motor","","","","","","",""
"661","","341943","HierDyzjgxa46w","luavm70zy3","ms1000340","motor","","68","img/motor_3.png","68","motor","3","321","1","0","0","",""
"null","","342057","HierDyzjgxa46w","luavm70zy3","ms1000340","iti","","null","img/motor_3.png","68","motor","","","","","","",""
"523","","342591","HierDyzjgxa46w","luavm70zy3","ms1000340","motor","","76","img/motor_8.png","76","motor","8","322","1","0","0","",""
"null","","342705","HierDyzjgxa46w","luavm70zy3","ms1000340","iti","","null","img/motor_8.png","76","motor","","","","","","",""
"532","","343249","HierDyzjgxa46w","luavm70zy3","ms1000340","motor","","70","img/motor_4.png","70","motor","4","323","1","0","0","",""
"null","","343362","HierDyzjgxa46w","luavm70zy3","ms1000340","iti","","null","img/motor_4.png","70","motor","","","","","","",""
"515","","343888","HierDyzjgxa46w","luavm70zy3","ms1000340","motor","","76","img/motor_8.png","76","motor","8","324","1","0","0","",""
"null","","344001","HierDyzjgxa46w","luavm70zy3","ms1000340","iti","","null","img/motor_8.png","76","motor","","","","","","",""
"1038","","345051","HierDyzjgxa46w","luavm70zy3","ms1000340","motor","","68","img/motor_3.png","68","motor","3","325","1","0","0","",""
"null","","345165","HierDyzjgxa46w","luavm70zy3","ms1000340","iti","","null","img/motor_3.png","68","motor","","","","","","",""
"430","","345606","HierDyzjgxa46w","luavm70zy3","ms1000340","motor","","83","img/motor_2.png","83","motor","2","326","1","0","0","",""
"null","","345719","HierDyzjgxa46w","luavm70zy3","ms1000340","iti","","null","img/motor_2.png","83","motor","","","","","","",""
"668","","346400","HierDyzjgxa46w","luavm70zy3","ms1000340","motor","","83","img/motor_2.png","83","motor","2","327","1","0","0","",""
"null","","346513","HierDyzjgxa46w","luavm70zy3","ms1000340","iti","","null","img/motor_2.png","83","motor","","","","","","",""
"547","","347072","HierDyzjgxa46w","luavm70zy3","ms1000340","motor","","76","img/motor_8.png","76","motor","8","328","1","0","0","",""
"null","","347185","HierDyzjgxa46w","luavm70zy3","ms1000340","iti","","null","img/motor_8.png","76","motor","","","","","","",""
"681","","347879","HierDyzjgxa46w","luavm70zy3","ms1000340","motor","","70","img/motor_4.png","70","motor","4","329","1","0","0","",""
"null","","347992","HierDyzjgxa46w","luavm70zy3","ms1000340","iti","","null","img/motor_4.png","70","motor","","","","","","",""
"502","","348506","HierDyzjgxa46w","luavm70zy3","ms1000340","motor","","65","img/motor_1.png","65","motor","1","330","1","0","0","",""
"null","","348619","HierDyzjgxa46w","luavm70zy3","ms1000340","iti","","null","img/motor_1.png","65","motor","","","","","","",""
"522","","349154","HierDyzjgxa46w","luavm70zy3","ms1000340","motor","","74","img/motor_6.png","74","motor","6","331","1","0","0","",""
"null","","349267","HierDyzjgxa46w","luavm70zy3","ms1000340","iti","","null","img/motor_6.png","74","motor","","","","","","",""
"552","","349831","HierDyzjgxa46w","luavm70zy3","ms1000340","motor","","76","img/motor_8.png","76","motor","8","332","1","0","0","",""
"null","","349943","HierDyzjgxa46w","luavm70zy3","ms1000340","iti","","null","img/motor_8.png","76","motor","","","","","","",""
"539","","350494","HierDyzjgxa46w","luavm70zy3","ms1000340","motor","","72","img/motor_5.png","72","motor","5","333","1","0","0","",""
"null","","350607","HierDyzjgxa46w","luavm70zy3","ms1000340","iti","","null","img/motor_5.png","72","motor","","","","","","",""
"537","","351157","HierDyzjgxa46w","luavm70zy3","ms1000340","motor","","65","img/motor_1.png","65","motor","1","334","1","0","0","",""
"null","","351270","HierDyzjgxa46w","luavm70zy3","ms1000340","iti","","null","img/motor_1.png","65","motor","","","","","","",""
"623","","351906","HierDyzjgxa46w","luavm70zy3","ms1000340","motor","","75","img/motor_7.png","75","motor","7","335","1","0","0","",""
"null","","352018","HierDyzjgxa46w","luavm70zy3","ms1000340","iti","","null","img/motor_7.png","75","motor","","","","","","",""
"516","","352548","HierDyzjgxa46w","luavm70zy3","ms1000340","motor","","65","img/motor_1.png","65","motor","1","336","1","0","0","",""
"null","","352662","HierDyzjgxa46w","luavm70zy3","ms1000340","iti","","null","img/motor_1.png","65","motor","","","","","","",""
"538","","353213","HierDyzjgxa46w","luavm70zy3","ms1000340","motor","","75","img/motor_7.png","75","motor","7","337","1","0","0","",""
"null","","353326","HierDyzjgxa46w","luavm70zy3","ms1000340","iti","","null","img/motor_7.png","75","motor","","","","","","",""
"639","","353978","HierDyzjgxa46w","luavm70zy3","ms1000340","motor","","76","img/motor_8.png","76","motor","8","338","1","0","0","",""
"null","","354090","HierDyzjgxa46w","luavm70zy3","ms1000340","iti","","null","img/motor_8.png","76","motor","","","","","","",""
"570","","354673","HierDyzjgxa46w","luavm70zy3","ms1000340","motor","","72","img/motor_5.png","72","motor","5","339","1","0","0","",""
"null","","354787","HierDyzjgxa46w","luavm70zy3","ms1000340","iti","","null","img/motor_5.png","72","motor","","","","","","",""
"572","","355373","HierDyzjgxa46w","luavm70zy3","ms1000340","motor","","68","img/motor_3.png","68","motor","3","340","1","0","0","",""
"null","","355486","HierDyzjgxa46w","luavm70zy3","ms1000340","iti","","null","img/motor_3.png","68","motor","","","","","","",""
"575","","356074","HierDyzjgxa46w","luavm70zy3","ms1000340","motor","","74","img/motor_6.png","74","motor","6","341","1","0","0","",""
"null","","356188","HierDyzjgxa46w","luavm70zy3","ms1000340","iti","","null","img/motor_6.png","74","motor","","","","","","",""
"545","","356746","HierDyzjgxa46w","luavm70zy3","ms1000340","motor","","75","img/motor_7.png","75","motor","7","342","1","0","0","",""
"null","","356859","HierDyzjgxa46w","luavm70zy3","ms1000340","iti","","null","img/motor_7.png","75","motor","","","","","","",""
"437","","357308","HierDyzjgxa46w","luavm70zy3","ms1000340","motor","","76","img/motor_8.png","76","motor","8","343","1","0","0","",""
"null","","357421","HierDyzjgxa46w","luavm70zy3","ms1000340","iti","","null","img/motor_8.png","76","motor","","","","","","",""
"582","","358015","HierDyzjgxa46w","luavm70zy3","ms1000340","motor","","76","img/motor_8.png","76","motor","8","344","1","0","0","",""
"null","","358129","HierDyzjgxa46w","luavm70zy3","ms1000340","iti","","null","img/motor_8.png","76","motor","","","","","","",""
"582","","358722","HierDyzjgxa46w","luavm70zy3","ms1000340","motor","","74","img/motor_6.png","74","motor","6","345","1","0","0","",""
"null","","358835","HierDyzjgxa46w","luavm70zy3","ms1000340","iti","","null","img/motor_6.png","74","motor","","","","","","",""
"507","","359355","HierDyzjgxa46w","luavm70zy3","ms1000340","motor","","74","img/motor_6.png","74","motor","6","346","1","0","0","",""
"null","","359468","HierDyzjgxa46w","luavm70zy3","ms1000340","iti","","null","img/motor_6.png","74","motor","","","","","","",""
"545","","360026","HierDyzjgxa46w","luavm70zy3","ms1000340","motor","","75","img/motor_7.png","75","motor","7","347","1","0","0","",""
"null","","360140","HierDyzjgxa46w","luavm70zy3","ms1000340","iti","","null","img/motor_7.png","75","motor","","","","","","",""
"538","","360689","HierDyzjgxa46w","luavm70zy3","ms1000340","motor","","70","img/motor_4.png","70","motor","4","348","1","0","0","",""
"null","","360803","HierDyzjgxa46w","luavm70zy3","ms1000340","iti","","null","img/motor_4.png","70","motor","","","","","","",""
"545","","361358","HierDyzjgxa46w","luavm70zy3","ms1000340","motor","","74","img/motor_6.png","74","motor","6","349","1","0","0","",""
"null","","361472","HierDyzjgxa46w","luavm70zy3","ms1000340","iti","","null","img/motor_6.png","74","motor","","","","","","",""
"513","","361999","HierDyzjgxa46w","luavm70zy3","ms1000340","motor","","70","img/motor_4.png","70","motor","4","350","1","0","0","",""
"null","","362112","HierDyzjgxa46w","luavm70zy3","ms1000340","iti","","null","img/motor_4.png","70","motor","","","","","","",""
"521","","362647","HierDyzjgxa46w","luavm70zy3","ms1000340","motor","","72","img/motor_5.png","72","motor","5","351","1","0","0","",""
"null","","362760","HierDyzjgxa46w","luavm70zy3","ms1000340","iti","","null","img/motor_5.png","72","motor","","","","","","",""
"541","","363313","HierDyzjgxa46w","luavm70zy3","ms1000340","motor","","70","img/motor_4.png","70","motor","4","352","1","0","0","",""
"null","","363426","HierDyzjgxa46w","luavm70zy3","ms1000340","iti","","null","img/motor_4.png","70","motor","","","","","","",""
"477","","363915","HierDyzjgxa46w","luavm70zy3","ms1000340","motor","","83","img/motor_2.png","83","motor","2","353","1","0","0","",""
"null","","364028","HierDyzjgxa46w","luavm70zy3","ms1000340","iti","","null","img/motor_2.png","83","motor","","","","","","",""
"603","","364643","HierDyzjgxa46w","luavm70zy3","ms1000340","motor","","75","img/motor_7.png","75","motor","7","354","1","0","0","",""
"null","","364757","HierDyzjgxa46w","luavm70zy3","ms1000340","iti","","null","img/motor_7.png","75","motor","","","","","","",""
"482","","365250","HierDyzjgxa46w","luavm70zy3","ms1000340","motor","","83","img/motor_2.png","83","motor","2","355","1","0","0","",""
"null","","365362","HierDyzjgxa46w","luavm70zy3","ms1000340","iti","","null","img/motor_2.png","83","motor","","","","","","",""
"509","","365883","HierDyzjgxa46w","luavm70zy3","ms1000340","motor","","70","img/motor_4.png","70","motor","4","356","1","0","0","",""
"null","","365995","HierDyzjgxa46w","luavm70zy3","ms1000340","iti","","null","img/motor_4.png","70","motor","","","","","","",""
"516","","366524","HierDyzjgxa46w","luavm70zy3","ms1000340","motor","","75","img/motor_7.png","75","motor","7","357","1","0","0","",""
"null","","366638","HierDyzjgxa46w","luavm70zy3","ms1000340","iti","","null","img/motor_7.png","75","motor","","","","","","",""
"552","","367201","HierDyzjgxa46w","luavm70zy3","ms1000340","motor","","70","img/motor_4.png","70","motor","4","358","1","0","0","",""
"null","","367314","HierDyzjgxa46w","luavm70zy3","ms1000340","iti","","null","img/motor_4.png","70","motor","","","","","","",""
"456","","367784","HierDyzjgxa46w","luavm70zy3","ms1000340","motor","","65","img/motor_1.png","65","motor","1","359","1","0","0","",""
"null","","367897","HierDyzjgxa46w","luavm70zy3","ms1000340","iti","","null","img/motor_1.png","65","motor","","","","","","",""
"503","","368412","HierDyzjgxa46w","luavm70zy3","ms1000340","motor","","83","img/motor_2.png","83","motor","2","360","1","0","0","",""
"null","","368526","HierDyzjgxa46w","luavm70zy3","ms1000340","iti","","null","img/motor_2.png","83","motor","","","","","","",""
"666","","369205","HierDyzjgxa46w","luavm70zy3","ms1000340","motor","","70","img/motor_4.png","70","motor","4","361","1","0","0","",""
"null","","369318","HierDyzjgxa46w","luavm70zy3","ms1000340","iti","","null","img/motor_4.png","70","motor","","","","","","",""
"502","","369833","HierDyzjgxa46w","luavm70zy3","ms1000340","motor","","83","img/motor_2.png","83","motor","2","362","1","0","0","",""
"null","","369945","HierDyzjgxa46w","luavm70zy3","ms1000340","iti","","null","img/motor_2.png","83","motor","","","","","","",""
"491","","370448","HierDyzjgxa46w","luavm70zy3","ms1000340","motor","","70","img/motor_4.png","70","motor","4","363","1","0","0","",""
"null","","370561","HierDyzjgxa46w","luavm70zy3","ms1000340","iti","","null","img/motor_4.png","70","motor","","","","","","",""
"491","","371065","HierDyzjgxa46w","luavm70zy3","ms1000340","motor","","83","img/motor_2.png","83","motor","2","364","1","0","0","",""
"null","","371178","HierDyzjgxa46w","luavm70zy3","ms1000340","iti","","null","img/motor_2.png","83","motor","","","","","","",""
"472","","371663","HierDyzjgxa46w","luavm70zy3","ms1000340","motor","","72","img/motor_5.png","72","motor","5","365","1","0","0","",""
"null","","371775","HierDyzjgxa46w","luavm70zy3","ms1000340","iti","","null","img/motor_5.png","72","motor","","","","","","",""
"521","","372309","HierDyzjgxa46w","luavm70zy3","ms1000340","motor","","65","img/motor_1.png","65","motor","1","366","1","0","0","",""
"null","","372423","HierDyzjgxa46w","luavm70zy3","ms1000340","iti","","null","img/motor_1.png","65","motor","","","","","","",""
"532","","372967","HierDyzjgxa46w","luavm70zy3","ms1000340","motor","","74","img/motor_6.png","74","motor","6","367","1","0","0","",""
"null","","373080","HierDyzjgxa46w","luavm70zy3","ms1000340","iti","","null","img/motor_6.png","74","motor","","","","","","",""
"567","","373659","HierDyzjgxa46w","luavm70zy3","ms1000340","motor","","68","img/motor_3.png","68","motor","3","368","1","0","0","",""
"null","","373772","HierDyzjgxa46w","luavm70zy3","ms1000340","iti","","null","img/motor_3.png","68","motor","","","","","","",""
"552","","374337","HierDyzjgxa46w","luavm70zy3","ms1000340","motor","","65","img/motor_1.png","65","motor","1","369","1","0","0","",""
"null","","374450","HierDyzjgxa46w","luavm70zy3","ms1000340","iti","","null","img/motor_1.png","65","motor","","","","","","",""
"518","","374979","HierDyzjgxa46w","luavm70zy3","ms1000340","motor","","68","img/motor_3.png","68","motor","3","370","1","0","0","",""
"null","","375092","HierDyzjgxa46w","luavm70zy3","ms1000340","iti","","null","img/motor_3.png","68","motor","","","","","","",""
