rt,responses,time_elapsed,subject,prolificID,demoID,trialType,question_order,key_press,stim,corrresp,phase,stimNum,trialNum,corr,repeatTrial,motorSwitch,pracCounter,hierarchy
915410,"{""Q0"":""ms1000267""}",915446,HierDy9cfsawef,dex8u744g4,ms1000267,,,,,,,,,,,,,
3223,,918684,HierDy9cfsawef,dex8u744g4,ms1000267,,,,,,,,,,,,,
,,920566,HierDy9cfsawef,dex8u744g4,ms1000267,fullscreen,,,,,,,,,,,,
24160,"{""Vision"":""Yes"",""Handedness"":""Right"",""Gender"":""male""}",944737,HierDy9cfsawef,dex8u744g4,ms1000267,,"[0,1,2]",,,,,,,,,,,
3554,"{""Q0"":""23""}",948309,HierDy9cfsawef,dex8u744g4,ms1000267,,,,,,,,,,,,,
173079,,1121396,HierDy9cfsawef,dex8u744g4,ms1000267,,,,,,,,,,,,,
1336,,1122747,HierDy9cfsawef,dex8u744g4,ms1000267,motor,,70,img/motor_4.png,70,motor,4,1,1,0,0,,
null,,1122862,HierDy9cfsawef,dex8u744g4,ms1000267,iti,,null,img/motor_4.png,70,motor,,,,,,,
869,,1123740,HierDy9cfsawef,dex8u744g4,ms1000267,motor,,65,img/motor_1.png,65,motor,1,2,1,0,0,,
null,,1123848,HierDy9cfsawef,dex8u744g4,ms1000267,iti,,null,img/motor_1.png,65,motor,,,,,,,
1483,,1125340,HierDy9cfsawef,dex8u744g4,ms1000267,motor,,65,img/motor_1.png,65,motor,1,3,1,0,0,,
null,,1125455,HierDy9cfsawef,dex8u744g4,ms1000267,iti,,null,img/motor_1.png,65,motor,,,,,,,
1797,,1127260,HierDy9cfsawef,dex8u744g4,ms1000267,motor,,72,img/motor_5.png,72,motor,5,4,1,0,0,,
null,,1127374,HierDy9cfsawef,dex8u744g4,ms1000267,iti,,null,img/motor_5.png,72,motor,,,,,,,
1318,,1128707,HierDy9cfsawef,dex8u744g4,ms1000267,motor,,76,img/motor_8.png,76,motor,8,5,1,0,0,,
null,,1128815,HierDy9cfsawef,dex8u744g4,ms1000267,iti,,null,img/motor_8.png,76,motor,,,,,,,
1101,,1129925,HierDy9cfsawef,dex8u744g4,ms1000267,motor,,72,img/motor_5.png,72,motor,5,6,1,0,0,,
null,,1130033,HierDy9cfsawef,dex8u744g4,ms1000267,iti,,null,img/motor_5.png,72,motor,,,,,,,
548,,1130588,HierDy9cfsawef,dex8u744g4,ms1000267,motor,,65,img/motor_1.png,65,motor,1,7,1,0,0,,
null,,1130702,HierDy9cfsawef,dex8u744g4,ms1000267,iti,,null,img/motor_1.png,65,motor,,,,,,,
613,,1131330,HierDy9cfsawef,dex8u744g4,ms1000267,motor,,72,img/motor_5.png,72,motor,5,8,1,0,0,,
null,,1131445,HierDy9cfsawef,dex8u744g4,ms1000267,iti,,null,img/motor_5.png,72,motor,,,,,,,
911,,1132364,HierDy9cfsawef,dex8u744g4,ms1000267,motor,,74,img/motor_6.png,74,motor,6,9,1,0,0,,
null,,1132472,HierDy9cfsawef,dex8u744g4,ms1000267,iti,,null,img/motor_6.png,74,motor,,,,,,,
532,,1133019,HierDy9cfsawef,dex8u744g4,ms1000267,motor,,76,img/motor_8.png,76,motor,8,10,1,0,0,,
null,,1133128,HierDy9cfsawef,dex8u744g4,ms1000267,iti,,null,img/motor_8.png,76,motor,,,,,,,
588,,1133723,HierDy9cfsawef,dex8u744g4,ms1000267,motor,,75,img/motor_7.png,75,motor,7,11,1,0,0,,
null,,1133837,HierDy9cfsawef,dex8u744g4,ms1000267,iti,,null,img/motor_7.png,75,motor,,,,,,,
774,,1134621,HierDy9cfsawef,dex8u744g4,ms1000267,motor,,83,img/motor_2.png,83,motor,2,12,1,0,0,,
null,,1134729,HierDy9cfsawef,dex8u744g4,ms1000267,iti,,null,img/motor_2.png,83,motor,,,,,,,
596,,1135339,HierDy9cfsawef,dex8u744g4,ms1000267,motor,,72,img/motor_5.png,72,motor,5,13,1,0,0,,
null,,1135447,HierDy9cfsawef,dex8u744g4,ms1000267,iti,,null,img/motor_5.png,72,motor,,,,,,,
677,,1136139,HierDy9cfsawef,dex8u744g4,ms1000267,motor,,70,img/motor_4.png,70,motor,4,14,1,0,0,,
null,,1136253,HierDy9cfsawef,dex8u744g4,ms1000267,iti,,null,img/motor_4.png,70,motor,,,,,,,
574,,1136843,HierDy9cfsawef,dex8u744g4,ms1000267,motor,,65,img/motor_1.png,65,motor,1,15,1,0,0,,
null,,1136957,HierDy9cfsawef,dex8u744g4,ms1000267,iti,,null,img/motor_1.png,65,motor,,,,,,,
854,,1137827,HierDy9cfsawef,dex8u744g4,ms1000267,motor,,68,img/motor_3.png,68,motor,3,16,1,0,0,,
null,,1137936,HierDy9cfsawef,dex8u744g4,ms1000267,iti,,null,img/motor_3.png,68,motor,,,,,,,
709,,1138653,HierDy9cfsawef,dex8u744g4,ms1000267,motor,,75,img/motor_7.png,75,motor,7,17,1,0,0,,
null,,1138761,HierDy9cfsawef,dex8u744g4,ms1000267,iti,,null,img/motor_7.png,75,motor,,,,,,,
684,,1139452,HierDy9cfsawef,dex8u744g4,ms1000267,motor,,83,img/motor_2.png,83,motor,2,18,1,0,0,,
null,,1139561,HierDy9cfsawef,dex8u744g4,ms1000267,iti,,null,img/motor_2.png,83,motor,,,,,,,
453,,1140020,HierDy9cfsawef,dex8u744g4,ms1000267,motor,,83,img/motor_2.png,83,motor,2,19,1,0,0,,
null,,1140135,HierDy9cfsawef,dex8u744g4,ms1000267,iti,,null,img/motor_2.png,83,motor,,,,,,,
598,,1140740,HierDy9cfsawef,dex8u744g4,ms1000267,motor,,68,img/motor_3.png,68,motor,3,20,1,0,0,,
null,,1140849,HierDy9cfsawef,dex8u744g4,ms1000267,iti,,null,img/motor_3.png,68,motor,,,,,,,
732,,1141595,HierDy9cfsawef,dex8u744g4,ms1000267,motor,,72,img/motor_5.png,72,motor,5,21,1,0,0,,
null,,1141704,HierDy9cfsawef,dex8u744g4,ms1000267,iti,,null,img/motor_5.png,72,motor,,,,,,,
501,,1142213,HierDy9cfsawef,dex8u744g4,ms1000267,motor,,76,img/motor_8.png,76,motor,8,22,1,0,0,,
null,,1142322,HierDy9cfsawef,dex8u744g4,ms1000267,iti,,null,img/motor_8.png,76,motor,,,,,,,
660,,1142995,HierDy9cfsawef,dex8u744g4,ms1000267,motor,,70,img/motor_4.png,70,motor,4,23,1,0,0,,
null,,1143110,HierDy9cfsawef,dex8u744g4,ms1000267,iti,,null,img/motor_4.png,70,motor,,,,,,,
406,,1143525,HierDy9cfsawef,dex8u744g4,ms1000267,motor,,70,img/motor_4.png,70,motor,4,24,1,0,0,,
null,,1143639,HierDy9cfsawef,dex8u744g4,ms1000267,iti,,null,img/motor_4.png,70,motor,,,,,,,
894,,1144540,HierDy9cfsawef,dex8u744g4,ms1000267,motor,,68,img/motor_3.png,68,motor,3,25,1,0,0,,
null,,1144649,HierDy9cfsawef,dex8u744g4,ms1000267,iti,,null,img/motor_3.png,68,motor,,,,,,,
659,,1145317,HierDy9cfsawef,dex8u744g4,ms1000267,motor,,76,img/motor_8.png,76,motor,8,26,1,0,0,,
null,,1145424,HierDy9cfsawef,dex8u744g4,ms1000267,iti,,null,img/motor_8.png,76,motor,,,,,,,
579,,1146013,HierDy9cfsawef,dex8u744g4,ms1000267,motor,,72,img/motor_5.png,72,motor,5,27,1,0,0,,
null,,1146122,HierDy9cfsawef,dex8u744g4,ms1000267,iti,,null,img/motor_5.png,72,motor,,,,,,,
387,,1146517,HierDy9cfsawef,dex8u744g4,ms1000267,motor,,72,img/motor_5.png,72,motor,5,28,1,0,0,,
null,,1146625,HierDy9cfsawef,dex8u744g4,ms1000267,iti,,null,img/motor_5.png,72,motor,,,,,,,
507,,1147140,HierDy9cfsawef,dex8u744g4,ms1000267,motor,,74,img/motor_6.png,74,motor,6,29,1,0,0,,
null,,1147254,HierDy9cfsawef,dex8u744g4,ms1000267,iti,,null,img/motor_6.png,74,motor,,,,,,,
525,,1147788,HierDy9cfsawef,dex8u744g4,ms1000267,motor,,72,img/motor_5.png,72,motor,5,30,1,0,0,,
null,,1147903,HierDy9cfsawef,dex8u744g4,ms1000267,iti,,null,img/motor_5.png,72,motor,,,,,,,
878,,1148789,HierDy9cfsawef,dex8u744g4,ms1000267,motor,,68,img/motor_3.png,68,motor,3,31,1,0,0,,
null,,1148896,HierDy9cfsawef,dex8u744g4,ms1000267,iti,,null,img/motor_3.png,68,motor,,,,,,,
828,,1149733,HierDy9cfsawef,dex8u744g4,ms1000267,motor,,72,img/motor_5.png,72,motor,5,32,1,0,0,,
null,,1149840,HierDy9cfsawef,dex8u744g4,ms1000267,iti,,null,img/motor_5.png,72,motor,,,,,,,
565,,1150418,HierDy9cfsawef,dex8u744g4,ms1000267,motor,,68,img/motor_3.png,68,motor,3,33,1,0,0,,
null,,1150527,HierDy9cfsawef,dex8u744g4,ms1000267,iti,,null,img/motor_3.png,68,motor,,,,,,,
629,,1151164,HierDy9cfsawef,dex8u744g4,ms1000267,motor,,65,img/motor_1.png,65,motor,1,34,1,0,0,,
null,,1151279,HierDy9cfsawef,dex8u744g4,ms1000267,iti,,null,img/motor_1.png,65,motor,,,,,,,
598,,1151891,HierDy9cfsawef,dex8u744g4,ms1000267,motor,,83,img/motor_2.png,83,motor,2,35,1,0,0,,
null,,1152006,HierDy9cfsawef,dex8u744g4,ms1000267,iti,,null,img/motor_2.png,83,motor,,,,,,,
502,,1152523,HierDy9cfsawef,dex8u744g4,ms1000267,motor,,83,img/motor_2.png,83,motor,2,36,1,0,0,,
null,,1152631,HierDy9cfsawef,dex8u744g4,ms1000267,iti,,null,img/motor_2.png,83,motor,,,,,,,
589,,1153235,HierDy9cfsawef,dex8u744g4,ms1000267,motor,,76,img/motor_8.png,76,motor,8,37,1,0,0,,
null,,1153343,HierDy9cfsawef,dex8u744g4,ms1000267,iti,,null,img/motor_8.png,76,motor,,,,,,,
677,,1154035,HierDy9cfsawef,dex8u744g4,ms1000267,motor,,68,img/motor_3.png,68,motor,3,38,1,0,0,,
null,,1154150,HierDy9cfsawef,dex8u744g4,ms1000267,iti,,null,img/motor_3.png,68,motor,,,,,,,
758,,1154917,HierDy9cfsawef,dex8u744g4,ms1000267,motor,,74,img/motor_6.png,74,motor,6,39,1,0,0,,
null,,1155025,HierDy9cfsawef,dex8u744g4,ms1000267,iti,,null,img/motor_6.png,74,motor,,,,,,,
563,,1155604,HierDy9cfsawef,dex8u744g4,ms1000267,motor,,68,img/motor_3.png,68,motor,3,40,1,0,0,,
null,,1155718,HierDy9cfsawef,dex8u744g4,ms1000267,iti,,null,img/motor_3.png,68,motor,,,,,,,
574,,1156300,HierDy9cfsawef,dex8u744g4,ms1000267,motor,,83,img/motor_2.png,83,motor,2,41,1,0,0,,
null,,1156415,HierDy9cfsawef,dex8u744g4,ms1000267,iti,,null,img/motor_2.png,83,motor,,,,,,,
605,,1157029,HierDy9cfsawef,dex8u744g4,ms1000267,motor,,68,img/motor_3.png,68,motor,3,42,1,0,0,,
null,,1157137,HierDy9cfsawef,dex8u744g4,ms1000267,iti,,null,img/motor_3.png,68,motor,,,,,,,
619,,1157771,HierDy9cfsawef,dex8u744g4,ms1000267,motor,,65,img/motor_1.png,65,motor,1,43,1,0,0,,
null,,1157886,HierDy9cfsawef,dex8u744g4,ms1000267,iti,,null,img/motor_1.png,65,motor,,,,,,,
422,,1158317,HierDy9cfsawef,dex8u744g4,ms1000267,motor,,83,img/motor_2.png,83,motor,2,44,1,0,0,,
null,,1158425,HierDy9cfsawef,dex8u744g4,ms1000267,iti,,null,img/motor_2.png,83,motor,,,,,,,
460,,1158894,HierDy9cfsawef,dex8u744g4,ms1000267,motor,,65,img/motor_1.png,65,motor,1,45,1,0,0,,
null,,1159001,HierDy9cfsawef,dex8u744g4,ms1000267,iti,,null,img/motor_1.png,65,motor,,,,,,,
812,,1159827,HierDy9cfsawef,dex8u744g4,ms1000267,motor,,72,img/motor_5.png,72,motor,5,46,1,0,0,,
null,,1159936,HierDy9cfsawef,dex8u744g4,ms1000267,iti,,null,img/motor_5.png,72,motor,,,,,,,
517,,1160460,HierDy9cfsawef,dex8u744g4,ms1000267,motor,,65,img/motor_1.png,65,motor,1,47,1,0,0,,
null,,1160570,HierDy9cfsawef,dex8u744g4,ms1000267,iti,,null,img/motor_1.png,65,motor,,,,,,,
532,,1161115,HierDy9cfsawef,dex8u744g4,ms1000267,motor,,76,img/motor_8.png,76,motor,8,48,1,0,0,,
null,,1161225,HierDy9cfsawef,dex8u744g4,ms1000267,iti,,null,img/motor_8.png,76,motor,,,,,,,
773,,1162011,HierDy9cfsawef,dex8u744g4,ms1000267,motor,,74,img/motor_6.png,74,motor,6,49,1,0,0,,
null,,1162126,HierDy9cfsawef,dex8u744g4,ms1000267,iti,,null,img/motor_6.png,74,motor,,,,,,,
605,,1162741,HierDy9cfsawef,dex8u744g4,ms1000267,motor,,65,img/motor_1.png,65,motor,1,50,1,0,0,,
null,,1162849,HierDy9cfsawef,dex8u744g4,ms1000267,iti,,null,img/motor_1.png,65,motor,,,,,,,
668,,1163531,HierDy9cfsawef,dex8u744g4,ms1000267,motor,,76,img/motor_8.png,76,motor,8,51,1,0,0,,
null,,1163639,HierDy9cfsawef,dex8u744g4,ms1000267,iti,,null,img/motor_8.png,76,motor,,,,,,,
1501,,1165155,HierDy9cfsawef,dex8u744g4,ms1000267,motor,,70,img/motor_4.png,70,motor,4,52,1,0,0,,
null,,1165265,HierDy9cfsawef,dex8u744g4,ms1000267,iti,,null,img/motor_4.png,70,motor,,,,,,,
588,,1165860,HierDy9cfsawef,dex8u744g4,ms1000267,motor,,72,img/motor_5.png,72,motor,5,53,1,0,0,,
null,,1165968,HierDy9cfsawef,dex8u744g4,ms1000267,iti,,null,img/motor_5.png,72,motor,,,,,,,
453,,1166429,HierDy9cfsawef,dex8u744g4,ms1000267,motor,,72,img/motor_5.png,72,motor,5,54,1,0,0,,
null,,1166538,HierDy9cfsawef,dex8u744g4,ms1000267,iti,,null,img/motor_5.png,72,motor,,,,,,,
755,,1167308,HierDy9cfsawef,dex8u744g4,ms1000267,motor,,75,img/motor_7.png,75,motor,7,55,1,0,0,,
null,,1167416,HierDy9cfsawef,dex8u744g4,ms1000267,iti,,null,img/motor_7.png,75,motor,,,,,,,
621,,1168051,HierDy9cfsawef,dex8u744g4,ms1000267,motor,,65,img/motor_1.png,65,motor,1,56,1,0,0,,
null,,1168166,HierDy9cfsawef,dex8u744g4,ms1000267,iti,,null,img/motor_1.png,65,motor,,,,,,,
735,,1168915,HierDy9cfsawef,dex8u744g4,ms1000267,motor,,74,img/motor_6.png,74,motor,6,57,1,0,0,,
null,,1169024,HierDy9cfsawef,dex8u744g4,ms1000267,iti,,null,img/motor_6.png,74,motor,,,,,,,
596,,1169635,HierDy9cfsawef,dex8u744g4,ms1000267,motor,,76,img/motor_8.png,76,motor,8,58,1,0,0,,
null,,1169744,HierDy9cfsawef,dex8u744g4,ms1000267,iti,,null,img/motor_8.png,76,motor,,,,,,,
644,,1170397,HierDy9cfsawef,dex8u744g4,ms1000267,motor,,83,img/motor_2.png,83,motor,2,59,1,0,0,,
null,,1170510,HierDy9cfsawef,dex8u744g4,ms1000267,iti,,null,img/motor_2.png,83,motor,,,,,,,
532,,1171053,HierDy9cfsawef,dex8u744g4,ms1000267,motor,,65,img/motor_1.png,65,motor,1,60,1,0,0,,
null,,1171161,HierDy9cfsawef,dex8u744g4,ms1000267,iti,,null,img/motor_1.png,65,motor,,,,,,,
716,,1171885,HierDy9cfsawef,dex8u744g4,ms1000267,motor,,70,img/motor_4.png,70,motor,4,61,1,0,0,,
null,,1171993,HierDy9cfsawef,dex8u744g4,ms1000267,iti,,null,img/motor_4.png,70,motor,,,,,,,
580,,1172581,HierDy9cfsawef,dex8u744g4,ms1000267,motor,,83,img/motor_2.png,83,motor,2,62,1,0,0,,
null,,1172689,HierDy9cfsawef,dex8u744g4,ms1000267,iti,,null,img/motor_2.png,83,motor,,,,,,,
572,,1173276,HierDy9cfsawef,dex8u744g4,ms1000267,motor,,68,img/motor_3.png,68,motor,3,63,1,0,0,,
null,,1173384,HierDy9cfsawef,dex8u744g4,ms1000267,iti,,null,img/motor_3.png,68,motor,,,,,,,
580,,1173973,HierDy9cfsawef,dex8u744g4,ms1000267,motor,,70,img/motor_4.png,70,motor,4,64,1,0,0,,
null,,1174082,HierDy9cfsawef,dex8u744g4,ms1000267,iti,,null,img/motor_4.png,70,motor,,,,,,,
619,,1174709,HierDy9cfsawef,dex8u744g4,ms1000267,motor,,74,img/motor_6.png,74,motor,6,65,1,0,0,,
null,,1174817,HierDy9cfsawef,dex8u744g4,ms1000267,iti,,null,img/motor_6.png,74,motor,,,,,,,
612,,1175437,HierDy9cfsawef,dex8u744g4,ms1000267,motor,,83,img/motor_2.png,83,motor,2,66,1,0,0,,
null,,1175546,HierDy9cfsawef,dex8u744g4,ms1000267,iti,,null,img/motor_2.png,83,motor,,,,,,,
795,,1176355,HierDy9cfsawef,dex8u744g4,ms1000267,motor,,74,img/motor_6.png,74,motor,6,67,1,0,0,,
null,,1176463,HierDy9cfsawef,dex8u744g4,ms1000267,iti,,null,img/motor_6.png,74,motor,,,,,,,
478,,1176949,HierDy9cfsawef,dex8u744g4,ms1000267,motor,,76,img/motor_8.png,76,motor,8,68,1,0,0,,
null,,1177058,HierDy9cfsawef,dex8u744g4,ms1000267,iti,,null,img/motor_8.png,76,motor,,,,,,,
532,,1177596,HierDy9cfsawef,dex8u744g4,ms1000267,motor,,75,img/motor_7.png,75,motor,7,69,1,0,0,,
null,,1177712,HierDy9cfsawef,dex8u744g4,ms1000267,iti,,null,img/motor_7.png,75,motor,,,,,,,
445,,1178166,HierDy9cfsawef,dex8u744g4,ms1000267,motor,,75,img/motor_7.png,75,motor,7,70,1,0,0,,
null,,1178280,HierDy9cfsawef,dex8u744g4,ms1000267,iti,,null,img/motor_7.png,75,motor,,,,,,,
485,,1178772,HierDy9cfsawef,dex8u744g4,ms1000267,motor,,83,img/motor_2.png,83,motor,2,71,1,0,0,,
null,,1178881,HierDy9cfsawef,dex8u744g4,ms1000267,iti,,null,img/motor_2.png,83,motor,,,,,,,
532,,1179421,HierDy9cfsawef,dex8u744g4,ms1000267,motor,,75,img/motor_7.png,75,motor,7,72,1,0,0,,
null,,1179530,HierDy9cfsawef,dex8u744g4,ms1000267,iti,,null,img/motor_7.png,75,motor,,,,,,,
699,,1180237,HierDy9cfsawef,dex8u744g4,ms1000267,motor,,70,img/motor_4.png,70,motor,4,73,1,0,0,,
null,,1180346,HierDy9cfsawef,dex8u744g4,ms1000267,iti,,null,img/motor_4.png,70,motor,,,,,,,
651,,1181011,HierDy9cfsawef,dex8u744g4,ms1000267,motor,,72,img/motor_5.png,72,motor,5,74,1,0,0,,
null,,1181126,HierDy9cfsawef,dex8u744g4,ms1000267,iti,,null,img/motor_5.png,72,motor,,,,,,,
550,,1181685,HierDy9cfsawef,dex8u744g4,ms1000267,motor,,83,img/motor_2.png,83,motor,2,75,1,0,0,,
null,,1181793,HierDy9cfsawef,dex8u744g4,ms1000267,iti,,null,img/motor_2.png,83,motor,,,,,,,
668,,1182476,HierDy9cfsawef,dex8u744g4,ms1000267,motor,,75,img/motor_7.png,75,motor,7,76,1,0,0,,
null,,1182584,HierDy9cfsawef,dex8u744g4,ms1000267,iti,,null,img/motor_7.png,75,motor,,,,,,,
517,,1183110,HierDy9cfsawef,dex8u744g4,ms1000267,motor,,76,img/motor_8.png,76,motor,8,77,1,0,0,,
null,,1183217,HierDy9cfsawef,dex8u744g4,ms1000267,iti,,null,img/motor_8.png,76,motor,,,,,,,
412,,1183644,HierDy9cfsawef,dex8u744g4,ms1000267,motor,,83,img/motor_1.png,65,motor,1,78,0,1,0,,
402,,1184060,HierDy9cfsawef,dex8u744g4,ms1000267,motorRepeat,,65,img/motor_1.png,65,motor,1,78,1,0,0,,
null,,1184170,HierDy9cfsawef,dex8u744g4,ms1000267,iti,,null,img/motor_1.png,65,motor,,,,,,,
564,,1184747,HierDy9cfsawef,dex8u744g4,ms1000267,motor,,72,img/motor_6.png,74,motor,6,79,0,1,0,,
313,,1185075,HierDy9cfsawef,dex8u744g4,ms1000267,motorRepeat,,74,img/motor_6.png,74,motor,6,79,1,0,0,,
null,,1185184,HierDy9cfsawef,dex8u744g4,ms1000267,iti,,null,img/motor_6.png,74,motor,,,,,,,
805,,1185997,HierDy9cfsawef,dex8u744g4,ms1000267,motor,,68,img/motor_3.png,68,motor,3,80,1,0,0,,
null,,1186110,HierDy9cfsawef,dex8u744g4,ms1000267,iti,,null,img/motor_3.png,68,motor,,,,,,,
469,,1186591,HierDy9cfsawef,dex8u744g4,ms1000267,motor,,76,img/motor_8.png,76,motor,8,81,1,0,0,,
null,,1186705,HierDy9cfsawef,dex8u744g4,ms1000267,iti,,null,img/motor_8.png,76,motor,,,,,,,
515,,1187229,HierDy9cfsawef,dex8u744g4,ms1000267,motor,,65,img/motor_1.png,65,motor,1,82,1,0,0,,
null,,1187344,HierDy9cfsawef,dex8u744g4,ms1000267,iti,,null,img/motor_1.png,65,motor,,,,,,,
501,,1187853,HierDy9cfsawef,dex8u744g4,ms1000267,motor,,83,img/motor_2.png,83,motor,2,83,1,0,0,,
null,,1187961,HierDy9cfsawef,dex8u744g4,ms1000267,iti,,null,img/motor_2.png,83,motor,,,,,,,
476,,1188444,HierDy9cfsawef,dex8u744g4,ms1000267,motor,,76,img/motor_8.png,76,motor,8,84,1,0,0,,
null,,1188552,HierDy9cfsawef,dex8u744g4,ms1000267,iti,,null,img/motor_8.png,76,motor,,,,,,,
525,,1189084,HierDy9cfsawef,dex8u744g4,ms1000267,motor,,83,img/motor_2.png,83,motor,2,85,1,0,0,,
null,,1189198,HierDy9cfsawef,dex8u744g4,ms1000267,iti,,null,img/motor_2.png,83,motor,,,,,,,
783,,1189989,HierDy9cfsawef,dex8u744g4,ms1000267,motor,,74,img/motor_6.png,74,motor,6,86,1,0,0,,
null,,1190098,HierDy9cfsawef,dex8u744g4,ms1000267,iti,,null,img/motor_6.png,74,motor,,,,,,,
572,,1190677,HierDy9cfsawef,dex8u744g4,ms1000267,motor,,72,img/motor_5.png,72,motor,5,87,1,0,0,,
null,,1190791,HierDy9cfsawef,dex8u744g4,ms1000267,iti,,null,img/motor_5.png,72,motor,,,,,,,
453,,1191253,HierDy9cfsawef,dex8u744g4,ms1000267,motor,,72,img/motor_6.png,74,motor,6,88,0,1,0,,
328,,1191589,HierDy9cfsawef,dex8u744g4,ms1000267,motorRepeat,,74,img/motor_6.png,74,motor,6,88,1,0,0,,
null,,1191703,HierDy9cfsawef,dex8u744g4,ms1000267,iti,,null,img/motor_6.png,74,motor,,,,,,,
558,,1192269,HierDy9cfsawef,dex8u744g4,ms1000267,motor,,70,img/motor_4.png,70,motor,4,89,1,0,0,,
null,,1192377,HierDy9cfsawef,dex8u744g4,ms1000267,iti,,null,img/motor_4.png,70,motor,,,,,,,
525,,1192909,HierDy9cfsawef,dex8u744g4,ms1000267,motor,,70,img/motor_4.png,70,motor,4,90,1,0,0,,
null,,1193024,HierDy9cfsawef,dex8u744g4,ms1000267,iti,,null,img/motor_4.png,70,motor,,,,,,,
613,,1193652,HierDy9cfsawef,dex8u744g4,ms1000267,motor,,75,img/motor_7.png,75,motor,7,91,1,0,0,,
null,,1193766,HierDy9cfsawef,dex8u744g4,ms1000267,iti,,null,img/motor_7.png,75,motor,,,,,,,
599,,1194373,HierDy9cfsawef,dex8u744g4,ms1000267,motor,,70,img/motor_4.png,70,motor,4,92,1,0,0,,
null,,1194481,HierDy9cfsawef,dex8u744g4,ms1000267,iti,,null,img/motor_4.png,70,motor,,,,,,,
540,,1195028,HierDy9cfsawef,dex8u744g4,ms1000267,motor,,68,img/motor_3.png,68,motor,3,93,1,0,0,,
null,,1195144,HierDy9cfsawef,dex8u744g4,ms1000267,iti,,null,img/motor_3.png,68,motor,,,,,,,
333,,1195492,HierDy9cfsawef,dex8u744g4,ms1000267,motor,,68,img/motor_3.png,68,motor,3,94,1,0,0,,
null,,1195607,HierDy9cfsawef,dex8u744g4,ms1000267,iti,,null,img/motor_3.png,68,motor,,,,,,,
454,,1196068,HierDy9cfsawef,dex8u744g4,ms1000267,motor,,83,img/motor_2.png,83,motor,2,95,1,0,0,,
null,,1196183,HierDy9cfsawef,dex8u744g4,ms1000267,iti,,null,img/motor_2.png,83,motor,,,,,,,
478,,1196676,HierDy9cfsawef,dex8u744g4,ms1000267,motor,,65,img/motor_1.png,65,motor,1,96,1,0,0,,
null,,1196791,HierDy9cfsawef,dex8u744g4,ms1000267,iti,,null,img/motor_1.png,65,motor,,,,,,,
533,,1197340,HierDy9cfsawef,dex8u744g4,ms1000267,motor,,76,img/motor_8.png,76,motor,8,97,1,0,0,,
null,,1197455,HierDy9cfsawef,dex8u744g4,ms1000267,iti,,null,img/motor_8.png,76,motor,,,,,,,
502,,1197972,HierDy9cfsawef,dex8u744g4,ms1000267,motor,,83,img/motor_2.png,83,motor,2,98,1,0,0,,
null,,1198087,HierDy9cfsawef,dex8u744g4,ms1000267,iti,,null,img/motor_2.png,83,motor,,,,,,,
343,,1198438,HierDy9cfsawef,dex8u744g4,ms1000267,motor,,83,img/motor_2.png,83,motor,2,99,1,0,0,,
null,,1198552,HierDy9cfsawef,dex8u744g4,ms1000267,iti,,null,img/motor_2.png,83,motor,,,,,,,
700,,1199261,HierDy9cfsawef,dex8u744g4,ms1000267,motor,,75,img/motor_7.png,75,motor,7,100,1,0,0,,
null,,1199375,HierDy9cfsawef,dex8u744g4,ms1000267,iti,,null,img/motor_7.png,75,motor,,,,,,,
517,,1199901,HierDy9cfsawef,dex8u744g4,ms1000267,motor,,76,img/motor_8.png,76,motor,8,101,1,0,0,,
null,,1200015,HierDy9cfsawef,dex8u744g4,ms1000267,iti,,null,img/motor_8.png,76,motor,,,,,,,
693,,1200723,HierDy9cfsawef,dex8u744g4,ms1000267,motor,,74,img/motor_6.png,74,motor,6,102,1,0,0,,
null,,1200833,HierDy9cfsawef,dex8u744g4,ms1000267,iti,,null,img/motor_6.png,74,motor,,,,,,,
718,,1201564,HierDy9cfsawef,dex8u744g4,ms1000267,motor,,70,img/motor_4.png,70,motor,4,103,1,0,0,,
null,,1201680,HierDy9cfsawef,dex8u744g4,ms1000267,iti,,null,img/motor_4.png,70,motor,,,,,,,
749,,1202437,HierDy9cfsawef,dex8u744g4,ms1000267,motor,,74,img/motor_6.png,74,motor,6,104,1,0,0,,
null,,1202551,HierDy9cfsawef,dex8u744g4,ms1000267,iti,,null,img/motor_6.png,74,motor,,,,,,,
550,,1203116,HierDy9cfsawef,dex8u744g4,ms1000267,motor,,72,img/motor_5.png,72,motor,5,105,1,0,0,,
null,,1203231,HierDy9cfsawef,dex8u744g4,ms1000267,iti,,null,img/motor_5.png,72,motor,,,,,,,
510,,1203749,HierDy9cfsawef,dex8u744g4,ms1000267,motor,,70,img/motor_4.png,70,motor,4,106,1,0,0,,
null,,1203857,HierDy9cfsawef,dex8u744g4,ms1000267,iti,,null,img/motor_4.png,70,motor,,,,,,,
516,,1204381,HierDy9cfsawef,dex8u744g4,ms1000267,motor,,68,img/motor_3.png,68,motor,3,107,1,0,0,,
null,,1204490,HierDy9cfsawef,dex8u744g4,ms1000267,iti,,null,img/motor_3.png,68,motor,,,,,,,
475,,1204980,HierDy9cfsawef,dex8u744g4,ms1000267,motor,,65,img/motor_1.png,65,motor,1,108,1,0,0,,
null,,1205089,HierDy9cfsawef,dex8u744g4,ms1000267,iti,,null,img/motor_1.png,65,motor,,,,,,,
860,,1205958,HierDy9cfsawef,dex8u744g4,ms1000267,motor,,74,img/motor_6.png,74,motor,6,109,1,0,0,,
null,,1206072,HierDy9cfsawef,dex8u744g4,ms1000267,iti,,null,img/motor_6.png,74,motor,,,,,,,
518,,1206597,HierDy9cfsawef,dex8u744g4,ms1000267,motor,,70,img/motor_4.png,70,motor,4,110,1,0,0,,
null,,1206705,HierDy9cfsawef,dex8u744g4,ms1000267,iti,,null,img/motor_4.png,70,motor,,,,,,,
428,,1207141,HierDy9cfsawef,dex8u744g4,ms1000267,motor,,76,img/motor_8.png,76,motor,8,111,1,0,0,,
null,,1207255,HierDy9cfsawef,dex8u744g4,ms1000267,iti,,null,img/motor_8.png,76,motor,,,,,,,
462,,1207726,HierDy9cfsawef,dex8u744g4,ms1000267,motor,,74,img/motor_6.png,74,motor,6,112,1,0,0,,
null,,1207840,HierDy9cfsawef,dex8u744g4,ms1000267,iti,,null,img/motor_6.png,74,motor,,,,,,,
420,,1208269,HierDy9cfsawef,dex8u744g4,ms1000267,motor,,76,img/motor_8.png,76,motor,8,113,1,0,0,,
null,,1208383,HierDy9cfsawef,dex8u744g4,ms1000267,iti,,null,img/motor_8.png,76,motor,,,,,,,
798,,1209196,HierDy9cfsawef,dex8u744g4,ms1000267,motor,,68,img/motor_3.png,68,motor,3,114,1,0,0,,
null,,1209311,HierDy9cfsawef,dex8u744g4,ms1000267,iti,,null,img/motor_3.png,68,motor,,,,,,,
445,,1209772,HierDy9cfsawef,dex8u744g4,ms1000267,motor,,76,img/motor_8.png,76,motor,8,115,1,0,0,,
null,,1209886,HierDy9cfsawef,dex8u744g4,ms1000267,iti,,null,img/motor_8.png,76,motor,,,,,,,
542,,1210443,HierDy9cfsawef,dex8u744g4,ms1000267,motor,,75,img/motor_7.png,75,motor,7,116,1,0,0,,
null,,1210559,HierDy9cfsawef,dex8u744g4,ms1000267,iti,,null,img/motor_7.png,75,motor,,,,,,,
502,,1211069,HierDy9cfsawef,dex8u744g4,ms1000267,motor,,72,img/motor_5.png,72,motor,5,117,1,0,0,,
null,,1211177,HierDy9cfsawef,dex8u744g4,ms1000267,iti,,null,img/motor_5.png,72,motor,,,,,,,
875,,1212068,HierDy9cfsawef,dex8u744g4,ms1000267,motor,,68,img/motor_3.png,68,motor,3,118,1,0,0,,
null,,1212183,HierDy9cfsawef,dex8u744g4,ms1000267,iti,,null,img/motor_3.png,68,motor,,,,,,,
479,,1212676,HierDy9cfsawef,dex8u744g4,ms1000267,motor,,72,img/motor_5.png,72,motor,5,119,1,0,0,,
null,,1212791,HierDy9cfsawef,dex8u744g4,ms1000267,iti,,null,img/motor_5.png,72,motor,,,,,,,
438,,1213244,HierDy9cfsawef,dex8u744g4,ms1000267,motor,,74,img/motor_7.png,75,motor,7,120,0,1,0,,
273,,1213532,HierDy9cfsawef,dex8u744g4,ms1000267,motorRepeat,,75,img/motor_7.png,75,motor,7,120,1,0,0,,
null,,1213646,HierDy9cfsawef,dex8u744g4,ms1000267,iti,,null,img/motor_7.png,75,motor,,,,,,,
630,,1214285,HierDy9cfsawef,dex8u744g4,ms1000267,motor,,65,img/motor_1.png,65,motor,1,121,1,0,0,,
null,,1214400,HierDy9cfsawef,dex8u744g4,ms1000267,iti,,null,img/motor_1.png,65,motor,,,,,,,
357,,1214766,HierDy9cfsawef,dex8u744g4,ms1000267,motor,,65,img/motor_1.png,65,motor,1,122,1,0,0,,
null,,1214880,HierDy9cfsawef,dex8u744g4,ms1000267,iti,,null,img/motor_1.png,65,motor,,,,,,,
540,,1215436,HierDy9cfsawef,dex8u744g4,ms1000267,motor,,83,img/motor_2.png,83,motor,2,123,1,0,0,,
null,,1215550,HierDy9cfsawef,dex8u744g4,ms1000267,iti,,null,img/motor_2.png,83,motor,,,,,,,
614,,1216179,HierDy9cfsawef,dex8u744g4,ms1000267,motor,,70,img/motor_4.png,70,motor,4,124,1,0,0,,
null,,1216295,HierDy9cfsawef,dex8u744g4,ms1000267,iti,,null,img/motor_4.png,70,motor,,,,,,,
678,,1216988,HierDy9cfsawef,dex8u744g4,ms1000267,motor,,75,img/motor_7.png,75,motor,7,125,1,0,0,,
null,,1217097,HierDy9cfsawef,dex8u744g4,ms1000267,iti,,null,img/motor_7.png,75,motor,,,,,,,
565,,1217669,HierDy9cfsawef,dex8u744g4,ms1000267,motor,,74,img/motor_6.png,74,motor,6,126,1,0,0,,
null,,1217778,HierDy9cfsawef,dex8u744g4,ms1000267,iti,,null,img/motor_6.png,74,motor,,,,,,,
595,,1218388,HierDy9cfsawef,dex8u744g4,ms1000267,motor,,72,img/motor_5.png,72,motor,5,127,1,0,0,,
null,,1218503,HierDy9cfsawef,dex8u744g4,ms1000267,iti,,null,img/motor_5.png,72,motor,,,,,,,
422,,1218939,HierDy9cfsawef,dex8u744g4,ms1000267,motor,,74,img/motor_6.png,74,motor,6,128,1,0,0,,
null,,1219055,HierDy9cfsawef,dex8u744g4,ms1000267,iti,,null,img/motor_6.png,74,motor,,,,,,,
591,,1219660,HierDy9cfsawef,dex8u744g4,ms1000267,motor,,83,img/motor_2.png,83,motor,2,129,1,0,0,,
null,,1219769,HierDy9cfsawef,dex8u744g4,ms1000267,iti,,null,img/motor_2.png,83,motor,,,,,,,
501,,1220284,HierDy9cfsawef,dex8u744g4,ms1000267,motor,,76,img/motor_8.png,76,motor,8,130,1,0,0,,
null,,1220399,HierDy9cfsawef,dex8u744g4,ms1000267,iti,,null,img/motor_8.png,76,motor,,,,,,,
358,,1220772,HierDy9cfsawef,dex8u744g4,ms1000267,motor,,76,img/motor_8.png,76,motor,8,131,1,0,0,,
null,,1220881,HierDy9cfsawef,dex8u744g4,ms1000267,iti,,null,img/motor_8.png,76,motor,,,,,,,
524,,1221420,HierDy9cfsawef,dex8u744g4,ms1000267,motor,,75,img/motor_7.png,75,motor,7,132,1,0,0,,
null,,1221529,HierDy9cfsawef,dex8u744g4,ms1000267,iti,,null,img/motor_7.png,75,motor,,,,,,,
540,,1222077,HierDy9cfsawef,dex8u744g4,ms1000267,motor,,65,img/motor_1.png,65,motor,1,133,1,0,0,,
null,,1222191,HierDy9cfsawef,dex8u744g4,ms1000267,iti,,null,img/motor_1.png,65,motor,,,,,,,
685,,1222893,HierDy9cfsawef,dex8u744g4,ms1000267,motor,,72,img/motor_5.png,72,motor,5,134,1,0,0,,
null,,1223001,HierDy9cfsawef,dex8u744g4,ms1000267,iti,,null,img/motor_5.png,72,motor,,,,,,,
412,,1223421,HierDy9cfsawef,dex8u744g4,ms1000267,motor,,76,img/motor_8.png,76,motor,8,135,1,0,0,,
null,,1223536,HierDy9cfsawef,dex8u744g4,ms1000267,iti,,null,img/motor_8.png,76,motor,,,,,,,
693,,1224237,HierDy9cfsawef,dex8u744g4,ms1000267,motor,,70,img/motor_4.png,70,motor,4,136,1,0,0,,
null,,1224345,HierDy9cfsawef,dex8u744g4,ms1000267,iti,,null,img/motor_4.png,70,motor,,,,,,,
756,,1225116,HierDy9cfsawef,dex8u744g4,ms1000267,motor,,75,img/motor_7.png,75,motor,7,137,1,0,0,,
null,,1225225,HierDy9cfsawef,dex8u744g4,ms1000267,iti,,null,img/motor_7.png,75,motor,,,,,,,
653,,1225885,HierDy9cfsawef,dex8u744g4,ms1000267,motor,,83,img/motor_2.png,83,motor,2,138,1,0,0,,
null,,1225994,HierDy9cfsawef,dex8u744g4,ms1000267,iti,,null,img/motor_2.png,83,motor,,,,,,,
492,,1226494,HierDy9cfsawef,dex8u744g4,ms1000267,motor,,75,img/motor_7.png,75,motor,7,139,1,0,0,,
null,,1226608,HierDy9cfsawef,dex8u744g4,ms1000267,iti,,null,img/motor_7.png,75,motor,,,,,,,
405,,1227021,HierDy9cfsawef,dex8u744g4,ms1000267,motor,,76,img/motor_8.png,76,motor,8,140,1,0,0,,
null,,1227136,HierDy9cfsawef,dex8u744g4,ms1000267,iti,,null,img/motor_8.png,76,motor,,,,,,,
669,,1227814,HierDy9cfsawef,dex8u744g4,ms1000267,motor,,70,img/motor_4.png,70,motor,4,141,1,0,0,,
null,,1227928,HierDy9cfsawef,dex8u744g4,ms1000267,iti,,null,img/motor_4.png,70,motor,,,,,,,
582,,1228524,HierDy9cfsawef,dex8u744g4,ms1000267,motor,,74,img/motor_6.png,74,motor,6,142,1,0,0,,
null,,1228633,HierDy9cfsawef,dex8u744g4,ms1000267,iti,,null,img/motor_6.png,74,motor,,,,,,,
341,,1228988,HierDy9cfsawef,dex8u744g4,ms1000267,motor,,74,img/motor_6.png,74,motor,6,143,1,0,0,,
null,,1229103,HierDy9cfsawef,dex8u744g4,ms1000267,iti,,null,img/motor_6.png,74,motor,,,,,,,
511,,1229621,HierDy9cfsawef,dex8u744g4,ms1000267,motor,,83,img/motor_3.png,68,motor,3,144,0,1,0,,
1440,,1231076,HierDy9cfsawef,dex8u744g4,ms1000267,motorRepeat,,68,img/motor_3.png,68,motor,3,144,1,0,0,,
null,,1231192,HierDy9cfsawef,dex8u744g4,ms1000267,iti,,null,img/motor_3.png,68,motor,,,,,,,
645,,1231852,HierDy9cfsawef,dex8u744g4,ms1000267,motor,,75,img/motor_7.png,75,motor,7,145,1,0,0,,
null,,1231967,HierDy9cfsawef,dex8u744g4,ms1000267,iti,,null,img/motor_7.png,75,motor,,,,,,,
630,,1232612,HierDy9cfsawef,dex8u744g4,ms1000267,motor,,68,img/motor_3.png,68,motor,3,146,1,0,0,,
null,,1232727,HierDy9cfsawef,dex8u744g4,ms1000267,iti,,null,img/motor_3.png,68,motor,,,,,,,
413,,1233149,HierDy9cfsawef,dex8u744g4,ms1000267,motor,,68,img/motor_3.png,68,motor,3,147,1,0,0,,
null,,1233263,HierDy9cfsawef,dex8u744g4,ms1000267,iti,,null,img/motor_3.png,68,motor,,,,,,,
813,,1234085,HierDy9cfsawef,dex8u744g4,ms1000267,motor,,75,img/motor_7.png,75,motor,7,148,1,0,0,,
null,,1234201,HierDy9cfsawef,dex8u744g4,ms1000267,iti,,null,img/motor_7.png,75,motor,,,,,,,
756,,1234966,HierDy9cfsawef,dex8u744g4,ms1000267,motor,,83,img/motor_2.png,83,motor,2,149,1,0,0,,
null,,1235080,HierDy9cfsawef,dex8u744g4,ms1000267,iti,,null,img/motor_2.png,83,motor,,,,,,,
317,,1235412,HierDy9cfsawef,dex8u744g4,ms1000267,motor,,83,img/motor_2.png,83,motor,2,150,1,0,0,,
null,,1235527,HierDy9cfsawef,dex8u744g4,ms1000267,iti,,null,img/motor_2.png,83,motor,,,,,,,
718,,1236254,HierDy9cfsawef,dex8u744g4,ms1000267,motor,,74,img/motor_6.png,74,motor,6,151,1,0,0,,
null,,1236368,HierDy9cfsawef,dex8u744g4,ms1000267,iti,,null,img/motor_6.png,74,motor,,,,,,,
357,,1236733,HierDy9cfsawef,dex8u744g4,ms1000267,motor,,74,img/motor_6.png,74,motor,6,152,1,0,0,,
null,,1236841,HierDy9cfsawef,dex8u744g4,ms1000267,iti,,null,img/motor_6.png,74,motor,,,,,,,
532,,1237388,HierDy9cfsawef,dex8u744g4,ms1000267,motor,,75,img/motor_7.png,75,motor,7,153,1,0,0,,
null,,1237504,HierDy9cfsawef,dex8u744g4,ms1000267,iti,,null,img/motor_7.png,75,motor,,,,,,,
407,,1237925,HierDy9cfsawef,dex8u744g4,ms1000267,motor,,76,img/motor_8.png,76,motor,8,154,1,0,0,,
null,,1238033,HierDy9cfsawef,dex8u744g4,ms1000267,iti,,null,img/motor_8.png,76,motor,,,,,,,
550,,1238596,HierDy9cfsawef,dex8u744g4,ms1000267,motor,,72,img/motor_5.png,72,motor,5,155,1,0,0,,
null,,1238711,HierDy9cfsawef,dex8u744g4,ms1000267,iti,,null,img/motor_5.png,72,motor,,,,,,,
486,,1239212,HierDy9cfsawef,dex8u744g4,ms1000267,motor,,75,img/motor_7.png,75,motor,7,156,1,0,0,,
null,,1239321,HierDy9cfsawef,dex8u744g4,ms1000267,iti,,null,img/motor_7.png,75,motor,,,,,,,
349,,1239678,HierDy9cfsawef,dex8u744g4,ms1000267,motor,,75,img/motor_7.png,75,motor,7,157,1,0,0,,
null,,1239785,HierDy9cfsawef,dex8u744g4,ms1000267,iti,,null,img/motor_7.png,75,motor,,,,,,,
444,,1240244,HierDy9cfsawef,dex8u744g4,ms1000267,motor,,72,img/motor_5.png,72,motor,5,158,1,0,0,,
null,,1240352,HierDy9cfsawef,dex8u744g4,ms1000267,iti,,null,img/motor_5.png,72,motor,,,,,,,
388,,1240751,HierDy9cfsawef,dex8u744g4,ms1000267,motor,,72,img/motor_5.png,72,motor,5,159,1,0,0,,
null,,1240865,HierDy9cfsawef,dex8u744g4,ms1000267,iti,,null,img/motor_5.png,72,motor,,,,,,,
500,,1241380,HierDy9cfsawef,dex8u744g4,ms1000267,motor,,75,img/motor_7.png,75,motor,7,160,1,0,0,,
null,,1241489,HierDy9cfsawef,dex8u744g4,ms1000267,iti,,null,img/motor_7.png,75,motor,,,,,,,
509,,1242012,HierDy9cfsawef,dex8u744g4,ms1000267,motor,,72,img/motor_5.png,72,motor,5,161,1,0,0,,
null,,1242127,HierDy9cfsawef,dex8u744g4,ms1000267,iti,,null,img/motor_5.png,72,motor,,,,,,,
670,,1242812,HierDy9cfsawef,dex8u744g4,ms1000267,motor,,83,img/motor_2.png,83,motor,2,162,1,0,0,,
null,,1242927,HierDy9cfsawef,dex8u744g4,ms1000267,iti,,null,img/motor_2.png,83,motor,,,,,,,
454,,1243396,HierDy9cfsawef,dex8u744g4,ms1000267,motor,,65,img/motor_1.png,65,motor,1,163,1,0,0,,
null,,1243505,HierDy9cfsawef,dex8u744g4,ms1000267,iti,,null,img/motor_1.png,65,motor,,,,,,,
389,,1243907,HierDy9cfsawef,dex8u744g4,ms1000267,motor,,83,img/motor_2.png,83,motor,2,164,1,0,0,,
null,,1244023,HierDy9cfsawef,dex8u744g4,ms1000267,iti,,null,img/motor_2.png,83,motor,,,,,,,
599,,1244636,HierDy9cfsawef,dex8u744g4,ms1000267,motor,,68,img/motor_3.png,68,motor,3,165,1,0,0,,
null,,1244751,HierDy9cfsawef,dex8u744g4,ms1000267,iti,,null,img/motor_3.png,68,motor,,,,,,,
397,,1245158,HierDy9cfsawef,dex8u744g4,ms1000267,motor,,83,img/motor_2.png,83,motor,2,166,1,0,0,,
null,,1245273,HierDy9cfsawef,dex8u744g4,ms1000267,iti,,null,img/motor_2.png,83,motor,,,,,,,
389,,1245677,HierDy9cfsawef,dex8u744g4,ms1000267,motor,,68,img/motor_3.png,68,motor,3,167,1,0,0,,
null,,1245792,HierDy9cfsawef,dex8u744g4,ms1000267,iti,,null,img/motor_3.png,68,motor,,,,,,,
549,,1246350,HierDy9cfsawef,dex8u744g4,ms1000267,motor,,65,img/motor_1.png,65,motor,1,168,1,0,0,,
null,,1246465,HierDy9cfsawef,dex8u744g4,ms1000267,iti,,null,img/motor_1.png,65,motor,,,,,,,
510,,1246982,HierDy9cfsawef,dex8u744g4,ms1000267,motor,,76,img/motor_8.png,76,motor,8,169,1,0,0,,
null,,1247090,HierDy9cfsawef,dex8u744g4,ms1000267,iti,,null,img/motor_8.png,76,motor,,,,,,,
492,,1247589,HierDy9cfsawef,dex8u744g4,ms1000267,motor,,83,img/motor_2.png,83,motor,2,170,1,0,0,,
null,,1247698,HierDy9cfsawef,dex8u744g4,ms1000267,iti,,null,img/motor_2.png,83,motor,,,,,,,
596,,1248309,HierDy9cfsawef,dex8u744g4,ms1000267,motor,,72,img/motor_5.png,72,motor,5,171,1,0,0,,
null,,1248424,HierDy9cfsawef,dex8u744g4,ms1000267,iti,,null,img/motor_5.png,72,motor,,,,,,,
605,,1249038,HierDy9cfsawef,dex8u744g4,ms1000267,motor,,75,img/motor_7.png,75,motor,7,172,1,0,0,,
null,,1249153,HierDy9cfsawef,dex8u744g4,ms1000267,iti,,null,img/motor_7.png,75,motor,,,,,,,
741,,1249908,HierDy9cfsawef,dex8u744g4,ms1000267,motor,,70,img/motor_4.png,70,motor,4,173,1,0,0,,
null,,1250018,HierDy9cfsawef,dex8u744g4,ms1000267,iti,,null,img/motor_4.png,70,motor,,,,,,,
532,,1250558,HierDy9cfsawef,dex8u744g4,ms1000267,motor,,76,img/motor_8.png,76,motor,8,174,1,0,0,,
null,,1250666,HierDy9cfsawef,dex8u744g4,ms1000267,iti,,null,img/motor_8.png,76,motor,,,,,,,
500,,1251180,HierDy9cfsawef,dex8u744g4,ms1000267,motor,,65,img/motor_1.png,65,motor,1,175,1,0,0,,
null,,1251288,HierDy9cfsawef,dex8u744g4,ms1000267,iti,,null,img/motor_1.png,65,motor,,,,,,,
589,,1251893,HierDy9cfsawef,dex8u744g4,ms1000267,motor,,75,img/motor_7.png,75,motor,7,176,1,0,0,,
null,,1252002,HierDy9cfsawef,dex8u744g4,ms1000267,iti,,null,img/motor_7.png,75,motor,,,,,,,
692,,1252702,HierDy9cfsawef,dex8u744g4,ms1000267,motor,,68,img/motor_3.png,68,motor,3,177,1,0,0,,
null,,1252817,HierDy9cfsawef,dex8u744g4,ms1000267,iti,,null,img/motor_3.png,68,motor,,,,,,,
645,,1253476,HierDy9cfsawef,dex8u744g4,ms1000267,motor,,74,img/motor_6.png,74,motor,6,178,1,0,0,,
null,,1253585,HierDy9cfsawef,dex8u744g4,ms1000267,iti,,null,img/motor_6.png,74,motor,,,,,,,
476,,1254070,HierDy9cfsawef,dex8u744g4,ms1000267,motor,,75,img/motor_7.png,75,motor,7,179,1,0,0,,
null,,1254184,HierDy9cfsawef,dex8u744g4,ms1000267,iti,,null,img/motor_7.png,75,motor,,,,,,,
532,,1254733,HierDy9cfsawef,dex8u744g4,ms1000267,motor,,74,img/motor_6.png,74,motor,6,180,1,0,0,,
null,,1254848,HierDy9cfsawef,dex8u744g4,ms1000267,iti,,null,img/motor_6.png,74,motor,,,,,,,
542,,1255404,HierDy9cfsawef,dex8u744g4,ms1000267,motor,,83,img/motor_2.png,83,motor,2,181,1,0,0,,
null,,1255520,HierDy9cfsawef,dex8u744g4,ms1000267,iti,,null,img/motor_2.png,83,motor,,,,,,,
717,,1256252,HierDy9cfsawef,dex8u744g4,ms1000267,motor,,75,img/motor_7.png,75,motor,7,182,1,0,0,,
null,,1256368,HierDy9cfsawef,dex8u744g4,ms1000267,iti,,null,img/motor_7.png,75,motor,,,,,,,
502,,1256885,HierDy9cfsawef,dex8u744g4,ms1000267,motor,,76,img/motor_8.png,76,motor,8,183,1,0,0,,
null,,1256993,HierDy9cfsawef,dex8u744g4,ms1000267,iti,,null,img/motor_8.png,76,motor,,,,,,,
518,,1257524,HierDy9cfsawef,dex8u744g4,ms1000267,motor,,74,img/motor_6.png,74,motor,6,184,1,0,0,,
null,,1257640,HierDy9cfsawef,dex8u744g4,ms1000267,iti,,null,img/motor_6.png,74,motor,,,,,,,
372,,1258022,HierDy9cfsawef,dex8u744g4,ms1000267,motor,,75,img/motor_7.png,75,motor,7,185,1,0,0,,
null,,1258137,HierDy9cfsawef,dex8u744g4,ms1000267,iti,,null,img/motor_7.png,75,motor,,,,,,,
581,,1258732,HierDy9cfsawef,dex8u744g4,ms1000267,motor,,65,img/motor_1.png,65,motor,1,186,1,0,0,,
null,,1258842,HierDy9cfsawef,dex8u744g4,ms1000267,iti,,null,img/motor_1.png,65,motor,,,,,,,
541,,1259390,HierDy9cfsawef,dex8u744g4,ms1000267,motor,,75,img/motor_7.png,75,motor,7,187,1,0,0,,
null,,1259498,HierDy9cfsawef,dex8u744g4,ms1000267,iti,,null,img/motor_7.png,75,motor,,,,,,,
619,,1260132,HierDy9cfsawef,dex8u744g4,ms1000267,motor,,68,img/motor_3.png,68,motor,3,188,1,0,0,,
null,,1260242,HierDy9cfsawef,dex8u744g4,ms1000267,iti,,null,img/motor_3.png,68,motor,,,,,,,
603,,1260854,HierDy9cfsawef,dex8u744g4,ms1000267,motor,,72,img/motor_5.png,72,motor,5,189,1,0,0,,
null,,1260969,HierDy9cfsawef,dex8u744g4,ms1000267,iti,,null,img/motor_5.png,72,motor,,,,,,,
491,,1261470,HierDy9cfsawef,dex8u744g4,ms1000267,motor,,70,img/motor_4.png,70,motor,4,190,1,0,0,,
null,,1261578,HierDy9cfsawef,dex8u744g4,ms1000267,iti,,null,img/motor_4.png,70,motor,,,,,,,
469,,1262061,HierDy9cfsawef,dex8u744g4,ms1000267,motor,,76,img/motor_8.png,76,motor,8,191,1,0,0,,
null,,1262169,HierDy9cfsawef,dex8u744g4,ms1000267,iti,,null,img/motor_8.png,76,motor,,,,,,,
494,,1262670,HierDy9cfsawef,dex8u744g4,ms1000267,motor,,75,img/motor_7.png,75,motor,7,192,1,0,0,,
null,,1262785,HierDy9cfsawef,dex8u744g4,ms1000267,iti,,null,img/motor_7.png,75,motor,,,,,,,
621,,1263414,HierDy9cfsawef,dex8u744g4,ms1000267,motor,,70,img/motor_4.png,70,motor,4,193,1,0,0,,
null,,1263529,HierDy9cfsawef,dex8u744g4,ms1000267,iti,,null,img/motor_4.png,70,motor,,,,,,,
477,,1264014,HierDy9cfsawef,dex8u744g4,ms1000267,motor,,76,img/motor_8.png,76,motor,8,194,1,0,0,,
null,,1264129,HierDy9cfsawef,dex8u744g4,ms1000267,iti,,null,img/motor_8.png,76,motor,,,,,,,
364,,1264508,HierDy9cfsawef,dex8u744g4,ms1000267,motor,,76,img/motor_8.png,76,motor,8,195,1,0,0,,
null,,1264617,HierDy9cfsawef,dex8u744g4,ms1000267,iti,,null,img/motor_8.png,76,motor,,,,,,,
533,,1265158,HierDy9cfsawef,dex8u744g4,ms1000267,motor,,72,img/motor_5.png,72,motor,5,196,1,0,0,,
null,,1265273,HierDy9cfsawef,dex8u744g4,ms1000267,iti,,null,img/motor_5.png,72,motor,,,,,,,
429,,1265710,HierDy9cfsawef,dex8u744g4,ms1000267,motor,,76,img/motor_8.png,76,motor,8,197,1,0,0,,
null,,1265825,HierDy9cfsawef,dex8u744g4,ms1000267,iti,,null,img/motor_8.png,76,motor,,,,,,,
549,,1266382,HierDy9cfsawef,dex8u744g4,ms1000267,motor,,75,img/motor_7.png,75,motor,7,198,1,0,0,,
null,,1266497,HierDy9cfsawef,dex8u744g4,ms1000267,iti,,null,img/motor_7.png,75,motor,,,,,,,
588,,1267094,HierDy9cfsawef,dex8u744g4,ms1000267,motor,,83,img/motor_2.png,83,motor,2,199,1,0,0,,
null,,1267208,HierDy9cfsawef,dex8u744g4,ms1000267,iti,,null,img/motor_2.png,83,motor,,,,,,,
525,,1267743,HierDy9cfsawef,dex8u744g4,ms1000267,motor,,70,img/motor_4.png,70,motor,4,200,1,0,0,,
null,,1267850,HierDy9cfsawef,dex8u744g4,ms1000267,iti,,null,img/motor_4.png,70,motor,,,,,,,
452,,1268316,HierDy9cfsawef,dex8u744g4,ms1000267,motor,,68,img/motor_3.png,68,motor,3,201,1,0,0,,
null,,1268425,HierDy9cfsawef,dex8u744g4,ms1000267,iti,,null,img/motor_3.png,68,motor,,,,,,,
557,,1268996,HierDy9cfsawef,dex8u744g4,ms1000267,motor,,75,img/motor_7.png,75,motor,7,202,1,0,0,,
null,,1269105,HierDy9cfsawef,dex8u744g4,ms1000267,iti,,null,img/motor_7.png,75,motor,,,,,,,
565,,1269684,HierDy9cfsawef,dex8u744g4,ms1000267,motor,,83,img/motor_2.png,83,motor,2,203,1,0,0,,
null,,1269799,HierDy9cfsawef,dex8u744g4,ms1000267,iti,,null,img/motor_2.png,83,motor,,,,,,,
516,,1270325,HierDy9cfsawef,dex8u744g4,ms1000267,motor,,68,img/motor_3.png,68,motor,3,204,1,0,0,,
null,,1270440,HierDy9cfsawef,dex8u744g4,ms1000267,iti,,null,img/motor_3.png,68,motor,,,,,,,
678,,1271132,HierDy9cfsawef,dex8u744g4,ms1000267,motor,,74,img/motor_6.png,74,motor,6,205,1,0,0,,
null,,1271241,HierDy9cfsawef,dex8u744g4,ms1000267,iti,,null,img/motor_6.png,74,motor,,,,,,,
573,,1271829,HierDy9cfsawef,dex8u744g4,ms1000267,motor,,70,img/motor_4.png,70,motor,4,206,1,0,0,,
null,,1271939,HierDy9cfsawef,dex8u744g4,ms1000267,iti,,null,img/motor_4.png,70,motor,,,,,,,
444,,1272397,HierDy9cfsawef,dex8u744g4,ms1000267,motor,,76,img/motor_8.png,76,motor,8,207,1,0,0,,
null,,1272513,HierDy9cfsawef,dex8u744g4,ms1000267,iti,,null,img/motor_8.png,76,motor,,,,,,,
421,,1272942,HierDy9cfsawef,dex8u744g4,ms1000267,motor,,65,img/motor_2.png,83,motor,2,208,0,1,0,,
255,,1273206,HierDy9cfsawef,dex8u744g4,ms1000267,motorRepeat,,83,img/motor_2.png,83,motor,2,208,1,0,0,,
null,,1273314,HierDy9cfsawef,dex8u744g4,ms1000267,iti,,null,img/motor_2.png,83,motor,,,,,,,
629,,1273957,HierDy9cfsawef,dex8u744g4,ms1000267,motor,,72,img/motor_5.png,72,motor,5,209,1,0,0,,
null,,1274072,HierDy9cfsawef,dex8u744g4,ms1000267,iti,,null,img/motor_5.png,72,motor,,,,,,,
565,,1274645,HierDy9cfsawef,dex8u744g4,ms1000267,motor,,83,img/motor_2.png,83,motor,2,210,1,0,0,,
null,,1274761,HierDy9cfsawef,dex8u744g4,ms1000267,iti,,null,img/motor_2.png,83,motor,,,,,,,
742,,1275510,HierDy9cfsawef,dex8u744g4,ms1000267,motor,,72,img/motor_5.png,72,motor,5,211,1,0,0,,
null,,1275619,HierDy9cfsawef,dex8u744g4,ms1000267,iti,,null,img/motor_5.png,72,motor,,,,,,,
524,,1276157,HierDy9cfsawef,dex8u744g4,ms1000267,motor,,74,img/motor_6.png,74,motor,6,212,1,0,0,,
null,,1276265,HierDy9cfsawef,dex8u744g4,ms1000267,iti,,null,img/motor_6.png,74,motor,,,,,,,
517,,1276797,HierDy9cfsawef,dex8u744g4,ms1000267,motor,,72,img/motor_5.png,72,motor,5,213,1,0,0,,
null,,1276905,HierDy9cfsawef,dex8u744g4,ms1000267,iti,,null,img/motor_5.png,72,motor,,,,,,,
619,,1277534,HierDy9cfsawef,dex8u744g4,ms1000267,motor,,83,img/motor_3.png,68,motor,3,214,0,1,0,,
304,,1277853,HierDy9cfsawef,dex8u744g4,ms1000267,motorRepeat,,68,img/motor_3.png,68,motor,3,214,1,0,0,,
null,,1277962,HierDy9cfsawef,dex8u744g4,ms1000267,iti,,null,img/motor_3.png,68,motor,,,,,,,
556,,1278533,HierDy9cfsawef,dex8u744g4,ms1000267,motor,,70,img/motor_4.png,70,motor,4,215,1,0,0,,
null,,1278642,HierDy9cfsawef,dex8u744g4,ms1000267,iti,,null,img/motor_4.png,70,motor,,,,,,,
621,,1279276,HierDy9cfsawef,dex8u744g4,ms1000267,motor,,72,img/motor_5.png,72,motor,5,216,1,0,0,,
null,,1279393,HierDy9cfsawef,dex8u744g4,ms1000267,iti,,null,img/motor_5.png,72,motor,,,,,,,
484,,1279886,HierDy9cfsawef,dex8u744g4,ms1000267,motor,,75,img/motor_7.png,75,motor,7,217,1,0,0,,
null,,1280001,HierDy9cfsawef,dex8u744g4,ms1000267,iti,,null,img/motor_7.png,75,motor,,,,,,,
661,,1280671,HierDy9cfsawef,dex8u744g4,ms1000267,motor,,68,img/motor_3.png,68,motor,3,218,1,0,0,,
null,,1280778,HierDy9cfsawef,dex8u744g4,ms1000267,iti,,null,img/motor_3.png,68,motor,,,,,,,
316,,1281109,HierDy9cfsawef,dex8u744g4,ms1000267,motor,,68,img/motor_3.png,68,motor,3,219,1,0,0,,
null,,1281218,HierDy9cfsawef,dex8u744g4,ms1000267,iti,,null,img/motor_3.png,68,motor,,,,,,,
628,,1281854,HierDy9cfsawef,dex8u744g4,ms1000267,motor,,72,img/motor_5.png,72,motor,5,220,1,0,0,,
null,,1281962,HierDy9cfsawef,dex8u744g4,ms1000267,iti,,null,img/motor_5.png,72,motor,,,,,,,
507,,1282477,HierDy9cfsawef,dex8u744g4,ms1000267,motor,,83,img/motor_2.png,83,motor,2,221,1,0,0,,
null,,1282592,HierDy9cfsawef,dex8u744g4,ms1000267,iti,,null,img/motor_2.png,83,motor,,,,,,,
566,,1283166,HierDy9cfsawef,dex8u744g4,ms1000267,motor,,65,img/motor_1.png,65,motor,1,222,1,0,0,,
null,,1283274,HierDy9cfsawef,dex8u744g4,ms1000267,iti,,null,img/motor_1.png,65,motor,,,,,,,
716,,1283998,HierDy9cfsawef,dex8u744g4,ms1000267,motor,,70,img/motor_4.png,70,motor,4,223,1,0,0,,
null,,1284107,HierDy9cfsawef,dex8u744g4,ms1000267,iti,,null,img/motor_4.png,70,motor,,,,,,,
491,,1284613,HierDy9cfsawef,dex8u744g4,ms1000267,motor,,76,img/motor_8.png,76,motor,8,224,1,0,0,,
null,,1284722,HierDy9cfsawef,dex8u744g4,ms1000267,iti,,null,img/motor_8.png,76,motor,,,,,,,
644,,1285381,HierDy9cfsawef,dex8u744g4,ms1000267,motor,,68,img/motor_3.png,68,motor,3,225,1,0,0,,
null,,1285490,HierDy9cfsawef,dex8u744g4,ms1000267,iti,,null,img/motor_3.png,68,motor,,,,,,,
645,,1286142,HierDy9cfsawef,dex8u744g4,ms1000267,motor,,75,img/motor_7.png,75,motor,7,226,1,0,0,,
null,,1286257,HierDy9cfsawef,dex8u744g4,ms1000267,iti,,null,img/motor_7.png,75,motor,,,,,,,
685,,1286950,HierDy9cfsawef,dex8u744g4,ms1000267,motor,,70,img/motor_4.png,70,motor,4,227,1,0,0,,
null,,1287059,HierDy9cfsawef,dex8u744g4,ms1000267,iti,,null,img/motor_4.png,70,motor,,,,,,,
388,,1287460,HierDy9cfsawef,dex8u744g4,ms1000267,motor,,72,img/motor_5.png,72,motor,5,228,1,0,0,,
null,,1287570,HierDy9cfsawef,dex8u744g4,ms1000267,iti,,null,img/motor_5.png,72,motor,,,,,,,
564,,1288142,HierDy9cfsawef,dex8u744g4,ms1000267,motor,,68,img/motor_3.png,68,motor,3,229,1,0,0,,
null,,1288257,HierDy9cfsawef,dex8u744g4,ms1000267,iti,,null,img/motor_3.png,68,motor,,,,,,,
531,,1288799,HierDy9cfsawef,dex8u744g4,ms1000267,motor,,72,img/motor_5.png,72,motor,5,230,1,0,0,,
null,,1288914,HierDy9cfsawef,dex8u744g4,ms1000267,iti,,null,img/motor_5.png,72,motor,,,,,,,
540,,1289462,HierDy9cfsawef,dex8u744g4,ms1000267,motor,,83,img/motor_2.png,83,motor,2,231,1,0,0,,
null,,1289570,HierDy9cfsawef,dex8u744g4,ms1000267,iti,,null,img/motor_2.png,83,motor,,,,,,,
795,,1290373,HierDy9cfsawef,dex8u744g4,ms1000267,motor,,70,img/motor_4.png,70,motor,4,232,1,0,0,,
null,,1290481,HierDy9cfsawef,dex8u744g4,ms1000267,iti,,null,img/motor_4.png,70,motor,,,,,,,
525,,1291020,HierDy9cfsawef,dex8u744g4,ms1000267,motor,,76,img/motor_8.png,76,motor,8,233,1,0,0,,
null,,1291130,HierDy9cfsawef,dex8u744g4,ms1000267,iti,,null,img/motor_8.png,76,motor,,,,,,,
556,,1291693,HierDy9cfsawef,dex8u744g4,ms1000267,motor,,83,img/motor_2.png,83,motor,2,234,1,0,0,,
null,,1291801,HierDy9cfsawef,dex8u744g4,ms1000267,iti,,null,img/motor_2.png,83,motor,,,,,,,
572,,1292383,HierDy9cfsawef,dex8u744g4,ms1000267,motor,,72,img/motor_5.png,72,motor,5,235,1,0,0,,
null,,1292490,HierDy9cfsawef,dex8u744g4,ms1000267,iti,,null,img/motor_5.png,72,motor,,,,,,,
588,,1293085,HierDy9cfsawef,dex8u744g4,ms1000267,motor,,70,img/motor_4.png,70,motor,4,236,1,0,0,,
null,,1293201,HierDy9cfsawef,dex8u744g4,ms1000267,iti,,null,img/motor_4.png,70,motor,,,,,,,
493,,1293703,HierDy9cfsawef,dex8u744g4,ms1000267,motor,,65,img/motor_1.png,65,motor,1,237,1,0,0,,
null,,1293812,HierDy9cfsawef,dex8u744g4,ms1000267,iti,,null,img/motor_1.png,65,motor,,,,,,,
971,,1294790,HierDy9cfsawef,dex8u744g4,ms1000267,motor,,68,img/motor_3.png,68,motor,3,238,1,0,0,,
null,,1294905,HierDy9cfsawef,dex8u744g4,ms1000267,iti,,null,img/motor_3.png,68,motor,,,,,,,
461,,1295381,HierDy9cfsawef,dex8u744g4,ms1000267,motor,,76,img/motor_8.png,76,motor,8,239,1,0,0,,
null,,1295496,HierDy9cfsawef,dex8u744g4,ms1000267,iti,,null,img/motor_8.png,76,motor,,,,,,,
693,,1296205,HierDy9cfsawef,dex8u744g4,ms1000267,motor,,65,img/motor_1.png,65,motor,1,240,1,0,0,,
null,,1296314,HierDy9cfsawef,dex8u744g4,ms1000267,iti,,null,img/motor_1.png,65,motor,,,,,,,
700,,1297029,HierDy9cfsawef,dex8u744g4,ms1000267,motor,,70,img/motor_4.png,70,motor,4,241,1,0,0,,
null,,1297139,HierDy9cfsawef,dex8u744g4,ms1000267,iti,,null,img/motor_4.png,70,motor,,,,,,,
668,,1297821,HierDy9cfsawef,dex8u744g4,ms1000267,motor,,75,img/motor_7.png,75,motor,7,242,1,0,0,,
null,,1297930,HierDy9cfsawef,dex8u744g4,ms1000267,iti,,null,img/motor_7.png,75,motor,,,,,,,
557,,1298495,HierDy9cfsawef,dex8u744g4,ms1000267,motor,,74,img/motor_6.png,74,motor,6,243,1,0,0,,
null,,1298603,HierDy9cfsawef,dex8u744g4,ms1000267,iti,,null,img/motor_6.png,74,motor,,,,,,,
516,,1299126,HierDy9cfsawef,dex8u744g4,ms1000267,motor,,65,img/motor_1.png,65,motor,1,244,1,0,0,,
null,,1299234,HierDy9cfsawef,dex8u744g4,ms1000267,iti,,null,img/motor_1.png,65,motor,,,,,,,
588,,1299830,HierDy9cfsawef,dex8u744g4,ms1000267,motor,,68,img/motor_3.png,68,motor,3,245,1,0,0,,
null,,1299938,HierDy9cfsawef,dex8u744g4,ms1000267,iti,,null,img/motor_3.png,68,motor,,,,,,,
453,,1300405,HierDy9cfsawef,dex8u744g4,ms1000267,motor,,70,img/motor_4.png,70,motor,4,246,1,0,0,,
null,,1300514,HierDy9cfsawef,dex8u744g4,ms1000267,iti,,null,img/motor_4.png,70,motor,,,,,,,
381,,1300902,HierDy9cfsawef,dex8u744g4,ms1000267,motor,,70,img/motor_4.png,70,motor,4,247,1,0,0,,
null,,1301011,HierDy9cfsawef,dex8u744g4,ms1000267,iti,,null,img/motor_4.png,70,motor,,,,,,,
572,,1301589,HierDy9cfsawef,dex8u744g4,ms1000267,motor,,75,img/motor_7.png,75,motor,7,248,1,0,0,,
null,,1301705,HierDy9cfsawef,dex8u744g4,ms1000267,iti,,null,img/motor_7.png,75,motor,,,,,,,
413,,1302126,HierDy9cfsawef,dex8u744g4,ms1000267,motor,,65,img/motor_1.png,65,motor,1,249,1,0,0,,
null,,1302234,HierDy9cfsawef,dex8u744g4,ms1000267,iti,,null,img/motor_1.png,65,motor,,,,,,,
524,,1302767,HierDy9cfsawef,dex8u744g4,ms1000267,motor,,70,img/motor_4.png,70,motor,4,250,1,0,0,,
null,,1302882,HierDy9cfsawef,dex8u744g4,ms1000267,iti,,null,img/motor_4.png,70,motor,,,,,,,
571,,1303468,HierDy9cfsawef,dex8u744g4,ms1000267,motor,,72,img/motor_5.png,72,motor,5,251,1,0,0,,
null,,1303585,HierDy9cfsawef,dex8u744g4,ms1000267,iti,,null,img/motor_5.png,72,motor,,,,,,,
445,,1304045,HierDy9cfsawef,dex8u744g4,ms1000267,motor,,76,img/motor_8.png,76,motor,8,252,1,0,0,,
null,,1304160,HierDy9cfsawef,dex8u744g4,ms1000267,iti,,null,img/motor_8.png,76,motor,,,,,,,
589,,1304759,HierDy9cfsawef,dex8u744g4,ms1000267,motor,,83,img/motor_3.png,68,motor,3,253,0,1,0,,
296,,1305069,HierDy9cfsawef,dex8u744g4,ms1000267,motorRepeat,,68,img/motor_3.png,68,motor,3,253,1,0,0,,
null,,1305185,HierDy9cfsawef,dex8u744g4,ms1000267,iti,,null,img/motor_3.png,68,motor,,,,,,,
541,,1305734,HierDy9cfsawef,dex8u744g4,ms1000267,motor,,70,img/motor_4.png,70,motor,4,254,1,0,0,,
null,,1305849,HierDy9cfsawef,dex8u744g4,ms1000267,iti,,null,img/motor_4.png,70,motor,,,,,,,
436,,1306301,HierDy9cfsawef,dex8u744g4,ms1000267,motor,,68,img/motor_3.png,68,motor,3,255,1,0,0,,
null,,1306410,HierDy9cfsawef,dex8u744g4,ms1000267,iti,,null,img/motor_3.png,68,motor,,,,,,,
572,,1306991,HierDy9cfsawef,dex8u744g4,ms1000267,motor,,74,img/motor_6.png,74,motor,6,256,1,0,0,,
null,,1307106,HierDy9cfsawef,dex8u744g4,ms1000267,iti,,null,img/motor_6.png,74,motor,,,,,,,
460,,1307582,HierDy9cfsawef,dex8u744g4,ms1000267,motor,,68,img/motor_3.png,68,motor,3,257,1,0,0,,
null,,1307698,HierDy9cfsawef,dex8u744g4,ms1000267,iti,,null,img/motor_3.png,68,motor,,,,,,,
340,,1308053,HierDy9cfsawef,dex8u744g4,ms1000267,motor,,68,img/motor_3.png,68,motor,3,258,1,0,0,,
null,,1308169,HierDy9cfsawef,dex8u744g4,ms1000267,iti,,null,img/motor_3.png,68,motor,,,,,,,
437,,1308621,HierDy9cfsawef,dex8u744g4,ms1000267,motor,,76,img/motor_8.png,76,motor,8,259,1,0,0,,
null,,1308737,HierDy9cfsawef,dex8u744g4,ms1000267,iti,,null,img/motor_8.png,76,motor,,,,,,,
573,,1309316,HierDy9cfsawef,dex8u744g4,ms1000267,motor,,65,img/motor_1.png,65,motor,1,260,1,0,0,,
null,,1309426,HierDy9cfsawef,dex8u744g4,ms1000267,iti,,null,img/motor_1.png,65,motor,,,,,,,
485,,1309917,HierDy9cfsawef,dex8u744g4,ms1000267,motor,,68,img/motor_3.png,68,motor,3,261,1,0,0,,
null,,1310026,HierDy9cfsawef,dex8u744g4,ms1000267,iti,,null,img/motor_3.png,68,motor,,,,,,,
437,,1310470,HierDy9cfsawef,dex8u744g4,ms1000267,motor,,70,img/motor_4.png,70,motor,4,262,1,0,0,,
null,,1310585,HierDy9cfsawef,dex8u744g4,ms1000267,iti,,null,img/motor_4.png,70,motor,,,,,,,
461,,1311062,HierDy9cfsawef,dex8u744g4,ms1000267,motor,,65,img/motor_1.png,65,motor,1,263,1,0,0,,
null,,1311170,HierDy9cfsawef,dex8u744g4,ms1000267,iti,,null,img/motor_1.png,65,motor,,,,,,,
403,,1311583,HierDy9cfsawef,dex8u744g4,ms1000267,motor,,76,img/motor_8.png,76,motor,8,264,1,0,0,,
null,,1311698,HierDy9cfsawef,dex8u744g4,ms1000267,iti,,null,img/motor_8.png,76,motor,,,,,,,
596,,1312309,HierDy9cfsawef,dex8u744g4,ms1000267,motor,,70,img/motor_4.png,70,motor,4,265,1,0,0,,
null,,1312418,HierDy9cfsawef,dex8u744g4,ms1000267,iti,,null,img/motor_4.png,70,motor,,,,,,,
436,,1312863,HierDy9cfsawef,dex8u744g4,ms1000267,motor,,65,img/motor_1.png,65,motor,1,266,1,0,0,,
null,,1312970,HierDy9cfsawef,dex8u744g4,ms1000267,iti,,null,img/motor_1.png,65,motor,,,,,,,
731,,1313718,HierDy9cfsawef,dex8u744g4,ms1000267,motor,,74,img/motor_6.png,74,motor,6,267,1,0,0,,
null,,1313827,HierDy9cfsawef,dex8u744g4,ms1000267,iti,,null,img/motor_6.png,74,motor,,,,,,,
723,,1314559,HierDy9cfsawef,dex8u744g4,ms1000267,motor,,83,img/motor_2.png,83,motor,2,268,1,0,0,,
null,,1314674,HierDy9cfsawef,dex8u744g4,ms1000267,iti,,null,img/motor_2.png,83,motor,,,,,,,
484,,1315173,HierDy9cfsawef,dex8u744g4,ms1000267,motor,,76,img/motor_8.png,76,motor,8,269,1,0,0,,
null,,1315282,HierDy9cfsawef,dex8u744g4,ms1000267,iti,,null,img/motor_8.png,76,motor,,,,,,,
348,,1315645,HierDy9cfsawef,dex8u744g4,ms1000267,motor,,76,img/motor_8.png,76,motor,8,270,1,0,0,,
null,,1315754,HierDy9cfsawef,dex8u744g4,ms1000267,iti,,null,img/motor_8.png,76,motor,,,,,,,
421,,1316182,HierDy9cfsawef,dex8u744g4,ms1000267,motor,,65,img/motor_1.png,65,motor,1,271,1,0,0,,
48,,1316297,HierDy9cfsawef,dex8u744g4,ms1000267,iti,,76,img/motor_1.png,65,motor,,,,,,,
557,,1316869,HierDy9cfsawef,dex8u744g4,ms1000267,motor,,83,img/motor_2.png,83,motor,2,272,1,0,0,,
null,,1316979,HierDy9cfsawef,dex8u744g4,ms1000267,iti,,null,img/motor_2.png,83,motor,,,,,,,
452,,1317439,HierDy9cfsawef,dex8u744g4,ms1000267,motor,,68,img/motor_3.png,68,motor,3,273,1,0,0,,
null,,1317547,HierDy9cfsawef,dex8u744g4,ms1000267,iti,,null,img/motor_3.png,68,motor,,,,,,,
371,,1317927,HierDy9cfsawef,dex8u744g4,ms1000267,motor,,70,img/motor_4.png,70,motor,4,274,1,0,0,,
null,,1318035,HierDy9cfsawef,dex8u744g4,ms1000267,iti,,null,img/motor_4.png,70,motor,,,,,,,
412,,1318461,HierDy9cfsawef,dex8u744g4,ms1000267,motor,,70,img/motor_4.png,70,motor,4,275,1,0,0,,
null,,1318570,HierDy9cfsawef,dex8u744g4,ms1000267,iti,,null,img/motor_4.png,70,motor,,,,,,,
380,,1318958,HierDy9cfsawef,dex8u744g4,ms1000267,motor,,83,img/motor_2.png,83,motor,2,276,1,0,0,,
null,,1319074,HierDy9cfsawef,dex8u744g4,ms1000267,iti,,null,img/motor_2.png,83,motor,,,,,,,
484,,1319567,HierDy9cfsawef,dex8u744g4,ms1000267,motor,,72,img/motor_6.png,74,motor,6,277,0,1,0,,
215,,1319798,HierDy9cfsawef,dex8u744g4,ms1000267,motorRepeat,,74,img/motor_6.png,74,motor,6,277,1,0,0,,
null,,1319913,HierDy9cfsawef,dex8u744g4,ms1000267,iti,,null,img/motor_6.png,74,motor,,,,,,,
468,,1320397,HierDy9cfsawef,dex8u744g4,ms1000267,motor,,83,img/motor_2.png,83,motor,2,278,1,0,0,,
null,,1320513,HierDy9cfsawef,dex8u744g4,ms1000267,iti,,null,img/motor_2.png,83,motor,,,,,,,
564,,1321094,HierDy9cfsawef,dex8u744g4,ms1000267,motor,,68,img/motor_3.png,68,motor,3,279,1,0,0,,
null,,1321202,HierDy9cfsawef,dex8u744g4,ms1000267,iti,,null,img/motor_3.png,68,motor,,,,,,,
460,,1321671,HierDy9cfsawef,dex8u744g4,ms1000267,motor,,74,img/motor_6.png,74,motor,6,280,1,0,0,,
null,,1321779,HierDy9cfsawef,dex8u744g4,ms1000267,iti,,null,img/motor_6.png,74,motor,,,,,,,
397,,1322190,HierDy9cfsawef,dex8u744g4,ms1000267,motor,,76,img/motor_8.png,76,motor,8,281,1,0,0,,
null,,1322306,HierDy9cfsawef,dex8u744g4,ms1000267,iti,,null,img/motor_8.png,76,motor,,,,,,,
508,,1322830,HierDy9cfsawef,dex8u744g4,ms1000267,motor,,72,img/motor_5.png,72,motor,5,282,1,0,0,,
null,,1322944,HierDy9cfsawef,dex8u744g4,ms1000267,iti,,null,img/motor_5.png,72,motor,,,,,,,
429,,1323383,HierDy9cfsawef,dex8u744g4,ms1000267,motor,,74,img/motor_6.png,74,motor,6,283,1,0,0,,
null,,1323497,HierDy9cfsawef,dex8u744g4,ms1000267,iti,,null,img/motor_6.png,74,motor,,,,,,,
356,,1323863,HierDy9cfsawef,dex8u744g4,ms1000267,motor,,75,img/motor_7.png,75,motor,7,284,1,0,0,,
null,,1323971,HierDy9cfsawef,dex8u744g4,ms1000267,iti,,null,img/motor_7.png,75,motor,,,,,,,
379,,1324358,HierDy9cfsawef,dex8u744g4,ms1000267,motor,,72,img/motor_5.png,72,motor,5,285,1,0,0,,
null,,1324474,HierDy9cfsawef,dex8u744g4,ms1000267,iti,,null,img/motor_5.png,72,motor,,,,,,,
668,,1325157,HierDy9cfsawef,dex8u744g4,ms1000267,motor,,83,img/motor_2.png,83,motor,2,286,1,0,0,,
null,,1325274,HierDy9cfsawef,dex8u744g4,ms1000267,iti,,null,img/motor_2.png,83,motor,,,,,,,
484,,1325774,HierDy9cfsawef,dex8u744g4,ms1000267,motor,,76,img/motor_8.png,76,motor,8,287,1,0,0,,
null,,1325882,HierDy9cfsawef,dex8u744g4,ms1000267,iti,,null,img/motor_8.png,76,motor,,,,,,,
508,,1326405,HierDy9cfsawef,dex8u744g4,ms1000267,motor,,68,img/motor_3.png,68,motor,3,288,1,0,0,,
null,,1326520,HierDy9cfsawef,dex8u744g4,ms1000267,iti,,null,img/motor_3.png,68,motor,,,,,,,
357,,1326893,HierDy9cfsawef,dex8u744g4,ms1000267,motor,,68,img/motor_3.png,68,motor,3,289,1,0,0,,
null,,1327009,HierDy9cfsawef,dex8u744g4,ms1000267,iti,,null,img/motor_3.png,68,motor,,,,,,,
406,,1327429,HierDy9cfsawef,dex8u744g4,ms1000267,motor,,65,img/motor_1.png,65,motor,1,290,1,0,0,,
null,,1327538,HierDy9cfsawef,dex8u744g4,ms1000267,iti,,null,img/motor_1.png,65,motor,,,,,,,
405,,1327951,HierDy9cfsawef,dex8u744g4,ms1000267,motor,,68,img/motor_3.png,68,motor,3,291,1,0,0,,
null,,1328066,HierDy9cfsawef,dex8u744g4,ms1000267,iti,,null,img/motor_3.png,68,motor,,,,,,,
500,,1328581,HierDy9cfsawef,dex8u744g4,ms1000267,motor,,76,img/motor_8.png,76,motor,8,292,1,0,0,,
null,,1328690,HierDy9cfsawef,dex8u744g4,ms1000267,iti,,null,img/motor_8.png,76,motor,,,,,,,
381,,1329079,HierDy9cfsawef,dex8u744g4,ms1000267,motor,,74,img/motor_6.png,74,motor,6,293,1,0,0,,
null,,1329188,HierDy9cfsawef,dex8u744g4,ms1000267,iti,,null,img/motor_6.png,74,motor,,,,,,,
491,,1329693,HierDy9cfsawef,dex8u744g4,ms1000267,motor,,68,img/motor_4.png,70,motor,4,294,0,1,0,,
288,,1329991,HierDy9cfsawef,dex8u744g4,ms1000267,motorRepeat,,70,img/motor_4.png,70,motor,4,294,1,0,0,,
null,,1330106,HierDy9cfsawef,dex8u744g4,ms1000267,iti,,null,img/motor_4.png,70,motor,,,,,,,
500,,1330615,HierDy9cfsawef,dex8u744g4,ms1000267,motor,,68,img/motor_3.png,68,motor,3,295,1,0,0,,
null,,1330723,HierDy9cfsawef,dex8u744g4,ms1000267,iti,,null,img/motor_3.png,68,motor,,,,,,,
571,,1331303,HierDy9cfsawef,dex8u744g4,ms1000267,motor,,75,img/motor_7.png,75,motor,7,296,1,0,0,,
null,,1331418,HierDy9cfsawef,dex8u744g4,ms1000267,iti,,null,img/motor_7.png,75,motor,,,,,,,
540,,1331973,HierDy9cfsawef,dex8u744g4,ms1000267,motor,,74,img/motor_6.png,74,motor,6,297,1,0,0,,
null,,1332089,HierDy9cfsawef,dex8u744g4,ms1000267,iti,,null,img/motor_6.png,74,motor,,,,,,,
485,,1332589,HierDy9cfsawef,dex8u744g4,ms1000267,motor,,75,img/motor_7.png,75,motor,7,298,1,0,0,,
null,,1332704,HierDy9cfsawef,dex8u744g4,ms1000267,iti,,null,img/motor_7.png,75,motor,,,,,,,
565,,1333286,HierDy9cfsawef,dex8u744g4,ms1000267,motor,,70,img/motor_4.png,70,motor,4,299,1,0,0,,
null,,1333401,HierDy9cfsawef,dex8u744g4,ms1000267,iti,,null,img/motor_4.png,70,motor,,,,,,,
413,,1333829,HierDy9cfsawef,dex8u744g4,ms1000267,motor,,68,img/motor_3.png,68,motor,3,300,1,0,0,,
null,,1333938,HierDy9cfsawef,dex8u744g4,ms1000267,iti,,null,img/motor_3.png,68,motor,,,,,,,
517,,1334462,HierDy9cfsawef,dex8u744g4,ms1000267,motor,,70,img/motor_4.png,70,motor,4,301,1,0,0,,
null,,1334578,HierDy9cfsawef,dex8u744g4,ms1000267,iti,,null,img/motor_4.png,70,motor,,,,,,,
412,,1335005,HierDy9cfsawef,dex8u744g4,ms1000267,motor,,83,img/motor_2.png,83,motor,2,302,1,0,0,,
null,,1335120,HierDy9cfsawef,dex8u744g4,ms1000267,iti,,null,img/motor_2.png,83,motor,,,,,,,
597,,1335733,HierDy9cfsawef,dex8u744g4,ms1000267,motor,,65,img/motor_1.png,65,motor,1,303,1,0,0,,
null,,1335850,HierDy9cfsawef,dex8u744g4,ms1000267,iti,,null,img/motor_1.png,65,motor,,,,,,,
510,,1336366,HierDy9cfsawef,dex8u744g4,ms1000267,motor,,75,img/motor_7.png,75,motor,7,304,1,0,0,,
null,,1336475,HierDy9cfsawef,dex8u744g4,ms1000267,iti,,null,img/motor_7.png,75,motor,,,,,,,
939,,1337429,HierDy9cfsawef,dex8u744g4,ms1000267,motor,,74,img/motor_6.png,74,motor,6,305,1,0,0,,
null,,1337539,HierDy9cfsawef,dex8u744g4,ms1000267,iti,,null,img/motor_6.png,74,motor,,,,,,,
572,,1338119,HierDy9cfsawef,dex8u744g4,ms1000267,motor,,65,img/motor_1.png,65,motor,1,306,1,0,0,,
null,,1338227,HierDy9cfsawef,dex8u744g4,ms1000267,iti,,null,img/motor_1.png,65,motor,,,,,,,
507,,1338749,HierDy9cfsawef,dex8u744g4,ms1000267,motor,,74,img/motor_6.png,74,motor,6,307,1,0,0,,
null,,1338865,HierDy9cfsawef,dex8u744g4,ms1000267,iti,,null,img/motor_6.png,74,motor,,,,,,,
733,,1339613,HierDy9cfsawef,dex8u744g4,ms1000267,motor,,72,img/motor_5.png,72,motor,5,308,1,0,0,,
null,,1339729,HierDy9cfsawef,dex8u744g4,ms1000267,iti,,null,img/motor_5.png,72,motor,,,,,,,
532,,1340278,HierDy9cfsawef,dex8u744g4,ms1000267,motor,,75,img/motor_7.png,75,motor,7,309,1,0,0,,
null,,1340386,HierDy9cfsawef,dex8u744g4,ms1000267,iti,,null,img/motor_7.png,75,motor,,,,,,,
540,,1340935,HierDy9cfsawef,dex8u744g4,ms1000267,motor,,68,img/motor_3.png,68,motor,3,310,1,0,0,,
null,,1341050,HierDy9cfsawef,dex8u744g4,ms1000267,iti,,null,img/motor_3.png,68,motor,,,,,,,
852,,1341910,HierDy9cfsawef,dex8u744g4,ms1000267,motor,,70,img/motor_4.png,70,motor,4,311,1,0,0,,
null,,1342025,HierDy9cfsawef,dex8u744g4,ms1000267,iti,,null,img/motor_4.png,70,motor,,,,,,,
462,,1342502,HierDy9cfsawef,dex8u744g4,ms1000267,motor,,74,img/motor_6.png,74,motor,6,312,1,0,0,,
null,,1342618,HierDy9cfsawef,dex8u744g4,ms1000267,iti,,null,img/motor_6.png,74,motor,,,,,,,
438,,1343063,HierDy9cfsawef,dex8u744g4,ms1000267,motor,,70,img/motor_4.png,70,motor,4,313,1,0,0,,
null,,1343179,HierDy9cfsawef,dex8u744g4,ms1000267,iti,,null,img/motor_4.png,70,motor,,,,,,,
410,,1343605,HierDy9cfsawef,dex8u744g4,ms1000267,motor,,75,img/motor_6.png,74,motor,6,314,0,1,0,,
257,,1343871,HierDy9cfsawef,dex8u744g4,ms1000267,motorRepeat,,74,img/motor_6.png,74,motor,6,314,1,0,0,,
null,,1343979,HierDy9cfsawef,dex8u744g4,ms1000267,iti,,null,img/motor_6.png,74,motor,,,,,,,
564,,1344551,HierDy9cfsawef,dex8u744g4,ms1000267,motor,,72,img/motor_5.png,72,motor,5,315,1,0,0,,
null,,1344658,HierDy9cfsawef,dex8u744g4,ms1000267,iti,,null,img/motor_5.png,72,motor,,,,,,,
451,,1345125,HierDy9cfsawef,dex8u744g4,ms1000267,motor,,65,img/motor_1.png,65,motor,1,316,1,0,0,,
null,,1345241,HierDy9cfsawef,dex8u744g4,ms1000267,iti,,null,img/motor_1.png,65,motor,,,,,,,
629,,1345879,HierDy9cfsawef,dex8u744g4,ms1000267,motor,,72,img/motor_5.png,72,motor,5,317,1,0,0,,
null,,1345987,HierDy9cfsawef,dex8u744g4,ms1000267,iti,,null,img/motor_5.png,72,motor,,,,,,,
451,,1346447,HierDy9cfsawef,dex8u744g4,ms1000267,motor,,74,img/motor_6.png,74,motor,6,318,1,0,0,,
null,,1346561,HierDy9cfsawef,dex8u744g4,ms1000267,iti,,null,img/motor_6.png,74,motor,,,,,,,
484,,1347055,HierDy9cfsawef,dex8u744g4,ms1000267,motor,,65,img/motor_1.png,65,motor,1,319,1,0,0,,
null,,1347169,HierDy9cfsawef,dex8u744g4,ms1000267,iti,,null,img/motor_1.png,65,motor,,,,,,,
581,,1347758,HierDy9cfsawef,dex8u744g4,ms1000267,motor,,75,img/motor_7.png,75,motor,7,320,1,0,0,,
null,,1347874,HierDy9cfsawef,dex8u744g4,ms1000267,iti,,null,img/motor_7.png,75,motor,,,,,,,
917,,1348798,HierDy9cfsawef,dex8u744g4,ms1000267,motor,,68,img/motor_3.png,68,motor,3,321,1,0,0,,
null,,1348913,HierDy9cfsawef,dex8u744g4,ms1000267,iti,,null,img/motor_3.png,68,motor,,,,,,,
445,,1349374,HierDy9cfsawef,dex8u744g4,ms1000267,motor,,76,img/motor_8.png,76,motor,8,322,1,0,0,,
null,,1349490,HierDy9cfsawef,dex8u744g4,ms1000267,iti,,null,img/motor_8.png,76,motor,,,,,,,
476,,1349975,HierDy9cfsawef,dex8u744g4,ms1000267,motor,,70,img/motor_4.png,70,motor,4,323,1,0,0,,
null,,1350090,HierDy9cfsawef,dex8u744g4,ms1000267,iti,,null,img/motor_4.png,70,motor,,,,,,,
428,,1350534,HierDy9cfsawef,dex8u744g4,ms1000267,motor,,76,img/motor_8.png,76,motor,8,324,1,0,0,,
null,,1350643,HierDy9cfsawef,dex8u744g4,ms1000267,iti,,null,img/motor_8.png,76,motor,,,,,,,
651,,1351303,HierDy9cfsawef,dex8u744g4,ms1000267,motor,,68,img/motor_3.png,68,motor,3,325,1,0,0,,
null,,1351418,HierDy9cfsawef,dex8u744g4,ms1000267,iti,,null,img/motor_3.png,68,motor,,,,,,,
484,,1351911,HierDy9cfsawef,dex8u744g4,ms1000267,motor,,83,img/motor_2.png,83,motor,2,326,1,0,0,,
null,,1352026,HierDy9cfsawef,dex8u744g4,ms1000267,iti,,null,img/motor_2.png,83,motor,,,,,,,
452,,1352493,HierDy9cfsawef,dex8u744g4,ms1000267,motor,,83,img/motor_2.png,83,motor,2,327,1,0,0,,
null,,1352603,HierDy9cfsawef,dex8u744g4,ms1000267,iti,,null,img/motor_2.png,83,motor,,,,,,,
484,,1353102,HierDy9cfsawef,dex8u744g4,ms1000267,motor,,76,img/motor_8.png,76,motor,8,328,1,0,0,,
null,,1353211,HierDy9cfsawef,dex8u744g4,ms1000267,iti,,null,img/motor_8.png,76,motor,,,,,,,
548,,1353774,HierDy9cfsawef,dex8u744g4,ms1000267,motor,,70,img/motor_4.png,70,motor,4,329,1,0,0,,
null,,1353883,HierDy9cfsawef,dex8u744g4,ms1000267,iti,,null,img/motor_4.png,70,motor,,,,,,,
428,,1354326,HierDy9cfsawef,dex8u744g4,ms1000267,motor,,65,img/motor_1.png,65,motor,1,330,1,0,0,,
null,,1354435,HierDy9cfsawef,dex8u744g4,ms1000267,iti,,null,img/motor_1.png,65,motor,,,,,,,
763,,1355214,HierDy9cfsawef,dex8u744g4,ms1000267,motor,,74,img/motor_6.png,74,motor,6,331,1,0,0,,
null,,1355323,HierDy9cfsawef,dex8u744g4,ms1000267,iti,,null,img/motor_6.png,74,motor,,,,,,,
565,,1355894,HierDy9cfsawef,dex8u744g4,ms1000267,motor,,76,img/motor_8.png,76,motor,8,332,1,0,0,,
null,,1356009,HierDy9cfsawef,dex8u744g4,ms1000267,iti,,null,img/motor_8.png,76,motor,,,,,,,
628,,1356646,HierDy9cfsawef,dex8u744g4,ms1000267,motor,,72,img/motor_5.png,72,motor,5,333,1,0,0,,
null,,1356755,HierDy9cfsawef,dex8u744g4,ms1000267,iti,,null,img/motor_5.png,72,motor,,,,,,,
556,,1357319,HierDy9cfsawef,dex8u744g4,ms1000267,motor,,65,img/motor_1.png,65,motor,1,334,1,0,0,,
null,,1357434,HierDy9cfsawef,dex8u744g4,ms1000267,iti,,null,img/motor_1.png,65,motor,,,,,,,
572,,1358015,HierDy9cfsawef,dex8u744g4,ms1000267,motor,,75,img/motor_7.png,75,motor,7,335,1,0,0,,
null,,1358124,HierDy9cfsawef,dex8u744g4,ms1000267,iti,,null,img/motor_7.png,75,motor,,,,,,,
852,,1358990,HierDy9cfsawef,dex8u744g4,ms1000267,motor,,65,img/motor_1.png,65,motor,1,336,1,0,0,,
null,,1359105,HierDy9cfsawef,dex8u744g4,ms1000267,iti,,null,img/motor_1.png,65,motor,,,,,,,
525,,1359639,HierDy9cfsawef,dex8u744g4,ms1000267,motor,,75,img/motor_7.png,75,motor,7,337,1,0,0,,
null,,1359747,HierDy9cfsawef,dex8u744g4,ms1000267,iti,,null,img/motor_7.png,75,motor,,,,,,,
740,,1360503,HierDy9cfsawef,dex8u744g4,ms1000267,motor,,76,img/motor_8.png,76,motor,8,338,1,0,0,,
null,,1360611,HierDy9cfsawef,dex8u744g4,ms1000267,iti,,null,img/motor_8.png,76,motor,,,,,,,
588,,1361207,HierDy9cfsawef,dex8u744g4,ms1000267,motor,,72,img/motor_5.png,72,motor,5,339,1,0,0,,
null,,1361322,HierDy9cfsawef,dex8u744g4,ms1000267,iti,,null,img/motor_5.png,72,motor,,,,,,,
781,,1362118,HierDy9cfsawef,dex8u744g4,ms1000267,motor,,68,img/motor_3.png,68,motor,3,340,1,0,0,,
null,,1362234,HierDy9cfsawef,dex8u744g4,ms1000267,iti,,null,img/motor_3.png,68,motor,,,,,,,
509,,1362750,HierDy9cfsawef,dex8u744g4,ms1000267,motor,,74,img/motor_6.png,74,motor,6,341,1,0,0,,
null,,1362859,HierDy9cfsawef,dex8u744g4,ms1000267,iti,,null,img/motor_6.png,74,motor,,,,,,,
596,,1363470,HierDy9cfsawef,dex8u744g4,ms1000267,motor,,75,img/motor_7.png,75,motor,7,342,1,0,0,,
null,,1363586,HierDy9cfsawef,dex8u744g4,ms1000267,iti,,null,img/motor_7.png,75,motor,,,,,,,
316,,1363919,HierDy9cfsawef,dex8u744g4,ms1000267,motor,,76,img/motor_8.png,76,motor,8,343,1,0,0,,
null,,1364028,HierDy9cfsawef,dex8u744g4,ms1000267,iti,,null,img/motor_8.png,76,motor,,,,,,,
372,,1364414,HierDy9cfsawef,dex8u744g4,ms1000267,motor,,76,img/motor_8.png,76,motor,8,344,1,0,0,,
null,,1364524,HierDy9cfsawef,dex8u744g4,ms1000267,iti,,null,img/motor_8.png,76,motor,,,,,,,
595,,1365133,HierDy9cfsawef,dex8u744g4,ms1000267,motor,,74,img/motor_6.png,74,motor,6,345,1,0,0,,
null,,1365250,HierDy9cfsawef,dex8u744g4,ms1000267,iti,,null,img/motor_6.png,74,motor,,,,,,,
398,,1365655,HierDy9cfsawef,dex8u744g4,ms1000267,motor,,74,img/motor_6.png,74,motor,6,346,1,0,0,,
null,,1365763,HierDy9cfsawef,dex8u744g4,ms1000267,iti,,null,img/motor_6.png,74,motor,,,,,,,
451,,1366230,HierDy9cfsawef,dex8u744g4,ms1000267,motor,,75,img/motor_7.png,75,motor,7,347,1,0,0,,
null,,1366339,HierDy9cfsawef,dex8u744g4,ms1000267,iti,,null,img/motor_7.png,75,motor,,,,,,,
660,,1367007,HierDy9cfsawef,dex8u744g4,ms1000267,motor,,70,img/motor_4.png,70,motor,4,348,1,0,0,,
null,,1367123,HierDy9cfsawef,dex8u744g4,ms1000267,iti,,null,img/motor_4.png,70,motor,,,,,,,
580,,1367710,HierDy9cfsawef,dex8u744g4,ms1000267,motor,,74,img/motor_6.png,74,motor,6,349,1,0,0,,
null,,1367826,HierDy9cfsawef,dex8u744g4,ms1000267,iti,,null,img/motor_6.png,74,motor,,,,,,,
452,,1368287,HierDy9cfsawef,dex8u744g4,ms1000267,motor,,70,img/motor_4.png,70,motor,4,350,1,0,0,,
null,,1368402,HierDy9cfsawef,dex8u744g4,ms1000267,iti,,null,img/motor_4.png,70,motor,,,,,,,
564,,1368975,HierDy9cfsawef,dex8u744g4,ms1000267,motor,,72,img/motor_5.png,72,motor,5,351,1,0,0,,
null,,1369090,HierDy9cfsawef,dex8u744g4,ms1000267,iti,,null,img/motor_5.png,72,motor,,,,,,,
444,,1369544,HierDy9cfsawef,dex8u744g4,ms1000267,motor,,72,img/motor_4.png,70,motor,4,352,0,1,0,,
312,,1369863,HierDy9cfsawef,dex8u744g4,ms1000267,motorRepeat,,70,img/motor_4.png,70,motor,4,352,1,0,0,,
null,,1369979,HierDy9cfsawef,dex8u744g4,ms1000267,iti,,null,img/motor_4.png,70,motor,,,,,,,
508,,1370495,HierDy9cfsawef,dex8u744g4,ms1000267,motor,,68,img/motor_2.png,83,motor,2,353,0,1,0,,
232,,1370741,HierDy9cfsawef,dex8u744g4,ms1000267,motorRepeat,,83,img/motor_2.png,83,motor,2,353,1,0,0,,
null,,1370851,HierDy9cfsawef,dex8u744g4,ms1000267,iti,,null,img/motor_2.png,83,motor,,,,,,,
732,,1371598,HierDy9cfsawef,dex8u744g4,ms1000267,motor,,75,img/motor_7.png,75,motor,7,354,1,0,0,,
null,,1371714,HierDy9cfsawef,dex8u744g4,ms1000267,iti,,null,img/motor_7.png,75,motor,,,,,,,
541,,1372270,HierDy9cfsawef,dex8u744g4,ms1000267,motor,,83,img/motor_2.png,83,motor,2,355,1,0,0,,
null,,1372385,HierDy9cfsawef,dex8u744g4,ms1000267,iti,,null,img/motor_2.png,83,motor,,,,,,,
1125,,1373526,HierDy9cfsawef,dex8u744g4,ms1000267,motor,,70,img/motor_4.png,70,motor,4,356,1,0,0,,
null,,1373635,HierDy9cfsawef,dex8u744g4,ms1000267,iti,,null,img/motor_4.png,70,motor,,,,,,,
531,,1374175,HierDy9cfsawef,dex8u744g4,ms1000267,motor,,75,img/motor_7.png,75,motor,7,357,1,0,0,,
null,,1374290,HierDy9cfsawef,dex8u744g4,ms1000267,iti,,null,img/motor_7.png,75,motor,,,,,,,
540,,1374839,HierDy9cfsawef,dex8u744g4,ms1000267,motor,,70,img/motor_4.png,70,motor,4,358,1,0,0,,
null,,1374954,HierDy9cfsawef,dex8u744g4,ms1000267,iti,,null,img/motor_4.png,70,motor,,,,,,,
508,,1375472,HierDy9cfsawef,dex8u744g4,ms1000267,motor,,65,img/motor_1.png,65,motor,1,359,1,0,0,,
null,,1375579,HierDy9cfsawef,dex8u744g4,ms1000267,iti,,null,img/motor_1.png,65,motor,,,,,,,
483,,1376078,HierDy9cfsawef,dex8u744g4,ms1000267,motor,,83,img/motor_2.png,83,motor,2,360,1,0,0,,
null,,1376187,HierDy9cfsawef,dex8u744g4,ms1000267,iti,,null,img/motor_2.png,83,motor,,,,,,,
412,,1376614,HierDy9cfsawef,dex8u744g4,ms1000267,motor,,70,img/motor_4.png,70,motor,4,361,1,0,0,,
null,,1376723,HierDy9cfsawef,dex8u744g4,ms1000267,iti,,null,img/motor_4.png,70,motor,,,,,,,
355,,1377087,HierDy9cfsawef,dex8u744g4,ms1000267,motor,,83,img/motor_2.png,83,motor,2,362,1,0,0,,
null,,1377196,HierDy9cfsawef,dex8u744g4,ms1000267,iti,,null,img/motor_2.png,83,motor,,,,,,,
347,,1377557,HierDy9cfsawef,dex8u744g4,ms1000267,motor,,70,img/motor_4.png,70,motor,4,363,1,0,0,,
null,,1377674,HierDy9cfsawef,dex8u744g4,ms1000267,iti,,null,img/motor_4.png,70,motor,,,,,,,
388,,1378078,HierDy9cfsawef,dex8u744g4,ms1000267,motor,,83,img/motor_2.png,83,motor,2,364,1,0,0,,
null,,1378194,HierDy9cfsawef,dex8u744g4,ms1000267,iti,,null,img/motor_2.png,83,motor,,,,,,,
803,,1379014,HierDy9cfsawef,dex8u744g4,ms1000267,motor,,72,img/motor_5.png,72,motor,5,365,1,0,0,,
null,,1379129,HierDy9cfsawef,dex8u744g4,ms1000267,iti,,null,img/motor_5.png,72,motor,,,,,,,
598,,1379735,HierDy9cfsawef,dex8u744g4,ms1000267,motor,,65,img/motor_1.png,65,motor,1,366,1,0,0,,
null,,1379844,HierDy9cfsawef,dex8u744g4,ms1000267,iti,,null,img/motor_1.png,65,motor,,,,,,,
634,,1380487,HierDy9cfsawef,dex8u744g4,ms1000267,motor,,74,img/motor_6.png,74,motor,6,367,1,0,0,,
null,,1380596,HierDy9cfsawef,dex8u744g4,ms1000267,iti,,null,img/motor_6.png,74,motor,,,,,,,
612,,1381223,HierDy9cfsawef,dex8u744g4,ms1000267,motor,,68,img/motor_3.png,68,motor,3,368,1,0,0,,
null,,1381331,HierDy9cfsawef,dex8u744g4,ms1000267,iti,,null,img/motor_3.png,68,motor,,,,,,,
476,,1381815,HierDy9cfsawef,dex8u744g4,ms1000267,motor,,65,img/motor_1.png,65,motor,1,369,1,0,0,,
null,,1381931,HierDy9cfsawef,dex8u744g4,ms1000267,iti,,null,img/motor_1.png,65,motor,,,,,,,
596,,1382535,HierDy9cfsawef,dex8u744g4,ms1000267,motor,,68,img/motor_3.png,68,motor,3,370,1,0,0,,
null,,1382650,HierDy9cfsawef,dex8u744g4,ms1000267,iti,,null,img/motor_3.png,68,motor,,,,,,,
675,,1383342,HierDy9cfsawef,dex8u744g4,ms1000267,motor,,74,img/motor_6.png,74,motor,6,371,1,0,0,,
null,,1383458,HierDy9cfsawef,dex8u744g4,ms1000267,iti,,null,img/motor_6.png,74,motor,,,,,,,
356,,1383823,HierDy9cfsawef,dex8u744g4,ms1000267,motor,,74,img/motor_6.png,74,motor,6,372,1,0,0,,
null,,1383931,HierDy9cfsawef,dex8u744g4,ms1000267,iti,,null,img/motor_6.png,74,motor,,,,,,,
435,,1384374,HierDy9cfsawef,dex8u744g4,ms1000267,motor,,68,img/motor_3.png,68,motor,3,373,1,0,0,,
null,,1384483,HierDy9cfsawef,dex8u744g4,ms1000267,iti,,null,img/motor_3.png,68,motor,,,,,,,
460,,1384950,HierDy9cfsawef,dex8u744g4,ms1000267,motor,,65,img/motor_1.png,65,motor,1,374,1,0,0,,
null,,1385059,HierDy9cfsawef,dex8u744g4,ms1000267,iti,,null,img/motor_1.png,65,motor,,,,,,,
525,,1385592,HierDy9cfsawef,dex8u744g4,ms1000267,motor,,83,img/motor_2.png,83,motor,2,375,1,0,0,,
null,,1385700,HierDy9cfsawef,dex8u744g4,ms1000267,iti,,null,img/motor_2.png,83,motor,,,,,,,
642,,1386352,HierDy9cfsawef,dex8u744g4,ms1000267,motor,,75,img/motor_7.png,75,motor,7,376,1,0,0,,
null,,1386459,HierDy9cfsawef,dex8u744g4,ms1000267,iti,,null,img/motor_7.png,75,motor,,,,,,,
459,,1386933,HierDy9cfsawef,dex8u744g4,ms1000267,motor,,74,img/motor_6.png,74,motor,6,377,1,0,0,,
null,,1387043,HierDy9cfsawef,dex8u744g4,ms1000267,iti,,null,img/motor_6.png,74,motor,,,,,,,
396,,1387446,HierDy9cfsawef,dex8u744g4,ms1000267,motor,,74,img/motor_6.png,74,motor,6,378,1,0,0,,
null,,1387555,HierDy9cfsawef,dex8u744g4,ms1000267,iti,,null,img/motor_6.png,74,motor,,,,,,,
420,,1387990,HierDy9cfsawef,dex8u744g4,ms1000267,motor,,72,img/motor_5.png,72,motor,5,379,1,0,0,,
null,,1388099,HierDy9cfsawef,dex8u744g4,ms1000267,iti,,null,img/motor_5.png,72,motor,,,,,,,
419,,1388527,HierDy9cfsawef,dex8u744g4,ms1000267,motor,,76,img/motor_8.png,76,motor,8,380,1,0,0,,
null,,1388642,HierDy9cfsawef,dex8u744g4,ms1000267,iti,,null,img/motor_8.png,76,motor,,,,,,,
652,,1389303,HierDy9cfsawef,dex8u744g4,ms1000267,motor,,70,img/motor_4.png,70,motor,4,381,1,0,0,,
null,,1389412,HierDy9cfsawef,dex8u744g4,ms1000267,iti,,null,img/motor_4.png,70,motor,,,,,,,
338,,1389759,HierDy9cfsawef,dex8u744g4,ms1000267,motor,,70,img/motor_4.png,70,motor,4,382,1,0,0,,
null,,1389874,HierDy9cfsawef,dex8u744g4,ms1000267,iti,,null,img/motor_4.png,70,motor,,,,,,,
420,,1390303,HierDy9cfsawef,dex8u744g4,ms1000267,motor,,68,img/motor_3.png,68,motor,3,383,1,0,0,,
null,,1390412,HierDy9cfsawef,dex8u744g4,ms1000267,iti,,null,img/motor_3.png,68,motor,,,,,,,
347,,1390774,HierDy9cfsawef,dex8u744g4,ms1000267,motor,,83,img/motor_2.png,83,motor,2,384,1,0,0,,
null,,1390884,HierDy9cfsawef,dex8u744g4,ms1000267,iti,,null,img/motor_2.png,83,motor,,,,,,,
795,,1391687,HierDy9cfsawef,dex8u744g4,ms1000267,motor,,72,img/motor_5.png,72,motor,5,385,1,0,0,,
null,,1391802,HierDy9cfsawef,dex8u744g4,ms1000267,iti,,null,img/motor_5.png,72,motor,,,,,,,
540,,1392350,HierDy9cfsawef,dex8u744g4,ms1000267,motor,,70,img/motor_4.png,70,motor,4,386,1,0,0,,
null,,1392459,HierDy9cfsawef,dex8u744g4,ms1000267,iti,,null,img/motor_4.png,70,motor,,,,,,,
556,,1393029,HierDy9cfsawef,dex8u744g4,ms1000267,motor,,74,img/motor_6.png,74,motor,6,387,1,0,0,,
null,,1393146,HierDy9cfsawef,dex8u744g4,ms1000267,iti,,null,img/motor_6.png,74,motor,,,,,,,
620,,1393774,HierDy9cfsawef,dex8u744g4,ms1000267,motor,,83,img/motor_2.png,83,motor,2,388,1,0,0,,
null,,1393890,HierDy9cfsawef,dex8u744g4,ms1000267,iti,,null,img/motor_2.png,83,motor,,,,,,,
429,,1394327,HierDy9cfsawef,dex8u744g4,ms1000267,motor,,76,img/motor_8.png,76,motor,8,389,1,0,0,,
null,,1394442,HierDy9cfsawef,dex8u744g4,ms1000267,iti,,null,img/motor_8.png,76,motor,,,,,,,
340,,1394798,HierDy9cfsawef,dex8u744g4,ms1000267,motor,,76,img/motor_7.png,75,motor,7,390,0,1,0,,
296,,1395110,HierDy9cfsawef,dex8u744g4,ms1000267,motorRepeat,,75,img/motor_7.png,75,motor,7,390,1,0,0,,
null,,1395220,HierDy9cfsawef,dex8u744g4,ms1000267,iti,,null,img/motor_7.png,75,motor,,,,,,,
444,,1395678,HierDy9cfsawef,dex8u744g4,ms1000267,motor,,74,img/motor_6.png,74,motor,6,391,1,0,0,,
null,,1395788,HierDy9cfsawef,dex8u744g4,ms1000267,iti,,null,img/motor_6.png,74,motor,,,,,,,
571,,1396367,HierDy9cfsawef,dex8u744g4,ms1000267,motor,,83,img/motor_2.png,83,motor,2,392,1,0,0,,
null,,1396476,HierDy9cfsawef,dex8u744g4,ms1000267,iti,,null,img/motor_2.png,83,motor,,,,,,,
532,,1397022,HierDy9cfsawef,dex8u744g4,ms1000267,motor,,65,img/motor_1.png,65,motor,1,393,1,0,0,,
null,,1397139,HierDy9cfsawef,dex8u744g4,ms1000267,iti,,null,img/motor_1.png,65,motor,,,,,,,
396,,1397550,HierDy9cfsawef,dex8u744g4,ms1000267,motor,,65,img/motor_1.png,65,motor,1,394,1,0,0,,
null,,1397660,HierDy9cfsawef,dex8u744g4,ms1000267,iti,,null,img/motor_1.png,65,motor,,,,,,,
619,,1398288,HierDy9cfsawef,dex8u744g4,ms1000267,motor,,74,img/motor_6.png,74,motor,6,395,1,0,0,,
null,,1398403,HierDy9cfsawef,dex8u744g4,ms1000267,iti,,null,img/motor_6.png,74,motor,,,,,,,
731,,1399150,HierDy9cfsawef,dex8u744g4,ms1000267,motor,,83,img/motor_2.png,83,motor,2,396,1,0,0,,
null,,1399266,HierDy9cfsawef,dex8u744g4,ms1000267,iti,,null,img/motor_2.png,83,motor,,,,,,,
484,,1399767,HierDy9cfsawef,dex8u744g4,ms1000267,motor,,76,img/motor_8.png,76,motor,8,397,1,0,0,,
null,,1399876,HierDy9cfsawef,dex8u744g4,ms1000267,iti,,null,img/motor_8.png,76,motor,,,,,,,
379,,1400264,HierDy9cfsawef,dex8u744g4,ms1000267,motor,,76,img/motor_7.png,75,motor,7,398,0,1,0,,
247,,1400519,HierDy9cfsawef,dex8u744g4,ms1000267,motorRepeat,,75,img/motor_7.png,75,motor,7,398,1,0,0,,
null,,1400634,HierDy9cfsawef,dex8u744g4,ms1000267,iti,,null,img/motor_7.png,75,motor,,,,,,,
485,,1401127,HierDy9cfsawef,dex8u744g4,ms1000267,motor,,65,img/motor_1.png,65,motor,1,399,1,0,0,,
null,,1401243,HierDy9cfsawef,dex8u744g4,ms1000267,iti,,null,img/motor_1.png,65,motor,,,,,,,
444,,1401702,HierDy9cfsawef,dex8u744g4,ms1000267,motor,,65,img/motor_1.png,65,motor,1,400,1,0,0,,
null,,1401811,HierDy9cfsawef,dex8u744g4,ms1000267,iti,,null,img/motor_1.png,65,motor,,,,,,,
627,,1402448,HierDy9cfsawef,dex8u744g4,ms1000267,motor,,68,img/motor_3.png,68,motor,3,401,1,0,0,,
null,,1402557,HierDy9cfsawef,dex8u744g4,ms1000267,iti,,null,img/motor_3.png,68,motor,,,,,,,
450,,1403015,HierDy9cfsawef,dex8u744g4,ms1000267,motor,,76,img/motor_8.png,76,motor,8,402,1,0,0,,
null,,1403132,HierDy9cfsawef,dex8u744g4,ms1000267,iti,,null,img/motor_8.png,76,motor,,,,,,,
555,,1403702,HierDy9cfsawef,dex8u744g4,ms1000267,motor,,68,img/motor_3.png,68,motor,3,403,1,0,0,,
null,,1403819,HierDy9cfsawef,dex8u744g4,ms1000267,iti,,null,img/motor_3.png,68,motor,,,,,,,
476,,1404304,HierDy9cfsawef,dex8u744g4,ms1000267,motor,,65,img/motor_1.png,65,motor,1,404,1,0,0,,
null,,1404413,HierDy9cfsawef,dex8u744g4,ms1000267,iti,,null,img/motor_1.png,65,motor,,,,,,,
523,,1404950,HierDy9cfsawef,dex8u744g4,ms1000267,motor,,70,img/motor_4.png,70,motor,4,405,1,0,0,,
null,,1405066,HierDy9cfsawef,dex8u744g4,ms1000267,iti,,null,img/motor_4.png,70,motor,,,,,,,
540,,1405616,HierDy9cfsawef,dex8u744g4,ms1000267,motor,,74,img/motor_6.png,74,motor,6,406,1,0,0,,
null,,1405731,HierDy9cfsawef,dex8u744g4,ms1000267,iti,,null,img/motor_6.png,74,motor,,,,,,,
516,,1406255,HierDy9cfsawef,dex8u744g4,ms1000267,motor,,65,img/motor_1.png,65,motor,1,407,1,0,0,,
null,,1406371,HierDy9cfsawef,dex8u744g4,ms1000267,iti,,null,img/motor_1.png,65,motor,,,,,,,
451,,1406831,HierDy9cfsawef,dex8u744g4,ms1000267,motor,,70,img/motor_4.png,70,motor,4,408,1,0,0,,
null,,1406947,HierDy9cfsawef,dex8u744g4,ms1000267,iti,,null,img/motor_4.png,70,motor,,,,,,,
420,,1407382,HierDy9cfsawef,dex8u744g4,ms1000267,motor,,76,img/motor_7.png,75,motor,7,409,0,1,0,,
432,,1407830,HierDy9cfsawef,dex8u744g4,ms1000267,motorRepeat,,75,img/motor_7.png,75,motor,7,409,1,0,0,,
null,,1407939,HierDy9cfsawef,dex8u744g4,ms1000267,iti,,null,img/motor_7.png,75,motor,,,,,,,
444,,1408391,HierDy9cfsawef,dex8u744g4,ms1000267,motor,,75,img/motor_7.png,75,motor,7,410,1,0,0,,
null,,1408500,HierDy9cfsawef,dex8u744g4,ms1000267,iti,,null,img/motor_7.png,75,motor,,,,,,,
428,,1408935,HierDy9cfsawef,dex8u744g4,ms1000267,motor,,76,img/motor_8.png,76,motor,8,411,1,0,0,,
null,,1409050,HierDy9cfsawef,dex8u744g4,ms1000267,iti,,null,img/motor_8.png,76,motor,,,,,,,
708,,1409767,HierDy9cfsawef,dex8u744g4,ms1000267,motor,,65,img/motor_1.png,65,motor,1,412,1,0,0,,
null,,1409882,HierDy9cfsawef,dex8u744g4,ms1000267,iti,,null,img/motor_1.png,65,motor,,,,,,,
492,,1410383,HierDy9cfsawef,dex8u744g4,ms1000267,motor,,76,img/motor_8.png,76,motor,8,413,1,0,0,,
null,,1410492,HierDy9cfsawef,dex8u744g4,ms1000267,iti,,null,img/motor_8.png,76,motor,,,,,,,
363,,1410870,HierDy9cfsawef,dex8u744g4,ms1000267,motor,,76,img/motor_8.png,76,motor,8,414,1,0,0,,
null,,1410987,HierDy9cfsawef,dex8u744g4,ms1000267,iti,,null,img/motor_8.png,76,motor,,,,,,,
596,,1411598,HierDy9cfsawef,dex8u744g4,ms1000267,motor,,72,img/motor_5.png,72,motor,5,415,1,0,0,,
null,,1411714,HierDy9cfsawef,dex8u744g4,ms1000267,iti,,null,img/motor_5.png,72,motor,,,,,,,
428,,1412151,HierDy9cfsawef,dex8u744g4,ms1000267,motor,,74,img/motor_7.png,75,motor,7,416,0,1,0,,
271,,1412431,HierDy9cfsawef,dex8u744g4,ms1000267,motorRepeat,,75,img/motor_7.png,75,motor,7,416,1,0,0,,
null,,1412546,HierDy9cfsawef,dex8u744g4,ms1000267,iti,,null,img/motor_7.png,75,motor,,,,,,,
429,,1412984,HierDy9cfsawef,dex8u744g4,ms1000267,motor,,75,img/motor_7.png,75,motor,7,417,1,0,0,,
null,,1413099,HierDy9cfsawef,dex8u744g4,ms1000267,iti,,null,img/motor_7.png,75,motor,,,,,,,
843,,1413952,HierDy9cfsawef,dex8u744g4,ms1000267,motor,,68,img/motor_3.png,68,motor,3,418,1,0,0,,
null,,1414060,HierDy9cfsawef,dex8u744g4,ms1000267,iti,,null,img/motor_3.png,68,motor,,,,,,,
603,,1414678,HierDy9cfsawef,dex8u744g4,ms1000267,motor,,83,img/motor_2.png,83,motor,2,419,1,0,0,,
null,,1414794,HierDy9cfsawef,dex8u744g4,ms1000267,iti,,null,img/motor_2.png,83,motor,,,,,,,
669,,1415478,HierDy9cfsawef,dex8u744g4,ms1000267,motor,,83,img/motor_6.png,74,motor,6,420,0,1,0,,
1,,1415486,HierDy9cfsawef,dex8u744g4,ms1000267,motorRepeat,,74,img/motor_6.png,74,motor,6,420,1,0,0,,
null,,1415594,HierDy9cfsawef,dex8u744g4,ms1000267,iti,,null,img/motor_6.png,74,motor,,,,,,,
4,,1415605,HierDy9cfsawef,dex8u744g4,ms1000267,motor,,74,img/motor_1.png,65,motor,1,421,0,1,0,,
530,,1416143,HierDy9cfsawef,dex8u744g4,ms1000267,motorRepeat,,65,img/motor_1.png,65,motor,1,421,1,0,0,,
null,,1416251,HierDy9cfsawef,dex8u744g4,ms1000267,iti,,null,img/motor_1.png,65,motor,,,,,,,
524,,1416784,HierDy9cfsawef,dex8u744g4,ms1000267,motor,,72,img/motor_5.png,72,motor,5,422,1,0,0,,
null,,1416900,HierDy9cfsawef,dex8u744g4,ms1000267,iti,,null,img/motor_5.png,72,motor,,,,,,,
523,,1417438,HierDy9cfsawef,dex8u744g4,ms1000267,motor,,70,img/motor_4.png,70,motor,4,423,1,0,0,,
null,,1417554,HierDy9cfsawef,dex8u744g4,ms1000267,iti,,null,img/motor_4.png,70,motor,,,,,,,
421,,1417991,HierDy9cfsawef,dex8u744g4,ms1000267,motor,,70,img/motor_5.png,72,motor,5,424,0,1,0,,
296,,1418295,HierDy9cfsawef,dex8u744g4,ms1000267,motorRepeat,,72,img/motor_5.png,72,motor,5,424,1,0,0,,
null,,1418411,HierDy9cfsawef,dex8u744g4,ms1000267,iti,,null,img/motor_5.png,72,motor,,,,,,,
356,,1418776,HierDy9cfsawef,dex8u744g4,ms1000267,motor,,72,img/motor_5.png,72,motor,5,425,1,0,0,,
null,,1418885,HierDy9cfsawef,dex8u744g4,ms1000267,iti,,null,img/motor_5.png,72,motor,,,,,,,
563,,1419456,HierDy9cfsawef,dex8u744g4,ms1000267,motor,,83,img/motor_2.png,83,motor,2,426,1,0,0,,
null,,1419564,HierDy9cfsawef,dex8u744g4,ms1000267,iti,,null,img/motor_2.png,83,motor,,,,,,,
499,,1420071,HierDy9cfsawef,dex8u744g4,ms1000267,motor,,75,img/motor_7.png,75,motor,7,427,1,0,0,,
null,,1420186,HierDy9cfsawef,dex8u744g4,ms1000267,iti,,null,img/motor_7.png,75,motor,,,,,,,
524,,1420727,HierDy9cfsawef,dex8u744g4,ms1000267,motor,,74,img/motor_6.png,74,motor,6,428,1,0,0,,
null,,1420843,HierDy9cfsawef,dex8u744g4,ms1000267,iti,,null,img/motor_6.png,74,motor,,,,,,,
523,,1421376,HierDy9cfsawef,dex8u744g4,ms1000267,motor,,70,img/motor_3.png,68,motor,3,429,0,1,0,,
207,,1421591,HierDy9cfsawef,dex8u744g4,ms1000267,motorRepeat,,68,img/motor_3.png,68,motor,3,429,1,0,0,,
null,,1421700,HierDy9cfsawef,dex8u744g4,ms1000267,iti,,null,img/motor_3.png,68,motor,,,,,,,
539,,1422247,HierDy9cfsawef,dex8u744g4,ms1000267,motor,,72,img/motor_5.png,72,motor,5,430,1,0,0,,
null,,1422356,HierDy9cfsawef,dex8u744g4,ms1000267,iti,,null,img/motor_5.png,72,motor,,,,,,,
610,,1422976,HierDy9cfsawef,dex8u744g4,ms1000267,motor,,83,img/motor_2.png,83,motor,2,431,1,0,0,,
null,,1423085,HierDy9cfsawef,dex8u744g4,ms1000267,iti,,null,img/motor_2.png,83,motor,,,,,,,
355,,1423448,HierDy9cfsawef,dex8u744g4,ms1000267,motor,,83,img/motor_1.png,65,motor,1,432,0,1,0,,
287,,1423744,HierDy9cfsawef,dex8u744g4,ms1000267,motorRepeat,,65,img/motor_1.png,65,motor,1,432,1,0,0,,
null,,1423853,HierDy9cfsawef,dex8u744g4,ms1000267,iti,,null,img/motor_1.png,65,motor,,,,,,,
731,,1424599,HierDy9cfsawef,dex8u744g4,ms1000267,motor,,68,img/motor_3.png,68,motor,3,433,1,0,0,,
null,,1424715,HierDy9cfsawef,dex8u744g4,ms1000267,iti,,null,img/motor_3.png,68,motor,,,,,,,
500,,1425231,HierDy9cfsawef,dex8u744g4,ms1000267,motor,,74,img/motor_6.png,74,motor,6,434,1,0,0,,
null,,1425340,HierDy9cfsawef,dex8u744g4,ms1000267,iti,,null,img/motor_6.png,74,motor,,,,,,,
517,,1425871,HierDy9cfsawef,dex8u744g4,ms1000267,motor,,75,img/motor_7.png,75,motor,7,435,1,0,0,,
null,,1425980,HierDy9cfsawef,dex8u744g4,ms1000267,iti,,null,img/motor_7.png,75,motor,,,,,,,
371,,1426366,HierDy9cfsawef,dex8u744g4,ms1000267,motor,,75,img/motor_7.png,75,motor,7,436,1,0,0,,
null,,1426482,HierDy9cfsawef,dex8u744g4,ms1000267,iti,,null,img/motor_7.png,75,motor,,,,,,,
516,,1427015,HierDy9cfsawef,dex8u744g4,ms1000267,motor,,72,img/motor_5.png,72,motor,5,437,1,0,0,,
null,,1427131,HierDy9cfsawef,dex8u744g4,ms1000267,iti,,null,img/motor_5.png,72,motor,,,,,,,
436,,1427576,HierDy9cfsawef,dex8u744g4,ms1000267,motor,,76,img/motor_8.png,76,motor,8,438,1,0,0,,
null,,1427684,HierDy9cfsawef,dex8u744g4,ms1000267,iti,,null,img/motor_8.png,76,motor,,,,,,,
635,,1428335,HierDy9cfsawef,dex8u744g4,ms1000267,motor,,83,img/motor_2.png,83,motor,2,439,1,0,0,,
null,,1428451,HierDy9cfsawef,dex8u744g4,ms1000267,iti,,null,img/motor_2.png,83,motor,,,,,,,
1099,,1429567,HierDy9cfsawef,dex8u744g4,ms1000267,motor,,74,img/motor_6.png,74,motor,6,440,1,0,0,,
null,,1429684,HierDy9cfsawef,dex8u744g4,ms1000267,iti,,null,img/motor_6.png,74,motor,,,,,,,
971,,1430665,HierDy9cfsawef,dex8u744g4,ms1000267,motor,,70,img/motor_4.png,70,motor,4,441,1,0,0,,
null,,1430772,HierDy9cfsawef,dex8u744g4,ms1000267,iti,,null,img/motor_4.png,70,motor,,,,,,,
396,,1431176,HierDy9cfsawef,dex8u744g4,ms1000267,motor,,72,img/motor_5.png,72,motor,5,442,1,0,0,,
null,,1431285,HierDy9cfsawef,dex8u744g4,ms1000267,iti,,null,img/motor_5.png,72,motor,,,,,,,
531,,1431831,HierDy9cfsawef,dex8u744g4,ms1000267,motor,,65,img/motor_1.png,65,motor,1,443,1,0,0,,
null,,1431947,HierDy9cfsawef,dex8u744g4,ms1000267,iti,,null,img/motor_1.png,65,motor,,,,,,,
492,,1432448,HierDy9cfsawef,dex8u744g4,ms1000267,motor,,70,img/motor_4.png,70,motor,4,444,1,0,0,,
null,,1432556,HierDy9cfsawef,dex8u744g4,ms1000267,iti,,null,img/motor_4.png,70,motor,,,,,,,
443,,1433015,HierDy9cfsawef,dex8u744g4,ms1000267,motor,,75,img/motor_7.png,75,motor,7,445,1,0,0,,
null,,1433124,HierDy9cfsawef,dex8u744g4,ms1000267,iti,,null,img/motor_7.png,75,motor,,,,,,,
523,,1433656,HierDy9cfsawef,dex8u744g4,ms1000267,motor,,72,img/motor_5.png,72,motor,5,446,1,0,0,,
null,,1433765,HierDy9cfsawef,dex8u744g4,ms1000267,iti,,null,img/motor_5.png,72,motor,,,,,,,
515,,1434288,HierDy9cfsawef,dex8u744g4,ms1000267,motor,,74,img/motor_6.png,74,motor,6,447,1,0,0,,
null,,1434396,HierDy9cfsawef,dex8u744g4,ms1000267,iti,,null,img/motor_6.png,74,motor,,,,,,,
531,,1434936,HierDy9cfsawef,dex8u744g4,ms1000267,motor,,65,img/motor_1.png,65,motor,1,448,1,0,0,,
null,,1435052,HierDy9cfsawef,dex8u744g4,ms1000267,iti,,null,img/motor_1.png,65,motor,,,,,,,
468,,1435534,HierDy9cfsawef,dex8u744g4,ms1000267,motor,,76,img/motor_8.png,76,motor,8,449,1,0,0,,
null,,1435644,HierDy9cfsawef,dex8u744g4,ms1000267,iti,,null,img/motor_8.png,76,motor,,,,,,,
501,,1436151,HierDy9cfsawef,dex8u744g4,ms1000267,motor,,83,img/motor_2.png,83,motor,2,450,1,0,0,,
null,,1436260,HierDy9cfsawef,dex8u744g4,ms1000267,iti,,null,img/motor_2.png,83,motor,,,,,,,
571,,1436839,HierDy9cfsawef,dex8u744g4,ms1000267,motor,,74,img/motor_6.png,74,motor,6,451,1,0,0,,
null,,1436954,HierDy9cfsawef,dex8u744g4,ms1000267,iti,,null,img/motor_6.png,74,motor,,,,,,,
404,,1437368,HierDy9cfsawef,dex8u744g4,ms1000267,motor,,76,img/motor_8.png,76,motor,8,452,1,0,0,,
null,,1437483,HierDy9cfsawef,dex8u744g4,ms1000267,iti,,null,img/motor_8.png,76,motor,,,,,,,
556,,1438049,HierDy9cfsawef,dex8u744g4,ms1000267,motor,,74,img/motor_6.png,74,motor,6,453,1,0,0,,
null,,1438157,HierDy9cfsawef,dex8u744g4,ms1000267,iti,,null,img/motor_6.png,74,motor,,,,,,,
531,,1438702,HierDy9cfsawef,dex8u744g4,ms1000267,motor,,68,img/motor_3.png,68,motor,3,454,1,0,0,,
null,,1438812,HierDy9cfsawef,dex8u744g4,ms1000267,iti,,null,img/motor_3.png,68,motor,,,,,,,
461,,1439287,HierDy9cfsawef,dex8u744g4,ms1000267,motor,,83,img/motor_2.png,83,motor,2,455,1,0,0,,
null,,1439396,HierDy9cfsawef,dex8u744g4,ms1000267,iti,,null,img/motor_2.png,83,motor,,,,,,,
460,,1439863,HierDy9cfsawef,dex8u744g4,ms1000267,motor,,72,img/motor_5.png,72,motor,5,456,1,0,0,,
null,,1439972,HierDy9cfsawef,dex8u744g4,ms1000267,iti,,null,img/motor_5.png,72,motor,,,,,,,
411,,1440391,HierDy9cfsawef,dex8u744g4,ms1000267,motor,,72,img/motor_5.png,72,motor,5,457,1,0,0,,
null,,1440499,HierDy9cfsawef,dex8u744g4,ms1000267,iti,,null,img/motor_5.png,72,motor,,,,,,,
564,,1441079,HierDy9cfsawef,dex8u744g4,ms1000267,motor,,70,img/motor_4.png,70,motor,4,458,1,0,0,,
null,,1441187,HierDy9cfsawef,dex8u744g4,ms1000267,iti,,null,img/motor_4.png,70,motor,,,,,,,
483,,1441679,HierDy9cfsawef,dex8u744g4,ms1000267,motor,,83,img/motor_2.png,83,motor,2,459,1,0,0,,
null,,1441788,HierDy9cfsawef,dex8u744g4,ms1000267,iti,,null,img/motor_2.png,83,motor,,,,,,,
556,,1442351,HierDy9cfsawef,dex8u744g4,ms1000267,motor,,74,img/motor_6.png,74,motor,6,460,1,0,0,,
null,,1442460,HierDy9cfsawef,dex8u744g4,ms1000267,iti,,null,img/motor_6.png,74,motor,,,,,,,
619,,1443088,HierDy9cfsawef,dex8u744g4,ms1000267,motor,,65,img/motor_1.png,65,motor,1,461,1,0,0,,
null,,1443197,HierDy9cfsawef,dex8u744g4,ms1000267,iti,,null,img/motor_1.png,65,motor,,,,,,,
403,,1443608,HierDy9cfsawef,dex8u744g4,ms1000267,motor,,76,img/motor_8.png,76,motor,8,462,1,0,0,,
null,,1443717,HierDy9cfsawef,dex8u744g4,ms1000267,iti,,null,img/motor_8.png,76,motor,,,,,,,
522,,1444255,HierDy9cfsawef,dex8u744g4,ms1000267,motor,,75,img/motor_6.png,74,motor,6,463,0,1,0,,
207,,1444472,HierDy9cfsawef,dex8u744g4,ms1000267,motorRepeat,,74,img/motor_6.png,74,motor,6,463,1,0,0,,
null,,1444580,HierDy9cfsawef,dex8u744g4,ms1000267,iti,,null,img/motor_6.png,74,motor,,,,,,,
444,,1445032,HierDy9cfsawef,dex8u744g4,ms1000267,motor,,76,img/motor_8.png,76,motor,8,464,1,0,0,,
null,,1445140,HierDy9cfsawef,dex8u744g4,ms1000267,iti,,null,img/motor_8.png,76,motor,,,,,,,
586,,1445735,HierDy9cfsawef,dex8u744g4,ms1000267,motor,,68,img/motor_3.png,68,motor,3,465,1,0,0,,
null,,1445844,HierDy9cfsawef,dex8u744g4,ms1000267,iti,,null,img/motor_3.png,68,motor,,,,,,,
380,,1446232,HierDy9cfsawef,dex8u744g4,ms1000267,motor,,83,img/motor_2.png,83,motor,2,466,1,0,0,,
null,,1446341,HierDy9cfsawef,dex8u744g4,ms1000267,iti,,null,img/motor_2.png,83,motor,,,,,,,
459,,1446808,HierDy9cfsawef,dex8u744g4,ms1000267,motor,,70,img/motor_4.png,70,motor,4,467,1,0,0,,
null,,1446924,HierDy9cfsawef,dex8u744g4,ms1000267,iti,,null,img/motor_4.png,70,motor,,,,,,,
452,,1447392,HierDy9cfsawef,dex8u744g4,ms1000267,motor,,70,img/motor_2.png,83,motor,2,468,0,1,0,,
184,,1447591,HierDy9cfsawef,dex8u744g4,ms1000267,motorRepeat,,83,img/motor_2.png,83,motor,2,468,1,0,0,,
null,,1447708,HierDy9cfsawef,dex8u744g4,ms1000267,iti,,null,img/motor_2.png,83,motor,,,,,,,
507,,1448231,HierDy9cfsawef,dex8u744g4,ms1000267,motor,,65,img/motor_1.png,65,motor,1,469,1,0,0,,
null,,1448348,HierDy9cfsawef,dex8u744g4,ms1000267,iti,,null,img/motor_1.png,65,motor,,,,,,,
516,,1448872,HierDy9cfsawef,dex8u744g4,ms1000267,motor,,72,img/motor_7.png,75,motor,7,470,0,1,0,,
216,,1449102,HierDy9cfsawef,dex8u744g4,ms1000267,motorRepeat,,75,img/motor_7.png,75,motor,7,470,1,0,0,,
null,,1449218,HierDy9cfsawef,dex8u744g4,ms1000267,iti,,null,img/motor_7.png,75,motor,,,,,,,
605,,1449838,HierDy9cfsawef,dex8u744g4,ms1000267,motor,,68,img/motor_3.png,68,motor,3,471,1,0,0,,
null,,1449948,HierDy9cfsawef,dex8u744g4,ms1000267,iti,,null,img/motor_3.png,68,motor,,,,,,,
555,,1450512,HierDy9cfsawef,dex8u744g4,ms1000267,motor,,75,img/motor_7.png,75,motor,7,472,1,0,0,,
null,,1450628,HierDy9cfsawef,dex8u744g4,ms1000267,iti,,null,img/motor_7.png,75,motor,,,,,,,
491,,1451135,HierDy9cfsawef,dex8u744g4,ms1000267,motor,,65,img/motor_1.png,65,motor,1,473,1,0,0,,
null,,1451243,HierDy9cfsawef,dex8u744g4,ms1000267,iti,,null,img/motor_1.png,65,motor,,,,,,,
555,,1451814,HierDy9cfsawef,dex8u744g4,ms1000267,motor,,70,img/motor_4.png,70,motor,4,474,1,0,0,,
null,,1451931,HierDy9cfsawef,dex8u744g4,ms1000267,iti,,null,img/motor_4.png,70,motor,,,,,,,
540,,1452480,HierDy9cfsawef,dex8u744g4,ms1000267,motor,,65,img/motor_1.png,65,motor,1,475,1,0,0,,
null,,1452596,HierDy9cfsawef,dex8u744g4,ms1000267,iti,,null,img/motor_1.png,65,motor,,,,,,,
395,,1453007,HierDy9cfsawef,dex8u744g4,ms1000267,motor,,65,img/motor_1.png,65,motor,1,476,1,0,0,,
null,,1453123,HierDy9cfsawef,dex8u744g4,ms1000267,iti,,null,img/motor_1.png,65,motor,,,,,,,
556,,1453687,HierDy9cfsawef,dex8u744g4,ms1000267,motor,,75,img/motor_7.png,75,motor,7,477,1,0,0,,
null,,1453797,HierDy9cfsawef,dex8u744g4,ms1000267,iti,,null,img/motor_7.png,75,motor,,,,,,,
547,,1454359,HierDy9cfsawef,dex8u744g4,ms1000267,motor,,72,img/motor_5.png,72,motor,5,478,1,0,0,,
null,,1454475,HierDy9cfsawef,dex8u744g4,ms1000267,iti,,null,img/motor_5.png,72,motor,,,,,,,
619,,1455105,HierDy9cfsawef,dex8u744g4,ms1000267,motor,,68,img/motor_3.png,68,motor,3,479,1,0,0,,
null,,1455212,HierDy9cfsawef,dex8u744g4,ms1000267,iti,,null,img/motor_3.png,68,motor,,,,,,,
531,,1455752,HierDy9cfsawef,dex8u744g4,ms1000267,motor,,75,img/motor_7.png,75,motor,7,480,1,0,0,,
null,,1455861,HierDy9cfsawef,dex8u744g4,ms1000267,iti,,null,img/motor_7.png,75,motor,,,,,,,
835,,1456705,HierDy9cfsawef,dex8u744g4,ms1000267,motor,,72,img/motor_5.png,72,motor,5,481,1,0,0,,
null,,1456820,HierDy9cfsawef,dex8u744g4,ms1000267,iti,,null,img/motor_5.png,72,motor,,,,,,,
579,,1457408,HierDy9cfsawef,dex8u744g4,ms1000267,motor,,65,img/motor_1.png,65,motor,1,482,1,0,0,,
null,,1457516,HierDy9cfsawef,dex8u744g4,ms1000267,iti,,null,img/motor_1.png,65,motor,,,,,,,
427,,1457952,HierDy9cfsawef,dex8u744g4,ms1000267,motor,,72,img/motor_5.png,72,motor,5,483,1,0,0,,
null,,1458060,HierDy9cfsawef,dex8u744g4,ms1000267,iti,,null,img/motor_5.png,72,motor,,,,,,,
460,,1458528,HierDy9cfsawef,dex8u744g4,ms1000267,motor,,68,img/motor_3.png,68,motor,3,484,1,0,0,,
null,,1458637,HierDy9cfsawef,dex8u744g4,ms1000267,iti,,null,img/motor_3.png,68,motor,,,,,,,
475,,1459120,HierDy9cfsawef,dex8u744g4,ms1000267,motor,,72,img/motor_5.png,72,motor,5,485,1,0,0,,
null,,1459229,HierDy9cfsawef,dex8u744g4,ms1000267,iti,,null,img/motor_5.png,72,motor,,,,,,,
474,,1459712,HierDy9cfsawef,dex8u744g4,ms1000267,motor,,83,img/motor_1.png,65,motor,1,486,0,1,0,,
288,,1460015,HierDy9cfsawef,dex8u744g4,ms1000267,motorRepeat,,65,img/motor_1.png,65,motor,1,486,1,0,0,,
null,,1460125,HierDy9cfsawef,dex8u744g4,ms1000267,iti,,null,img/motor_1.png,65,motor,,,,,,,
452,,1460591,HierDy9cfsawef,dex8u744g4,ms1000267,motor,,72,img/motor_5.png,72,motor,5,487,1,0,0,,
null,,1460708,HierDy9cfsawef,dex8u744g4,ms1000267,iti,,null,img/motor_5.png,72,motor,,,,,,,
46030,,1506745,HierDy9cfsawef,dex8u744g4,ms1000267,,,,,,,,,,,,,
398,,1507159,HierDy9cfsawef,dex8u744g4,ms1000267,prac,,74,img/image3.bmp,74,prac,,,1,,,0,
null,,1507927,HierDy9cfsawef,dex8u744g4,ms1000267,feedback,,null,,na,prac,,,,,,,
706,,1508648,HierDy9cfsawef,dex8u744g4,ms1000267,prac,,75,img/image4.bmp,72,prac,,,0,,,1,
null,,1509408,HierDy9cfsawef,dex8u744g4,ms1000267,feedback,,null,,na,prac,,,,,,,
984,,1510400,HierDy9cfsawef,dex8u744g4,ms1000267,prac,,74,img/image5.bmp,75,prac,,,0,,,2,
null,,1511167,HierDy9cfsawef,dex8u744g4,ms1000267,feedback,,null,,na,prac,,,,,,,
265,,1511447,HierDy9cfsawef,dex8u744g4,ms1000267,prac,,72,img/image4.bmp,72,prac,,,1,,,2,
null,,1512207,HierDy9cfsawef,dex8u744g4,ms1000267,feedback,,null,,na,prac,,,,,,,
848,,1513064,HierDy9cfsawef,dex8u744g4,ms1000267,prac,,72,img/image4.bmp,72,prac,,,1,,,2,
null,,1513823,HierDy9cfsawef,dex8u744g4,ms1000267,feedback,,null,,na,prac,,,,,,,
881,,1514720,HierDy9cfsawef,dex8u744g4,ms1000267,prac,,74,img/image3.bmp,74,prac,,,1,,,2,
null,,1515479,HierDy9cfsawef,dex8u744g4,ms1000267,feedback,,null,,na,prac,,,,,,,
594,,1516088,HierDy9cfsawef,dex8u744g4,ms1000267,prac,,75,img/image5.bmp,75,prac,,,1,,,2,
null,,1516847,HierDy9cfsawef,dex8u744g4,ms1000267,feedback,,null,,na,prac,,,,,,,
457,,1517313,HierDy9cfsawef,dex8u744g4,ms1000267,prac,,72,img/image4.bmp,72,prac,,,1,,,2,
null,,1518071,HierDy9cfsawef,dex8u744g4,ms1000267,feedback,,null,,na,prac,,,,,,,
14898,,1532977,HierDy9cfsawef,dex8u744g4,ms1000267,,,,,,prac,,,,,,,
7686,,1540680,HierDy9cfsawef,dex8u744g4,ms1000267,,,32,,,,,,,,,,
89113,,1629802,HierDy9cfsawef,dex8u744g4,ms1000267,,,,,,prac,,,,,,,
654,,1630466,HierDy9cfsawef,dex8u744g4,ms1000267,rl,,70,img/p_c_check.png,83,test,2,1,0,,,,shape;color;pattern
null,,1631476,HierDy9cfsawef,dex8u744g4,ms1000267,feedback,,null,,na,test,,,,,,,
582,,1632066,HierDy9cfsawef,dex8u744g4,ms1000267,rl,,72,img/o_c_check.png,70,test,4,NaN,0,,,,shape;color;pattern
null,,1633082,HierDy9cfsawef,dex8u744g4,ms1000267,feedback,,null,,na,test,,,,,,,
567,,1633658,HierDy9cfsawef,dex8u744g4,ms1000267,rl,,72,img/o_t_check.png,76,test,8,NaN,0,,,,shape;color;pattern
null,,1634667,HierDy9cfsawef,dex8u744g4,ms1000267,feedback,,null,,na,test,,,,,,,
271,,1634945,HierDy9cfsawef,dex8u744g4,ms1000267,rl,,74,img/o_t_stripes.png,75,test,7,NaN,0,,,,shape;color;pattern
null,,1635954,HierDy9cfsawef,dex8u744g4,ms1000267,feedback,,null,,na,test,,,,,,,
232,,1636194,HierDy9cfsawef,dex8u744g4,ms1000267,rl,,72,img/p_t_stripes.png,72,test,5,NaN,1,,,,shape;color;pattern
null,,1637203,HierDy9cfsawef,dex8u744g4,ms1000267,feedback,,null,,na,test,,,,,,,
734,,1637952,HierDy9cfsawef,dex8u744g4,ms1000267,rl,,74,img/p_c_stripes.png,65,test,1,NaN,0,,,,shape;color;pattern
null,,1638969,HierDy9cfsawef,dex8u744g4,ms1000267,feedback,,null,,na,test,,,,,,,
576,,1639561,HierDy9cfsawef,dex8u744g4,ms1000267,rl,,72,img/p_t_check.png,74,test,6,NaN,0,,,,shape;color;pattern
null,,1640570,HierDy9cfsawef,dex8u744g4,ms1000267,feedback,,null,,na,test,,,,,,,
935,,1641521,HierDy9cfsawef,dex8u744g4,ms1000267,rl,,75,img/p_t_check.png,74,test,6,NaN,0,,,,shape;color;pattern
